Accelerometer_Gx,Accelerometer_Gy,Accelerometer_Gz,Accelerometer_X,Accelerometer_Y,Accelerometer_Z,Gyroscope_Z,Gyroscope_X,Gyroscope_Y
0,0,10.017339706420898,-0.004399999976158142,0.004399999976158142,0.019600000232458115,-0.017999999727163266,-0.07300000130214508,0.1070000026395942
0,0,10.02691650390625,-0.0010999999940395355,0.00029999998514540493,0.029399998486042023,-0.017999999727163266,-0.07300000130214508,0.1070000026395942
0,0,10.02691650390625,-0.0010999999940395355,0.00029999998514540493,0.029399998486042023,0.04200000047506539,-0.012000000373951061,-0.0749999994190225
0,0,10.017339706420898,-0.001500000013038516,0.00019999999494757503,0.019600000232458115,-0.1400000015835513,0.048000001495804245,0.1070000026395942
0,0,10.017339706420898,-0.00139999995008111,0.0005999999702908099,0.019600000232458115,0.10299999973573276,0.048000001495804245,-0.0749999994190225
0,0,10.02691650390625,-0.0010999999940395355,0.00029999998514540493,0.019600000232458115,-0.017999999727163266,-0.07300000130214508,-0.01400000015835513
0,0,10.017339706420898,-0.00139999995008111,0.00029999998514540493,0.009800000116229057,0.10299999973573276,0.048000001495804245,-0.01400000015835513
0,0,10.017339706420898,-0.0010999999940395355,0,0.019600000232458115,-0.07900000232288394,-0.012000000373951061,0.04600000004387353
0,0,10.017339706420898,-0.0011999999405816197,0.00029999998514540493,0.029399998486042023,0.10299999973573276,0.048000001495804245,0.04600000004387353
0,0,10.017339706420898,-0.0008999999845400453,0,0.019600000232458115,0.10299999973573276,-0.012000000373951061,0.04600000004387353
0,0,10.017339706420898,-0.0009999999310821295,-0.00019999999494757503,0.019600000232458115,-0.07900000232288394,-0.012000000373951061,0.04600000004387353
-0.009576806798577309,0,10.017339706420898,-0.0008999999845400453,0,0.019600000232458115,-0.017999999727163266,-0.07300000130214508,0.04600000004387353
-0.009576806798577309,0,10.017339706420898,-0.0010999999940395355,0,0.009800000116229057,0.04200000047506539,-0.012000000373951061,0.04600000004387353
0,0,10.007762908935547,-0.0010999999940395355,0,0.009800000116229057,-0.07900000232288394,-0.012000000373951061,-0.0749999994190225
0,0,10.007762908935547,-0.0010999999940395355,0.00009999999747378752,0.009800000116229057,-0.017999999727163266,0.048000001495804245,-0.01400000015835513
0,0,10.007762908935547,-0.0008999999845400453,0.00019999999494757503,0.009800000116229057,0.04200000047506539,-0.07300000130214508,-0.01400000015835513
0,0,10.007762908935547,-0.0008999999845400453,0,0,-0.017999999727163266,-0.07300000130214508,-0.0749999994190225
0,0,10.007762908935547,-0.0008999999845400453,0,0,-0.017999999727163266,-0.07300000130214508,-0.0749999994190225
0,0,10.007762908935547,-0.0011999999405816197,0,0.009800000116229057,-0.1400000015835513,-0.19499999315337319,-0.01400000015835513
0,0,10.007762908935547,-0.0015999999595806003,0.00039999998989515007,0.009800000116229057,-0.017999999727163266,0.048000001495804245,0.04600000004387353
0,0,9.998186111450195,-0.001500000013038516,0.00039999998989515007,0.009800000116229057,-0.1400000015835513,-0.012000000373951061,-0.01400000015835513
0,0,10.007762908935547,-0.00139999995008111,0.000699999975040555,0,-0.017999999727163266,0.048000001495804245,0.04600000004387353
0,0,10.007762908935547,-0.0013000000035390258,0.0007999999797903001,0.009800000116229057,0.04200000047506539,-0.07300000130214508,-0.01400000015835513
0,0,9.998186111450195,-0.00139999995008111,0.0005999999702908099,0.009800000116229057,-0.07900000232288394,-0.012000000373951061,-0.01400000015835513
0,0,9.998186111450195,-0.00139999995008111,0.0008999999845400453,0,-0.017999999727163266,0.048000001495804245,0.04600000004387353
0,0,9.998186111450195,-0.0011999999405816197,0.0007999999797903001,0.009800000116229057,-0.017999999727163266,-0.012000000373951061,0.04600000004387353
0,0,9.998186111450195,-0.0008999999845400453,0.000699999975040555,-0.009800000116229057,0.04200000047506539,0.10900000075647161,-0.01400000015835513
0,0,9.988609313964844,-0.0013000000035390258,0.0009999999310821295,-0.009800000116229057,-0.07900000232288394,-0.13400000056281244,0.04600000004387353
0,0,9.988609313964844,-0.0008999999845400453,0.0007999999797903001,-0.009800000116229057,0.04200000047506539,0.10900000075647161,-0.01400000015835513
0,0,9.988609313964844,-0.0004999999655410647,0.000699999975040555,-0.009800000116229057,0.04200000047506539,-0.012000000373951061,-0.01400000015835513
0,0,9.988609313964844,-0.0004999999655410647,0.0004999999655410647,0,0.04200000047506539,0.10900000075647161,0.1070000026395942
0,0,9.998186111450195,-0.0004999999655410647,0.0004999999655410647,0,0.04200000047506539,0.10900000075647161,0.1070000026395942
0,0,9.988609313964844,-0.0004999999655410647,0.00009999999747378752,0,-0.07900000232288394,-0.012000000373951061,0.04600000004387353
0,0,9.998186111450195,-0.0005999999702908099,0.00029999998514540493,0,-0.017999999727163266,0.10900000075647161,0.04600000004387353
0,0,9.998186111450195,-0.00029999998514540493,0.00039999998989515007,0,-0.07900000232288394,-0.012000000373951061,-0.0749999994190225
0,0,9.998186111450195,-0.00029999998514540493,0.0005999999702908099,0,-0.017999999727163266,0.10900000075647161,-0.01400000015835513
0,0,9.998186111450195,0,0.0005999999702908099,-0.009800000116229057,-0.017999999727163266,0.10900000075647161,-0.01400000015835513
0,0,9.988609313964844,0.00009999999747378752,0.000699999975040555,-0.009800000116229057,-0.017999999727163266,0.048000001495804245,0.04600000004387353
0,0,9.988609313964844,0.00019999999494757503,0.000699999975040555,-0.009800000116229057,-0.017999999727163266,-0.07300000130214508,-0.0749999994190225
0,0,9.988609313964844,0,0.000699999975040555,-0.009800000116229057,-0.1400000015835513,-0.012000000373951061,-0.0749999994190225
0,0,9.988609313964844,0,0.0009999999310821295,-0.009800000116229057,0.04200000047506539,-0.012000000373951061,0.04600000004387353
0,0,9.998186111450195,0,0.0008999999845400453,-0.009800000116229057,-0.07900000232288394,-0.012000000373951061,-0.0749999994190225
0,0,9.988609313964844,0,0.0010999999940395355,-0.009800000116229057,-0.017999999727163266,-0.07300000130214508,0.04600000004387353
0,0,9.988609313964844,-0.00029999998514540493,0.0010999999940395355,-0.009800000116229057,-0.017999999727163266,0.048000001495804245,0.16800000190026157
0,0,9.988609313964844,-0.00009999999747378752,0.0010999999940395355,-0.009800000116229057,0.2250000115972807,-0.07300000130214508,-0.01400000015835513
0,0,9.988609313964844,-0.00039999998989515007,0.0004999999655410647,-0.009800000116229057,-0.07900000232288394,-0.012000000373951061,0.04600000004387353
0,0,9.988609313964844,-0.00039999998989515007,0.0005999999702908099,-0.009800000116229057,0.10299999973573276,0.048000001495804245,-0.01400000015835513
0,0,9.988609313964844,-0.00029999998514540493,0.00039999998989515007,0,0.10299999973573276,0.048000001495804245,-0.01400000015835513
0,0,9.988609313964844,-0.00009999999747378752,0.00009999999747378752,-0.009800000116229057,-0.017999999727163266,0.10900000075647161,-0.01400000015835513
0,0,9.988609313964844,0.00009999999747378752,0.00029999998514540493,-0.009800000116229057,-0.07900000232288394,0.048000001495804245,-0.0749999994190225
0,0,9.988609313964844,0,0.00019999999494757503,-0.009800000116229057,0.04200000047506539,-0.07300000130214508,-0.0749999994190225
0,0,9.998186111450195,-0.00019999999494757503,0.00009999999747378752,0,0.04200000047506539,-0.07300000130214508,-0.01400000015835513
0,0,9.998186111450195,-0.00019999999494757503,0,0,0.04200000047506539,-0.012000000373951061,-0.01400000015835513
0,0,9.988609313964844,-0.00029999998514540493,0,-0.009800000116229057,-0.017999999727163266,-0.07300000130214508,0.04600000004387353
0,0,9.988609313964844,-0.0004999999655410647,0,-0.009800000116229057,-0.07900000232288394,0.048000001495804245,0.04600000004387353
0,0,9.988609313964844,-0.00029999998514540493,0.00019999999494757503,-0.009800000116229057,0.04200000047506539,-0.07300000130214508,-0.0749999994190225
0,0,9.988609313964844,-0.00029999998514540493,0.00019999999494757503,-0.009800000116229057,0.04200000047506539,-0.07300000130214508,-0.0749999994190225
0,0,9.988609313964844,-0.00039999998989515007,0.00029999998514540493,-0.009800000116229057,0.04200000047506539,0.048000001495804245,0.04600000004387353
0,0,9.988609313964844,-0.00029999998514540493,0.00009999999747378752,-0.009800000116229057,-0.017999999727163266,0.048000001495804245,0.04600000004387353
0,0,9.988609313964844,-0.00019999999494757503,0.00019999999494757503,-0.009800000116229057,-0.017999999727163266,0.048000001495804245,-0.01400000015835513
0,0,9.988609313964844,-0.00009999999747378752,0.00019999999494757503,-0.009800000116229057,-0.07900000232288394,0.048000001495804245,-0.01400000015835513
0,0,9.988609313964844,0,0.00039999998989515007,-0.019600000232458115,-0.1400000015835513,-0.012000000373951061,-0.01400000015835513
0,0,9.998186111450195,0,0.0007999999797903001,0,-0.07900000232288394,0.048000001495804245,-0.01400000015835513
0,0,9.988609313964844,0,0.0009999999310821295,-0.009800000116229057,-0.017999999727163266,-0.012000000373951061,-0.0749999994190225
0,0,9.988609313964844,0,0.0009999999310821295,-0.009800000116229057,-0.1400000015835513,0.048000001495804245,0.1070000026395942
0,0,9.988609313964844,0.00009999999747378752,0.0013000000035390258,-0.009800000116229057,-0.07900000232288394,-0.07300000130214508,-0.0749999994190225
0,0,9.988609313964844,-0.00009999999747378752,0.0015999999595806003,-0.009800000116229057,-0.1400000015835513,0.048000001495804245,-0.0749999994190225
0,0,9.988609313964844,0,0.0017999999690800905,-0.009800000116229057,-0.07900000232288394,0.10900000075647161,-0.0749999994190225
0,0,9.988609313964844,0.00019999999494757503,0.001999999862164259,-0.009800000116229057,-0.017999999727163266,-0.07300000130214508,-0.01400000015835513
0,0,9.988609313964844,0,0.001999999862164259,0,0.04200000047506539,-0.012000000373951061,-0.0749999994190225
0,0,9.988609313964844,0,0.001999999862164259,0,0.04200000047506539,0.10900000075647161,-0.01400000015835513
0,0,9.998186111450195,0,0.0017999999690800905,0.009800000116229057,0.04200000047506539,0.16999999334703236,0.1070000026395942
0,0,9.998186111450195,0,0.0016999999061226845,0,-0.1400000015835513,-0.012000000373951061,-0.0749999994190225
0,0,9.988609313964844,0,0.0016999999061226845,0,-0.017999999727163266,0.048000001495804245,0.04600000004387353
0,0,9.988609313964844,0,0.0015999999595806003,0,-0.1400000015835513,-0.012000000373951061,-0.0749999994190225
0,0,9.988609313964844,0,0.0015999999595806003,0,0.04200000047506539,0.048000001495804245,0.04600000004387353
0,0,9.988609313964844,0,0.001500000013038516,0,0.04200000047506539,0.048000001495804245,-0.0749999994190225
0,0,9.988609313964844,0,0.001500000013038516,0,-0.017999999727163266,-0.012000000373951061,-0.01400000015835513
0,0,9.988609313964844,0,0.00139999995008111,0,0.04200000047506539,-0.012000000373951061,0.04600000004387353
0,0,9.988609313964844,0,0.00139999995008111,0,-0.017999999727163266,-0.012000000373951061,-0.01400000015835513
0,0,9.988609313964844,0,0.0013000000035390258,0,-0.017999999727163266,0.048000001495804245,0.04600000004387353
0,0,9.988609313964844,0,0.0013000000035390258,0,-0.07900000232288394,0.10900000075647161,-0.01400000015835513
0,0,9.988609313964844,0,0.0011999999405816197,0,-0.017999999727163266,-0.012000000373951061,0.1070000026395942
0,0,9.988609313964844,0,0.0011999999405816197,0,0.04200000047506539,0.048000001495804245,-0.0749999994190225
0,0,9.988609313964844,0,0.0010999999940395355,0,0.10299999973573276,-0.012000000373951061,-0.01400000015835513
0,0,9.988609313964844,0,0.0010999999940395355,0,-0.1400000015835513,-0.012000000373951061,-0.01400000015835513
0,0,9.988609313964844,0,0.0009999999310821295,0,-0.07900000232288394,0.048000001495804245,0.04600000004387353
0,0,9.988609313964844,0,0.0009999999310821295,0,-0.07900000232288394,-0.012000000373951061,0.04600000004387353
0,0,9.988609313964844,0,0.0008999999845400453,0,-0.017999999727163266,-0.13400000056281244,0.04600000004387353
0,0,9.988609313964844,0,0.0008999999845400453,0,-0.1400000015835513,-0.012000000373951061,0.04600000004387353
0,0,9.988609313964844,0,0.0008999999845400453,0,-0.1400000015835513,-0.07300000130214508,-0.01400000015835513
0,0,9.988609313964844,0,0.0007999999797903001,0,-0.017999999727163266,0.10900000075647161,0.04600000004387353
-0.009576806798577309,0,9.988609313964844,0,0.0007999999797903001,0,-0.017999999727163266,-0.012000000373951061,0.04600000004387353
0,0,9.988609313964844,0,0.0007999999797903001,0,-0.44500000455699473,0.048000001495804245,0.04600000004387353
0,0,9.988609313964844,0,0.0007999999797903001,0,-0.20099999417411205,-0.07300000130214508,0.04600000004387353
0,0,9.988609313964844,0,0.000699999975040555,0,0.10299999973573276,0.10900000075647161,-0.0749999994190225
0,0,9.988609313964844,0,0.000699999975040555,0,0.407999989368963,0.10900000075647161,-0.13600000534979648
0,0,9.988609313964844,0,0.000699999975040555,0,-0.017999999727163266,0.10900000075647161,-0.01400000015835513
0,0,9.988609313964844,0,0.000699999975040555,0,0.04200000047506539,-0.07300000130214508,-0.01400000015835513
0,0,9.988609313964844,0,0.0005999999702908099,0,-0.017999999727163266,-0.07300000130214508,-0.01400000015835513
0,0,9.988609313964844,0,0.0005999999702908099,0,-0.017999999727163266,0.048000001495804245,-0.01400000015835513
0,0,9.988609313964844,0,0.0005999999702908099,0,-0.017999999727163266,-0.012000000373951061,-0.0749999994190225
0,0,9.988609313964844,0,0.0005999999702908099,0,-0.1400000015835513,-0.012000000373951061,0.1070000026395942
-0.009576806798577309,0,9.988609313964844,0,0.0004999999655410647,0,0.04200000047506539,0.048000001495804245,-0.0749999994190225
0,0,9.988609313964844,0,0.0004999999655410647,0,0.04200000047506539,-0.012000000373951061,-0.0749999994190225
0,0,9.988609313964844,0,0.0004999999655410647,0,-0.017999999727163266,-0.07300000130214508,0.04600000004387353
0,0,9.988609313964844,0,0.0004999999655410647,0,0.04200000047506539,-0.012000000373951061,-0.0749999994190225
0,0,9.988609313964844,0,0.00039999998989515007,0,-0.017999999727163266,-0.012000000373951061,-0.0749999994190225
0,0,9.988609313964844,0,0.00039999998989515007,0,-0.017999999727163266,-0.012000000373951061,-0.0749999994190225
0,0,9.988609313964844,0,0.00039999998989515007,0,0.04200000047506539,-0.012000000373951061,-0.0749999994190225
0,0,9.988609313964844,0,0.00039999998989515007,0.009800000116229057,0.04200000047506539,0.048000001495804245,0.04600000004387353
0,0,9.998186111450195,0,0.00039999998989515007,0.009800000116229057,0.04200000047506539,-0.012000000373951061,-0.01400000015835513
0,0,9.998186111450195,0,0.00029999998514540493,0.009800000116229057,-0.017999999727163266,0.048000001495804245,0.04600000004387353
0,0,9.998186111450195,0,0.00029999998514540493,0.009800000116229057,-0.017999999727163266,-0.012000000373951061,0.04600000004387353
0,0,9.988609313964844,0,0.00029999998514540493,0,0.04200000047506539,0.10900000075647161,-0.01400000015835513
-0.009576806798577309,0,9.988609313964844,0,0.00029999998514540493,0,0.04200000047506539,0.10900000075647161,-0.01400000015835513
0,0,9.988609313964844,0,0.00029999998514540493,0,0.04200000047506539,0.16999999334703236,-0.01400000015835513
0,0,9.979032516479492,0,0.00029999998514540493,0,-0.017999999727163266,0.10900000075647161,-0.01400000015835513
0,0,9.979032516479492,0,0.00029999998514540493,-0.009800000116229057,0.04200000047506539,-0.13400000056281244,-0.0749999994190225
0,0,9.979032516479492,0,0.00029999998514540493,-0.009800000116229057,-0.07900000232288394,-0.012000000373951061,0.04600000004387353
0,0,9.988609313964844,0,0.00029999998514540493,-0.009800000116229057,-0.017999999727163266,-0.012000000373951061,-0.01400000015835513
0,0,9.988609313964844,0,0.00019999999494757503,0,0.16400000566650674,0.048000001495804245,-0.01400000015835513
0,0,9.988609313964844,0,0.00019999999494757503,-0.009800000116229057,-0.017999999727163266,0.10900000075647161,0.04600000004387353
0,0,9.988609313964844,0,0.00019999999494757503,-0.009800000116229057,0.16400000566650674,-0.07300000130214508,-0.01400000015835513
0,0,9.988609313964844,0,0.00019999999494757503,0,-0.07900000232288394,-0.07300000130214508,0.04600000004387353
0,0,9.988609313964844,0,0.00019999999494757503,0,0.10299999973573276,0.10900000075647161,-0.01400000015835513
0,0,9.988609313964844,0,0.00019999999494757503,0,0.04200000047506539,-0.012000000373951061,-0.01400000015835513
0,0,9.988609313964844,0,0.00019999999494757503,0,-0.017999999727163266,-0.012000000373951061,0.04600000004387353
0,0,9.988609313964844,0,0.00019999999494757503,0,-0.017999999727163266,0.048000001495804245,-0.01400000015835513
0,0,9.988609313964844,0,0.00019999999494757503,0,0.04200000047506539,-0.012000000373951061,-0.0749999994190225
0,0,9.988609313964844,0,0.00019999999494757503,0,-0.017999999727163266,-0.012000000373951061,-0.01400000015835513
0,0,9.988609313964844,0,0.00019999999494757503,0,-0.017999999727163266,0.048000001495804245,-0.01400000015835513
0,0,9.988609313964844,0,0.00009999999747378752,0,0.04200000047506539,-0.07300000130214508,-0.0749999994190225
0,0,9.988609313964844,0,0.00009999999747378752,0,-0.1400000015835513,0.10900000075647161,0.04600000004387353
0,0,9.988609313964844,0,0.00009999999747378752,0,0.16400000566650674,-0.012000000373951061,-0.0749999994190225
0,0,9.988609313964844,0,0.00009999999747378752,0,0.2250000115972807,0.048000001495804245,-0.01400000015835513
0,0,9.988609313964844,0,0.00009999999747378752,0,0.04200000047506539,-0.07300000130214508,-0.01400000015835513
0,0,9.988609313964844,0,0.00009999999747378752,0,0.10299999973573276,-0.012000000373951061,-0.0749999994190225
0,0,9.988609313964844,0,0.00009999999747378752,0.009800000116229057,-0.07900000232288394,0.10900000075647161,-0.01400000015835513
0,0,9.988609313964844,0,0.00009999999747378752,0,-0.017999999727163266,-0.012000000373951061,-0.0749999994190225
0,0,9.988609313964844,0,0.00009999999747378752,0,-0.1400000015835513,-0.07300000130214508,-0.01400000015835513
0,0,9.988609313964844,0,0.00009999999747378752,0,-0.07900000232288394,-0.012000000373951061,-0.01400000015835513
0,0,9.988609313964844,0,0.00009999999747378752,0,0.10299999973573276,0.048000001495804245,-0.01400000015835513
0,0,9.988609313964844,0,0.00009999999747378752,0,-0.20099999417411205,0.048000001495804245,0.04600000004387353
0,0,9.988609313964844,0,0.00009999999747378752,0,-0.26200000010488605,-0.07300000130214508,-0.01400000015835513
0,0,9.988609313964844,0,0.00009999999747378752,0,-0.017999999727163266,0.16999999334703236,-0.01400000015835513
0,0,9.988609313964844,0,0.00009999999747378752,0,0.04200000047506539,-0.07300000130214508,-0.13600000534979648
0,0,9.988609313964844,0,0.00009999999747378752,0,0.16400000566650674,0.048000001495804245,-0.01400000015835513
0,0,9.988609313964844,0,0.00009999999747378752,0,-0.07900000232288394,-0.012000000373951061,-0.0749999994190225
0,0,9.988609313964844,0,0.00009999999747378752,0,-0.07900000232288394,0.048000001495804245,-0.01400000015835513
0,0,9.988609313964844,0,0.00009999999747378752,0,-0.017999999727163266,0.048000001495804245,0.16800000190026157
0,0,9.988609313964844,0,0.00009999999747378752,0,-0.017999999727163266,0.048000001495804245,-0.0749999994190225
0,0,9.988609313964844,0,0.00009999999747378752,0,-0.017999999727163266,0.048000001495804245,-0.0749999994190225
0,0,9.979032516479492,0,0,-0.009800000116229057,-0.07900000232288394,-0.012000000373951061,-0.01400000015835513
0,0,9.979032516479492,0,0,-0.009800000116229057,-0.017999999727163266,-0.012000000373951061,-0.01400000015835513
0,0,9.979032516479492,0,0,-0.009800000116229057,-0.017999999727163266,-0.012000000373951061,0.1070000026395942
0,0,9.979032516479492,0,0,0.009800000116229057,0.04200000047506539,-0.07300000130214508,-0.01400000015835513
0,0,9.998186111450195,0,0,0.009800000116229057,-0.07900000232288394,-0.07300000130214508,-0.01400000015835513
0,0,9.998186111450195,0,0,0.009800000116229057,-0.07900000232288394,-0.012000000373951061,-0.01400000015835513
0,0,9.988609313964844,0,0,0,0.10299999973573276,-0.07300000130214508,-0.13600000534979648
0,0,9.988609313964844,0,0,0,-0.017999999727163266,-0.012000000373951061,-0.01400000015835513
0,0,9.998186111450195,0,0,0.009800000116229057,-0.07900000232288394,-0.012000000373951061,-0.0749999994190225
0,0,9.998186111450195,0,0,0.009800000116229057,-0.07900000232288394,0.048000001495804245,0.1070000026395942
0,0,9.998186111450195,0,0,0.009800000116229057,-0.017999999727163266,0.048000001495804245,0.04600000004387353
0,0,9.998186111450195,0,0,0,-0.017999999727163266,0.048000001495804245,0.04600000004387353
0,0,9.998186111450195,0,0,0,-0.07900000232288394,0.048000001495804245,-0.0749999994190225
0,0,9.998186111450195,0,0,0,-0.017999999727163266,-0.07300000130214508,-0.01400000015835513
0,0,9.988609313964844,0,0,0,-0.07900000232288394,0.048000001495804245,-0.01400000015835513
0,0,9.988609313964844,0,0,-0.009800000116229057,0.10299999973573276,-0.012000000373951061,0.04600000004387353
0,0,9.988609313964844,0,0,-0.009800000116229057,-0.017999999727163266,0.048000001495804245,-0.01400000015835513
0,0,9.988609313964844,0,0,-0.009800000116229057,-0.017999999727163266,0.048000001495804245,-0.01400000015835513
0,0,9.988609313964844,0,0,-0.009800000116229057,-0.07900000232288394,0.048000001495804245,0.1070000026395942
0,0,9.988609313964844,0,0,-0.009800000116229057,-0.1400000015835513,-0.07300000130214508,0.04600000004387353
0,0,9.988609313964844,0,0,-0.009800000116229057,-0.017999999727163266,-0.07300000130214508,-0.01400000015835513
0,0,9.988609313964844,0,0,-0.009800000116229057,-0.017999999727163266,0.048000001495804245,-0.01400000015835513
0,0,9.988609313964844,0,0,-0.009800000116229057,-0.017999999727163266,-0.012000000373951061,-0.01400000015835513
0,0,9.988609313964844,0,0,-0.009800000116229057,-0.017999999727163266,-0.012000000373951061,-0.01400000015835513
0,0,9.988609313964844,0,0,-0.009800000116229057,-0.1400000015835513,0.048000001495804245,0.04600000004387353
0,0,9.988609313964844,0,0,-0.009800000116229057,-0.017999999727163266,0.048000001495804245,-0.01400000015835513
0,0,9.988609313964844,0,0,-0.009800000116229057,-0.017999999727163266,0.16999999334703236,0.1070000026395942
0,0,9.988609313964844,0,0,-0.009800000116229057,0.04200000047506539,-0.07300000130214508,0.1070000026395942
0,0,9.988609313964844,0,0,-0.009800000116229057,0.10299999973573276,-0.012000000373951061,-0.01400000015835513
0,0,9.998186111450195,0,0,-0.009800000116229057,-0.017999999727163266,-0.07300000130214508,-0.01400000015835513
0,0,9.988609313964844,0,0,0,0.04200000047506539,-0.012000000373951061,-0.01400000015835513
0,0,9.988609313964844,0,0,-0.009800000116229057,-0.07900000232288394,0.048000001495804245,0.04600000004387353
0,0,9.988609313964844,0,0,-0.009800000116229057,-0.1400000015835513,0.10900000075647161,0.04600000004387353
0,0,9.988609313964844,0,0,-0.009800000116229057,0.04200000047506539,-0.07300000130214508,-0.0749999994190225
0,0,9.988609313964844,0,0,-0.009800000116229057,0.04200000047506539,-0.13400000056281244,0.04600000004387353
0,0,9.988609313964844,0,0,-0.009800000116229057,-0.017999999727163266,-0.012000000373951061,-0.0749999994190225
0,0,9.988609313964844,0,0,-0.009800000116229057,-0.1400000015835513,-0.012000000373951061,-0.01400000015835513
0,0,9.998186111450195,0,0,0,-0.017999999727163266,0.048000001495804245,-0.01400000015835513
0,0,9.998186111450195,0,0,0,0.10299999973573276,-0.07300000130214508,0.04600000004387353
0,0,9.998186111450195,0,0,0,-0.07900000232288394,-0.07300000130214508,-0.01400000015835513
0,0,9.998186111450195,0,0,0,0.10299999973573276,0.048000001495804245,-0.0749999994190225
0,0,9.998186111450195,0,0,0,0.10299999973573276,0.048000001495804245,-0.13600000534979648
0,0,9.998186111450195,0,0,0,-0.07900000232288394,-0.012000000373951061,0.04600000004387353
0,0,9.998186111450195,0,0,0,0.10299999973573276,-0.012000000373951061,-0.01400000015835513
0,0,9.998186111450195,0,0,0,-0.07900000232288394,-0.012000000373951061,0.04600000004387353
0,0,9.998186111450195,0,0,0,0.10299999973573276,-0.07300000130214508,-0.01400000015835513
0,0,9.998186111450195,0,0,0,-0.07900000232288394,0.10900000075647161,0.04600000004387353
0,0,9.988609313964844,0,0,-0.009800000116229057,0.10299999973573276,-0.07300000130214508,-0.01400000015835513
0,0,9.988609313964844,0,0,-0.009800000116229057,-0.017999999727163266,-0.07300000130214508,0.04600000004387353
0,0,9.998186111450195,0,0,0,0.10299999973573276,-0.07300000130214508,-0.01400000015835513
0,0,9.988609313964844,0,0,-0.009800000116229057,-0.017999999727163266,0.10900000075647161,-0.01400000015835513
0,0,9.988609313964844,0,0,-0.009800000116229057,-0.017999999727163266,-0.07300000130214508,0.1070000026395942
0,0,9.998186111450195,0,0,-0.009800000116229057,0.04200000047506539,0.048000001495804245,-0.0749999994190225
0,0,9.998186111450195,0,0,0,-0.07900000232288394,-0.012000000373951061,-0.01400000015835513
0,0,9.998186111450195,0,0,0,-0.20099999417411205,0.048000001495804245,-0.01400000015835513
0,0,9.998186111450195,0,0,0,0.04200000047506539,0.048000001495804245,0.04600000004387353
0,0,9.988609313964844,0,0,0,-0.017999999727163266,0.048000001495804245,0.04600000004387353
0,0,9.988609313964844,0,0,-0.009800000116229057,-0.017999999727163266,-0.012000000373951061,-0.0749999994190225
0,0,9.988609313964844,0,0,-0.009800000116229057,-0.017999999727163266,-0.012000000373951061,-0.0749999994190225
0,0,9.998186111450195,0,0,0,-0.32299999269544677,-0.012000000373951061,0.1070000026395942
0,0,9.988609313964844,0,0,-0.009800000116229057,0.04200000047506539,-0.07300000130214508,0.04600000004387353
0,0,9.988609313964844,0,0,-0.009800000116229057,-0.07900000232288394,-0.07300000130214508,-0.13600000534979648
0,0,9.998186111450195,0,0,0,0.04200000047506539,0.048000001495804245,-0.01400000015835513
0,0,9.988609313964844,0,0,-0.009800000116229057,-0.07900000232288394,-0.07300000130214508,-0.0749999994190225
0,0,9.998186111450195,0,0,0,0.10299999973573276,0.048000001495804245,-0.01400000015835513
0,0,9.998186111450195,0,0,0,-0.1400000015835513,-0.012000000373951061,0.04600000004387353
0,0,9.988609313964844,0,0,-0.009800000116229057,0.04200000047506539,-0.012000000373951061,-0.01400000015835513
0,0,9.988609313964844,0,0,-0.009800000116229057,-0.017999999727163266,-0.012000000373951061,-0.01400000015835513
0,0,9.998186111450195,0,0,0.009800000116229057,-0.017999999727163266,0.048000001495804245,-0.0749999994190225
0,0,9.988609313964844,0,0,-0.009800000116229057,-0.017999999727163266,-0.07300000130214508,0.04600000004387353
0,0,9.988609313964844,0,0,-0.009800000116229057,-0.017999999727163266,0.048000001495804245,-0.01400000015835513
0,0,9.998186111450195,0,0,0,-0.07900000232288394,0.048000001495804245,-0.0749999994190225
0,0,9.998186111450195,0,0,0,-0.07900000232288394,-0.012000000373951061,-0.01400000015835513
-0.009576806798577309,0,9.998186111450195,0,0,0,-0.07900000232288394,-0.07300000130214508,0.04600000004387353
0,0,9.998186111450195,0,0,0,-0.07900000232288394,-0.07300000130214508,0.04600000004387353
0,0,9.998186111450195,0,0,0,-0.1400000015835513,-0.012000000373951061,0.04600000004387353
0,0,9.998186111450195,0,0,0,-0.07900000232288394,-0.012000000373951061,-0.01400000015835513
0,0,9.998186111450195,0,0,0,0.16400000566650674,-0.07300000130214508,0.1070000026395942
0,0,9.998186111450195,0,0,0,-0.20099999417411205,-0.012000000373951061,0.1070000026395942
0,0,9.998186111450195,0,0,0,-0.017999999727163266,-0.012000000373951061,-0.01400000015835513
0,0,10.007762908935547,0,0,0.009800000116229057,-0.017999999727163266,0.048000001495804245,-0.01400000015835513
0,0,10.007762908935547,0,0,0.009800000116229057,-0.017999999727163266,0.048000001495804245,-0.01400000015835513
0,0,10.007762908935547,0,0,0.009800000116229057,-0.07900000232288394,0.048000001495804245,-0.01400000015835513
0,0,10.007762908935547,0,0,0.009800000116229057,-0.017999999727163266,-0.012000000373951061,-0.19699999794035722
0,0,9.998186111450195,0,0,0.009800000116229057,0.04200000047506539,-0.07300000130214508,0.1070000026395942
0,0,9.998186111450195,0,0,0,-0.017999999727163266,0.10900000075647161,-0.01400000015835513
0,0,9.998186111450195,0,0,0,-0.07900000232288394,0.048000001495804245,-0.01400000015835513
0,0,9.998186111450195,0,0,0,0.3469999967784022,-0.012000000373951061,-0.01400000015835513
0,0,10.007762908935547,0,0,0.009800000116229057,-0.07900000232288394,-0.012000000373951061,-0.0749999994190225
0,0,10.007762908935547,0,0,0.009800000116229057,-0.017999999727163266,-0.07300000130214508,0.04600000004387353
0,0,10.007762908935547,0,0,0.009800000116229057,-0.07900000232288394,0.10900000075647161,-0.01400000015835513
0,0,10.007762908935547,0,0,0.009800000116229057,0.10299999973573276,-0.012000000373951061,0.1070000026395942
0,0,10.007762908935547,0,0,0.009800000116229057,-0.07900000232288394,-0.012000000373951061,-0.01400000015835513
0,0,10.007762908935547,0,0,0.009800000116229057,-0.1400000015835513,-0.012000000373951061,0.04600000004387353
0,0,10.007762908935547,0,0,0.009800000116229057,0.04200000047506539,0.048000001495804245,0.04600000004387353
0,0,9.988609313964844,0,0,0.009800000116229057,-0.07900000232288394,-0.012000000373951061,-0.01400000015835513
0,0,9.998186111450195,0,0,0,-0.017999999727163266,-0.012000000373951061,-0.01400000015835513
0,0,10.007762908935547,0,0,0.009800000116229057,-0.017999999727163266,-0.07300000130214508,-0.0749999994190225
0,0,10.007762908935547,0,0,0.009800000116229057,-0.1400000015835513,-0.012000000373951061,0.04600000004387353
0,0,9.998186111450195,0,0,0,-0.07900000232288394,0.048000001495804245,-0.01400000015835513
0,0,9.998186111450195,0,0,0,0.04200000047506539,0.048000001495804245,0.04600000004387353
0,0,9.998186111450195,0,0,0,-0.017999999727163266,0.16999999334703236,0.04600000004387353
0,0,9.998186111450195,0,0,0,-0.07900000232288394,-0.012000000373951061,0.04600000004387353
-0.009576806798577309,0,9.998186111450195,0,0,0,0.10299999973573276,0.048000001495804245,-0.01400000015835513
0,0,9.998186111450195,0,0,0,-0.07900000232288394,0.10900000075647161,-0.01400000015835513
0,0,9.998186111450195,0,0,0,-0.017999999727163266,-0.012000000373951061,-0.01400000015835513
0,0,9.998186111450195,0,0,0,-0.017999999727163266,-0.012000000373951061,-0.01400000015835513
0,0,9.998186111450195,0,0,0,-0.1199999937343507,0.041000001416626686,-0.010999999647985701
0,0,10.007762908935547,0,0,0,0.06200000165415938,0.10199999734224074,-0.010999999647985701
0,0,10.007762908935547,0,0,0.009800000116229057,-0.1199999937343507,-0.019000000453128628,-0.010999999647985701
0,0,10.007762908935547,0,0,0.009800000116229057,0.06200000165415938,0.10199999734224074,-0.07199999890865307
0,0,10.007762908935547,0,0,0.009800000116229057,-0.05900000114378995,-0.019000000453128628,0.04900000055424296
0,0,10.007762908935547,0,0,0.009800000116229057,0.12299999424472013,0.041000001416626686,-0.07199999890865307
0,0,10.007762908935547,0,0,0.009800000116229057,-0.05900000114378995,-0.07999999804626934,-0.010999999647985701
0,0,9.998186111450195,0,0,0,0.0009999999964224499,-0.019000000453128628,-0.010999999647985701
0,0,9.998186111450195,0,0,0,0.06200000165415938,0.041000001416626686,-0.07199999890865307
0,0,9.998186111450195,0,0,0,0.0009999999964224499,-0.019000000453128628,0.04900000055424296
0,0,9.998186111450195,0,0,0,0.0009999999964224499,-0.019000000453128628,-0.07199999890865307
0,0,9.998186111450195,0,0,0,0.24500000610626807,-0.019000000453128628,-0.010999999647985701
0,0,9.998186111450195,0,0,0,0.0009999999964224499,0.041000001416626686,-0.07199999890865307
0,0,9.998186111450195,0,0,0,0.06200000165415938,-0.019000000453128628,-0.010999999647985701
0,0,10.007762908935547,0,0,0.009800000116229057,0.06200000165415938,-0.019000000453128628,-0.010999999647985701
0,0,10.007762908935547,0,0,0.009800000116229057,0.0009999999964224499,-0.07999999804626934,-0.010999999647985701
0,0,10.007762908935547,0,0,0.009800000116229057,0.06200000165415938,-0.019000000453128628,-0.010999999647985701
0,0,10.007762908935547,0,0,0.009800000116229057,-0.1199999937343507,0.041000001416626686,-0.010999999647985701
0,0,10.007762908935547,0,0,0.009800000116229057,-0.05900000114378995,0.10199999734224074,0.04900000055424296
0,0,10.007762908935547,0,0,0.009800000116229057,0.0009999999964224499,-0.019000000453128628,-0.07199999890865307
0,0,9.988609313964844,0,0,-0.009800000116229057,0.0009999999964224499,-0.019000000453128628,0.04900000055424296
0,0,9.998186111450195,0,0,0,-0.05900000114378995,-0.019000000453128628,-0.010999999647985701
0,0,9.998186111450195,0,0,0,0.0009999999964224499,0.041000001416626686,-0.07199999890865307
0,0,9.998186111450195,0,0,0,0.0009999999964224499,-0.07999999804626934,-0.07199999890865307
0,0,9.998186111450195,0,0,0,0.0009999999964224499,0.041000001416626686,-0.07199999890865307
0,0,9.998186111450195,0,0,0,0.06200000165415938,-0.07999999804626934,-0.010999999647985701
0,0,9.998186111450195,0,0,0,0.06200000165415938,0.10199999734224074,-0.010999999647985701
0,0,9.998186111450195,0,0,0,-0.1199999937343507,0.041000001416626686,-0.010999999647985701
0,0,9.998186111450195,0,0,0,-0.05900000114378995,-0.019000000453128628,0.04900000055424296
0,0,9.998186111450195,0,0,0,-0.05900000114378995,-0.07999999804626934,-0.010999999647985701
0,0,9.998186111450195,0,0,0,0.0009999999964224499,-0.019000000453128628,-0.07199999890865307
0,0,9.998186111450195,0,0,0,0.0009999999964224499,0.041000001416626686,0.04900000055424296
0,0,9.998186111450195,0,0,0,0.0009999999964224499,-0.019000000453128628,-0.010999999647985701
0,0,10.02691650390625,0,0,0.029399998486042023,0.0009999999964224499,-0.019000000453128628,0.04900000055424296
0,0,10.007762908935547,0,0,0.009800000116229057,-0.05900000114378995,-0.019000000453128628,-0.07199999890865307
0,0,9.998186111450195,0,0,0,0.0009999999964224499,0.041000001416626686,-0.010999999647985701
-0.009576806798577309,0,10.007762908935547,0,0,0.009800000116229057,0.06200000165415938,0.041000001416626686,-0.010999999647985701
0,0,10.007762908935547,0,0,0.009800000116229057,-0.05900000114378995,0.041000001416626686,0.10999999647985702
0,0,10.007762908935547,0,0,0.009800000116229057,0.0009999999964224499,-0.07999999804626934,-0.010999999647985701
0,0,9.998186111450195,0,0,0,0.0009999999964224499,-0.019000000453128628,0.04900000055424296
0,0,9.998186111450195,0,0,0,-0.05900000114378995,-0.019000000453128628,0.04900000055424296
0,0,9.988609313964844,0,0,0,0.0009999999964224499,0.041000001416626686,-0.010999999647985701
0,0,9.988609313964844,0,0,-0.009800000116229057,0.06200000165415938,0.041000001416626686,-0.010999999647985701
0,0,9.988609313964844,0,0,-0.009800000116229057,0.06200000165415938,-0.019000000453128628,0.04900000055424296
0,0,9.998186111450195,0,0,0,0.12299999424472013,0.10199999734224074,0.04900000055424296
0,0,10.007762908935547,0,0,0.009800000116229057,0.24500000610626807,0.041000001416626686,-0.010999999647985701
0,0,10.007762908935547,0,0,0.009800000116229057,-0.05900000114378995,-0.019000000453128628,0.10999999647985702
0,0,10.007762908935547,0,0,0.009800000116229057,0.0009999999964224499,0.041000001416626686,-0.010999999647985701
0,0,10.007762908935547,0,0,0,0.06200000165415938,0.10199999734224074,-0.010999999647985701
0,0,10.007762908935547,0,0,0,0.12299999424472013,0.10199999734224074,-0.010999999647985701
0,0,9.998186111450195,0,0,-0.009800000116229057,-0.1199999937343507,-0.07999999804626934,-0.010999999647985701
0,0,9.998186111450195,0,0,-0.009800000116229057,0.06200000165415938,-0.019000000453128628,-0.010999999647985701
0,0,10.007762908935547,0,0,0,-0.05900000114378995,0.041000001416626686,0.04900000055424296
0,0,10.007762908935547,0,0,0,-0.05900000114378995,0.041000001416626686,0.04900000055424296
0,0,9.998186111450195,0,0,-0.009800000116229057,0.0009999999964224499,-0.019000000453128628,0.04900000055424296
0,0,9.998186111450195,0,0,-0.009800000116229057,0.0009999999964224499,-0.019000000453128628,0.04900000055424296
0,0,9.998186111450195,0,0,-0.009800000116229057,-0.05900000114378995,-0.019000000453128628,-0.010999999647985701
0,0,9.998186111450195,0,0,-0.009800000116229057,0.06200000165415938,-0.14099999730693671,-0.010999999647985701
0,0,10.007762908935547,0,0,0,0.0009999999964224499,-0.07999999804626934,-0.07199999890865307
0,0,10.007762908935547,0,0,0,0.0009999999964224499,-0.07999999804626934,0.10999999647985702
0,0,10.007762908935547,0,0,0,0.06200000165415938,0.10199999734224074,0.10999999647985702
0,0,9.998186111450195,0,0,-0.009800000116229057,0.06200000165415938,-0.019000000453128628,-0.010999999647985701
0,0,9.998186111450195,0,0,-0.009800000116229057,0.06200000165415938,0.041000001416626686,0.04900000055424296
0,0,10.007762908935547,0,0,0,-0.1199999937343507,-0.019000000453128628,-0.010999999647985701
0,0,10.007762908935547,0,0,-0.009800000116229057,-0.05900000114378995,-0.07999999804626934,0.10999999647985702
0,0,9.998186111450195,0,0,-0.009800000116229057,0.0009999999964224499,0.041000001416626686,0.10999999647985702
0,0,9.998186111450195,0,0,-0.009800000116229057,0.06200000165415938,-0.019000000453128628,-0.010999999647985701
0,0,9.988609313964844,0,0,-0.019600000232458115,0.18400000017549412,0.041000001416626686,-0.13300000483942703
0,0,9.998186111450195,0,0,-0.009800000116229057,0.06200000165415938,-0.019000000453128628,0.04900000055424296
0,0,9.998186111450195,0,0,-0.009800000116229057,0.0009999999964224499,-0.019000000453128628,-0.07199999890865307
0,0,9.998186111450195,0,0,-0.009800000116229057,-0.05900000114378995,0.041000001416626686,-0.010999999647985701
0,0,9.998186111450195,0,0,-0.009800000116229057,0.0009999999964224499,0.041000001416626686,-0.010999999647985701
0,0,9.998186111450195,0,0,-0.009800000116229057,0.0009999999964224499,-0.07999999804626934,-0.13300000483942703
0,0,9.998186111450195,0,0,-0.009800000116229057,0.0009999999964224499,0.041000001416626686,0.10999999647985702
0,0,9.998186111450195,0,0,-0.009800000116229057,-0.05900000114378995,-0.019000000453128628,0.04900000055424296
0,0,9.998186111450195,0,0,-0.009800000116229057,0.0009999999964224499,0.041000001416626686,-0.010999999647985701
0,0,9.998186111450195,0,0,-0.009800000116229057,0.12299999424472013,-0.019000000453128628,-0.010999999647985701
0,0,9.998186111450195,0,0,-0.009800000116229057,-0.05900000114378995,-0.019000000453128628,0.04900000055424296
0,0,9.998186111450195,0,0,-0.009800000116229057,-0.05900000114378995,0.041000001416626686,0.10999999647985702
0,0,9.998186111450195,0,0,0,0.24500000610626807,0.10199999734224074,-0.07199999890865307
0,0,9.998186111450195,0,0,-0.009800000116229057,0.06200000165415938,-0.019000000453128628,-0.010999999647985701
0,0,9.988609313964844,0,0,-0.009800000116229057,-0.05900000114378995,-0.019000000453128628,0.04900000055424296
0,0,9.998186111450195,0,0,-0.009800000116229057,0.06200000165415938,-0.019000000453128628,0.04900000055424296
0,0,9.998186111450195,0,0,-0.009800000116229057,-0.05900000114378995,-0.019000000453128628,-0.010999999647985701
0,0,9.998186111450195,0,0,-0.009800000116229057,0.0009999999964224499,0.041000001416626686,-0.010999999647985701
0,0,9.998186111450195,0,0,-0.009800000116229057,-0.05900000114378995,-0.019000000453128628,0.04900000055424296
0,0,9.998186111450195,0,0,-0.009800000116229057,-0.1199999937343507,0.10199999734224074,0.04900000055424296
0,0,9.988609313964844,0,0,-0.019600000232458115,0.0009999999964224499,-0.07999999804626934,-0.010999999647985701
0,0,9.988609313964844,0,0,-0.019600000232458115,-0.05900000114378995,-0.019000000453128628,-0.010999999647985701
0,0,9.988609313964844,0,0,-0.019600000232458115,-0.05900000114378995,0.041000001416626686,0.10999999647985702
0,0,9.988609313964844,0,0,0,0.06200000165415938,-0.07999999804626934,-0.07199999890865307
0,0,10.007762908935547,0,0,-0.029399998486042023,0.06200000165415938,-0.019000000453128628,-0.010999999647985701
0,0,9.988609313964844,0,0,-0.019600000232458115,0.0009999999964224499,-0.019000000453128628,-0.07199999890865307
0,0,9.988609313964844,0,0,-0.019600000232458115,0.12299999424472013,-0.019000000453128628,-0.13300000483942703
0,0,9.988609313964844,0,0,-0.019600000232458115,-0.05900000114378995,-0.019000000453128628,-0.07199999890865307
0,0,9.998186111450195,0,0,-0.009800000116229057,0.12299999424472013,0.041000001416626686,-0.010999999647985701
0,0,9.988609313964844,0,0,-0.009800000116229057,0.12299999424472013,0.041000001416626686,0.04900000055424296
0,0,9.988609313964844,0,0,0,-0.1199999937343507,0.041000001416626686,-0.010999999647985701
0,0,9.988609313964844,0,0,0,0.06200000165415938,0.041000001416626686,-0.010999999647985701
0,0,10.007762908935547,0,0,0,-0.05900000114378995,0.041000001416626686,0.04900000055424296
0,0,10.007762908935547,0,0,0,-0.1199999937343507,0.041000001416626686,-0.010999999647985701
0,0,9.998186111450195,0,0,0.019600000232458115,-0.48599997595814165,-0.07999999804626934,0.17100000241063099
0,0,9.998186111450195,0,0,0,0.0009999999964224499,0.041000001416626686,-0.010999999647985701
0,0,9.988609313964844,0,0,0.009800000116229057,0.06200000165415938,0.041000001416626686,-0.010999999647985701
0,0,9.998186111450195,0,0,0.009800000116229057,-0.05900000114378995,0.10199999734224074,-0.010999999647985701
0,0,9.998186111450195,0,0,0.009800000116229057,0.0009999999964224499,-0.07999999804626934,-0.010999999647985701
-0.009576806798577309,0,9.998186111450195,0,0,0.009800000116229057,0.0009999999964224499,-0.019000000453128628,-0.010999999647985701
0,0,9.998186111450195,0,0,0.009800000116229057,0.0009999999964224499,-0.019000000453128628,-0.010999999647985701
0,0,9.998186111450195,0,0,-0.009800000116229057,0.06200000165415938,-0.07999999804626934,-0.010999999647985701
0,0,9.988609313964844,0,0,0,0.06200000165415938,0.10199999734224074,-0.010999999647985701
0,0,9.988609313964844,0,0,0.009800000116229057,-0.05900000114378995,-0.019000000453128628,-0.010999999647985701
0,0,9.998186111450195,0,0,0.009800000116229057,0.0009999999964224499,-0.14099999730693671,-0.07199999890865307
0,0,9.998186111450195,0,0,0.009800000116229057,0.0009999999964224499,0.041000001416626686,-0.07199999890865307
0,0,9.998186111450195,0,0,0.009800000116229057,0.0009999999964224499,-0.019000000453128628,0.04900000055424296
0,0,9.988609313964844,0,0,0,0.0009999999964224499,0.041000001416626686,0.04900000055424296
0,0,9.988609313964844,0,0,0,0.0009999999964224499,-0.019000000453128628,-0.010999999647985701
0,0,9.988609313964844,0,0,0,0.0009999999964224499,0.041000001416626686,-0.010999999647985701
0,0,9.998186111450195,0,0,0,-0.05900000114378995,-0.07999999804626934,-0.07199999890865307
0,0,9.998186111450195,0,0,0.009800000116229057,0.0009999999964224499,0.041000001416626686,0.04900000055424296
0,0,9.998186111450195,0,0,0.009800000116229057,-0.05900000114378995,0.041000001416626686,0.10999999647985702
0,0,9.998186111450195,0,0,0.009800000116229057,-0.05900000114378995,0.041000001416626686,0.10999999647985702
0,0,9.988609313964844,0,0,0.009800000116229057,0.0009999999964224499,0.041000001416626686,-0.010999999647985701
0,0,9.979032516479492,0,0,-0.009800000116229057,0.06200000165415938,-0.019000000453128628,-0.07199999890865307
0,0,9.988609313964844,0,0,0,0.0009999999964224499,-0.07999999804626934,-0.010999999647985701
0,0,9.988609313964844,0,0,0,0.0009999999964224499,-0.07999999804626934,-0.010999999647985701
0,0,9.998186111450195,0,0,0.009800000116229057,0.0009999999964224499,-0.019000000453128628,0.10999999647985702
0,0,9.998186111450195,0,0,0.019600000232458115,0.12299999424472013,0.10199999734224074,-0.010999999647985701
0,0,9.998186111450195,0,0,0.009800000116229057,0.0009999999964224499,0.041000001416626686,-0.010999999647985701
0,0,9.998186111450195,0,0,0.009800000116229057,-0.1199999937343507,0.041000001416626686,-0.010999999647985701
0,0,9.998186111450195,0,0,0,0.06200000165415938,-0.14099999730693671,-0.010999999647985701
0,0,9.998186111450195,0,0,0.009800000116229057,0.0009999999964224499,0.041000001416626686,-0.13300000483942703
0,0,9.998186111450195,0,0,0.009800000116229057,0.0009999999964224499,-0.20200000323771067,-0.07199999890865307
0,0,9.988609313964844,0,0,0.009800000116229057,-0.1199999937343507,-0.07999999804626934,0.04900000055424296
0,0,9.988609313964844,0,0,0.009800000116229057,-0.1199999937343507,0.10199999734224074,0.04900000055424296
0,0,9.998186111450195,0,0,0.009800000116229057,-0.42500001004800736,-0.20200000323771067,0.10999999647985702
0,0,9.998186111450195,0,0,0.009800000116229057,0.0009999999964224499,0.041000001416626686,-0.07199999890865307
0,0,9.998186111450195,0,0,0.009800000116229057,0.12299999424472013,0.10199999734224074,-0.010999999647985701
0,0,9.998186111450195,0,0,0,0.18400000017549412,0.041000001416626686,-0.010999999647985701
0,0,9.998186111450195,0,0,0.009800000116229057,0.06200000165415938,0.041000001416626686,-0.010999999647985701
0,0,9.998186111450195,0,0,0.009800000116229057,0.06200000165415938,0.041000001416626686,0.04900000055424296
0,0,9.998186111450195,0,0,0.009800000116229057,0.0009999999964224499,-0.019000000453128628,-0.010999999647985701
0,0,9.998186111450195,0,0,0.009800000116229057,0.06200000165415938,0.041000001416626686,-0.07199999890865307
0,0,9.988609313964844,0,0,0,-0.05900000114378995,-0.07999999804626934,0.04900000055424296
0,0,9.988609313964844,0,0,0,0.0009999999964224499,0.10199999734224074,-0.010999999647985701
0,0,9.988609313964844,0,0,0,0.0009999999964224499,-0.019000000453128628,0.04900000055424296
0,0,9.988609313964844,0,0,0,0.0009999999964224499,0.041000001416626686,-0.07199999890865307
0,0,9.988609313964844,0,0,0,0.0009999999964224499,0.10199999734224074,-0.010999999647985701
0,0,9.988609313964844,0,0,0,0.06200000165415938,0.041000001416626686,-0.010999999647985701
0,0,9.988609313964844,0,0,0,-0.18099999966512467,-0.019000000453128628,-0.010999999647985701
0,0,9.988609313964844,0,0,0,0.0009999999964224499,0.041000001416626686,-0.07199999890865307
0,0,9.988609313964844,0,0,0,-0.1199999937343507,0.041000001416626686,-0.010999999647985701
0,0,9.988609313964844,0,0,0,-0.1199999937343507,0.041000001416626686,-0.010999999647985701
0,0,9.988609313964844,0,0,0,0.0009999999964224499,0.041000001416626686,0.10999999647985702
0,0,9.988609313964844,0,0,0,0.06200000165415938,0.041000001416626686,0.04900000055424296
0,0,9.988609313964844,0,0,0,0.12299999424472013,0.041000001416626686,-0.07199999890865307
0,0,9.998186111450195,0,0,0,0.0009999999964224499,0.041000001416626686,0.04900000055424296
0,0,9.998186111450195,0,0,0.009800000116229057,0.0009999999964224499,-0.019000000453128628,-0.010999999647985701
0,0,9.998186111450195,0,0,0.009800000116229057,-0.05900000114378995,-0.019000000453128628,-0.07199999890865307
0,0,9.988609313964844,0,0,0,-0.1199999937343507,-0.019000000453128628,0.04900000055424296
0,0,9.988609313964844,0,0,0,0.06200000165415938,-0.019000000453128628,-0.010999999647985701
0,0,9.998186111450195,0,0,0.009800000116229057,-0.05900000114378995,-0.019000000453128628,-0.010999999647985701
0,0,9.988609313964844,0,0,0,0.06200000165415938,0.041000001416626686,0.04900000055424296
0,0,9.988609313964844,0,0,0,0.12299999424472013,0.10199999734224074,0.04900000055424296
0,0,9.988609313964844,0,0,0,0.12299999424472013,0.10199999734224074,-0.010999999647985701
0,0,9.988609313964844,0,0,0,0.06200000165415938,-0.019000000453128628,-0.010999999647985701
0,0,9.988609313964844,0,0,0,0.0009999999964224499,-0.019000000453128628,0.10999999647985702
0,0,9.988609313964844,0,0,0,-0.05900000114378995,0.041000001416626686,-0.07199999890865307
0,0,9.988609313964844,0,0,0,-0.05900000114378995,-0.019000000453128628,0.10999999647985702
0,0,9.988609313964844,0,0,0,0.06200000165415938,-0.019000000453128628,0.04900000055424296
0,0,9.988609313964844,0,0,0,0.0009999999964224499,-0.019000000453128628,-0.07199999890865307
0,0,9.979032516479492,0,0,0,0.0009999999964224499,-0.019000000453128628,-0.07199999890865307
0,0,9.979032516479492,0,0,-0.009800000116229057,0.06200000165415938,0.10199999734224074,-0.010999999647985701
0,0,9.988609313964844,0,0,-0.009800000116229057,-0.05900000114378995,-0.019000000453128628,-0.010999999647985701
0,0,9.988609313964844,0,0,0,-0.05900000114378995,-0.07999999804626934,-0.010999999647985701
0,0,9.988609313964844,0,0,0.009800000116229057,0.12299999424472013,-0.07999999804626934,-0.010999999647985701
0,0,9.998186111450195,0,0,0.009800000116229057,0.0009999999964224499,-0.14099999730693671,-0.07199999890865307
0,0,9.998186111450195,0,0,0.009800000116229057,-0.05900000114378995,-0.07999999804626934,0.04900000055424296
0,0,9.988609313964844,0,0,0,-0.05900000114378995,-0.14099999730693671,0.04900000055424296
0,0,9.988609313964844,0,0,0,-0.05900000114378995,-0.019000000453128628,0.04900000055424296
0,0,9.988609313964844,0,0,0,-0.05900000114378995,-0.07999999804626934,-0.010999999647985701
0,0,9.988609313964844,0,0,0,-0.05900000114378995,-0.07999999804626934,-0.010999999647985701
0,0,9.988609313964844,0,0,0,-0.05900000114378995,-0.07999999804626934,-0.07199999890865307
0,0,9.988609313964844,0,0,0,0.0009999999964224499,-0.019000000453128628,-0.07199999890865307
0,0,9.988609313964844,0,0,0,0.06200000165415938,0.041000001416626686,-0.07199999890865307
0,0,9.988609313964844,0,0,0,0.06200000165415938,-0.019000000453128628,-0.07199999890865307
0,0,9.988609313964844,0,0,0,0.06200000165415938,-0.07999999804626934,-0.07199999890865307
0,0,9.988609313964844,0,0,0,0.0009999999964224499,-0.14099999730693671,-0.07199999890865307
0,0,9.988609313964844,0,0,0,-0.05900000114378995,0.041000001416626686,-0.010999999647985701
0,0,9.988609313964844,0,0,0,0.06200000165415938,-0.07999999804626934,0.10999999647985702
0,0,9.988609313964844,0,0,0,0.0009999999964224499,-0.14099999730693671,0.04900000055424296
0,0,9.988609313964844,0,0,0,-0.18099999966512467,-0.019000000453128628,0.10999999647985702
0,0,9.988609313964844,0,0,0,0.06200000165415938,0.041000001416626686,0.10999999647985702
0,0,9.988609313964844,0,0,0,0.06200000165415938,-0.019000000453128628,-0.010999999647985701
0,0,9.988609313964844,0,0,0,0.0009999999964224499,-0.019000000453128628,0.04900000055424296
0,0,9.988609313964844,0,0,0,-0.05900000114378995,0.041000001416626686,-0.010999999647985701
0,0,9.988609313964844,0,0,0,0.06200000165415938,0.041000001416626686,0.04900000055424296
0,0,9.979032516479492,0,0,0,0.0009999999964224499,-0.07999999804626934,0.10999999647985702
0,0,9.979032516479492,0,0,-0.009800000116229057,0.0009999999964224499,-0.019000000453128628,-0.07199999890865307
0,0,9.988609313964844,0,0,0,-0.05900000114378995,0.041000001416626686,0.04900000055424296
0,0,9.988609313964844,0,0,0,0.0009999999964224499,-0.07999999804626934,0.04900000055424296
0,0,9.988609313964844,0,0,0,0.0009999999964224499,-0.019000000453128628,-0.010999999647985701
0,0,9.988609313964844,0,0,0,0.0009999999964224499,-0.019000000453128628,-0.07199999890865307
0,0,9.998186111450195,0,0,0.009800000116229057,0.06200000165415938,0.041000001416626686,-0.010999999647985701
0,0,9.988609313964844,0,0,0,0.0009999999964224499,-0.07999999804626934,-0.07199999890865307
0,0,9.988609313964844,0,0,0,0.06200000165415938,-0.07999999804626934,-0.13300000483942703
0,0,9.988609313964844,0,0,0,0.0009999999964224499,-0.07999999804626934,0.04900000055424296
0,0,9.988609313964844,0,0,0,-0.05900000114378995,-0.019000000453128628,0.04900000055424296
0,0,9.988609313964844,0,0,0,-0.05900000114378995,-0.07999999804626934,0.04900000055424296
0,0,9.988609313964844,0,0,0,-0.05900000114378995,-0.14099999730693671,0.04900000055424296
0,0,9.988609313964844,0,0,0.019600000232458115,-0.05900000114378995,0.041000001416626686,-0.010999999647985701
0,0,10.007762908935547,0,0,0.009800000116229057,0.12299999424472013,-0.019000000453128628,-0.07199999890865307
0,0,9.998186111450195,0,0,0.009800000116229057,0.18400000017549412,0.10199999734224074,0.04900000055424296
0,0,9.998186111450195,0,0,0.009800000116229057,0.0009999999964224499,-0.019000000453128628,-0.010999999647985701
0,0,9.998186111450195,0,0,0.009800000116229057,-0.05900000114378995,-0.07999999804626934,-0.010999999647985701
0,0,9.998186111450195,0,0,0.009800000116229057,0.06200000165415938,-0.019000000453128628,0.04900000055424296
0,0,9.998186111450195,0,0,0.009800000116229057,0.12299999424472013,-0.019000000453128628,-0.07199999890865307
0,0,9.998186111450195,0,0,0.009800000116229057,0.0009999999964224499,-0.019000000453128628,0.04900000055424296
0,0,9.998186111450195,0,0,0.009800000116229057,0.0009999999964224499,-0.019000000453128628,-0.010999999647985701
0,0,9.998186111450195,0,0,0.009800000116229057,0.06200000165415938,0.041000001416626686,-0.010999999647985701
0,0,9.998186111450195,0,0,0.009800000116229057,0.06200000165415938,-0.019000000453128628,-0.010999999647985701
0,0,9.998186111450195,0,0,0.009800000116229057,0.06200000165415938,0.041000001416626686,-0.010999999647985701
0,0,9.998186111450195,0,0,0.009800000116229057,-0.05900000114378995,-0.019000000453128628,-0.010999999647985701
0,0,9.998186111450195,0,0,0.009800000116229057,0.0009999999964224499,-0.019000000453128628,0.04900000055424296
0,0,9.998186111450195,0,0,0.009800000116229057,0.12299999424472013,-0.019000000453128628,0.10999999647985702
0,0,9.998186111450195,0,0,0.009800000116229057,0.06200000165415938,0.041000001416626686,-0.010999999647985701
0,0,10.007762908935547,0,0,0.019600000232458115,-0.05900000114378995,-0.019000000453128628,-0.010999999647985701
0,0,10.007762908935547,0,0,0.019600000232458115,-0.05900000114378995,-0.019000000453128628,-0.010999999647985701
0,0,10.007762908935547,0,0,0.019600000232458115,-0.05900000114378995,0.041000001416626686,-0.010999999647985701
0,0,10.007762908935547,0,0,0.019600000232458115,0.3059999986968288,-0.07999999804626934,-0.010999999647985701
0,0,10.007762908935547,0,0,0.019600000232458115,0.24500000610626807,-0.019000000453128628,-0.010999999647985701
0,0,10.007762908935547,0,0,0.019600000232458115,0.18400000017549412,0.10199999734224074,-0.010999999647985701
0,0,10.007762908935547,0,0,0.019600000232458115,0.0009999999964224499,0.041000001416626686,-0.07199999890865307
0,0,9.998186111450195,0,0,0.019600000232458115,0.06200000165415938,0.041000001416626686,0.04900000055424296
0,0,10.007762908935547,0,0,0.019600000232458115,-0.1199999937343507,-0.019000000453128628,0.10999999647985702
0,0,10.007762908935547,0,0,0.019600000232458115,-0.05900000114378995,0.041000001416626686,0.04900000055424296
0,0,10.007762908935547,0,0,0.019600000232458115,0.0009999999964224499,-0.07999999804626934,0.04900000055424296
0,0,10.007762908935547,0,0,0.019600000232458115,-0.18099999966512467,-0.14099999730693671,0.04900000055424296
0,0,10.007762908935547,0,0,0.019600000232458115,0.0009999999964224499,0.1629999966029081,-0.010999999647985701
0,0,10.007762908935547,0,0,0.019600000232458115,0.0009999999964224499,0.041000001416626686,0.04900000055424296
0,0,10.007762908935547,0,0,0.019600000232458115,0.0009999999964224499,-0.019000000453128628,0.04900000055424296
0,0,10.007762908935547,0,0,0,0.06200000165415938,-0.07999999804626934,-0.010999999647985701
0,0,10.007762908935547,0,0,-0.009800000116229057,0.0009999999964224499,-0.019000000453128628,0.04900000055424296
0,0,9.998186111450195,0,0,0,0.06200000165415938,0.1629999966029081,0.04900000055424296
0,0,10.007762908935547,0,0,0,-0.05900000114378995,0.10199999734224074,0.04900000055424296
0,0,10.007762908935547,0,0,0,0.06200000165415938,0.10199999734224074,0.04900000055424296
0,0,10.007762908935547,0,0,0,0.0009999999964224499,-0.019000000453128628,-0.010999999647985701
0,0,10.007762908935547,0,0,0,0.12299999424472013,-0.019000000453128628,-0.07199999890865307
0,0,9.998186111450195,0,0,0,-0.05900000114378995,0.041000001416626686,-0.07199999890865307
0,0,9.998186111450195,0,0,-0.009800000116229057,0.0009999999964224499,-0.019000000453128628,0.04900000055424296
0,0,10.007762908935547,0,0,-0.009800000116229057,0.06200000165415938,0.041000001416626686,0.04900000055424296
0,0,10.007762908935547,0,0,0,0.0009999999964224499,-0.019000000453128628,-0.07199999890865307
0,0,10.007762908935547,0,0,0,0.0009999999964224499,-0.019000000453128628,-0.07199999890865307
0,0,10.007762908935547,0,0,0,0.0009999999964224499,0.041000001416626686,-0.010999999647985701
0,0,10.007762908935547,0,0,-0.009800000116229057,-0.05900000114378995,0.041000001416626686,0.04900000055424296
0,0,9.998186111450195,0,0,-0.009800000116229057,-0.1199999937343507,-0.07999999804626934,-0.010999999647985701
0,0,9.998186111450195,0,0,-0.009800000116229057,-0.05900000114378995,0.10199999734224074,-0.010999999647985701
0,0,9.998186111450195,0,0,-0.019600000232458115,0.06200000165415938,-0.019000000453128628,-0.010999999647985701
0,0,9.988609313964844,0,0,-0.019600000232458115,-0.05900000114378995,-0.07999999804626934,-0.010999999647985701
0,0,9.998186111450195,0,0,-0.009800000116229057,0.06200000165415938,-0.07999999804626934,0.04900000055424296
0,0,9.998186111450195,0,0,-0.009800000116229057,0.12299999424472013,-0.019000000453128628,0.04900000055424296
0,0,9.998186111450195,0,0,-0.009800000116229057,0.0009999999964224499,-0.019000000453128628,-0.07199999890865307
0,0,10.007762908935547,0,0,-0.009800000116229057,0.0009999999964224499,-0.019000000453128628,0.10999999647985702
0,0,9.998186111450195,0,0,-0.009800000116229057,-0.05900000114378995,0.10199999734224074,-0.010999999647985701
0,0,9.998186111450195,0,0,-0.009800000116229057,0.06200000165415938,0.041000001416626686,0.10999999647985702
0,0,9.998186111450195,0,0,-0.009800000116229057,-0.05900000114378995,-0.019000000453128628,-0.07199999890865307
0,0,9.998186111450195,0,0,-0.009800000116229057,0.06200000165415938,0.041000001416626686,-0.010999999647985701
0,0,9.998186111450195,0,0,-0.009800000116229057,0.06200000165415938,-0.07999999804626934,-0.010999999647985701
0,0,10.007762908935547,0,0,0,0.0009999999964224499,0.041000001416626686,0.04900000055424296
0,0,10.007762908935547,0,0,0,-0.05900000114378995,0.041000001416626686,-0.07199999890865307
0,0,9.998186111450195,0,0,-0.009800000116229057,0.12299999424472013,0.10199999734224074,-0.07199999890865307
0,0,9.998186111450195,0,0,-0.009800000116229057,0.12299999424472013,-0.07999999804626934,-0.010999999647985701
0,0,9.998186111450195,0,0,-0.009800000116229057,0.24500000610626807,-0.019000000453128628,-0.07199999890865307
0,0,9.998186111450195,0,0,-0.009800000116229057,0.06200000165415938,0.041000001416626686,-0.07199999890865307
0,0,9.998186111450195,0,0,-0.009800000116229057,0.06200000165415938,0.10199999734224074,-0.07199999890865307
0,0,9.998186111450195,0,0,-0.009800000116229057,0.12299999424472013,0.041000001416626686,-0.010999999647985701
0,0,9.998186111450195,0,0,-0.009800000116229057,-0.1199999937343507,-0.019000000453128628,-0.010999999647985701
0,0,10.007762908935547,0,0,0,-0.1199999937343507,-0.019000000453128628,0.04900000055424296
0,0,9.998186111450195,0,0,-0.009800000116229057,0.0009999999964224499,0.041000001416626686,-0.010999999647985701
0,0,9.998186111450195,0,0,-0.009800000116229057,0.12299999424472013,0.041000001416626686,-0.13300000483942703
0,0,9.998186111450195,0,0,-0.009800000116229057,-0.1199999937343507,-0.07999999804626934,-0.010999999647985701
0,0,9.998186111450195,0,0,-0.009800000116229057,-0.18099999966512467,0.041000001416626686,0.04900000055424296
0,0,9.998186111450195,0,0,-0.009800000116229057,-0.05900000114378995,0.041000001416626686,0.04900000055424296
0,0,9.998186111450195,0,0,-0.009800000116229057,0.0009999999964224499,-0.019000000453128628,-0.010999999647985701
0,0,9.998186111450195,0,0,-0.009800000116229057,-0.05900000114378995,0.041000001416626686,-0.010999999647985701
0,0,9.998186111450195,0,0,-0.009800000116229057,0.0009999999964224499,-0.07999999804626934,-0.07199999890865307
0,0,9.998186111450195,0,0,-0.009800000116229057,-0.05900000114378995,0.041000001416626686,-0.010999999647985701
0,0,9.998186111450195,0,0,-0.019600000232458115,-0.1199999937343507,0.041000001416626686,-0.07199999890865307
0,0,9.988609313964844,0,0,-0.019600000232458115,0.05499999823992851,0.10299999973573276,-0.010999999647985701
0,0,9.988609313964844,0,0,-0.019600000232458115,-0.004999999877891834,-0.07900000232288394,-0.010999999647985701
0,0,9.998186111450195,0,0,0,-0.18799999640924894,-0.017999999727163266,0.04900000055424296
0,0,9.998186111450195,0,0,0,0.11599999750059588,-0.017999999727163266,-0.07199999890865307
0,0,9.998186111450195,0,0,0,0.11599999750059588,-0.017999999727163266,-0.07199999890865307
0,0,9.998186111450195,0,0,0,-0.12700000381868817,0.10299999973573276,-0.010999999647985701
0,0,9.998186111450195,0,0,0,-0.004999999877891834,0.04200000047506539,0.10999999647985702
0,0,9.998186111450195,0,0,0,-0.24899998899980968,0.04200000047506539,0.04900000055424296
0,0,9.998186111450195,0,0,0,-0.004999999877891834,-0.017999999727163266,-0.07199999890865307
0,0,9.998186111450195,0,0,0,0.05499999823992851,0.10299999973573276,-0.010999999647985701
0,0,9.998186111450195,0,0,0,-0.0659999978879142,0.10299999973573276,0.04900000055424296
0,0,9.998186111450195,0,0,0,-0.0659999978879142,0.04200000047506539,-0.07199999890865307
0,0,9.988609313964844,0,0,-0.009800000116229057,0.05499999823992851,0.04200000047506539,0.04900000055424296
0,0,9.988609313964844,0,0,-0.009800000116229057,-0.004999999877891834,-0.07900000232288394,0.04900000055424296
0,0,9.988609313964844,0,0,-0.009800000116229057,0.05499999823992851,-0.017999999727163266,0.04900000055424296
0,0,9.988609313964844,0,0,-0.009800000116229057,0.05499999823992851,0.04200000047506539,0.04900000055424296
0,0,9.988609313964844,0,0,-0.009800000116229057,-0.0659999978879142,0.04200000047506539,-0.07199999890865307
0,0,9.988609313964844,0,0,-0.009800000116229057,-0.0659999978879142,-0.017999999727163266,-0.010999999647985701
0,0,9.988609313964844,0,0,-0.009800000116229057,-0.004999999877891834,-0.017999999727163266,-0.010999999647985701
0,0,9.998186111450195,0,0,0,0.05499999823992851,-0.017999999727163266,0.04900000055424296
0,0,9.988609313964844,0,0,0,-0.12700000381868817,0.04200000047506539,0.04900000055424296
0,0,9.998186111450195,0,0,0,-0.004999999877891834,0.04200000047506539,-0.010999999647985701
0,0,9.998186111450195,0,0,0,0.11599999750059588,-0.017999999727163266,-0.07199999890865307
0,0,9.998186111450195,0,0,0,0.05499999823992851,-0.017999999727163266,0.17100000241063099
0,0,9.998186111450195,0,0,0,-0.004999999877891834,-0.017999999727163266,-0.010999999647985701
0,0,9.998186111450195,0,0,0,0.11599999750059588,-0.07900000232288394,-0.010999999647985701
0,0,9.998186111450195,0,0,0,0.05499999823992851,-0.017999999727163266,0.04900000055424296
0,0,9.988609313964844,0,0,0,0.05499999823992851,-0.017999999727163266,-0.010999999647985701
0,0,9.998186111450195,0,0,-0.009800000116229057,0.05499999823992851,-0.017999999727163266,-0.010999999647985701
0,0,9.998186111450195,0,0,0,-0.0659999978879142,-0.017999999727163266,0.10999999647985702
0,0,9.998186111450195,0,0,0,-0.12700000381868817,0.04200000047506539,-0.010999999647985701
0,0,9.998186111450195,0,0,-0.009800000116229057,-0.0659999978879142,-0.1400000015835513,0.04900000055424296
0,0,9.988609313964844,0,0,-0.009800000116229057,-0.0659999978879142,-0.017999999727163266,-0.010999999647985701
0,0,9.988609313964844,0,0,-0.009800000116229057,0.05499999823992851,0.04200000047506539,-0.010999999647985701
0,0,9.988609313964844,0,0,-0.009800000116229057,0.05499999823992851,0.04200000047506539,0.04900000055424296
0,0,9.988609313964844,0,0,-0.009800000116229057,-0.004999999877891834,0.04200000047506539,-0.010999999647985701
0,0,9.988609313964844,0,0,-0.009800000116229057,0.05499999823992851,-0.017999999727163266,0.04900000055424296
0,0,9.988609313964844,0,0,-0.009800000116229057,0.05499999823992851,0.10299999973573276,-0.010999999647985701
0,0,9.988609313964844,0,0,-0.009800000116229057,0.11599999750059588,0.04200000047506539,-0.010999999647985701
0,0,9.988609313964844,0,0,-0.009800000116229057,0.05499999823992851,0.04200000047506539,-0.010999999647985701
0,0,9.988609313964844,0,0,-0.009800000116229057,0.05499999823992851,-0.017999999727163266,-0.010999999647985701
0,0,9.988609313964844,0,0,-0.009800000116229057,-0.18799999640924894,-0.017999999727163266,0.04900000055424296
0,0,9.988609313964844,0,0,-0.009800000116229057,-0.0659999978879142,-0.017999999727163266,0.04900000055424296
0,0,9.998186111450195,0,0,-0.009800000116229057,-0.004999999877891834,-0.07900000232288394,-0.010999999647985701
0,0,9.998186111450195,0,0,0,0.2379999960219306,0.04200000047506539,-0.010999999647985701
0,0,9.998186111450195,0,0,0,0.11599999750059588,0.04200000047506539,-0.07199999890865307
0,0,9.998186111450195,0,0,0,0.05499999823992851,0.04200000047506539,-0.010999999647985701
0,0,9.988609313964844,0,0,-0.009800000116229057,0.11599999750059588,-0.017999999727163266,-0.07199999890865307
0,0,9.988609313964844,0,0,-0.009800000116229057,0.05499999823992851,0.04200000047506539,0.04900000055424296
0,0,9.988609313964844,0,0,0,-0.004999999877891834,-0.017999999727163266,0.10999999647985702
0,0,9.988609313964844,0,0,0,-0.004999999877891834,-0.017999999727163266,0.10999999647985702
0,0,9.988609313964844,0,0,0,0.05499999823992851,-0.017999999727163266,-0.07199999890865307
0,0,9.988609313964844,0,0,0,-0.004999999877891834,0.10299999973573276,-0.07199999890865307
0,0,9.988609313964844,0,0,0,-0.004999999877891834,-0.017999999727163266,-0.010999999647985701
0,0,9.988609313964844,0,0,0,-0.12700000381868817,-0.017999999727163266,0.04900000055424296
0,0,9.988609313964844,0,0,0,-0.0659999978879142,-0.1400000015835513,0.04900000055424296
0,0,9.988609313964844,0,0,0,-0.004999999877891834,0.04200000047506539,-0.13300000483942703
0,0,9.988609313964844,0,0,0,-0.004999999877891834,0.04200000047506539,-0.13300000483942703
0,0,9.988609313964844,0,0,0,0.17700000343136985,0.04200000047506539,0.04900000055424296
0,0,9.988609313964844,0,0,0,0.17700000343136985,0.04200000047506539,0.04900000055424296
0,0,9.988609313964844,0,0,0,-0.004999999877891834,0.04200000047506539,-0.010999999647985701
0,0,9.988609313964844,0,0,0,-0.004999999877891834,0.04200000047506539,0.04900000055424296
0,0,9.988609313964844,0,0,0,-0.004999999877891834,0.04200000047506539,0.04900000055424296
0,0,9.998186111450195,0,0,0.009800000116229057,0.05499999823992851,0.04200000047506539,-0.010999999647985701
0,0,9.988609313964844,0,0,0.009800000116229057,-0.0659999978879142,-0.017999999727163266,0.10999999647985702
0,0,9.988609313964844,0,0,0,0.6650000241971352,0.2250000115972807,-0.07199999890865307
0,0,9.988609313964844,0,0,0.009800000116229057,0.11599999750059588,0.04200000047506539,-0.010999999647985701
0,0,10.007762908935547,0,0,0.009800000116229057,-0.004999999877891834,0.04200000047506539,-0.07199999890865307
0,0,10.007762908935547,0,0,0,-0.004999999877891834,0.04200000047506539,-0.010999999647985701
0,0,9.988609313964844,0,0,0,-0.0659999978879142,-0.1400000015835513,0.10999999647985702
0,0,9.988609313964844,0,0,0,0.11599999750059588,-0.017999999727163266,-0.010999999647985701
0,0,9.988609313964844,0,0,0,0.11599999750059588,-0.017999999727163266,-0.010999999647985701
0,0,9.988609313964844,0,0,-0.009800000116229057,-0.0659999978879142,-0.07900000232288394,-0.13300000483942703
0,0,9.988609313964844,0,0,0,-0.004999999877891834,-0.07900000232288394,0.04900000055424296
0,0,9.988609313964844,0,0,0,0.05499999823992851,-0.07900000232288394,-0.010999999647985701
0,0,9.988609313964844,0,0,0,0.05499999823992851,-0.07900000232288394,-0.010999999647985701
0,0,9.998186111450195,0,0,0.009800000116229057,-0.12700000381868817,-0.017999999727163266,0.10999999647985702
0,0,9.998186111450195,0,0,0.009800000116229057,-0.12700000381868817,-0.017999999727163266,0.10999999647985702
0,0,9.998186111450195,0,0,0.009800000116229057,0.4210000004740393,0.16400000566650674,-0.13300000483942703
0,0,9.998186111450195,0,0,0.009800000116229057,-0.004999999877891834,-0.017999999727163266,0.04900000055424296
0,0,9.998186111450195,0,0,0.009800000116229057,-0.0659999978879142,0.04200000047506539,0.10999999647985702
0,0,9.998186111450195,0,0,0.009800000116229057,-0.0659999978879142,0.04200000047506539,0.10999999647985702
0,0,9.998186111450195,0,0,0,-0.004999999877891834,0.04200000047506539,0.04900000055424296
0,0,9.988609313964844,0,0,0,0.11599999750059588,-0.07900000232288394,-0.010999999647985701
0,0,9.988609313964844,0,0,0,-0.0659999978879142,-0.07900000232288394,0.04900000055424296
0,0,9.998186111450195,0,0,0.009800000116229057,-0.0659999978879142,0.16400000566650674,0.04900000055424296
0,0,9.998186111450195,0,0,0.009800000116229057,-0.12700000381868817,-0.017999999727163266,0.04900000055424296
0,0,9.998186111450195,0,0,0.009800000116229057,-0.0659999978879142,0.10299999973573276,0.04900000055424296
0,0,9.988609313964844,0,0,0,0.05499999823992851,-0.017999999727163266,0.04900000055424296
0,0,9.988609313964844,0,0,-0.009800000116229057,-0.0659999978879142,0.04200000047506539,-0.010999999647985701
0,0,9.988609313964844,0,0,0,-0.0659999978879142,-0.07900000232288394,0.04900000055424296
0,0,9.988609313964844,0,0,0,0.17700000343136985,-0.017999999727163266,0.04900000055424296
0,0,9.988609313964844,0,0,0,-0.004999999877891834,-0.017999999727163266,-0.010999999647985701
0,0,9.988609313964844,0,0,0,-0.0659999978879142,-0.017999999727163266,-0.07199999890865307
0,0,9.988609313964844,0,0,0,-0.004999999877891834,0.10299999973573276,-0.07199999890865307
0,0,9.988609313964844,0,0,0,-0.0659999978879142,-0.017999999727163266,-0.010999999647985701
0,0,9.988609313964844,0,0,0,0.05499999823992851,-0.017999999727163266,-0.010999999647985701
0,0,9.988609313964844,0,0,0,-0.004999999877891834,-0.017999999727163266,-0.010999999647985701
0,0,9.988609313964844,0,0,0,-0.18799999640924894,-0.07900000232288394,-0.07199999890865307
0,0,9.988609313964844,0,0,0,0.05499999823992851,-0.017999999727163266,0.04900000055424296
0,0,9.988609313964844,0,0,0,-0.0659999978879142,0.04200000047506539,-0.13300000483942703
0,0,9.988609313964844,0,0,0,-0.0659999978879142,0.04200000047506539,-0.010999999647985701
0,0,9.988609313964844,0,0,0,-0.0659999978879142,-0.017999999727163266,-0.07199999890865307
0,0,9.988609313964844,0,0,0,-0.004999999877891834,-0.017999999727163266,-0.010999999647985701
0,0,9.988609313964844,0,0,0,0.11599999750059588,-0.1400000015835513,0.04900000055424296
0,0,9.988609313964844,0,0,0,-0.0659999978879142,0.04200000047506539,-0.07199999890865307
0,0,9.988609313964844,0,0,0,0.05499999823992851,-0.017999999727163266,0.04900000055424296
0,0,9.988609313964844,0,0,0,-0.0659999978879142,-0.017999999727163266,0.04900000055424296
0,0,9.988609313964844,0,0,0,0.05499999823992851,0.04200000047506539,-0.13300000483942703
0,0,9.988609313964844,0,0,0,0.11599999750059588,-0.017999999727163266,0.17100000241063099
0,0,9.988609313964844,0,0,0,-0.0659999978879142,-0.07900000232288394,-0.07199999890865307
0,0,9.988609313964844,0,0,0,-0.004999999877891834,0.04200000047506539,-0.010999999647985701
0,0,9.988609313964844,0,0,0,0.05499999823992851,-0.07900000232288394,-0.07199999890865307
0,0,9.988609313964844,0,0,0,0.05499999823992851,-0.017999999727163266,-0.07199999890865307
0,0,9.988609313964844,0,0,0,-0.12700000381868817,0.04200000047506539,-0.010999999647985701
0,0,9.988609313964844,0,0,0,-0.12700000381868817,-0.07900000232288394,0.04900000055424296
0,0,9.988609313964844,0,0,0,-0.004999999877891834,0.10299999973573276,0.10999999647985702
0,0,9.988609313964844,0,0,0,-0.004999999877891834,0.10299999973573276,0.04900000055424296
0,0,9.988609313964844,0,0,0,-0.004999999877891834,-0.017999999727163266,-0.010999999647985701
0,0,9.979032516479492,0,0,-0.009800000116229057,-0.0659999978879142,-0.017999999727163266,0.04900000055424296
0,0,9.988609313964844,0,0,-0.009800000116229057,-0.12700000381868817,-0.017999999727163266,0.04900000055424296
0,0,9.988609313964844,0,0,0,-0.0659999978879142,-0.017999999727163266,-0.010999999647985701
0,0,9.988609313964844,0,0,0,-0.004999999877891834,-0.017999999727163266,0.04900000055424296
0,0,9.988609313964844,0,0,0,-0.0659999978879142,-0.07900000232288394,-0.010999999647985701
0,0,9.988609313964844,0,0,0,-0.0659999978879142,-0.017999999727163266,0.10999999647985702
0,0,9.988609313964844,0,0,0,-0.12700000381868817,-0.017999999727163266,-0.07199999890865307
0,0,9.988609313964844,0,0,0,-0.004999999877891834,0.04200000047506539,-0.010999999647985701
0,0,9.988609313964844,0,0,0,-0.004999999877891834,-0.017999999727163266,-0.07199999890865307
0,0,9.988609313964844,0,0,0,0.05499999823992851,-0.017999999727163266,-0.010999999647985701
0,0,9.988609313964844,0,0,0,-0.004999999877891834,-0.07900000232288394,-0.010999999647985701
0,0,9.988609313964844,0,0,0,-0.004999999877891834,-0.017999999727163266,0.04900000055424296
0,0,9.988609313964844,0,0,0,0.05499999823992851,-0.07900000232288394,-0.010999999647985701
0,0,9.988609313964844,0,0,0,-0.004999999877891834,-0.07900000232288394,-0.07199999890865307
0,0,9.988609313964844,0,0,0,-0.0659999978879142,0.04200000047506539,-0.010999999647985701
-0.009576806798577309,0,9.988609313964844,0,0,0,-0.004999999877891834,0.10299999973573276,-0.13300000483942703
0,0,9.979032516479492,0,0,0,0.05499999823992851,-0.1400000015835513,-0.07199999890865307
0,0,9.988609313964844,0,0,0,-0.12700000381868817,0.04200000047506539,-0.010999999647985701
0,0,9.988609313964844,0,0,0,0.05499999823992851,0.10299999973573276,-0.07199999890865307
0,0,9.988609313964844,0,0,0,-0.004999999877891834,0.04200000047506539,-0.010999999647985701
0,0,9.988609313964844,0,0,0,0.3600000078834786,0.04200000047506539,-0.07199999890865307
0,0,9.988609313964844,0,0,0,-0.12700000381868817,-0.07900000232288394,0.04900000055424296
0,0,9.998186111450195,0,0,0.009800000116229057,0.05499999823992851,0.16400000566650674,-0.13300000483942703
0,0,9.998186111450195,0,0,0.009800000116229057,0.11599999750059588,-0.017999999727163266,-0.07199999890865307
0,0,9.979032516479492,0,0,-0.009800000116229057,0.05499999823992851,-0.017999999727163266,-0.010999999647985701
0,0,9.988609313964844,0,0,-0.009800000116229057,0.05499999823992851,0.10299999973573276,-0.010999999647985701
0,0,9.988609313964844,0,0,0,-0.0659999978879142,-0.07900000232288394,-0.010999999647985701
0,0,9.988609313964844,0,0,0,-0.0659999978879142,-0.07900000232288394,-0.010999999647985701
0,0,9.988609313964844,0,0,0,-0.0659999978879142,0.04200000047506539,-0.010999999647985701
0,0,9.988609313964844,0,0,0,-0.0659999978879142,0.04200000047506539,-0.010999999647985701
0,0,9.988609313964844,0,0,-0.009800000116229057,-0.12700000381868817,0.04200000047506539,-0.07199999890865307
0,0,9.979032516479492,0,0,-0.009800000116229057,0.05499999823992851,-0.017999999727163266,-0.010999999647985701
0,0,9.979032516479492,0,0,-0.009800000116229057,0.05499999823992851,0.04200000047506539,0.04900000055424296
0,0,9.979032516479492,0,0,0,-0.0659999978879142,-0.017999999727163266,-0.07199999890865307
0,0,9.988609313964844,0,0,0,-0.004999999877891834,-0.017999999727163266,0.04900000055424296
0,0,9.988609313964844,0,0,0,-0.12700000381868817,-0.07900000232288394,0.04900000055424296
0,0,9.979032516479492,0,0,0,0.05499999823992851,0.04200000047506539,0.04900000055424296
0,0,9.988609313964844,0,0,0,-0.004999999877891834,0.04200000047506539,0.04900000055424296
0,0,9.979032516479492,0,0,-0.009800000116229057,-0.0659999978879142,0.10299999973573276,0.04900000055424296
0,0,9.988609313964844,0,0,0,-0.18799999640924894,-0.017999999727163266,0.10999999647985702
0,0,9.988609313964844,0,0,0,0.05499999823992851,-0.07900000232288394,0.10999999647985702
0,0,9.988609313964844,0,0,0,0.05499999823992851,0.04200000047506539,-0.07199999890865307
0,0,9.988609313964844,0,0,0,-0.12700000381868817,0.04200000047506539,-0.010999999647985701
0,0,9.988609313964844,0,0,0,0.11599999750059588,-0.017999999727163266,-0.010999999647985701
0,0,9.988609313964844,0,0,0,0.05499999823992851,-0.017999999727163266,-0.13300000483942703
0,0,9.988609313964844,0,0,0,-0.0659999978879142,0.04200000047506539,-0.010999999647985701
0,0,9.979032516479492,0,0,-0.009800000116229057,0.11599999750059588,-0.017999999727163266,-0.010999999647985701
0,0,9.979032516479492,0,0,-0.009800000116229057,-0.18799999640924894,-0.017999999727163266,-0.010999999647985701
0,0,9.979032516479492,0,0,-0.009800000116229057,-0.18799999640924894,-0.017999999727163266,-0.010999999647985701
0,0,9.988609313964844,0,0,-0.009800000116229057,-0.004999999877891834,-0.017999999727163266,-0.010999999647985701
0,0,9.979032516479492,0,0,0,0.05499999823992851,0.16400000566650674,0.04900000055424296
0,0,9.979032516479492,0,0,-0.009800000116229057,-0.12700000381868817,-0.07900000232288394,0.10999999647985702
0,0,9.979032516479492,0,0,-0.009800000116229057,-0.12700000381868817,-0.07900000232288394,-0.010999999647985701
0,0,9.988609313964844,0,0,-0.009800000116229057,-0.12700000381868817,-0.07900000232288394,-0.010999999647985701
0,0,9.988609313964844,0,0,0,-0.004999999877891834,0.10299999973573276,-0.07199999890865307
0,0,9.988609313964844,0,0,0,-0.004999999877891834,-0.07900000232288394,-0.07199999890865307
0,0,9.988609313964844,0,0,0,-0.004999999877891834,0.04200000047506539,0.04900000055424296
0,0,9.988609313964844,0,0,0,0.05499999823992851,-0.07900000232288394,0.17100000241063099
0,0,9.988609313964844,0,0,0,-0.004999999877891834,-0.07900000232288394,0.04900000055424296
0,0,9.988609313964844,0,0,0,-0.004999999877891834,0.04200000047506539,0.10999999647985702
0,0,9.998186111450195,0,0,0.009800000116229057,-0.004999999877891834,-0.07900000232288394,0.10999999647985702
0,0,9.988609313964844,0,0,0,0.05499999823992851,-0.07900000232288394,-0.010999999647985701
0,0,9.988609313964844,0,0,0,-0.0659999978879142,-0.017999999727163266,-0.010999999647985701
0,0,9.988609313964844,0,0,0,-0.004999999877891834,0.04200000047506539,0.04900000055424296
0,0,9.988609313964844,0,0,0,-0.0659999978879142,-0.017999999727163266,-0.13300000483942703
0,0,9.988609313964844,0,0,0,-0.0659999978879142,-0.07900000232288394,-0.07199999890865307
0,0,9.979032516479492,0,0,-0.009800000116229057,-0.004999999877891834,0.04200000047506539,-0.010999999647985701
0,0,9.979032516479492,0,0,0,0.05499999823992851,-0.017999999727163266,0.04900000055424296
0,0,9.988609313964844,0,0,0,0.05499999823992851,0.04200000047506539,0.04900000055424296
0,0,9.988609313964844,0,0,-0.009800000116229057,-0.004999999877891834,0.16400000566650674,0.04900000055424296
0,0,9.988609313964844,0,0,-0.009800000116229057,-0.004999999877891834,0.16400000566650674,0.04900000055424296
0,0,9.979032516479492,0,0,0.009800000116229057,0.05499999823992851,-0.07900000232288394,-0.010999999647985701
0,0,9.998186111450195,0,0,0.009800000116229057,0.05499999823992851,-0.07900000232288394,-0.010999999647985701
0,0,9.998186111450195,0,0,0.009800000116229057,-0.0659999978879142,-0.017999999727163266,0.04900000055424296
0,0,9.988609313964844,0,0,-0.009800000116229057,-0.0659999978879142,-0.017999999727163266,-0.07199999890865307
0,0,9.998186111450195,0,0,-0.009800000116229057,-0.0659999978879142,-0.017999999727163266,-0.07199999890865307
0,0,9.979032516479492,0,0,-0.019600000232458115,0.05499999823992851,-0.07900000232288394,-0.010999999647985701
0,0,9.979032516479492,0,0,-0.019600000232458115,-0.004999999877891834,-0.07900000232288394,0.04900000055424296
0,0,9.979032516479492,0,0,-0.019600000232458115,-0.004999999877891834,-0.017999999727163266,-0.010999999647985701
0,0,9.979032516479492,0,0,-0.019600000232458115,-0.004999999877891834,-0.1400000015835513,0.04900000055424296
0,0,9.988609313964844,0,0,-0.009800000116229057,-0.0659999978879142,0.10299999973573276,0.04900000055424296
0,0,9.988609313964844,0,0,-0.009800000116229057,-0.0659999978879142,0.04200000047506539,0.04900000055424296
0,0,9.988609313964844,0,0,-0.009800000116229057,-0.0659999978879142,0.04200000047506539,0.04900000055424296
0,0,9.988609313964844,0,0,-0.009800000116229057,-0.0659999978879142,-0.017999999727163266,0.04900000055424296
0,0,9.988609313964844,0,0,-0.019600000232458115,0.05499999823992851,-0.017999999727163266,-0.010999999647985701
0,0,9.988609313964844,0,0,-0.009800000116229057,-0.004999999877891834,-0.017999999727163266,-0.13300000483942703
0,0,9.979032516479492,0,0,-0.019600000232458115,0.05499999823992851,-0.017999999727163266,0.04900000055424296
0,0,9.979032516479492,0,0,-0.019600000232458115,-0.0659999978879142,0.04200000047506539,0.04900000055424296
0,0,9.979032516479492,0,0,-0.019600000232458115,0.05499999823992851,0.04200000047506539,-0.07199999890865307
0,0,9.979032516479492,0,0,-0.019600000232458115,-0.12700000381868817,-0.017999999727163266,-0.07199999890865307
0,0,9.979032516479492,0,0,-0.019600000232458115,0.05499999823992851,0.04200000047506539,-0.07199999890865307
0,0,9.979032516479492,0,0,-0.019600000232458115,-0.004999999877891834,-0.1400000015835513,0.04900000055424296
0,0,9.979032516479492,0,0,-0.019600000232458115,0.05499999823992851,0.04200000047506539,-0.07199999890865307
0,0,9.96945571899414,0,0,-0.029399998486042023,-0.004999999877891834,-0.017999999727163266,0.04900000055424296
0,0,9.979032516479492,0,0,-0.009800000116229057,-0.0659999978879142,-0.017999999727163266,-0.010999999647985701
0,0,9.979032516479492,0,0,-0.009800000116229057,-0.004999999877891834,-0.017999999727163266,-0.010999999647985701
0,0,9.979032516479492,0,0,-0.019600000232458115,-0.004999999877891834,0.04200000047506539,-0.010999999647985701
0,0,9.979032516479492,0,0,-0.019600000232458115,-0.004999999877891834,-0.017999999727163266,0.04900000055424296
0,0,9.979032516479492,0,0,-0.019600000232458115,-0.004999999877891834,0.10299999973573276,-0.010999999647985701
0,0,9.96945571899414,0,0,-0.03920000046491623,0.2379999960219306,0.04200000047506539,-0.010999999647985701
0,0,9.96945571899414,0,0,-0.029399998486042023,-0.004999999877891834,0.04200000047506539,0.04900000055424296
0,0,9.979032516479492,0,0,-0.019600000232458115,0.05499999823992851,0.04200000047506539,0.04900000055424296
0,0,9.979032516479492,0,0,-0.019600000232458115,0.05499999823992851,0.04200000047506539,0.04900000055424296
0,0,9.979032516479492,0,0,-0.019600000232458115,-0.004999999877891834,0.04200000047506539,0.04900000055424296
0,0,9.979032516479492,0,0,-0.019600000232458115,-0.0659999978879142,-0.017999999727163266,-0.07199999890865307
0,0,9.988609313964844,0,0,-0.009800000116229057,0.05499999823992851,0.04200000047506539,-0.07199999890865307
0,0,9.96945571899414,0,0,-0.029399998486042023,0.05499999823992851,-0.07900000232288394,-0.010999999647985701
0,0,9.96945571899414,0,0,-0.029399998486042023,0.05499999823992851,-0.017999999727163266,0.04900000055424296
0,0,9.979032516479492,0,0,-0.009800000116229057,0.05499999823992851,-0.20099999417411205,-0.010999999647985701
0,0,9.979032516479492,0,0,-0.019600000232458115,-0.004999999877891834,-0.017999999727163266,0.04900000055424296
0,0,9.979032516479492,0,0,-0.019600000232458115,-0.12700000381868817,0.10299999973573276,-0.010999999647985701
0,0,9.979032516479492,0,0,-0.019600000232458115,-0.004999999877891834,0.04200000047506539,-0.07199999890865307
0,0,9.988609313964844,0,0,-0.009800000116229057,-0.004999999877891834,0.10299999973573276,-0.07199999890865307
0,0,9.979032516479492,0,0,-0.019600000232458115,0.11599999750059588,-0.07900000232288394,-0.010999999647985701
0,0,9.979032516479492,0,0,-0.019600000232458115,0.11599999750059588,-0.07900000232288394,-0.010999999647985701
0,0,9.979032516479492,0,0,-0.019600000232458115,0.11599999750059588,-0.017999999727163266,-0.010999999647985701
0,0,9.979032516479492,0,0,-0.019600000232458115,-0.004999999877891834,0.04200000047506539,0.10999999647985702
0,0,9.988609313964844,0,0,-0.009800000116229057,-0.004999999877891834,-0.07900000232288394,-0.010999999647985701
0,0,9.979032516479492,0,0,-0.019600000232458115,-0.004999999877891834,-0.017999999727163266,0.10999999647985702
0,0,9.979032516479492,0,0,0,-0.004999999877891834,0.04200000047506539,0.04900000055424296
0,0,9.979032516479492,0,0,0,-0.004999999877891834,0.04200000047506539,0.04900000055424296
0,0,9.979032516479492,0,0,0,-0.0659999978879142,-0.07900000232288394,-0.010999999647985701
0,0,9.979032516479492,0,0,0,0.4210000004740393,0.10299999973573276,-0.010999999647985701
0,0,9.979032516479492,0,0,0,-0.004999999877891834,-0.07900000232288394,-0.010999999647985701
0,0,9.979032516479492,0,0,0,-0.12700000381868817,0.04200000047506539,-0.010999999647985701
0,0,9.979032516479492,0,0,0,-0.0659999978879142,-0.017999999727163266,-0.010999999647985701
0,0,9.979032516479492,0,0,0,0.2379999960219306,-0.07900000232288394,-0.07199999890865307
0,0,9.979032516479492,0,0,0,0.11599999750059588,-0.07900000232288394,-0.010999999647985701
0,0,9.979032516479492,0,0,0,-0.0659999978879142,0.16400000566650674,-0.010999999647985701
0,0,9.96945571899414,0,0,-0.009800000116229057,0.05499999823992851,-0.017999999727163266,-0.010999999647985701
0,0,9.96945571899414,0,0,-0.009800000116229057,-0.004999999877891834,-0.07900000232288394,-0.010999999647985701
0,0,9.979032516479492,0,0,0,-0.004999999877891834,0.04200000047506539,0.04900000055424296
0,0,9.979032516479492,0,0,0,-0.12700000381868817,0.04200000047506539,0.04900000055424296
0,0,9.979032516479492,0,0,0,0.05499999823992851,0.04200000047506539,-0.010999999647985701
0,0,9.979032516479492,0,0,0,0.05499999823992851,-0.017999999727163266,0.04900000055424296
0,0,9.988609313964844,0,0,0,-0.0659999978879142,-0.017999999727163266,0.04900000055424296
0,0,9.979032516479492,0,0,0.009800000116229057,0.05499999823992851,0.04200000047506539,-0.07199999890865307
0,0,9.979032516479492,0,0,-0.009800000116229057,-0.0659999978879142,0.04200000047506539,-0.010999999647985701
0,0,9.979032516479492,0,0,-0.009800000116229057,-0.0659999978879142,0.10299999973573276,0.04900000055424296
0,0,9.979032516479492,0,0,0.009800000116229057,0.05499999823992851,0.10299999973573276,-0.010999999647985701
0,0,9.979032516479492,0,0,0,-0.004999999877891834,-0.017999999727163266,-0.07199999890865307
0,0,9.979032516479492,0,0,0,0.17700000343136985,0.10299999973573276,-0.07199999890865307
0,0,9.979032516479492,0,0,0,-0.0659999978879142,0.04200000047506539,-0.07199999890865307
0,0,9.979032516479492,0,0,0,-0.0659999978879142,0.04200000047506539,-0.07199999890865307
0,0,9.979032516479492,0,0,0,0.05499999823992851,-0.07900000232288394,-0.010999999647985701
0,0,9.979032516479492,0,0,0,0.11599999750059588,-0.017999999727163266,-0.010999999647985701
0,0,9.979032516479492,0,0,0,0.11599999750059588,-0.017999999727163266,-0.010999999647985701
0,0,9.979032516479492,0,0,0,-0.004999999877891834,-0.07900000232288394,-0.07199999890865307
0,0,9.988609313964844,0,0,0.009800000116229057,-0.12700000381868817,0.10299999973573276,0.04900000055424296
0,0,9.979032516479492,0,0,0.009800000116229057,-0.18799999640924894,-0.017999999727163266,-0.010999999647985701
0,0,9.979032516479492,0,0,0,-0.0659999978879142,-0.07900000232288394,0.04900000055424296
0,0,9.979032516479492,0,0,0,0.11599999750059588,0.04200000047506539,-0.07199999890865307
0,0,9.979032516479492,0,0,0,0.05499999823992851,-0.07900000232288394,-0.07199999890865307
0,0,9.988609313964844,0,0,0,-0.12700000381868817,0.04200000047506539,0.04900000055424296
0,0,9.979032516479492,0,0,0,-0.0659999978879142,0.04200000047506539,-0.07199999890865307
0,0,9.979032516479492,0,0,0,-0.004999999877891834,-0.017999999727163266,-0.010999999647985701
0,0,9.979032516479492,0,0,0,-0.0659999978879142,-0.017999999727163266,0.04900000055424296
0,0,9.979032516479492,0,0,0,-0.0659999978879142,-0.07900000232288394,-0.010999999647985701
0,0,9.979032516479492,0,0,0,-0.004999999877891834,-0.017999999727163266,-0.010999999647985701
0,0,9.979032516479492,0,0,0,-0.004999999877891834,-0.017999999727163266,-0.010999999647985701
0,0,9.979032516479492,0,0,0,-0.004999999877891834,-0.017999999727163266,-0.010999999647985701
0,0,9.979032516479492,0,0,0,-0.0659999978879142,-0.1400000015835513,-0.010999999647985701
0,0,9.979032516479492,0,0,0,-0.0659999978879142,0.04200000047506539,0.10999999647985702
0,0,9.979032516479492,0,0,0,0.11599999750059588,-0.1400000015835513,-0.13300000483942703
0,0,9.979032516479492,0,0,0,-0.004999999877891834,0.10299999973573276,-0.010999999647985701
0,0,9.979032516479492,0,0,0,-0.004999999877891834,0.04200000047506539,-0.010999999647985701
0,0,9.988609313964844,0,0,0,-0.0659999978879142,-0.01700000066872456,-0.07199999890865307
0,0,9.988609313964844,0,0,0.009800000116229057,-0.004999999877891834,-0.01700000066872456,-0.010999999647985701
0,0,9.988609313964844,0,0,0,-0.004999999877891834,0.0429999995335041,-0.010999999647985701
0,0,9.979032516479492,0,0,0,-0.0659999978879142,-0.07799999992939192,-0.010999999647985701
0,0,9.979032516479492,0,0,0,-0.004999999877891834,0.0429999995335041,-0.010999999647985701
-0.009576806798577309,0,9.979032516479492,0,0,0,0.11599999750059588,0.16500000138989213,0.04900000055424296
0,0,9.979032516479492,0,0,0,-0.004999999877891834,-0.01700000066872456,0.04900000055424296
0,0,9.979032516479492,0,0,0.009800000116229057,-0.004999999877891834,-0.01700000066872456,0.10999999647985702
0,0,9.979032516479492,0,0,0,0.05499999823992851,-0.01700000066872456,-0.010999999647985701
0,0,9.979032516479492,0,0,0,-0.004999999877891834,-0.07799999992939192,-0.07199999890865307
0,0,9.979032516479492,0,0,0,-0.0659999978879142,-0.01700000066872456,0.04900000055424296
0,0,9.979032516479492,0,0,0,0.05499999823992851,0.0429999995335041,-0.07199999890865307
0,0,9.988609313964844,0,0,0.009800000116229057,0.05499999823992851,0.0429999995335041,0.10999999647985702
0,0,9.988609313964844,0,0,0.009800000116229057,0.05499999823992851,-0.07799999992939192,0.10999999647985702
0,0,9.988609313964844,0,0,0.009800000116229057,-0.004999999877891834,0.10400000212922476,-0.010999999647985701
0,0,9.988609313964844,0,0,0.009800000116229057,-0.004999999877891834,-0.01700000066872456,0.04900000055424296
0,0,9.988609313964844,0,0,0.009800000116229057,-0.004999999877891834,-0.01700000066872456,-0.010999999647985701
0,0,9.979032516479492,0,0,0,-0.0659999978879142,0.10400000212922476,-0.010999999647985701
0,0,9.979032516479492,0,0,0,-0.004999999877891834,-0.1390000058601659,0.04900000055424296
0,0,9.979032516479492,0,0,0,-0.12700000381868817,-0.01700000066872456,-0.010999999647985701
0,0,9.979032516479492,0,0,0,0.05499999823992851,0.0429999995335041,-0.010999999647985701
0,0,9.979032516479492,0,0,0,-0.0659999978879142,-0.01700000066872456,0.10999999647985702
0,0,9.979032516479492,0,0,0,-0.004999999877891834,0.0429999995335041,0.04900000055424296
0,0,9.988609313964844,0,0,0.009800000116229057,0.11599999750059588,-0.01700000066872456,-0.010999999647985701
0,0,9.988609313964844,0,0,0.009800000116229057,-0.12700000381868817,-0.07799999992939192,0.10999999647985702
0,0,9.988609313964844,0,0,0.009800000116229057,0.05499999823992851,-0.01700000066872456,-0.07199999890865307
0,0,9.979032516479492,0,0,0.009800000116229057,0.11599999750059588,-0.07799999992939192,-0.07199999890865307
0,0,9.979032516479492,0,0,0,-0.0659999978879142,-0.01700000066872456,0.04900000055424296
0,0,9.979032516479492,0,0,0,-0.0659999978879142,-0.07799999992939192,0.04900000055424296
0,0,9.979032516479492,0,0,0,-0.0659999978879142,0.0429999995335041,-0.010999999647985701
0,0,9.988609313964844,0,0,0.009800000116229057,-0.004999999877891834,-0.01700000066872456,-0.010999999647985701
0,0,9.988609313964844,0,0,0.009800000116229057,-0.004999999877891834,-0.01700000066872456,0.04900000055424296
0,0,9.988609313964844,0,0,0.009800000116229057,-0.0659999978879142,0.0429999995335041,0.10999999647985702
0,0,9.979032516479492,0,0,0,-0.0659999978879142,-0.01700000066872456,0.10999999647985702
0,0,9.96945571899414,0,0,0,-0.12700000381868817,0.0429999995335041,0.04900000055424296
0,0,9.979032516479492,0,0,0,-0.004999999877891834,-0.07799999992939192,-0.07199999890865307
0,0,9.979032516479492,0,0,0,-0.0659999978879142,-0.01700000066872456,-0.07199999890865307
0,0,9.988609313964844,0,0,0.009800000116229057,-0.12700000381868817,0.10400000212922476,-0.07199999890865307
0,0,9.988609313964844,0,0,0.009800000116229057,-0.004999999877891834,0.10400000212922476,0.10999999647985702
0,0,9.988609313964844,0,0,0.009800000116229057,-0.004999999877891834,-0.01700000066872456,-0.010999999647985701
0,0,9.988609313964844,0,0,0.009800000116229057,0.05499999823992851,-0.07799999992939192,-0.010999999647985701
0,0,9.988609313964844,0,0,0.009800000116229057,-0.0659999978879142,0.16500000138989213,-0.010999999647985701
0,0,9.988609313964844,0,0,0.009800000116229057,-0.004999999877891834,-0.07799999992939192,-0.07199999890865307
-0.009576806798577309,0,9.988609313964844,0,0,0,-0.004999999877891834,0.0429999995335041,-0.010999999647985701
0,0,9.988609313964844,0,0,0.009800000116229057,-0.004999999877891834,-0.07799999992939192,-0.010999999647985701
0,0,9.988609313964844,0,0,0.009800000116229057,-0.0659999978879142,-0.01700000066872456,-0.010999999647985701
0,0,9.988609313964844,0,0,0.009800000116229057,-0.0659999978879142,0.0429999995335041,-0.010999999647985701
0,0,9.988609313964844,0,0,0.009800000116229057,-0.004999999877891834,-0.01700000066872456,-0.010999999647985701
0,0,9.988609313964844,0,0,0.009800000116229057,0.11599999750059588,-0.01700000066872456,-0.07199999890865307
0,0,9.988609313964844,0,0,0,-0.004999999877891834,0.10400000212922476,0.04900000055424296
0,0,9.988609313964844,0,0,0,0.05499999823992851,0.0429999995335041,0.04900000055424296
0,0,9.998186111450195,0,0,0.009800000116229057,-0.004999999877891834,0.0429999995335041,-0.07199999890865307
0,0,9.988609313964844,0,0,0,0.11599999750059588,-0.01700000066872456,-0.07199999890865307
0,0,9.988609313964844,0,0,0,-0.004999999877891834,0.0429999995335041,-0.010999999647985701
0,0,9.998186111450195,0,0,0,0.05499999823992851,-0.01700000066872456,-0.010999999647985701
0,0,9.988609313964844,0,0,0,0.05499999823992851,-0.01700000066872456,-0.010999999647985701
0,0,9.988609313964844,0,0,0,-0.004999999877891834,0.0429999995335041,-0.010999999647985701
0,0,9.988609313964844,0,0,0,-0.004999999877891834,-0.01700000066872456,0.04900000055424296
0,0,9.988609313964844,0,0,0,-0.004999999877891834,-0.01700000066872456,0.04900000055424296
0,0,9.988609313964844,0,0,0,-0.004999999877891834,-0.01700000066872456,0.04900000055424296
0,0,9.979032516479492,0,0,-0.009800000116229057,0.05499999823992851,-0.01700000066872456,-0.07199999890865307
0,0,9.979032516479492,0,0,-0.009800000116229057,0.05499999823992851,-0.01700000066872456,-0.07199999890865307
0,0,9.988609313964844,0,0,0,-0.004999999877891834,-0.07799999992939192,-0.010999999647985701
0,0,9.998186111450195,0,0,0,0.05499999823992851,0.0429999995335041,-0.07199999890865307
0,0,9.998186111450195,0,0,0.009800000116229057,0.11599999750059588,-0.01700000066872456,-0.13300000483942703
0,0,9.998186111450195,0,0,0.009800000116229057,-0.004999999877891834,0.0429999995335041,0.04900000055424296
0,0,9.988609313964844,0,0,0.009800000116229057,-0.004999999877891834,-0.01700000066872456,-0.010999999647985701
0,0,9.979032516479492,0,0,-0.019600000232458115,-0.004999999877891834,-0.01700000066872456,-0.010999999647985701
0,0,9.979032516479492,0,0,-0.019600000232458115,-0.004999999877891834,-0.01700000066872456,-0.010999999647985701
0,0,9.988609313964844,0,0,0,-0.004999999877891834,-0.07799999992939192,0.04900000055424296
0,0,9.988609313964844,0,0,0,-0.004999999877891834,-0.1390000058601659,0.04900000055424296
0,0,9.998186111450195,0,0,0,-0.0659999978879142,0.0429999995335041,-0.07199999890865307
0,0,9.979032516479492,0,0,0.009800000116229057,-0.0659999978879142,0.0429999995335041,0.04900000055424296
0,0,9.979032516479492,0,0,-0.009800000116229057,-0.004999999877891834,-0.01700000066872456,-0.010999999647985701
0,0,9.998186111450195,0,0,-0.009800000116229057,-0.0659999978879142,0.0429999995335041,-0.010999999647985701
0,0,9.998186111450195,0,0,0.009800000116229057,0.05499999823992851,-0.01700000066872456,-0.010999999647985701
0,0,9.998186111450195,0,0,0.009800000116229057,0.11599999750059588,-0.01700000066872456,0.04900000055424296
0,0,9.998186111450195,0,0,0.009800000116229057,0.11599999750059588,-0.01700000066872456,0.04900000055424296
0,0,9.998186111450195,0,0,0.009800000116229057,-0.0659999978879142,0.10400000212922476,0.04900000055424296
0,0,9.998186111450195,0,0,0.009800000116229057,0.05499999823992851,0.10400000212922476,-0.010999999647985701
0,0,9.979032516479492,0,0,-0.009800000116229057,0.05499999823992851,0.0429999995335041,0.04900000055424296
0,0,9.988609313964844,0,0,0,-0.0659999978879142,-0.01700000066872456,-0.010999999647985701
0,0,9.988609313964844,0,0,0,-0.0659999978879142,-0.01700000066872456,-0.010999999647985701
0,0,9.988609313964844,0,0,0,-0.0659999978879142,0.10400000212922476,-0.010999999647985701
0,0,9.988609313964844,0,0,0,-0.004999999877891834,-0.07799999992939192,-0.07199999890865307
0,0,9.988609313964844,0,0,0,0.05499999823992851,0.0429999995335041,-0.010999999647985701
0,0,9.988609313964844,0,0,0,-0.004999999877891834,0.0429999995335041,-0.010999999647985701
0,0,9.988609313964844,0,0,0,-0.0659999978879142,-0.01700000066872456,-0.010999999647985701
0,0,9.988609313964844,0,0,0.009800000116229057,0.11599999750059588,0.10400000212922476,0.04900000055424296
0,0,9.998186111450195,0,0,0.009800000116229057,-0.0659999978879142,0.10400000212922476,-0.010999999647985701
0,0,9.998186111450195,0,0,0,-0.004999999877891834,0.0429999995335041,-0.010999999647985701
0,0,9.988609313964844,0,0,0,0.05499999823992851,0.0429999995335041,0.04900000055424296
0,0,9.998186111450195,0,0,0.009800000116229057,0.11599999750059588,-0.01700000066872456,-0.010999999647985701
0,0,9.998186111450195,0,0,0.009800000116229057,-0.0659999978879142,-0.01700000066872456,0.04900000055424296
0,0,9.998186111450195,0,0,0.009800000116229057,0.05499999823992851,0.0429999995335041,0.04900000055424296
0,0,9.998186111450195,0,0,0.009800000116229057,-0.0659999978879142,-0.07799999992939192,-0.07199999890865307
0,0,9.988609313964844,0,0,0.009800000116229057,-0.0659999978879142,-0.01700000066872456,-0.010999999647985701
0,0,9.988609313964844,0,0,0,0.05499999823992851,0.0429999995335041,-0.010999999647985701
0,0,9.988609313964844,0,0,0,-0.0659999978879142,-0.01700000066872456,-0.010999999647985701
0,0,9.988609313964844,0,0,0,0.05499999823992851,-0.01700000066872456,-0.010999999647985701
0,0,9.988609313964844,0,0,0.009800000116229057,0.05499999823992851,-0.07799999992939192,0.04900000055424296
0,0,9.998186111450195,0,0,0,-0.004999999877891834,-0.01700000066872456,-0.07199999890865307
0,0,9.998186111450195,0,0,0.009800000116229057,-0.12700000381868817,0.0429999995335041,-0.010999999647985701
0,0,9.998186111450195,0,0,0.009800000116229057,-0.12700000381868817,-0.01700000066872456,0.04900000055424296
0,0,9.998186111450195,0,0,0.009800000116229057,-0.004999999877891834,0.0429999995335041,-0.010999999647985701
0,0,9.998186111450195,0,0,0.009800000116229057,-0.0659999978879142,-0.01700000066872456,-0.010999999647985701
0,0,9.998186111450195,0,0,0.009800000116229057,-0.0659999978879142,-0.01700000066872456,-0.010999999647985701
0,0,9.998186111450195,0,0,0.009800000116229057,-0.0659999978879142,-0.01700000066872456,0.04900000055424296
0,0,9.988609313964844,0,0,0,0.05499999823992851,0.10400000212922476,-0.13300000483942703
0,0,9.998186111450195,0,0,0.009800000116229057,-0.004999999877891834,-0.01700000066872456,-0.010999999647985701
0,0,9.998186111450195,0,0,0.009800000116229057,-0.12700000381868817,-0.1390000058601659,-0.010999999647985701
0,0,9.998186111450195,0,0,0.009800000116229057,-0.004999999877891834,-0.01700000066872456,-0.010999999647985701
0,0,10.007762908935547,0,0,0.019600000232458115,-0.004999999877891834,0.10400000212922476,0.04900000055424296
0,0,10.007762908935547,0,0,0.009800000116229057,-0.004999999877891834,-0.07799999992939192,-0.010999999647985701
0,0,9.998186111450195,0,0,0.009800000116229057,0.05499999823992851,-0.01700000066872456,-0.010999999647985701
0,0,9.998186111450195,0,0,0.009800000116229057,0.05499999823992851,0.0429999995335041,-0.010999999647985701
0,0,9.998186111450195,0,0,0.009800000116229057,-0.004999999877891834,0.10400000212922476,-0.010999999647985701
0,0,9.998186111450195,0,0,0.009800000116229057,-0.004999999877891834,0.0429999995335041,0.04900000055424296
0,0,9.998186111450195,0,0,0.009800000116229057,-0.004999999877891834,-0.07799999992939192,0.04900000055424296
0,0,10.007762908935547,0,0,0.019600000232458115,-0.004999999877891834,-0.01700000066872456,0.10999999647985702
0,0,10.007762908935547,0,0,0.019600000232458115,-0.0659999978879142,0.0429999995335041,-0.010999999647985701
0,0,9.998186111450195,0,0,0.019600000232458115,0.11599999750059588,0.0429999995335041,0.04900000055424296
0,0,9.998186111450195,0,0,0.009800000116229057,-0.0659999978879142,0.0429999995335041,-0.07199999890865307
0,0,9.998186111450195,0,0,0.009800000116229057,-0.004999999877891834,-0.01700000066872456,0.10999999647985702
0,0,9.998186111450195,0,0,0.009800000116229057,0.05499999823992851,0.10400000212922476,0.04900000055424296
0,0,9.998186111450195,0,0,0.009800000116229057,-0.0659999978879142,0.0429999995335041,0.04900000055424296
0,0,9.998186111450195,0,0,0.009800000116229057,0.11599999750059588,-0.01700000066872456,-0.07199999890865307
0,0,9.998186111450195,0,0,0.009800000116229057,-0.18799999640924894,-0.01700000066872456,-0.010999999647985701
0,0,9.998186111450195,0,0,0.009800000116229057,-0.004999999877891834,0.0429999995335041,0.04900000055424296
0,0,10.007762908935547,0,0,0.019600000232458115,-0.12700000381868817,0.0429999995335041,-0.010999999647985701
0,0,10.007762908935547,0,0,0.009800000116229057,-0.0659999978879142,-0.07799999992939192,-0.010999999647985701
0,0,9.998186111450195,0,0,0.009800000116229057,-0.004999999877891834,-0.1390000058601659,0.04900000055424296
0,0,9.998186111450195,0,0,0.009800000116229057,0.05499999823992851,-0.07799999992939192,-0.010999999647985701
0,0,9.998186111450195,0,0,0.009800000116229057,-0.18799999640924894,0.0429999995335041,0.04900000055424296
0,0,9.998186111450195,0,0,0.009800000116229057,0.05499999823992851,-0.07799999992939192,-0.010999999647985701
0,0,9.998186111450195,0,0,0.009800000116229057,0.11599999750059588,0.0429999995335041,-0.010999999647985701
0,0,10.007762908935547,0,0,0.019600000232458115,0.11599999750059588,0.0429999995335041,-0.07199999890865307
0,0,10.007762908935547,0,0,0.019600000232458115,-0.0659999978879142,0.0429999995335041,-0.010999999647985701
0,0,9.988609313964844,0,0,0,0.11599999750059588,-0.01700000066872456,-0.010999999647985701
0,0,9.998186111450195,0,0,0.009800000116229057,0.11599999750059588,-0.01700000066872456,0.04900000055424296
0,0,9.998186111450195,0,0,0.009800000116229057,-0.004999999877891834,-0.1390000058601659,-0.13300000483942703
0,0,9.998186111450195,0,0,0.009800000116229057,-0.004999999877891834,0.0429999995335041,0.10999999647985702
0,0,9.998186111450195,0,0,0.009800000116229057,-0.0659999978879142,-0.07799999992939192,0.04900000055424296
0,0,9.998186111450195,0,0,0.009800000116229057,-0.004999999877891834,0.0429999995335041,-0.010999999647985701
0,0,9.998186111450195,0,0,0.009800000116229057,-0.004999999877891834,-0.07799999992939192,0.04900000055424296
0,0,9.998186111450195,0,0,0,-0.4319999934519184,-0.19999999845072666,-0.010999999647985701
0,0,9.998186111450195,0,0,0,-0.0659999978879142,-0.07799999992939192,-0.010999999647985701
0,0,9.998186111450195,0,0,0,-0.0659999978879142,-0.07799999992939192,-0.010999999647985701
0,0,10.007762908935547,0,0,0.009800000116229057,0.05499999823992851,-0.1390000058601659,-0.07199999890865307
0,0,9.998186111450195,0,0,0,-0.004999999877891834,0.0429999995335041,-0.010999999647985701
0,0,10.007762908935547,0,0,0.009800000116229057,-0.004999999877891834,0.0429999995335041,0.10999999647985702
0,0,10.007762908935547,0,0,0,-0.0659999978879142,0.0429999995335041,0.04900000055424296
0,0,9.998186111450195,0,0,0,-0.12700000381868817,-0.01700000066872456,0.04900000055424296
0,0,9.988609313964844,0,0,-0.009800000116229057,0.05499999823992851,-0.01700000066872456,0.04900000055424296
0,0,9.988609313964844,0,0,-0.009800000116229057,-0.0659999978879142,-0.01700000066872456,0.04900000055424296
0,0,9.988609313964844,0,0,-0.009800000116229057,0.05499999823992851,-0.01700000066872456,-0.010999999647985701
0,0,10.007762908935547,0,0,0.009800000116229057,0.05499999823992851,-0.01700000066872456,-0.07199999890865307
0,0,10.007762908935547,0,0,0.009800000116229057,-0.0659999978879142,-0.07799999992939192,0.04900000055424296
0,0,9.998186111450195,0,0,0,-0.004999999877891834,-0.01700000066872456,-0.010999999647985701
0,0,9.998186111450195,0,0,0,-0.004999999877891834,0.10400000212922476,0.10999999647985702
0,0,9.988609313964844,0,0,0,-0.0659999978879142,-0.07799999992939192,0.04900000055424296
0,0,9.988609313964844,0,0,-0.009800000116229057,-0.0659999978879142,0.0429999995335041,0.04900000055424296
0,0,9.988609313964844,0,0,-0.009800000116229057,-0.004999999877891834,0.0429999995335041,0.04900000055424296
0,0,9.998186111450195,0,0,0,-0.004999999877891834,0.0429999995335041,-0.010999999647985701
0,0,9.998186111450195,0,0,0,-0.0659999978879142,-0.07799999992939192,-0.010999999647985701
0,0,9.998186111450195,0,0,0,-0.12700000381868817,0.10400000212922476,-0.010999999647985701
0,0,9.998186111450195,0,0,0,0.11599999750059588,-0.01700000066872456,0.10999999647985702
0,0,9.988609313964844,0,0,-0.009800000116229057,-0.004999999877891834,-0.01700000066872456,-0.010999999647985701
0,0,9.998186111450195,0,0,0,-0.004999999877891834,-0.01700000066872456,0.04900000055424296
0,0,9.998186111450195,0,0,0,-0.004999999877891834,-0.01700000066872456,0.04900000055424296
0,0,9.998186111450195,0,0,0,0.11599999750059588,-0.07799999992939192,0.04900000055424296
0,0,9.998186111450195,0,0,0,-0.004999999877891834,0.0429999995335041,0.10999999647985702
0,0,9.998186111450195,0,0,0,-0.004999999877891834,0.10400000212922476,0.04900000055424296
0,0,9.979032516479492,0,0,0,-0.004999999877891834,0.10400000212922476,0.04900000055424296
0,0,9.988609313964844,0,0,-0.009800000116229057,-0.004999999877891834,0.0429999995335041,-0.010999999647985701
0,0,9.988609313964844,0,0,-0.009800000116229057,-0.004999999877891834,-0.01700000066872456,-0.010999999647985701
0,0,9.998186111450195,0,0,0,-0.0659999978879142,-0.01700000066872456,0.04900000055424296
0,0,9.998186111450195,0,0,0,-0.0659999978879142,0.0429999995335041,0.10999999647985702
0,0,9.998186111450195,0,0,0,0.05499999823992851,-0.07799999992939192,-0.010999999647985701
0,0,9.998186111450195,0,0,0,-0.004999999877891834,-0.07799999992939192,0.10999999647985702
0,0,9.998186111450195,0,0,0,-0.004999999877891834,-0.07799999992939192,0.10999999647985702
0,0,9.998186111450195,0,0,0,-0.0659999978879142,0.10400000212922476,0.04900000055424296
0,0,9.998186111450195,0,0,0,0.11599999750059588,-0.07799999992939192,0.04900000055424296
0,0,9.998186111450195,0,0,0,-0.0659999978879142,0.0429999995335041,-0.010999999647985701
0,0,9.979032516479492,0,0,-0.019600000232458115,0.05499999823992851,-0.01700000066872456,-0.010999999647985701
0,0,9.998186111450195,0,0,0,-0.004999999877891834,-0.01700000066872456,-0.010999999647985701
0,0,9.998186111450195,0,0,0,0.05499999823992851,-0.01700000066872456,-0.010999999647985701
0,0,9.998186111450195,0,0,0,-0.0659999978879142,0.0429999995335041,-0.010999999647985701
0,0,9.998186111450195,0,0,0,-0.0659999978879142,0.0429999995335041,-0.07199999890865307
0,0,9.998186111450195,0,0,0,-0.12700000381868817,0.0429999995335041,0.04900000055424296
0,0,9.998186111450195,0,0,0,0.05499999823992851,-0.07799999992939192,-0.010999999647985701
0,0,9.998186111450195,0,0,0,0.11599999750059588,0.0429999995335041,-0.07199999890865307
0,0,9.998186111450195,0,0,0,0.05499999823992851,-0.07799999992939192,-0.010999999647985701
0,0,9.998186111450195,0,0,0,0.05499999823992851,0.0429999995335041,-0.010999999647985701
0,0,9.998186111450195,0,0,0,-0.0659999978879142,-0.07799999992939192,0.04900000055424296
0,0,9.988609313964844,0,0,0,0.11599999750059588,0.0429999995335041,-0.13300000483942703
0,0,9.988609313964844,0,0,-0.009800000116229057,-0.004999999877891834,-0.01700000066872456,-0.07199999890865307
0,0,9.998186111450195,0,0,-0.009800000116229057,0.05499999823992851,-0.01700000066872456,-0.010999999647985701
0,0,9.998186111450195,0,0,0,0.05499999823992851,-0.1390000058601659,0.04900000055424296
0,0,9.998186111450195,0,0,0,-0.004999999877891834,-0.01700000066872456,-0.07199999890865307
0,0,9.988609313964844,0,0,0,-0.12700000381868817,-0.01700000066872456,-0.010999999647985701
0,0,9.998186111450195,0,0,0,-0.004999999877891834,-0.1390000058601659,-0.07199999890865307
0,0,9.988609313964844,0,0,-0.009800000116229057,-0.0659999978879142,0.0429999995335041,0.04900000055424296
0,0,9.988609313964844,0,0,-0.009800000116229057,-0.12700000381868817,-0.07799999992939192,0.04900000055424296
-0.009576806798577309,0,9.998186111450195,0,0,-0.009800000116229057,0.05499999823992851,-0.01700000066872456,0.10999999647985702
-0.009576806798577309,0,9.998186111450195,0,0,0,-0.18799999640924894,0.10400000212922476,0.04900000055424296
0,0,9.998186111450195,0,0,0,0.17700000343136985,0.10400000212922476,-0.13300000483942703
0,0,9.998186111450195,0,0,0,-0.0659999978879142,-0.07799999992939192,0.04900000055424296
0,0,9.998186111450195,0,0,0,-0.0659999978879142,-0.07799999992939192,0.04900000055424296
0,0,9.998186111450195,0,0,0,0.11599999750059588,-0.01700000066872456,-0.010999999647985701
0,0,9.998186111450195,0,0,0,-0.0659999978879142,-0.01700000066872456,-0.010999999647985701
0,0,9.988609313964844,0,0,-0.009800000116229057,0.05499999823992851,0.0429999995335041,-0.010999999647985701
0,0,9.988609313964844,0,0,-0.009800000116229057,-0.0659999978879142,-0.01700000066872456,0.04900000055424296
0,0,9.998186111450195,0,0,0,0.05499999823992851,0.0429999995335041,-0.07199999890865307
0,0,9.998186111450195,0,0,0,0.11599999750059588,-0.01700000066872456,-0.010999999647985701
0,0,9.998186111450195,0,0,0,-0.18799999640924894,-0.01700000066872456,-0.010999999647985701
0,0,9.988609313964844,0,0,0,-0.004999999877891834,0.0429999995335041,0.10999999647985702
0,0,9.988609313964844,0,0,-0.009800000116229057,-0.24899998899980968,-0.01700000066872456,-0.07199999890865307
0,0,9.988609313964844,0,0,-0.009800000116229057,-0.0659999978879142,0.0429999995335041,-0.010999999647985701
0,0,9.988609313964844,0,0,-0.009800000116229057,-0.004999999877891834,0.0429999995335041,-0.07199999890865307
0,0,9.988609313964844,0,0,-0.009800000116229057,-0.12700000381868817,-0.01700000066872456,-0.010999999647985701
0,0,9.988609313964844,0,0,-0.009800000116229057,-0.0659999978879142,-0.01700000066872456,-0.07199999890865307
0,0,9.988609313964844,0,0,-0.009800000116229057,-0.004999999877891834,0.0429999995335041,-0.07199999890865307
0,0,9.988609313964844,0,0,-0.009800000116229057,0.11599999750059588,0.0429999995335041,-0.010999999647985701
0,0,9.988609313964844,0,0,-0.009800000116229057,0.17700000343136985,0.10400000212922476,-0.07199999890865307
0,0,9.988609313964844,0,0,-0.009800000116229057,-0.12700000381868817,-0.01700000066872456,-0.010999999647985701
0,0,9.998186111450195,0,0,0,-0.004999999877891834,-0.07799999992939192,0.04900000055424296
0,0,9.998186111450195,0,0,0,0.11599999750059588,0.0429999995335041,-0.010999999647985701
0,0,9.979032516479492,0,0,-0.019600000232458115,0.05499999823992851,0.0429999995335041,-0.07199999890865307
0,0,9.988609313964844,0,0,-0.009800000116229057,-0.004999999877891834,-0.07799999992939192,-0.010999999647985701
0,0,9.998186111450195,0,0,0,-0.004999999877891834,-0.01700000066872456,0.04900000055424296
0,0,9.998186111450195,0,0,0,-0.004999999877891834,-0.01700000066872456,0.04900000055424296
0,0,9.998186111450195,0,0,0,0.05499999823992851,-0.01700000066872456,0.04900000055424296
0,0,9.988609313964844,0,0,0,0.05499999823992851,-0.01700000066872456,0.04900000055424296
0,0,9.988609313964844,0,0,-0.009800000116229057,-0.0659999978879142,0.10400000212922476,0.10999999647985702
0,0,9.988609313964844,0,0,-0.009800000116229057,-0.18799999640924894,0.0429999995335041,-0.07199999890865307
0,0,9.988609313964844,0,0,-0.009800000116229057,-0.0659999978879142,-0.01700000066872456,0.04900000055424296
0,0,9.988609313964844,0,0,-0.009800000116229057,-0.004999999877891834,0.0429999995335041,0.04900000055424296
0,0,9.998186111450195,0,0,0,0.05499999823992851,0.10400000212922476,-0.010999999647985701
-0.009576806798577309,0,9.998186111450195,0,0,0,-0.0659999978879142,-0.01700000066872456,0.04900000055424296
0,0,9.988609313964844,0,0,-0.009800000116229057,-0.0659999978879142,-0.01700000066872456,0.04900000055424296
0,0,9.988609313964844,0,0,-0.009800000116229057,0.05499999823992851,0.0429999995335041,-0.010999999647985701
0,0,9.988609313964844,0,0,-0.009800000116229057,0.05499999823992851,-0.01700000066872456,-0.07199999890865307
0,0,9.988609313964844,0,0,-0.009800000116229057,0.05499999823992851,0.10400000212922476,0.10999999647985702
0,0,9.988609313964844,0,0,-0.009800000116229057,0.05499999823992851,-0.01700000066872456,-0.07199999890865307
0,0,9.988609313964844,0,0,-0.009800000116229057,0.05499999823992851,0.0429999995335041,-0.010999999647985701
0,0,9.988609313964844,0,0,-0.009800000116229057,0.05499999823992851,-0.01700000066872456,-0.07199999890865307
0,0,9.988609313964844,0,0,-0.009800000116229057,0.05499999823992851,-0.01700000066872456,-0.13300000483942703
0,0,9.988609313964844,0,0,-0.009800000116229057,-0.004999999877891834,0.0429999995335041,-0.07199999890865307
0,0,9.998186111450195,0,0,0,-0.004999999877891834,-0.07799999992939192,-0.07199999890865307
0,0,9.988609313964844,0,0,0,-0.004999999877891834,-0.07799999992939192,-0.07199999890865307
0,0,9.988609313964844,0,0,0,-0.004999999877891834,-0.07799999992939192,-0.07199999890865307
0,0,9.988609313964844,0,0,-0.009800000116229057,-0.0659999978879142,0.0429999995335041,0.04900000055424296
0,0,9.988609313964844,0,0,-0.019600000232458115,-0.004999999877891834,0.0429999995335041,0.04900000055424296
0,0,9.979032516479492,0,0,-0.009800000116229057,0.05499999823992851,-0.07799999992939192,0.10999999647985702
0,0,9.979032516479492,0,0,-0.009800000116229057,-0.004999999877891834,-0.01700000066872456,-0.010999999647985701
0,0,9.988609313964844,0,0,-0.009800000116229057,-0.004999999877891834,0.0429999995335041,-0.010999999647985701
0,0,9.988609313964844,0,0,-0.009800000116229057,0.11599999750059588,0.0429999995335041,0.04900000055424296
0,0,9.988609313964844,0,0,-0.009800000116229057,-0.0659999978879142,-0.07799999992939192,-0.010999999647985701
0,0,9.998186111450195,0,0,0,-0.0659999978879142,-0.01700000066872456,-0.07199999890865307
0,0,9.979032516479492,0,0,-0.029399998486042023,-0.0659999978879142,-0.01700000066872456,-0.07199999890865307
0,0,9.998186111450195,0,0,-0.009800000116229057,-0.0659999978879142,-0.07799999992939192,0.04900000055424296
0,0,9.988609313964844,0,0,-0.009800000116229057,-0.0659999978879142,0.0429999995335041,0.04900000055424296
0,0,9.988609313964844,0,0,-0.009800000116229057,-0.0659999978879142,0.0429999995335041,0.04900000055424296
0,0,9.998186111450195,0,0,0,-0.004999999877891834,0.0429999995335041,0.04900000055424296
0,0,9.979032516479492,0,0,-0.009800000116229057,-0.004999999877891834,0.0429999995335041,-0.07199999890865307
0,0,9.988609313964844,0,0,-0.019600000232458115,-0.004999999877891834,0.0429999995335041,-0.010999999647985701
0,0,9.988609313964844,0,0,-0.009800000116229057,0.05499999823992851,0.0429999995335041,0.04900000055424296
0,0,9.998186111450195,0,0,0,-0.12700000381868817,-0.07799999992939192,0.04900000055424296
0,0,9.998186111450195,0,0,0,-0.0659999978879142,0.10400000212922476,-0.07199999890865307
0,0,9.988609313964844,0,0,-0.009800000116229057,-0.0659999978879142,0.10400000212922476,-0.07199999890865307
0,0,9.979032516479492,0,0,-0.019600000232458115,0.05499999823992851,0.10400000212922476,-0.010999999647985701
0,0,9.979032516479492,0,0,-0.009800000116229057,0.11599999750059588,-0.01700000066872456,0.04900000055424296
0,0,9.988609313964844,0,0,-0.019600000232458115,0.11599999750059588,0.0429999995335041,0.04900000055424296
0,0,9.988609313964844,0,0,-0.009800000116229057,-0.0659999978879142,0.0429999995335041,0.10999999647985702
0,0,9.979032516479492,0,0,-0.019600000232458115,-0.004999999877891834,0.0429999995335041,0.04900000055424296
0,0,9.998186111450195,0,0,0,-0.004999999877891834,0.0429999995335041,0.04900000055424296
0,0,9.979032516479492,0,0,-0.03920000046491623,-0.12700000381868817,-0.07799999992939192,-0.010999999647985701
0,0,9.979032516479492,0,0,-0.009800000116229057,-0.004999999877891834,-0.01700000066872456,0.04900000055424296
0,0,9.979032516479492,0,0,-0.019600000232458115,-0.004999999877891834,0.0429999995335041,-0.13300000483942703
0,0,9.979032516479492,0,0,-0.019600000232458115,0.05499999823992851,0.0429999995335041,-0.13300000483942703
0,0,9.979032516479492,0,0,-0.019600000232458115,-0.004999999877891834,-0.07799999992939192,-0.07199999890865307
0,0,9.96945571899414,0,0,-0.029399998486042023,-0.004999999877891834,-0.01700000066872456,-0.010999999647985701
0,0,9.979032516479492,0,0,-0.019600000232458115,-0.0659999978879142,-0.01700000066872456,-0.07199999890865307
0,0,9.988609313964844,0,0,-0.019600000232458115,0.06200000165415938,-0.07900000232288394,0.1070000026395942
0,0,9.979032516479492,0,0,-0.019600000232458115,-0.18099999966512467,-0.07900000232288394,-0.01400000015835513
0,0,9.979032516479492,0,0,0,0.0009999999964224499,0.04200000047506539,0.04600000004387353
0,0,9.979032516479492,0,0,0.009800000116229057,-0.05900000114378995,-0.017999999727163266,0.04600000004387353
0,0,9.988609313964844,0,0,0,0.06200000165415938,-0.07900000232288394,-0.01400000015835513
0,0,9.988609313964844,0,0,0.009800000116229057,0.0009999999964224499,0.04200000047506539,-0.01400000015835513
0,0,9.979032516479492,0,0,0.009800000116229057,-0.05900000114378995,-0.017999999727163266,0.04600000004387353
0,0,9.979032516479492,0,0,0,0.0009999999964224499,0.04200000047506539,0.04600000004387353
0,0,9.988609313964844,0,0,0.009800000116229057,0.0009999999964224499,0.10299999973573276,0.1070000026395942
0,0,9.96945571899414,0,0,-0.009800000116229057,-0.1199999937343507,0.04200000047506539,-0.01400000015835513
0,0,9.979032516479492,0,0,0.009800000116229057,0.06200000165415938,-0.017999999727163266,0.04600000004387353
0,0,9.988609313964844,0,0,0.019600000232458115,0.06200000165415938,-0.017999999727163266,0.04600000004387353
0,0,9.988609313964844,0,0,0.009800000116229057,-0.05900000114378995,0.04200000047506539,0.1070000026395942
0,0,9.979032516479492,0,0,0,0.0009999999964224499,-0.017999999727163266,-0.0749999994190225
0,0,9.988609313964844,0,0,0,0.06200000165415938,-0.017999999727163266,-0.01400000015835513
0,0,9.988609313964844,0,0,0.009800000116229057,0.0009999999964224499,-0.07900000232288394,0.04600000004387353
0,0,9.988609313964844,0,0,0,-0.05900000114378995,-0.07900000232288394,-0.01400000015835513
0,0,9.988609313964844,0,0,0.019600000232458115,0.0009999999964224499,0.04200000047506539,0.04600000004387353
0,0,9.988609313964844,0,0,0,0.0009999999964224499,-0.017999999727163266,-0.0749999994190225
0,0,9.988609313964844,0,0,0.019600000232458115,0.0009999999964224499,-0.07900000232288394,0.04600000004387353
0,0,9.988609313964844,0,0,0.009800000116229057,0.06200000165415938,0.04200000047506539,0.04600000004387353
0,0,9.988609313964844,0,0,0.009800000116229057,0.06200000165415938,0.04200000047506539,0.04600000004387353
0,0,9.988609313964844,0,0,0.009800000116229057,0.0009999999964224499,-0.017999999727163266,0.04600000004387353
0,0,9.988609313964844,0,0,0.009800000116229057,0.0009999999964224499,-0.017999999727163266,0.04600000004387353
0,0,9.988609313964844,0,0,0.009800000116229057,0.18400000017549412,-0.017999999727163266,0.04600000004387353
0,0,9.979032516479492,0,0,0.009800000116229057,0.0009999999964224499,0.10299999973573276,-0.01400000015835513
0,0,9.979032516479492,0,0,0.009800000116229057,0.0009999999964224499,-0.017999999727163266,0.04600000004387353
0,0,9.988609313964844,0,0,0.019600000232458115,0.0009999999964224499,-0.017999999727163266,-0.01400000015835513
0,0,9.979032516479492,0,0,0.009800000116229057,0.0009999999964224499,-0.017999999727163266,-0.0749999994190225
