Accelerometer_Gx,Accelerometer_Gy,Accelerometer_Gz,Accelerometer_X,Accelerometer_Y,Accelerometer_Z,Gyroscope_Z,Gyroscope_X,Gyroscope_Y
0,0,10.036493301391602,0,0,0.14319999516010284,-0.057000003026912535,0.024000000747902123,-0.004999999877891834
0,0,10.036493301391602,0,0,0.14319999516010284,-0.1180000022875799,-0.03599999945432653,0.05499999823992851
0,0,10.036493301391602,0,0,0.14319999516010284,-0.17899999487814064,0.024000000747902123,-0.004999999877891834
0,0,10.02691650390625,0,0,0.15299999713897705,0.0030000000934877653,0.08499999667351618,-0.0659999978879142
0,0,10.02691650390625,0,0,0.13339999318122864,-0.1180000022875799,0.024000000747902123,0.05499999823992851
0,0,10.036493301391602,0,0,0.14319999516010284,0.0030000000934877653,0.08499999667351618,-0.004999999877891834
0,0,10.02691650390625,0,0,0.13339999318122864,-0.1180000022875799,-0.03599999945432653,-0.0659999978879142
0,0,10.036493301391602,0,0,0.14319999516010284,0.0030000000934877653,-0.03599999945432653,-0.0659999978879142
0,0,10.036493301391602,0,0,0.14319999516010284,0.0030000000934877653,0.024000000747902123,0.05499999823992851
0,0,10.02691650390625,0,0,0.13339999318122864,-0.057000003026912535,0.024000000747902123,0.05499999823992851
0,0,10.036493301391602,0,0,0.14319999516010284,-0.1180000022875799,0.14600000260429016,0.05499999823992851
0,0,10.036493301391602,0,0,0.14319999516010284,0.0030000000934877653,0.024000000747902123,-0.004999999877891834
0,0,10.017339706420898,0,0,0.12359999865293503,-0.057000003026912535,-0.03599999945432653,0.11599999750059588
0,0,10.017339706420898,0,0,0.12359999865293503,-0.057000003026912535,-0.03599999945432653,-0.004999999877891834
0,0,10.017339706420898,0,0,0.12359999865293503,0.06399999977103679,-0.03599999945432653,-0.004999999877891834
0,0,10.017339706420898,0,0,0.12359999865293503,-0.2399999874687014,0.14600000260429016,0.05499999823992851
0,0,10.017339706420898,0,0,0.12359999865293503,-0.057000003026912535,0.024000000747902123,-0.004999999877891834
0,0,10.017339706420898,0,0,0.12359999865293503,0.0030000000934877653,-0.03599999945432653,-0.004999999877891834
0,0,10.007762908935547,0,0,0.11379999667406082,-0.057000003026912535,0.024000000747902123,-0.004999999877891834
0,0,10.007762908935547,0,0,0.11379999667406082,0.06399999977103679,0.08499999667351618,-0.0659999978879142
0,0,10.007762908935547,0,0,0.11379999667406082,0.0030000000934877653,-0.03599999945432653,-0.0659999978879142
0,0,10.007762908935547,0,0,0.11379999667406082,0.0030000000934877653,0.024000000747902123,0.05499999823992851
0,0,10.007762908935547,0,0,0.11379999667406082,-0.057000003026912535,0.08499999667351618,-0.0659999978879142
0,0,10.007762908935547,0,0,0.11379999667406082,0.06399999977103679,0.08499999667351618,-0.0659999978879142
0,0,10.007762908935547,0,0,0.11379999667406082,0.0030000000934877653,0.14600000260429016,-0.0659999978879142
0,0,10.007762908935547,0,0,0.11379999667406082,-0.057000003026912535,0.08499999667351618,-0.004999999877891834
0,0,10.007762908935547,0,0,0.11379999667406082,0.0030000000934877653,-0.03599999945432653,0.05499999823992851
0,0,10.017339706420898,0,0,0.12359999865293503,-0.17899999487814064,0.08499999667351618,-0.0659999978879142
0,0,9.998186111450195,0,0,0.10399999469518661,-0.1180000022875799,-0.0969999987149939,0.05499999823992851
0,0,9.998186111450195,0,0,0.10399999469518661,0.0030000000934877653,-0.15800000464576788,-0.12700000381868817
0,0,9.998186111450195,0,0,0.10399999469518661,0.0030000000934877653,0.024000000747902123,-0.0659999978879142
0,0,9.998186111450195,0,0,0.10399999469518661,-0.057000003026912535,-0.03599999945432653,0.05499999823992851
0,0,9.998186111450195,0,0,0.10399999469518661,0.0030000000934877653,-0.03599999945432653,-0.0659999978879142
0,0,9.988609313964844,0,0,0.094200000166893,0.0030000000934877653,0.024000000747902123,-0.004999999877891834
0,0,9.998186111450195,0,0,0.10399999469518661,-0.057000003026912535,0.024000000747902123,-0.004999999877891834
0,0,9.998186111450195,0,0,0.10399999469518661,-0.057000003026912535,0.024000000747902123,-0.004999999877891834
0,0,9.998186111450195,0,0,0.10399999469518661,0.06399999977103679,0.08499999667351618,0.05499999823992851
0,0,9.998186111450195,0,0,0.10399999469518661,-0.1180000022875799,0.024000000747902123,0.05499999823992851
0,0,9.998186111450195,0,0,0.10399999469518661,-0.057000003026912535,0.08499999667351618,-0.004999999877891834
0,0,9.998186111450195,0,0,0.10399999469518661,-0.057000003026912535,0.08499999667351618,-0.12700000381868817
0,0,9.998186111450195,0,0,0.10399999469518661,-0.057000003026912535,-0.0969999987149939,0.05499999823992851
0,0,9.988609313964844,0,0,0.094200000166893,0.0030000000934877653,0.08499999667351618,-0.0659999978879142
0,0,9.998186111450195,0,0,0.10399999469518661,-0.1180000022875799,-0.03599999945432653,-0.004999999877891834
0,0,9.998186111450195,0,0,0.10399999469518661,-0.1180000022875799,-0.03599999945432653,-0.004999999877891834
0,0,9.998186111450195,0,0,0.10399999469518661,-0.057000003026912535,-0.0969999987149939,-0.0659999978879142
0,0,9.998186111450195,0,0,0.10399999469518661,0.0030000000934877653,0.024000000747902123,-0.004999999877891834
0,0,9.998186111450195,0,0,0.10399999469518661,0.0030000000934877653,0.14600000260429016,-0.004999999877891834
0,0,9.998186111450195,0,0,0.10399999469518661,-0.057000003026912535,-0.03599999945432653,-0.004999999877891834
0,0,9.998186111450195,0,0,0,-0.057000003026912535,0.08499999667351618,0.05499999823992851
0,0,9.998186111450195,0,0,0,0.0030000000934877653,0.024000000747902123,0.11599999750059588
0,0,9.998186111450195,0,0,0,-0.057000003026912535,0.08499999667351618,-0.004999999877891834
0,0,10.017339706420898,0,0,0,0.0030000000934877653,-0.7069999779814543,0.05499999823992851
0,0,9.988609313964844,0,0,-0.009800000116229057,0.0030000000934877653,0.08499999667351618,-0.0659999978879142
0,0,9.998186111450195,0,0,0,0.0030000000934877653,-0.03599999945432653,0.05499999823992851
0,0,9.998186111450195,0,0,0,0.06399999977103679,-0.21899999723632863,-0.0659999978879142
0,0,9.998186111450195,0,0,0,-0.1180000022875799,0.024000000747902123,-0.004999999877891834
0,0,9.998186111450195,0,0,0,0.06399999977103679,-0.03599999945432653,-0.004999999877891834
0,0,9.998186111450195,0,0,0,-0.057000003026912535,0.14600000260429016,0.05499999823992851
0,0,9.998186111450195,0,0,0,-0.057000003026912535,0.14600000260429016,-0.004999999877891834
0,0,9.998186111450195,0,0,0,-0.057000003026912535,0.14600000260429016,-0.004999999877891834
0,0,9.998186111450195,0,0,0,-0.057000003026912535,0.024000000747902123,-0.0659999978879142
0,0,9.998186111450195,0,0,0,0.0030000000934877653,-0.0969999987149939,0.05499999823992851
0,0,9.998186111450195,0,0,0,-0.057000003026912535,-0.03599999945432653,-0.0659999978879142
0,0,9.998186111450195,0,0,0,-0.057000003026912535,0.08499999667351618,0.05499999823992851
0,0,9.998186111450195,0,0,0,-0.2399999874687014,0.08499999667351618,-0.0659999978879142
0,0,9.998186111450195,0,0,0,0.0030000000934877653,0.024000000747902123,0.05499999823992851
0,0,9.998186111450195,0,0,0,0.0030000000934877653,0.024000000747902123,0.05499999823992851
0,0,9.998186111450195,0,0,0,0.18600000496247812,0.024000000747902123,-0.0659999978879142
0,0,9.988609313964844,0,0,-0.009800000116229057,-0.057000003026912535,0.024000000747902123,0.05499999823992851
0,0,9.988609313964844,0,0,-0.009800000116229057,-0.17899999487814064,-0.03599999945432653,0.05499999823992851
0,0,9.998186111450195,0,0,0,0.0030000000934877653,0.024000000747902123,-0.004999999877891834
0,0,9.998186111450195,0,0,0,0.0030000000934877653,0.08499999667351618,-0.004999999877891834
0,0,9.998186111450195,0,0,0,-0.057000003026912535,0.14600000260429016,-0.0659999978879142
0,0,9.998186111450195,0,0,0,0.06399999977103679,0.14600000260429016,-0.004999999877891834
0,0,9.998186111450195,0,0,0,0.0030000000934877653,0.14600000260429016,-0.0659999978879142
0,0,9.988609313964844,0,0,-0.009800000116229057,-0.1180000022875799,-0.03599999945432653,-0.0659999978879142
0,0,9.988609313964844,0,0,-0.009800000116229057,-0.1180000022875799,-0.03599999945432653,0.11599999750059588
0,0,9.988609313964844,0,0,-0.009800000116229057,-0.057000003026912535,0.024000000747902123,-0.004999999877891834
0,0,9.988609313964844,0,0,-0.009800000116229057,-0.1180000022875799,-0.03599999945432653,-0.004999999877891834
0,0,9.988609313964844,0,0,-0.009800000116229057,-0.1180000022875799,0.08499999667351618,0.11599999750059588
0,0,9.988609313964844,0,0,-0.009800000116229057,0.0030000000934877653,0.024000000747902123,-0.0659999978879142
0,0,9.988609313964844,0,0,-0.009800000116229057,0.12499999903170415,0.08499999667351618,-0.0659999978879142
0,0,9.998186111450195,0,0,0,0.0030000000934877653,0.024000000747902123,-0.004999999877891834
0,0,9.998186111450195,0,0,0,-0.1180000022875799,-0.03599999945432653,-0.004999999877891834
0,0,9.998186111450195,0,0,0,-0.1180000022875799,0.024000000747902123,-0.004999999877891834
0,0,9.998186111450195,0,0,0,-0.057000003026912535,0.08499999667351618,-0.0659999978879142
0,0,9.998186111450195,0,0,0,-0.057000003026912535,0.024000000747902123,0.05499999823992851
0,0,9.988609313964844,0,0,-0.009800000116229057,-0.1180000022875799,0.08499999667351618,0.05499999823992851
0,0,9.988609313964844,0,0,-0.009800000116229057,-0.057000003026912535,-0.03599999945432653,-0.004999999877891834
0,0,9.988609313964844,0,0,-0.009800000116229057,0.0030000000934877653,-0.0969999987149939,-0.0659999978879142
0,0,9.979032516479492,0,0,-0.009800000116229057,-0.057000003026912535,0.08499999667351618,-0.0659999978879142
0,0,9.988609313964844,0,0,-0.009800000116229057,0.06399999977103679,0.024000000747902123,-0.004999999877891834
0,0,9.998186111450195,0,0,0,-0.057000003026912535,0.08499999667351618,-0.004999999877891834
0,0,9.998186111450195,0,0,0,-0.057000003026912535,-0.03599999945432653,-0.004999999877891834
0,0,9.998186111450195,0,0,-0.009800000116229057,0.0030000000934877653,0.14600000260429016,0.05499999823992851
0,0,9.998186111450195,0,0,0,0.0030000000934877653,0.08499999667351618,0.05499999823992851
0,0,9.998186111450195,0,0,0,0.0030000000934877653,0.08499999667351618,0.05499999823992851
0,0,9.998186111450195,0,0,0,0.12499999903170415,-0.03599999945432653,-0.0659999978879142
0,0,10.007762908935547,0,0,0.009800000116229057,-0.1180000022875799,0.024000000747902123,-0.0659999978879142
0,0,9.998186111450195,0,0,0,-0.1180000022875799,0.024000000747902123,-0.0659999978879142
0,0,9.998186111450195,0,0,0,0.0030000000934877653,0.08499999667351618,-0.0659999978879142
0,0,9.998186111450195,0,0,0,-0.057000003026912535,-0.03599999945432653,-0.004999999877891834
0,0,9.998186111450195,0,0,0,0.06399999977103679,0.024000000747902123,-0.004999999877891834
0,0,9.998186111450195,0,0,0,-0.1180000022875799,0.024000000747902123,-0.0659999978879142
0,0,9.998186111450195,0,0,0,0.0030000000934877653,0.08499999667351618,-0.004999999877891834
0,0,9.998186111450195,0,0,0,0.12499999903170415,0.14600000260429016,-0.0659999978879142
0,0,10.007762908935547,0,0,0.009800000116229057,0.0030000000934877653,0.08499999667351618,-0.004999999877891834
0,0,10.007762908935547,0,0,0.009800000116229057,-0.057000003026912535,0.024000000747902123,0.05499999823992851
0,0,9.998186111450195,0,0,0,0.0030000000934877653,-0.03599999945432653,-0.004999999877891834
0,0,9.998186111450195,0,0,0,0.0030000000934877653,-0.0969999987149939,0.05499999823992851
0,0,9.998186111450195,0,0,0,0.0030000000934877653,0.024000000747902123,-0.004999999877891834
0,0,9.998186111450195,0,0,0,0.0030000000934877653,0.024000000747902123,-0.004999999877891834
0,0,9.998186111450195,0,0,0,-0.17899999487814064,0.14600000260429016,-0.004999999877891834
0,0,9.998186111450195,0,0,0,-0.17899999487814064,-0.03599999945432653,0.11599999750059588
0,0,9.998186111450195,0,0,0,0.06399999977103679,-0.03599999945432653,-0.004999999877891834
0,0,9.998186111450195,0,0,0,-0.057000003026912535,0.024000000747902123,-0.004999999877891834
0,0,9.998186111450195,0,0,0,0.0030000000934877653,0.024000000747902123,0.05499999823992851
0,0,9.988609313964844,0,0,-0.009800000116229057,0.0030000000934877653,0.024000000747902123,-0.004999999877891834
0,0,9.998186111450195,0,0,0,0.06399999977103679,0.08499999667351618,-0.004999999877891834
0,0,9.988609313964844,0,0,-0.009800000116229057,0.0030000000934877653,0.08499999667351618,-0.004999999877891834
0,0,9.988609313964844,0,0,-0.009800000116229057,-0.1180000022875799,0.14600000260429016,-0.0659999978879142
0,0,9.988609313964844,0,0,-0.009800000116229057,-0.1180000022875799,0.024000000747902123,-0.004999999877891834
0,0,9.988609313964844,0,0,-0.009800000116229057,-0.057000003026912535,0.08499999667351618,0.05499999823992851
0,0,9.998186111450195,0,0,0,-0.1180000022875799,0.14600000260429016,-0.004999999877891834
0,0,9.998186111450195,0,0,0,0.0030000000934877653,-0.03599999945432653,-0.004999999877891834
0,0,9.998186111450195,0,0,0,-0.057000003026912535,0.08499999667351618,0.05499999823992851
0,0,9.998186111450195,0,0,0,0.0030000000934877653,0.024000000747902123,-0.004999999877891834
0,0,9.998186111450195,0,0,0,-0.057000003026912535,0.024000000747902123,-0.004999999877891834
0,0,9.988609313964844,0,0,-0.009800000116229057,0.0030000000934877653,0.08499999667351618,-0.0659999978879142
0,0,9.998186111450195,0,0,-0.009800000116229057,-0.1180000022875799,-0.03599999945432653,-0.0659999978879142
0,0,9.998186111450195,0,0,0,0.06399999977103679,0.024000000747902123,-0.004999999877891834
0,0,9.998186111450195,0,0,0,-0.9109999593257225,-0.21899999723632863,0.17700000343136985
0,0,9.988609313964844,0,0,-0.009800000116229057,0.0030000000934877653,0.024000000747902123,-0.004999999877891834
0,0,9.988609313964844,0,0,-0.009800000116229057,-0.1180000022875799,-0.0969999987149939,0.05499999823992851
0,0,9.988609313964844,0,0,-0.009800000116229057,-0.1180000022875799,-0.0969999987149939,-0.004999999877891834
0,0,9.979032516479492,0,0,-0.009800000116229057,-0.1180000022875799,-0.03599999945432653,-0.004999999877891834
0,0,9.988609313964844,0,0,-0.009800000116229057,0.0030000000934877653,0.08499999667351618,-0.0659999978879142
0,0,9.988609313964844,0,0,-0.009800000116229057,0.0030000000934877653,0.08499999667351618,-0.0659999978879142
0,0,9.988609313964844,0,0,-0.009800000116229057,-0.057000003026912535,0.024000000747902123,0.11599999750059588
0,0,9.988609313964844,0,0,-0.009800000116229057,-0.057000003026912535,0.024000000747902123,0.11599999750059588
0,0,9.988609313964844,0,0,-0.009800000116229057,-0.057000003026912535,0.024000000747902123,0.11599999750059588
0,0,9.988609313964844,0,0,-0.009800000116229057,-0.057000003026912535,0.024000000747902123,0.11599999750059588
0,0,9.988609313964844,0,0,-0.009800000116229057,-0.057000003026912535,0.2069999951948509,0.05499999823992851
0,0,9.988609313964844,0,0,0,-0.057000003026912535,0.2069999951948509,0.05499999823992851
0,0,9.988609313964844,0,0,0,-0.1180000022875799,-0.03599999945432653,-0.0659999978879142
0,0,9.988609313964844,0,0,0,-0.057000003026912535,-0.03599999945432653,-0.004999999877891834
0,0,9.988609313964844,0,0,0,0.06399999977103679,0.08499999667351618,-0.0659999978879142
0,0,9.988609313964844,0,0,0,-0.1180000022875799,0.024000000747902123,0.11599999750059588
0,0,9.988609313964844,0,0,0,-0.057000003026912535,0.14600000260429016,-0.0659999978879142
0,0,9.988609313964844,0,0,0,0.12499999903170415,-0.03599999945432653,-0.004999999877891834
0,0,9.998186111450195,0,0,0.009800000116229057,-0.1180000022875799,0.024000000747902123,0.05499999823992851
0,0,9.988609313964844,0,0,0,-0.2399999874687014,0.024000000747902123,-0.004999999877891834
0,0,9.988609313964844,0,0,0,-0.057000003026912535,0.024000000747902123,-0.0659999978879142
0,0,9.988609313964844,0,0,0,-0.1180000022875799,0.024000000747902123,-0.004999999877891834
0,0,9.988609313964844,0,0,0,-0.057000003026912535,-0.0969999987149939,0.05499999823992851
0,0,9.988609313964844,0,0,0,0.06399999977103679,0.08499999667351618,-0.004999999877891834
0,0,9.988609313964844,0,0,0,0.0030000000934877653,-0.03599999945432653,-0.004999999877891834
0,0,9.979032516479492,0,0,-0.019600000232458115,0.06399999977103679,-0.03599999945432653,0.05499999823992851
0,0,9.979032516479492,0,0,-0.009800000116229057,-0.057000003026912535,0.08499999667351618,-0.004999999877891834
0,0,9.979032516479492,0,0,-0.009800000116229057,0.06399999977103679,0.024000000747902123,-0.0659999978879142
0,0,9.979032516479492,0,0,-0.009800000116229057,0.0030000000934877653,-0.03599999945432653,-0.0659999978879142
0,0,9.979032516479492,0,0,-0.009800000116229057,-0.057000003026912535,-0.03599999945432653,-0.004999999877891834
0,0,9.979032516479492,0,0,-0.009800000116229057,-0.057000003026912535,-0.03599999945432653,-0.004999999877891834
0,0,9.979032516479492,0,0,-0.009800000116229057,-0.1180000022875799,0.024000000747902123,-0.0659999978879142
0,0,9.979032516479492,0,0,-0.009800000116229057,-0.1180000022875799,0.024000000747902123,-0.0659999978879142
0,0,9.979032516479492,0,0,-0.009800000116229057,-0.1180000022875799,0.024000000747902123,-0.0659999978879142
0,0,9.979032516479492,0,0,-0.009800000116229057,0.0030000000934877653,0.024000000747902123,-0.0659999978879142
0,0,9.979032516479492,0,0,-0.009800000116229057,0.06399999977103679,0.024000000747902123,-0.12700000381868817
0,0,9.979032516479492,0,0,-0.009800000116229057,0.06399999977103679,0.024000000747902123,-0.12700000381868817
0,0,9.979032516479492,0,0,-0.009800000116229057,0.0030000000934877653,-0.03599999945432653,0.05499999823992851
0,0,9.979032516479492,0,0,-0.009800000116229057,-0.17899999487814064,0.024000000747902123,-0.0659999978879142
0,0,9.979032516479492,0,0,-0.009800000116229057,-0.1180000022875799,0.024000000747902123,0.11599999750059588
0,0,9.979032516479492,0,0,-0.009800000116229057,0.0030000000934877653,0.024000000747902123,-0.0659999978879142
0,0,9.979032516479492,0,0,-0.009800000116229057,0.0030000000934877653,0.024000000747902123,-0.004999999877891834
0,0,9.979032516479492,0,0,-0.009800000116229057,0.0030000000934877653,0.08499999667351618,-0.004999999877891834
0,0,9.979032516479492,0,0,-0.009800000116229057,0.0030000000934877653,0.08499999667351618,-0.0659999978879142
0,0,9.979032516479492,0,0,-0.009800000116229057,0.12499999903170415,0.024000000747902123,-0.004999999877891834
0,0,9.988609313964844,0,0,0,-0.1180000022875799,0.14600000260429016,-0.0659999978879142
0,0,9.988609313964844,0,0,0,-0.17899999487814064,0.024000000747902123,-0.004999999877891834
0,0,9.988609313964844,0,0,0,0.0030000000934877653,0.08499999667351618,0.05499999823992851
0,0,9.988609313964844,0,0,0,-0.057000003026912535,-0.0969999987149939,-0.0659999978879142
0,0,9.979032516479492,0,0,-0.009800000116229057,0.06399999977103679,0.08499999667351618,-0.0659999978879142
0,0,9.979032516479492,0,0,-0.009800000116229057,0.0030000000934877653,0.024000000747902123,-0.004999999877891834
0,0,9.979032516479492,0,0,-0.009800000116229057,-0.057000003026912535,0.024000000747902123,0.11599999750059588
0,0,9.979032516479492,0,0,-0.009800000116229057,-0.057000003026912535,0.024000000747902123,0.11599999750059588
0,0,9.979032516479492,0,0,-0.009800000116229057,0.12499999903170415,0.024000000747902123,-0.0659999978879142
0,0,9.979032516479492,0,0,-0.009800000116229057,0.0030000000934877653,0.024000000747902123,-0.0659999978879142
0,0,9.979032516479492,0,0,-0.009800000116229057,0.0030000000934877653,0.08499999667351618,-0.004999999877891834
0,0,9.988609313964844,0,0,0,0.0030000000934877653,0.024000000747902123,-0.0659999978879142
0,0,9.988609313964844,0,0,0,0.0030000000934877653,0.024000000747902123,-0.0659999978879142
0,0,9.988609313964844,0,0,0,0.12499999903170415,-0.03599999945432653,-0.004999999877891834
0,0,9.979032516479492,0,0,0,0.0030000000934877653,-0.03599999945432653,0.11599999750059588
0,0,9.979032516479492,0,0,0,-0.17899999487814064,0.08499999667351618,0.05499999823992851
0,0,9.979032516479492,0,0,0,-0.057000003026912535,-0.0969999987149939,-0.0659999978879142
0,0,9.979032516479492,0,0,0,-0.057000003026912535,0.024000000747902123,-0.004999999877891834
0,0,9.979032516479492,0,0,0,0.0030000000934877653,0.024000000747902123,-0.0659999978879142
0,0,9.96945571899414,0,0,-0.009800000116229057,-0.057000003026912535,-0.0969999987149939,-0.004999999877891834
0,0,9.96945571899414,0,0,-0.009800000116229057,-0.057000003026912535,0.024000000747902123,0.05499999823992851
0,0,9.96945571899414,0,0,-0.009800000116229057,-0.057000003026912535,0.08499999667351618,0.05499999823992851
0,0,9.96945571899414,0,0,-0.009800000116229057,-0.1180000022875799,-0.03599999945432653,-0.004999999877891834
0,0,9.96945571899414,0,0,-0.009800000116229057,0.06399999977103679,0.024000000747902123,0.05499999823992851
0,0,9.96945571899414,0,0,-0.009800000116229057,-0.1180000022875799,0.024000000747902123,-0.0659999978879142
0,0,9.979032516479492,0,0,0,0.0030000000934877653,0.024000000747902123,-0.0659999978879142
0,0,9.979032516479492,0,0,0,0.0030000000934877653,0.024000000747902123,-0.0659999978879142
0,0,9.979032516479492,0,0,0,0.0030000000934877653,0.08499999667351618,-0.004999999877891834
0,0,9.979032516479492,0,0,0,0.0030000000934877653,0.024000000747902123,0.05499999823992851
0,0,9.979032516479492,0,0,0,0.0030000000934877653,0.08499999667351618,-0.004999999877891834
0,0,9.979032516479492,0,0,0,0.0030000000934877653,0.08499999667351618,-0.12700000381868817
0,0,9.979032516479492,0,0,0,0.0030000000934877653,-0.03599999945432653,-0.0659999978879142
0,0,9.979032516479492,0,0,0,-0.1180000022875799,-0.03599999945432653,-0.004999999877891834
0,0,9.979032516479492,0,0,0,-0.057000003026912535,-0.03599999945432653,-0.0659999978879142
0,0,9.979032516479492,0,0,0.009800000116229057,0.0030000000934877653,0.08499999667351618,-0.0659999978879142
0,0,9.988609313964844,0,0,0,-0.1180000022875799,0.024000000747902123,0.05499999823992851
0,0,9.979032516479492,0,0,0,-0.1180000022875799,-0.03599999945432653,-0.004999999877891834
0,0,9.96945571899414,0,0,-0.009800000116229057,-0.1180000022875799,0.024000000747902123,-0.004999999877891834
0,0,9.96945571899414,0,0,-0.009800000116229057,0.06399999977103679,-0.0969999987149939,-0.004999999877891834
0,0,9.96945571899414,0,0,-0.009800000116229057,-0.057000003026912535,0.14600000260429016,0.05499999823992851
0,0,9.96945571899414,0,0,-0.009800000116229057,-0.057000003026912535,0.14600000260429016,0.05499999823992851
0,0,9.96945571899414,0,0,-0.009800000116229057,0.0030000000934877653,0.024000000747902123,0.05499999823992851
0,0,9.96945571899414,0,0,-0.009800000116229057,-0.1180000022875799,-0.0969999987149939,-0.0659999978879142
0,0,9.979032516479492,0,0,0,0.0030000000934877653,0.08499999667351618,-0.0659999978879142
0,0,9.979032516479492,0,0,0,0.06399999977103679,-0.03599999945432653,-0.004999999877891834
0,0,9.979032516479492,0,0,0,0.0030000000934877653,-0.0969999987149939,-0.004999999877891834
0,0,9.979032516479492,0,0,0,0.06399999977103679,0.08499999667351618,-0.004999999877891834
0,0,9.979032516479492,0,0,0,0.0030000000934877653,-0.03599999945432653,0.05499999823992851
0,0,9.988609313964844,0,0,0.009800000116229057,-0.057000003026912535,0.08499999667351618,-0.0659999978879142
0,0,9.988609313964844,0,0,0.009800000116229057,-0.057000003026912535,0.024000000747902123,-0.004999999877891834
0,0,9.979032516479492,0,0,0,-0.057000003026912535,0.024000000747902123,-0.004999999877891834
0,0,9.979032516479492,0,0,0,0.0030000000934877653,0.024000000747902123,-0.004999999877891834
0,0,9.96945571899414,0,0,0,-0.1180000022875799,0.08499999667351618,0.05499999823992851
0,0,9.96945571899414,0,0,-0.009800000116229057,-0.1180000022875799,0.08499999667351618,-0.0659999978879142
0,0,9.96945571899414,0,0,-0.009800000116229057,0.0030000000934877653,0.14600000260429016,-0.004999999877891834
0,0,9.96945571899414,0,0,-0.009800000116229057,0.0030000000934877653,-0.03599999945432653,-0.004999999877891834
0,0,9.96945571899414,0,0,-0.009800000116229057,-0.057000003026912535,0.024000000747902123,-0.004999999877891834
0,0,9.979032516479492,0,0,0,0.0030000000934877653,0.024000000747902123,-0.004999999877891834
0,0,9.979032516479492,0,0,0,-0.057000003026912535,0.024000000747902123,-0.004999999877891834
0,0,9.96945571899414,0,0,-0.009800000116229057,0.0030000000934877653,0.08499999667351618,-0.004999999877891834
0,0,9.988609313964844,0,0,0.009800000116229057,-0.057000003026912535,0.08499999667351618,0.05499999823992851
0,0,9.988609313964844,0,0,0.009800000116229057,-0.17899999487814064,-0.03599999945432653,-0.004999999877891834
0,0,9.979032516479492,0,0,0,-0.1180000022875799,-0.03599999945432653,-0.004999999877891834
0,0,9.979032516479492,0,0,0,-0.057000003026912535,-0.03599999945432653,-0.0659999978879142
0,0,9.979032516479492,0,0,0,0.0030000000934877653,0.024000000747902123,-0.0659999978879142
0,0,9.979032516479492,0,0,0,-0.1180000022875799,0.024000000747902123,-0.0659999978879142
0,0,9.979032516479492,0,0,0,-0.1180000022875799,0.08499999667351618,0.05499999823992851
0,0,9.979032516479492,0,0,0,0.06399999977103679,0.08499999667351618,0.05499999823992851
0,0,9.979032516479492,0,0,0,-0.1180000022875799,0.024000000747902123,0.05499999823992851
0,0,9.979032516479492,0,0,0,-0.17899999487814064,-0.0969999987149939,0.05499999823992851
0,0,9.979032516479492,0,0,0,-0.2399999874687014,-0.03599999945432653,-0.004999999877891834
0,0,9.979032516479492,0,0,0,-0.057000003026912535,-0.0969999987149939,-0.004999999877891834
0,0,9.979032516479492,0,0,0,-0.17899999487814064,-0.03599999945432653,-0.004999999877891834
0,0,9.979032516479492,0,0,0,0.0030000000934877653,0.2069999951948509,-0.004999999877891834
0,0,9.979032516479492,0,0,0,-0.057000003026912535,0.08499999667351618,0.05499999823992851
0,0,9.979032516479492,0,0,0,-0.08299999855663877,-0.03699999851276524,-0.06399999977103679
0,0,9.979032516479492,0,0,0,-0.021999999295971403,0.08400000095013078,0.057000003026912535
0,0,9.979032516479492,0,0,0,0.09899999683187131,-0.03699999851276524,-0.0030000000934877653
0,0,9.979032516479492,0,0,0,0.09899999683187131,-0.15900000036915327,-0.0030000000934877653
0,0,9.979032516479492,0,0,0,-0.08299999855663877,0.023000000021936765,0.057000003026912535
0,0,9.979032516479492,0,0,0,-0.08299999855663877,-0.03699999851276524,-0.0030000000934877653
0,0,9.979032516479492,0,0,0,-0.08299999855663877,0.023000000021936765,-0.0030000000934877653
0,0,9.979032516479492,0,0,0,-0.08299999855663877,0.023000000021936765,-0.06399999977103679
0,0,9.979032516479492,0,0,0,0.09899999683187131,-0.03699999851276524,-0.0030000000934877653
0,0,9.979032516479492,0,0,0,-0.14399999781730613,-0.09800000110848592,-0.0030000000934877653
0,0,9.979032516479492,0,0,0,-0.08299999855663877,0.08400000095013078,-0.06399999977103679
0,0,9.979032516479492,0,0,0,-0.08299999855663877,0.023000000021936765,-0.0030000000934877653
0,0,9.979032516479492,0,0,0,-0.021999999295971403,-0.03699999851276524,0.057000003026912535
0,0,9.979032516479492,0,0,0,0.09899999683187131,-0.03699999851276524,-0.06399999977103679
0,0,9.979032516479492,0,0,0,0.09899999683187131,-0.03699999851276524,-0.06399999977103679
0,0,9.979032516479492,0,0,0,0.038000000906257256,-0.03699999851276524,-0.0030000000934877653
0,0,9.979032516479492,0,0,0,0.038000000906257256,-0.03699999851276524,0.057000003026912535
0,0,9.988609313964844,0,0,0,0.15999999609253868,0.08400000095013078,-0.06399999977103679
0,0,9.988609313964844,0,0,0.009800000116229057,-0.021999999295971403,0.023000000021936765,-0.06399999977103679
0,0,9.988609313964844,0,0,0.009800000116229057,0.038000000906257256,-0.09800000110848592,0.057000003026912535
0,0,9.988609313964844,0,0,0.009800000116229057,-0.021999999295971403,-0.21999999295971404,-0.0030000000934877653
0,0,9.988609313964844,0,0,0.009800000116229057,-0.08299999855663877,-0.03699999851276524,-0.0030000000934877653
0,0,9.988609313964844,0,0,0.009800000116229057,0.038000000906257256,-0.03699999851276524,0.1180000022875799
0,0,9.988609313964844,0,0,0.009800000116229057,0.038000000906257256,0.023000000021936765,-0.06399999977103679
0,0,9.988609313964844,0,0,0.009800000116229057,-0.08299999855663877,-0.03699999851276524,-0.0030000000934877653
0,0,9.988609313964844,0,0,0.009800000116229057,0.09899999683187131,-0.03699999851276524,-0.12499999903170415
-0.009576806798577309,0,9.988609313964844,0,0,0.009800000116229057,0.22100000202331266,0.023000000021936765,-0.0030000000934877653
-0.009576806798577309,0,9.988609313964844,0,0,0.009800000116229057,0.22100000202331266,0.023000000021936765,-0.0030000000934877653
0,0,9.979032516479492,0,0,0,0.09899999683187131,-0.03699999851276524,0.057000003026912535
0,0,9.979032516479492,0,0,0,0.038000000906257256,-0.03699999851276524,-0.06399999977103679
0,0,9.979032516479492,0,0,0,0.09899999683187131,0.023000000021936765,-0.0030000000934877653
0,0,9.979032516479492,0,0,0,-0.021999999295971403,0.023000000021936765,-0.12499999903170415
0,0,9.979032516479492,0,0,0,-0.021999999295971403,0.023000000021936765,-0.12499999903170415
0,0,9.988609313964844,0,0,0,-0.08299999855663877,-0.15900000036915327,-0.0030000000934877653
0,0,9.988609313964844,0,0,0.009800000116229057,0.038000000906257256,0.14499999354069154,-0.0030000000934877653
0,0,9.979032516479492,0,0,0,0.038000000906257256,0.14499999354069154,-0.0030000000934877653
0,0,9.96945571899414,0,0,-0.009800000116229057,0.038000000906257256,0.023000000021936765,-0.06399999977103679
0,0,9.96945571899414,0,0,-0.009800000116229057,-0.08299999855663877,0.023000000021936765,0.057000003026912535
0,0,9.96945571899414,0,0,-0.009800000116229057,-0.021999999295971403,0.08400000095013078,0.057000003026912535
0,0,9.979032516479492,0,0,0,-0.021999999295971403,0.08400000095013078,-0.12499999903170415
0,0,9.979032516479492,0,0,0,-0.021999999295971403,0.08400000095013078,-0.12499999903170415
0,0,9.979032516479492,0,0,0,-0.021999999295971403,0.08400000095013078,-0.12499999903170415
0,0,9.979032516479492,0,0,0,0.038000000906257256,-0.03699999851276524,-0.0030000000934877653
0,0,9.979032516479492,0,0,0,-0.021999999295971403,0.20599999947146552,-0.06399999977103679
0,0,9.979032516479492,0,0,0,-0.021999999295971403,0.023000000021936765,-0.0030000000934877653
0,0,9.988609313964844,0,0,0.009800000116229057,-0.08299999855663877,0.023000000021936765,-0.0030000000934877653
0,0,9.979032516479492,0,0,0,-0.14399999781730613,0.08400000095013078,0.1180000022875799
0,0,9.979032516479492,0,0,0,-0.021999999295971403,0.08400000095013078,0.057000003026912535
0,0,9.979032516479492,0,0,0,-0.08299999855663877,0.14499999354069154,-0.0030000000934877653
0,0,9.979032516479492,0,0,0,-0.021999999295971403,0.08400000095013078,-0.0030000000934877653
0,0,9.96945571899414,0,0,-0.009800000116229057,0.15999999609253868,0.08400000095013078,0.057000003026912535
0,0,9.979032516479492,0,0,0,-0.08299999855663877,-0.03699999851276524,0.057000003026912535
0,0,9.979032516479492,0,0,0,0.038000000906257256,-0.09800000110848592,-0.0030000000934877653
0,0,9.979032516479492,0,0,0,-0.32700000226941484,0.08400000095013078,-0.0030000000934877653
0,0,9.979032516479492,0,0,0,-0.021999999295971403,0.023000000021936765,-0.06399999977103679
0,0,9.979032516479492,0,0,0,0.038000000906257256,0.023000000021936765,-0.06399999977103679
0,0,9.979032516479492,0,0,0,0.09899999683187131,0.08400000095013078,-0.0030000000934877653
0,0,9.988609313964844,0,0,0.009800000116229057,0.038000000906257256,-0.03699999851276524,0.057000003026912535
0,0,9.988609313964844,0,0,0.009800000116229057,-0.021999999295971403,0.08400000095013078,0.057000003026912535
0,0,9.988609313964844,0,0,0.009800000116229057,0.038000000906257256,0.14499999354069154,-0.12499999903170415
0,0,9.979032516479492,0,0,0,0.038000000906257256,0.023000000021936765,-0.06399999977103679
0,0,9.988609313964844,0,0,0.009800000116229057,0.038000000906257256,0.08400000095013078,-0.0030000000934877653
0,0,9.979032516479492,0,0,0,-0.14399999781730613,-0.03699999851276524,-0.0030000000934877653
0,0,9.979032516479492,0,0,0,-0.021999999295971403,0.08400000095013078,-0.0030000000934877653
0,0,9.988609313964844,0,0,0.009800000116229057,0.038000000906257256,-0.03699999851276524,-0.0030000000934877653
0,0,9.979032516479492,0,0,0,-0.021999999295971403,0.08400000095013078,-0.0030000000934877653
0,0,9.979032516479492,0,0,0,-0.14399999781730613,-0.03699999851276524,-0.06399999977103679
0,0,9.988609313964844,0,0,0.009800000116229057,-0.021999999295971403,0.14499999354069154,0.057000003026912535
0,0,9.979032516479492,0,0,0,-0.08299999855663877,-0.03699999851276524,-0.0030000000934877653
0,0,9.988609313964844,0,0,0.009800000116229057,0.038000000906257256,-0.03699999851276524,-0.0030000000934877653
0,0,9.979032516479492,0,0,0,0.038000000906257256,0.08400000095013078,-0.0030000000934877653
0,0,9.979032516479492,0,0,0,0.038000000906257256,0.08400000095013078,-0.0030000000934877653
0,0,9.988609313964844,0,0,0.009800000116229057,-0.021999999295971403,-0.09800000110848592,-0.06399999977103679
0,0,9.979032516479492,0,0,0,-0.021999999295971403,0.08400000095013078,-0.0030000000934877653
0,0,9.988609313964844,0,0,0.009800000116229057,-0.08299999855663877,0.08400000095013078,-0.0030000000934877653
0,0,9.988609313964844,0,0,0.009800000116229057,-0.08299999855663877,0.023000000021936765,-0.06399999977103679
0,0,9.988609313964844,0,0,0.009800000116229057,-0.08299999855663877,0.023000000021936765,-0.0030000000934877653
0,0,9.988609313964844,0,0,0.009800000116229057,-0.08299999855663877,0.14499999354069154,0.057000003026912535
0,0,9.988609313964844,0,0,0.009800000116229057,-0.021999999295971403,-0.03699999851276524,-0.0030000000934877653
0,0,9.988609313964844,0,0,0.019600000232458115,-0.021999999295971403,0.08400000095013078,-0.0030000000934877653
0,0,9.998186111450195,0,0,0.019600000232458115,-0.08299999855663877,0.023000000021936765,-0.0030000000934877653
0,0,9.998186111450195,0,0,0.019600000232458115,-0.021999999295971403,0.023000000021936765,-0.0030000000934877653
0,0,9.998186111450195,0,0,0.019600000232458115,-0.021999999295971403,0.08400000095013078,0.057000003026912535
0,0,9.988609313964844,0,0,0,-0.021999999295971403,0.14499999354069154,-0.06399999977103679
0,0,9.988609313964844,0,0,0,0.038000000906257256,-0.03699999851276524,-0.06399999977103679
0,0,9.998186111450195,0,0,0,-0.021999999295971403,-0.03699999851276524,-0.06399999977103679
0,0,9.998186111450195,0,0,0.009800000116229057,-0.021999999295971403,0.08400000095013078,0.1180000022875799
0,0,9.988609313964844,0,0,0,-0.021999999295971403,-0.03699999851276524,-0.06399999977103679
0,0,9.988609313964844,0,0,0,-0.021999999295971403,-0.09800000110848592,-0.0030000000934877653
0,0,9.998186111450195,0,0,0.009800000116229057,0.038000000906257256,-0.09800000110848592,-0.0030000000934877653
0,0,9.988609313964844,0,0,0,0.038000000906257256,0.08400000095013078,-0.0030000000934877653
0,0,9.988609313964844,0,0,0,-0.021999999295971403,0.023000000021936765,0.057000003026912535
0,0,9.988609313964844,0,0,0,-0.021999999295971403,-0.09800000110848592,-0.06399999977103679
0,0,9.988609313964844,0,0,0,0.038000000906257256,0.023000000021936765,0.057000003026912535
0,0,9.998186111450195,0,0,0.009800000116229057,-0.021999999295971403,0.14499999354069154,-0.06399999977103679
0,0,9.988609313964844,0,0,0,0.038000000906257256,-0.03699999851276524,-0.0030000000934877653
0,0,9.988609313964844,0,0,0,-0.021999999295971403,0.023000000021936765,-0.0030000000934877653
0,0,9.988609313964844,0,0,0,-0.08299999855663877,0.023000000021936765,-0.06399999977103679
0,0,9.988609313964844,0,0,0,-0.32700000226941484,-0.03699999851276524,-0.0030000000934877653
0,0,9.988609313964844,0,0,0,-0.021999999295971403,0.023000000021936765,-0.0030000000934877653
0,0,9.988609313964844,0,0,0,0.038000000906257256,0.023000000021936765,-0.0030000000934877653
0,0,9.988609313964844,0,0,0,-0.14399999781730613,-0.03699999851276524,-0.0030000000934877653
0,0,9.988609313964844,0,0,0,-0.021999999295971403,0.023000000021936765,0.057000003026912535
0,0,9.998186111450195,0,0,0.009800000116229057,0.09899999683187131,-0.03699999851276524,-0.0030000000934877653
0,0,9.998186111450195,0,0,0.009800000116229057,-0.14399999781730613,0.08400000095013078,-0.06399999977103679
0,0,9.998186111450195,0,0,0.009800000116229057,-0.14399999781730613,0.08400000095013078,-0.06399999977103679
0,0,9.998186111450195,0,0,0.009800000116229057,-0.021999999295971403,0.023000000021936765,0.1180000022875799
0,0,9.998186111450195,0,0,0.009800000116229057,0.038000000906257256,0.023000000021936765,-0.06399999977103679
0,0,9.998186111450195,0,0,0.009800000116229057,-0.021999999295971403,0.08400000095013078,0.057000003026912535
0,0,9.998186111450195,0,0,0.009800000116229057,-0.021999999295971403,0.023000000021936765,-0.0030000000934877653
0,0,9.998186111450195,0,0,0.009800000116229057,0.09899999683187131,0.023000000021936765,-0.0030000000934877653
0,0,9.998186111450195,0,0,0.009800000116229057,0.28199999461387343,-0.09800000110848592,-0.06399999977103679
0,0,9.988609313964844,0,0,0,0.09899999683187131,0.023000000021936765,-0.0030000000934877653
0,0,9.988609313964844,0,0,0,0.09899999683187131,0.023000000021936765,-0.06399999977103679
0,0,9.988609313964844,0,0,0,0.038000000906257256,0.08400000095013078,-0.06399999977103679
0,0,9.988609313964844,0,0,0,-0.021999999295971403,-0.03699999851276524,-0.06399999977103679
0,0,9.988609313964844,0,0,0,-0.08299999855663877,-0.03699999851276524,-0.06399999977103679
0,0,9.988609313964844,0,0,0,-0.08299999855663877,0.023000000021936765,-0.0030000000934877653
0,0,9.988609313964844,0,0,0,-0.021999999295971403,0.023000000021936765,0.057000003026912535
0,0,9.988609313964844,0,0,0,-0.021999999295971403,-0.03699999851276524,0.057000003026912535
0,0,9.988609313964844,0,0,0,0.09899999683187131,0.023000000021936765,-0.06399999977103679
0,0,9.988609313964844,0,0,0,0.09899999683187131,0.08400000095013078,-0.0030000000934877653
0,0,9.988609313964844,0,0,0,-0.14399999781730613,-0.09800000110848592,-0.06399999977103679
0,0,9.988609313964844,0,0,0,0.038000000906257256,0.023000000021936765,-0.0030000000934877653
0,0,9.988609313964844,0,0,0,-0.08299999855663877,0.14499999354069154,-0.0030000000934877653
0,0,9.988609313964844,0,0,-0.009800000116229057,-0.021999999295971403,0.023000000021936765,-0.0030000000934877653
0,0,9.988609313964844,0,0,0,-0.08299999855663877,0.023000000021936765,-0.06399999977103679
0,0,9.988609313964844,0,0,0,-0.08299999855663877,0.023000000021936765,-0.06399999977103679
0,0,9.988609313964844,0,0,0,-0.08299999855663877,-0.09800000110848592,0.057000003026912535
0,0,9.988609313964844,0,0,0,-0.021999999295971403,0.023000000021936765,0.057000003026912535
0,0,9.988609313964844,0,0,0,-0.021999999295971403,0.023000000021936765,0.057000003026912535
0,0,9.988609313964844,0,0,0,-0.021999999295971403,-0.03699999851276524,-0.06399999977103679
0,0,9.988609313964844,0,0,0.009800000116229057,0.038000000906257256,0.14499999354069154,0.057000003026912535
0,0,9.998186111450195,0,0,0.019600000232458115,-0.021999999295971403,0.08400000095013078,-0.12499999903170415
0,0,9.998186111450195,0,0,0.019600000232458115,0.038000000906257256,0.023000000021936765,-0.06399999977103679
0,0,9.998186111450195,0,0,0.019600000232458115,-0.021999999295971403,0.023000000021936765,-0.0030000000934877653
0,0,9.988609313964844,0,0,0.019600000232458115,-0.14399999781730613,-0.03699999851276524,-0.0030000000934877653
0,0,9.988609313964844,0,0,0.009800000116229057,0.038000000906257256,-0.03699999851276524,-0.06399999977103679
0,0,9.988609313964844,0,0,0.009800000116229057,-0.08299999855663877,0.023000000021936765,0.057000003026912535
0,0,9.988609313964844,0,0,0.009800000116229057,-0.021999999295971403,0.08400000095013078,0.057000003026912535
0,0,9.988609313964844,0,0,0.009800000116229057,-0.021999999295971403,0.08400000095013078,0.1180000022875799
0,0,9.988609313964844,0,0,0.009800000116229057,0.15999999609253868,0.14499999354069154,-0.06399999977103679
0,0,9.988609313964844,0,0,0.009800000116229057,-0.14399999781730613,0.08400000095013078,-0.0030000000934877653
0,0,9.988609313964844,0,0,0.009800000116229057,-0.021999999295971403,-0.03699999851276524,-0.06399999977103679
0,0,9.988609313964844,0,0,0.009800000116229057,0.15999999609253868,0.08400000095013078,0.057000003026912535
0,0,9.988609313964844,0,0,0.009800000116229057,-0.021999999295971403,0.08400000095013078,0.057000003026912535
0,0,9.988609313964844,0,0,0.009800000116229057,0.038000000906257256,0.08400000095013078,-0.0030000000934877653
0,0,9.988609313964844,0,0,0.009800000116229057,-0.021999999295971403,-0.03699999851276524,-0.0030000000934877653
0,0,9.988609313964844,0,0,0.009800000116229057,-0.14399999781730613,0.023000000021936765,0.1180000022875799
0,0,9.979032516479492,0,0,0.009800000116229057,0.038000000906257256,0.08400000095013078,-0.12499999903170415
0,0,9.998186111450195,0,0,0.019600000232458115,-0.08299999855663877,0.023000000021936765,0.057000003026912535
0,0,9.979032516479492,0,0,0,0.15999999609253868,0.14499999354069154,-0.06399999977103679
0,0,9.988609313964844,0,0,0.009800000116229057,0.09899999683187131,0.023000000021936765,-0.0030000000934877653
0,0,9.998186111450195,0,0,0.019600000232458115,-0.021999999295971403,0.14499999354069154,-0.0030000000934877653
0,0,9.988609313964844,0,0,0.009800000116229057,-0.08299999855663877,0.08400000095013078,-0.06399999977103679
0,0,9.988609313964844,0,0,0.009800000116229057,-0.021999999295971403,0.023000000021936765,0.057000003026912535
0,0,9.988609313964844,0,0,0.009800000116229057,-0.021999999295971403,0.08400000095013078,-0.06399999977103679
0,0,9.988609313964844,0,0,0.009800000116229057,-0.021999999295971403,-0.03699999851276524,-0.0030000000934877653
0,0,9.988609313964844,0,0,0.009800000116229057,-0.021999999295971403,0.08400000095013078,-0.06399999977103679
0,0,9.988609313964844,0,0,0.009800000116229057,0.038000000906257256,0.08400000095013078,0.057000003026912535
0,0,9.979032516479492,0,0,0,-0.08299999855663877,0.08400000095013078,-0.06399999977103679
0,0,9.979032516479492,0,0,0,0.038000000906257256,-0.09800000110848592,-0.0030000000934877653
0,0,9.979032516479492,0,0,0,-0.08299999855663877,0.08400000095013078,0.057000003026912535
0,0,9.979032516479492,0,0,0,0.038000000906257256,-0.03699999851276524,-0.0030000000934877653
0,0,9.979032516479492,0,0,0,-0.021999999295971403,0.08400000095013078,-0.0030000000934877653
0,0,9.979032516479492,0,0,0,0.038000000906257256,0.023000000021936765,-0.06399999977103679
0,0,9.979032516479492,0,0,0,-0.2050000037480801,-0.09800000110848592,-0.0030000000934877653
0,0,9.979032516479492,0,0,0,0.038000000906257256,0.023000000021936765,-0.12499999903170415
0,0,9.979032516479492,0,0,0,-0.08299999855663877,0.08400000095013078,-0.06399999977103679
0,0,9.979032516479492,0,0,0,0.038000000906257256,-0.03699999851276524,-0.0030000000934877653
0,0,9.988609313964844,0,0,0.009800000116229057,0.038000000906257256,0.023000000021936765,-0.0030000000934877653
0,0,9.988609313964844,0,0,0.009800000116229057,-0.08299999855663877,-0.09800000110848592,-0.06399999977103679
0,0,9.988609313964844,0,0,0.009800000116229057,-0.2050000037480801,0.08400000095013078,-0.0030000000934877653
0,0,9.979032516479492,0,0,0,0.09899999683187131,0.023000000021936765,0.057000003026912535
0,0,9.979032516479492,0,0,0,0.09899999683187131,0.08400000095013078,0.057000003026912535
0,0,9.979032516479492,0,0,0,0.038000000906257256,0.023000000021936765,-0.0030000000934877653
0,0,9.979032516479492,0,0,0,0.038000000906257256,0.023000000021936765,-0.0030000000934877653
0,0,9.979032516479492,0,0,0,-0.08299999855663877,-0.03699999851276524,-0.0030000000934877653
0,0,9.979032516479492,0,0,0,0.15999999609253868,0.08400000095013078,-0.0030000000934877653
0,0,9.979032516479492,0,0,0,0.038000000906257256,0.023000000021936765,-0.0030000000934877653
0,0,9.988609313964844,0,0,0.009800000116229057,0.15999999609253868,0.08400000095013078,-0.06399999977103679
0,0,9.988609313964844,0,0,0.009800000116229057,-0.021999999295971403,0.023000000021936765,-0.0030000000934877653
0,0,9.988609313964844,0,0,0.009800000116229057,0.038000000906257256,0.023000000021936765,-0.0030000000934877653
0,0,9.988609313964844,0,0,0.009800000116229057,-0.021999999295971403,0.023000000021936765,-0.06399999977103679
0,0,9.979032516479492,0,0,0,-0.021999999295971403,0.08400000095013078,-0.06399999977103679
0,0,9.979032516479492,0,0,0,0.038000000906257256,0.08400000095013078,0.057000003026912535
0,0,9.979032516479492,0,0,0,-0.021999999295971403,-0.03699999851276524,-0.0030000000934877653
0,0,9.979032516479492,0,0,0,0.038000000906257256,0.023000000021936765,-0.0030000000934877653
0,0,9.979032516479492,0,0,0,0.09899999683187131,-0.03699999851276524,-0.0030000000934877653
0,0,9.979032516479492,0,0,0,0.038000000906257256,0.023000000021936765,0.057000003026912535
0,0,9.979032516479492,0,0,0,0.15999999609253868,0.08400000095013078,-0.0030000000934877653
0,0,9.979032516479492,0,0,0,-0.021999999295971403,0.023000000021936765,0.057000003026912535
0,0,9.988609313964844,0,0,0,0.038000000906257256,0.023000000021936765,0.057000003026912535
0,0,9.988609313964844,0,0,0.009800000116229057,0.09899999683187131,0.023000000021936765,-0.0030000000934877653
0,0,9.979032516479492,0,0,0,-0.08299999855663877,0.08400000095013078,0.057000003026912535
0,0,9.988609313964844,0,0,0,0.09899999683187131,-0.03699999851276524,-0.12499999903170415
0,0,9.988609313964844,0,0,0.009800000116229057,0.038000000906257256,-0.03699999851276524,-0.0030000000934877653
0,0,9.988609313964844,0,0,0.009800000116229057,0.038000000906257256,-0.03699999851276524,-0.06399999977103679
0,0,9.988609313964844,0,0,0.009800000116229057,-0.021999999295971403,0.023000000021936765,-0.0030000000934877653
0,0,9.988609313964844,0,0,0.009800000116229057,-0.021999999295971403,0.023000000021936765,-0.0030000000934877653
0,0,9.979032516479492,0,0,0,-0.08299999855663877,0.023000000021936765,-0.06399999977103679
0,0,9.988609313964844,0,0,0.009800000116229057,-0.021999999295971403,0.08400000095013078,-0.0030000000934877653
0,0,9.988609313964844,0,0,0.009800000116229057,0.038000000906257256,0.08400000095013078,-0.06399999977103679
0,0,9.988609313964844,0,0,0.009800000116229057,-0.08299999855663877,0.023000000021936765,-0.0030000000934877653
0,0,9.988609313964844,0,0,0.009800000116229057,0.038000000906257256,0.08400000095013078,0.057000003026912535
0,0,9.988609313964844,0,0,0.009800000116229057,-0.26600000967885407,-0.09800000110848592,-0.0030000000934877653
0,0,9.979032516479492,0,0,0,-0.021999999295971403,0.023000000021936765,0.057000003026912535
0,0,9.979032516479492,0,0,0,-0.021999999295971403,0.08400000095013078,-0.0030000000934877653
0,0,9.979032516479492,0,0,0.009800000116229057,0.038000000906257256,0.023000000021936765,-0.0030000000934877653
0,0,9.979032516479492,0,0,0,0.038000000906257256,0.023000000021936765,-0.0030000000934877653
0,0,9.979032516479492,0,0,0,-0.021999999295971403,0.023000000021936765,-0.0030000000934877653
0,0,9.988609313964844,0,0,0.009800000116229057,0.09899999683187131,0.023000000021936765,-0.06399999977103679
0,0,9.988609313964844,0,0,0.009800000116229057,-0.021999999295971403,0.08400000095013078,-0.06399999977103679
0,0,9.988609313964844,0,0,0.009800000116229057,-0.08299999855663877,0.023000000021936765,0.057000003026912535
0,0,9.988609313964844,0,0,0.009800000116229057,-0.08299999855663877,-0.09800000110848592,-0.0030000000934877653
0,0,9.988609313964844,0,0,0.009800000116229057,-0.021999999295971403,0.023000000021936765,0.057000003026912535
0,0,9.979032516479492,0,0,0,-0.26600000967885407,-0.03699999851276524,0.057000003026912535
0,0,9.96945571899414,0,0,-0.009800000116229057,0.038000000906257256,0.08400000095013078,-0.0030000000934877653
0,0,9.96945571899414,0,0,-0.009800000116229057,0.038000000906257256,0.023000000021936765,0.057000003026912535
0,0,9.998186111450195,0,0,0.019600000232458115,0.038000000906257256,0.023000000021936765,-0.0030000000934877653
0,0,9.988609313964844,0,0,0.009800000116229057,-0.021999999295971403,0.08400000095013078,-0.0030000000934877653
0,0,9.988609313964844,0,0,0.009800000116229057,0.15999999609253868,0.08400000095013078,-0.0030000000934877653
0,0,9.979032516479492,0,0,0,0.038000000906257256,0.08400000095013078,0.057000003026912535
0,0,9.979032516479492,0,0,0,0.038000000906257256,0.08400000095013078,0.057000003026912535
0,0,9.979032516479492,0,0,0,0.09899999683187131,0.08400000095013078,-0.0030000000934877653
0,0,9.988609313964844,0,0,0,0.038000000906257256,0.14499999354069154,-0.0030000000934877653
0,0,9.988609313964844,0,0,0,-0.08299999855663877,-0.03699999851276524,-0.0030000000934877653
-0.009576806798577309,0,9.988609313964844,0,0,0,-0.021999999295971403,-0.09800000110848592,-0.06399999977103679
0,0,9.988609313964844,0,0,0,-0.021999999295971403,-0.03699999851276524,-0.0030000000934877653
0,0,9.979032516479492,0,0,-0.009800000116229057,-0.021999999295971403,0.023000000021936765,-0.06399999977103679
0,0,9.979032516479492,0,0,-0.009800000116229057,0.038000000906257256,0.023000000021936765,-0.0030000000934877653
0,0,9.979032516479492,0,0,-0.009800000116229057,0.038000000906257256,0.023000000021936765,-0.06399999977103679
0,0,9.979032516479492,0,0,-0.009800000116229057,0.038000000906257256,-0.09800000110848592,-0.06399999977103679
0,0,9.979032516479492,0,0,-0.009800000116229057,-0.021999999295971403,-0.03699999851276524,-0.0030000000934877653
0,0,9.979032516479492,0,0,-0.009800000116229057,-0.021999999295971403,0.08400000095013078,-0.06399999977103679
0,0,9.979032516479492,0,0,-0.009800000116229057,-0.021999999295971403,0.023000000021936765,-0.0030000000934877653
0,0,9.979032516479492,0,0,-0.009800000116229057,0.038000000906257256,0.08400000095013078,0.17899999487814064
0,0,9.979032516479492,0,0,-0.009800000116229057,0.038000000906257256,0.023000000021936765,-0.0030000000934877653
0,0,9.988609313964844,0,0,0,-0.021999999295971403,-0.03699999851276524,-0.0030000000934877653
0,0,9.988609313964844,0,0,0,-0.021999999295971403,0.14499999354069154,-0.0030000000934877653
0,0,9.988609313964844,0,0,0,-0.14399999781730613,0.023000000021936765,-0.0030000000934877653
0,0,9.988609313964844,0,0,0,-0.021999999295971403,-0.03699999851276524,-0.0030000000934877653
0,0,9.988609313964844,0,0,0,-0.021999999295971403,0.08400000095013078,-0.0030000000934877653
0,0,9.979032516479492,0,0,-0.009800000116229057,-0.08299999855663877,0.023000000021936765,0.057000003026912535
0,0,9.979032516479492,0,0,-0.009800000116229057,-0.021999999295971403,-0.03699999851276524,-0.0030000000934877653
0,0,9.979032516479492,0,0,-0.009800000116229057,-0.021999999295971403,-0.03699999851276524,-0.06399999977103679
0,0,9.979032516479492,0,0,-0.009800000116229057,-0.08299999855663877,0.08400000095013078,0.057000003026912535
0,0,9.979032516479492,0,0,-0.009800000116229057,0.15999999609253868,0.08400000095013078,-0.06399999977103679
0,0,9.979032516479492,0,0,-0.009800000116229057,0.038000000906257256,-0.03699999851276524,0.057000003026912535
0,0,9.979032516479492,0,0,-0.009800000116229057,0.038000000906257256,-0.03699999851276524,-0.06399999977103679
0,0,9.96945571899414,0,0,-0.019600000232458115,0.038000000906257256,-0.03699999851276524,-0.06399999977103679
0,0,9.988609313964844,0,0,0,0.038000000906257256,-0.03699999851276524,-0.0030000000934877653
0,0,9.988609313964844,0,0,0,-0.021999999295971403,0.14499999354069154,0.1180000022875799
0,0,9.979032516479492,0,0,-0.009800000116229057,0.09899999683187131,0.08400000095013078,0.057000003026912535
0,0,9.979032516479492,0,0,-0.009800000116229057,-0.021999999295971403,0.023000000021936765,-0.0030000000934877653
0,0,9.96945571899414,0,0,-0.019600000232458115,0.09899999683187131,0.08400000095013078,0.057000003026912535
0,0,9.979032516479492,0,0,-0.009800000116229057,-0.021999999295971403,0.023000000021936765,-0.0030000000934877653
0,0,9.979032516479492,0,0,-0.009800000116229057,0.038000000906257256,0.08400000095013078,-0.0030000000934877653
0,0,9.979032516479492,0,0,-0.009800000116229057,-0.021999999295971403,0.023000000021936765,-0.06399999977103679
0,0,9.979032516479492,0,0,-0.009800000116229057,0.038000000906257256,0.023000000021936765,-0.06399999977103679
0,0,9.96945571899414,0,0,-0.009800000116229057,-0.08299999855663877,0.08400000095013078,-0.06399999977103679
0,0,9.979032516479492,0,0,-0.009800000116229057,-0.021999999295971403,0.023000000021936765,-0.0030000000934877653
0,0,9.96945571899414,0,0,-0.009800000116229057,-0.021999999295971403,0.08400000095013078,-0.06399999977103679
0,0,9.979032516479492,0,0,-0.009800000116229057,-0.021999999295971403,0.14499999354069154,-0.0030000000934877653
0,0,9.979032516479492,0,0,-0.009800000116229057,0.09899999683187131,0.08400000095013078,-0.0030000000934877653
0,0,9.979032516479492,0,0,-0.009800000116229057,-0.08299999855663877,-0.09800000110848592,-0.0030000000934877653
0,0,9.96945571899414,0,0,-0.019600000232458115,-0.08299999855663877,0.023000000021936765,-0.06399999977103679
0,0,9.96945571899414,0,0,-0.019600000232458115,-0.021999999295971403,-0.03699999851276524,-0.0030000000934877653
0,0,9.96945571899414,0,0,-0.019600000232458115,-0.021999999295971403,0.023000000021936765,-0.0030000000934877653
0,0,9.96945571899414,0,0,-0.009800000116229057,0.038000000906257256,0.08400000095013078,-0.0030000000934877653
0,0,9.979032516479492,0,0,-0.009800000116229057,-0.021999999295971403,0.023000000021936765,-0.0030000000934877653
0,0,9.979032516479492,0,0,-0.009800000116229057,-0.021999999295971403,-0.03699999851276524,-0.0030000000934877653
0,0,9.96945571899414,0,0,-0.019600000232458115,0.038000000906257256,0.14499999354069154,-0.06399999977103679
0,0,9.96945571899414,0,0,0,-0.021999999295971403,0.14499999354069154,-0.0030000000934877653
0,0,9.96945571899414,0,0,0,0.038000000906257256,0.023000000021936765,-0.0030000000934877653
0,0,9.96945571899414,0,0,0,0.038000000906257256,0.14499999354069154,-0.0030000000934877653
0,0,9.96945571899414,0,0,0,0.038000000906257256,-0.09800000110848592,0.057000003026912535
0,0,9.979032516479492,0,0,0.009800000116229057,0.038000000906257256,0.08400000095013078,-0.0030000000934877653
0,0,9.96945571899414,0,0,0,-0.021999999295971403,0.08400000095013078,0.057000003026912535
0,0,9.96945571899414,0,0,0,-0.021999999295971403,0.023000000021936765,-0.06399999977103679
0,0,9.96945571899414,0,0,0,-0.08299999855663877,0.08400000095013078,-0.0030000000934877653
0,0,9.96945571899414,0,0,0,0.038000000906257256,0.08400000095013078,-0.0030000000934877653
0,0,9.979032516479492,0,0,0.009800000116229057,0.09899999683187131,-0.09800000110848592,-0.06399999977103679
0,0,9.979032516479492,0,0,0.009800000116229057,-0.021999999295971403,0.023000000021936765,-0.0030000000934877653
0,0,9.979032516479492,0,0,0.009800000116229057,-0.08299999855663877,-0.09800000110848592,-0.0030000000934877653
0,0,9.959878921508789,0,0,0,-0.021999999295971403,0.023000000021936765,-0.0030000000934877653
0,0,9.96945571899414,0,0,0,0.10400000212922476,-0.12299999424472013,-0.057000003026912535
0,0,9.979032516479492,0,0,0.009800000116229057,-0.07799999992939192,-0.0009999999964224499,0.0030000000934877653
0,0,9.979032516479492,0,0,0.009800000116229057,-0.01700000066872456,0.05900000114378995,0.0030000000934877653
0,0,9.979032516479492,0,0,0.009800000116229057,-0.01700000066872456,-0.0009999999964224499,0.0030000000934877653
0,0,9.979032516479492,0,0,0.009800000116229057,-0.07799999992939192,-0.0009999999964224499,0.0030000000934877653
0,0,9.979032516479492,0,0,0.009800000116229057,0.0429999995335041,-0.12299999424472013,0.0030000000934877653
0,0,9.96945571899414,0,0,0,0.0429999995335041,-0.12299999424472013,0.0030000000934877653
0,0,9.988609313964844,0,0,0.019600000232458115,-0.01700000066872456,0.05900000114378995,0.0030000000934877653
0,0,9.979032516479492,0,0,0.009800000116229057,-0.07799999992939192,-0.12299999424472013,0.0030000000934877653
0,0,9.979032516479492,0,0,0.009800000116229057,-0.01700000066872456,0.05900000114378995,0.0030000000934877653
0,0,9.979032516479492,0,0,0.009800000116229057,-0.01700000066872456,-0.0009999999964224499,-0.057000003026912535
0,0,9.96945571899414,0,0,0,-0.01700000066872456,-0.0009999999964224499,-0.057000003026912535
0,0,9.979032516479492,0,0,0.009800000116229057,0.0429999995335041,0.05900000114378995,-0.057000003026912535
0,0,9.979032516479492,0,0,0.009800000116229057,0.0429999995335041,0.05900000114378995,-0.057000003026912535
0,0,9.988609313964844,0,0,0.019600000232458115,0.0429999995335041,0.05900000114378995,0.06399999977103679
0,0,9.988609313964844,0,0,0.019600000232458115,-0.01700000066872456,-0.06200000165415938,-0.057000003026912535
0,0,9.988609313964844,0,0,0.019600000232458115,-0.01700000066872456,-0.0009999999964224499,0.0030000000934877653
0,0,9.988609313964844,0,0,0.019600000232458115,-0.07799999992939192,-0.06200000165415938,-0.057000003026912535
0,0,9.979032516479492,0,0,0.009800000116229057,-0.07799999992939192,0.1199999937343507,0.0030000000934877653
0,0,9.988609313964844,0,0,0.019600000232458115,-0.01700000066872456,-0.0009999999964224499,-0.057000003026912535
0,0,9.979032516479492,0,0,0.009800000116229057,0.10400000212922476,-0.0009999999964224499,0.06399999977103679
0,0,9.988609313964844,0,0,0.019600000232458115,-0.07799999992939192,-0.06200000165415938,-0.057000003026912535
0,0,9.988609313964844,0,0,0.019600000232458115,0.0429999995335041,-0.06200000165415938,0.06399999977103679
0,0,9.988609313964844,0,0,0.019600000232458115,-0.01700000066872456,-0.12299999424472013,0.0030000000934877653
0,0,9.979032516479492,0,0,0.009800000116229057,0.10400000212922476,-0.06200000165415938,0.06399999977103679
0,0,9.979032516479492,0,0,0.009800000116229057,0.10400000212922476,-0.06200000165415938,0.06399999977103679
0,0,9.988609313964844,0,0,0.019600000232458115,0.0429999995335041,-0.0009999999964224499,0.0030000000934877653
-0.009576806798577309,0,9.988609313964844,0,0,0.019600000232458115,0.16500000138989213,-0.06200000165415938,0.0030000000934877653
0,0,9.988609313964844,0,0,0.019600000232458115,0.0429999995335041,-0.12299999424472013,0.0030000000934877653
0,0,9.979032516479492,0,0,0.009800000116229057,-0.01700000066872456,-0.0009999999964224499,0.0030000000934877653
0,0,9.979032516479492,0,0,0.009800000116229057,-0.01700000066872456,-0.0009999999964224499,0.0030000000934877653
0,0,9.988609313964844,0,0,0.019600000232458115,0.0429999995335041,-0.0009999999964224499,-0.1180000022875799
0,0,9.988609313964844,0,0,0.019600000232458115,-0.01700000066872456,-0.12299999424472013,0.0030000000934877653
0,0,9.979032516479492,0,0,0.009800000116229057,-0.01700000066872456,-0.12299999424472013,0.0030000000934877653
0,0,9.979032516479492,0,0,0,0.10400000212922476,-0.0009999999964224499,0.0030000000934877653
0,0,9.979032516479492,0,0,0.009800000116229057,0.0429999995335041,-0.12299999424472013,0.0030000000934877653
0,0,9.988609313964844,0,0,0.009800000116229057,-0.01700000066872456,0.1199999937343507,-0.057000003026912535
0,0,9.988609313964844,0,0,0.019600000232458115,-0.19999999845072666,-0.0009999999964224499,0.12499999903170415
0,0,9.979032516479492,0,0,0.009800000116229057,-0.07799999992939192,0.05900000114378995,0.0030000000934877653
0,0,9.979032516479492,0,0,0.009800000116229057,-0.38300000290283537,-0.06200000165415938,0.06399999977103679
0,0,9.979032516479492,0,0,0.009800000116229057,0.0429999995335041,0.05900000114378995,-0.057000003026912535
0,0,9.979032516479492,0,0,0.009800000116229057,0.10400000212922476,0.1199999937343507,0.0030000000934877653
0,0,9.979032516479492,0,0,0.009800000116229057,-0.19999999845072666,-0.06200000165415938,-0.057000003026912535
0,0,9.979032516479492,0,0,0.009800000116229057,-0.01700000066872456,-0.06200000165415938,-0.057000003026912535
0,0,9.979032516479492,0,0,0.009800000116229057,0.0429999995335041,-0.06200000165415938,0.0030000000934877653
0,0,9.979032516479492,0,0,0.009800000116229057,0.16500000138989213,-0.0009999999964224499,-0.057000003026912535
0,0,9.979032516479492,0,0,0.009800000116229057,-0.01700000066872456,0.05900000114378995,0.06399999977103679
0,0,9.979032516479492,0,0,0.009800000116229057,-0.07799999992939192,0.05900000114378995,0.12499999903170415
0,0,9.979032516479492,0,0,0.009800000116229057,0.2259999939804529,-0.0009999999964224499,0.0030000000934877653
0,0,9.979032516479492,0,0,0.009800000116229057,0.0429999995335041,-0.0009999999964224499,-0.057000003026912535
0,0,9.988609313964844,0,0,0.019600000232458115,-0.01700000066872456,-0.06200000165415938,0.0030000000934877653
0,0,9.988609313964844,0,0,0.019600000232458115,-0.01700000066872456,-0.0009999999964224499,0.0030000000934877653
0,0,9.979032516479492,0,0,0.009800000116229057,-0.1390000058601659,-0.06200000165415938,0.0030000000934877653
0,0,9.979032516479492,0,0,0.009800000116229057,-0.01700000066872456,-0.0009999999964224499,-0.057000003026912535
0,0,9.96945571899414,0,0,0.009800000116229057,0.10400000212922476,-0.06200000165415938,0.06399999977103679
0,0,9.979032516479492,0,0,0.009800000116229057,-0.07799999992939192,-0.06200000165415938,0.0030000000934877653
0,0,9.979032516479492,0,0,0.009800000116229057,0.2259999939804529,-0.0009999999964224499,0.0030000000934877653
0,0,9.979032516479492,0,0,0.009800000116229057,-0.07799999992939192,0.05900000114378995,0.0030000000934877653
0,0,9.979032516479492,0,0,0.009800000116229057,-0.07799999992939192,-0.0009999999964224499,0.0030000000934877653
0,0,9.979032516479492,0,0,0.009800000116229057,0.16500000138989213,-0.0009999999964224499,0.0030000000934877653
0,0,9.979032516479492,0,0,0.009800000116229057,0.10400000212922476,-0.0009999999964224499,0.0030000000934877653
0,0,9.979032516479492,0,0,0.009800000116229057,-0.01700000066872456,-0.06200000165415938,0.0030000000934877653
0,0,9.988609313964844,0,0,0.019600000232458115,-0.2609999910412874,-0.06200000165415938,0.06399999977103679
0,0,9.988609313964844,0,0,0.019600000232458115,0.10400000212922476,-0.0009999999964224499,-0.057000003026912535
0,0,9.979032516479492,0,0,0.009800000116229057,0.0429999995335041,-0.0009999999964224499,0.0030000000934877653
0,0,9.979032516479492,0,0,0.009800000116229057,-0.01700000066872456,-0.0009999999964224499,-0.057000003026912535
0,0,9.979032516479492,0,0,0.009800000116229057,-0.01700000066872456,-0.0009999999964224499,-0.057000003026912535
0,0,9.979032516479492,0,0,0.009800000116229057,0.0429999995335041,0.18099999966512467,-0.1180000022875799
0,0,9.979032516479492,0,0,0.009800000116229057,-0.01700000066872456,0.1199999937343507,-0.057000003026912535
0,0,9.96945571899414,0,0,0.009800000116229057,-0.38300000290283537,0.05900000114378995,0.12499999903170415
0,0,9.96945571899414,0,0,0.009800000116229057,0.0429999995335041,0.1199999937343507,0.0030000000934877653
0,0,9.979032516479492,0,0,0.009800000116229057,0.0429999995335041,-0.0009999999964224499,0.06399999977103679
0,0,9.979032516479492,0,0,0.009800000116229057,0.16500000138989213,0.05900000114378995,0.0030000000934877653
0,0,9.979032516479492,0,0,0.009800000116229057,-0.19999999845072666,0.1199999937343507,0.12499999903170415
0,0,9.979032516479492,0,0,0.009800000116229057,0.0429999995335041,-0.06200000165415938,0.0030000000934877653
0,0,9.979032516479492,0,0,0.009800000116229057,0.10400000212922476,0.18099999966512467,0.06399999977103679
0,0,9.979032516479492,0,0,0.009800000116229057,-0.1390000058601659,-0.0009999999964224499,0.0030000000934877653
0,0,9.988609313964844,0,0,0.009800000116229057,0.0429999995335041,0.05900000114378995,-0.057000003026912535
0,0,9.988609313964844,0,0,0.019600000232458115,-0.07799999992939192,-0.0009999999964224499,0.0030000000934877653
0,0,9.988609313964844,0,0,0.019600000232458115,-0.01700000066872456,0.24200000559589865,-0.057000003026912535
0,0,9.988609313964844,0,0,0.019600000232458115,0.16500000138989213,0.05900000114378995,-0.1180000022875799
0,0,9.988609313964844,0,0,0.019600000232458115,0.2259999939804529,-0.06200000165415938,-0.1180000022875799
0,0,9.988609313964844,0,0,0,0.0429999995335041,0.05900000114378995,-0.057000003026912535
0,0,9.979032516479492,0,0,0,0.0429999995335041,-0.06200000165415938,-0.057000003026912535
0,0,9.988609313964844,0,0,0,-0.07799999992939192,-0.0009999999964224499,0.06399999977103679
0,0,9.998186111450195,0,0,0.009800000116229057,-0.07799999992939192,-0.0009999999964224499,0.0030000000934877653
0,0,9.988609313964844,0,0,0,0.0429999995335041,-0.06200000165415938,0.06399999977103679
0,0,9.998186111450195,0,0,0.009800000116229057,-0.01700000066872456,-0.06200000165415938,0.0030000000934877653
0,0,9.998186111450195,0,0,0.009800000116229057,-0.01700000066872456,-0.0009999999964224499,-0.057000003026912535
0,0,9.979032516479492,0,0,-0.009800000116229057,0.0429999995335041,0.1199999937343507,-0.057000003026912535
0,0,9.988609313964844,0,0,0,-0.01700000066872456,0.05900000114378995,0.06399999977103679
0,0,9.988609313964844,0,0,0,-0.01700000066872456,0.05900000114378995,0.0030000000934877653
0,0,9.988609313964844,0,0,0,-0.07799999992939192,0.18099999966512467,0.0030000000934877653
0,0,9.988609313964844,0,0,0,-0.07799999992939192,0.1199999937343507,0.0030000000934877653
0,0,9.988609313964844,0,0,0,0.0429999995335041,0.05900000114378995,-0.1180000022875799
0,0,9.988609313964844,0,0,0,0.10400000212922476,-0.06200000165415938,-0.1180000022875799
0,0,9.988609313964844,0,0,0,0.0429999995335041,-0.06200000165415938,0.0030000000934877653
0,0,9.988609313964844,0,0,0,-0.01700000066872456,0.05900000114378995,-0.057000003026912535
0,0,9.988609313964844,0,0,0,-0.07799999992939192,-0.0009999999964224499,0.0030000000934877653
0,0,9.979032516479492,0,0,0,-0.01700000066872456,-0.06200000165415938,-0.057000003026912535
0,0,9.988609313964844,0,0,0.009800000116229057,-0.01700000066872456,-0.06200000165415938,-0.057000003026912535
0,0,9.988609313964844,0,0,0,0.0429999995335041,-0.0009999999964224499,-0.057000003026912535
0,0,9.988609313964844,0,0,0,-0.01700000066872456,-0.0009999999964224499,-0.057000003026912535
0,0,9.998186111450195,0,0,0.009800000116229057,-0.07799999992939192,-0.0009999999964224499,-0.057000003026912535
0,0,9.988609313964844,0,0,0,-0.01700000066872456,-0.0009999999964224499,0.0030000000934877653
0,0,9.998186111450195,0,0,0.009800000116229057,-0.07799999992939192,-0.0009999999964224499,0.0030000000934877653
0,0,9.998186111450195,0,0,0.009800000116229057,0.0429999995335041,0.05900000114378995,-0.057000003026912535
0,0,9.988609313964844,0,0,-0.009800000116229057,-0.01700000066872456,-0.12299999424472013,0.06399999977103679
0,0,9.988609313964844,0,0,0,-0.07799999992939192,-0.06200000165415938,-0.057000003026912535
0,0,9.979032516479492,0,0,-0.009800000116229057,0.10400000212922476,-0.0009999999964224499,-0.057000003026912535
0,0,9.988609313964844,0,0,0,0.16500000138989213,-0.0009999999964224499,-0.057000003026912535
0,0,9.988609313964844,0,0,0,-0.07799999992939192,-0.06200000165415938,0.0030000000934877653
0,0,9.988609313964844,0,0,0,0.0429999995335041,-0.06200000165415938,0.0030000000934877653
0,0,9.998186111450195,0,0,0.009800000116229057,-0.07799999992939192,0.05900000114378995,0.0030000000934877653
0,0,9.998186111450195,0,0,0.009800000116229057,-0.07799999992939192,0.05900000114378995,-0.057000003026912535
0,0,9.998186111450195,0,0,0.009800000116229057,-0.1390000058601659,-0.12299999424472013,0.06399999977103679
0,0,9.998186111450195,0,0,0.009800000116229057,0.10400000212922476,-0.0009999999964224499,-0.1180000022875799
0,0,9.998186111450195,0,0,0.009800000116229057,-0.1390000058601659,0.1199999937343507,0.0030000000934877653
0,0,9.998186111450195,0,0,0.009800000116229057,0.10400000212922476,-0.06200000165415938,0.06399999977103679
0,0,9.998186111450195,0,0,0.009800000116229057,0.0429999995335041,0.05900000114378995,0.0030000000934877653
0,0,9.979032516479492,0,0,0.009800000116229057,0.10400000212922476,-0.06200000165415938,0.06399999977103679
0,0,9.988609313964844,0,0,0,-0.1390000058601659,-0.0009999999964224499,0.0030000000934877653
0,0,9.988609313964844,0,0,0,-0.01700000066872456,-0.06200000165415938,0.0030000000934877653
0,0,9.998186111450195,0,0,0.009800000116229057,-0.07799999992939192,-0.06200000165415938,0.06399999977103679
0,0,9.988609313964844,0,0,0,0.0429999995335041,0.05900000114378995,-0.057000003026912535
0,0,9.988609313964844,0,0,0,0.0429999995335041,-0.0009999999964224499,0.0030000000934877653
0,0,9.988609313964844,0,0,0,0.10400000212922476,-0.12299999424472013,0.06399999977103679
0,0,9.998186111450195,0,0,0.009800000116229057,0.10400000212922476,-0.0009999999964224499,0.0030000000934877653
0,0,9.988609313964844,0,0,0,-0.01700000066872456,-0.0009999999964224499,0.0030000000934877653
0,0,9.998186111450195,0,0,0.009800000116229057,-0.01700000066872456,-0.12299999424472013,0.06399999977103679
0,0,9.998186111450195,0,0,0,0.10400000212922476,-0.0009999999964224499,-0.057000003026912535
0,0,9.998186111450195,0,0,0,-0.1390000058601659,-0.0009999999964224499,0.06399999977103679
0,0,9.998186111450195,0,0,0,0.10400000212922476,-0.06200000165415938,0.0030000000934877653
0,0,9.998186111450195,0,0,0,-0.07799999992939192,-0.0009999999964224499,-0.057000003026912535
0,0,10.007762908935547,0,0,0.009800000116229057,-0.07799999992939192,-0.06200000165415938,0.0030000000934877653
0,0,10.007762908935547,0,0,0.009800000116229057,-0.07799999992939192,-0.0009999999964224499,-0.1180000022875799
0,0,9.998186111450195,0,0,0,0.0429999995335041,-0.0009999999964224499,0.0030000000934877653
0,0,9.988609313964844,0,0,-0.009800000116229057,-0.01700000066872456,-0.0009999999964224499,-0.057000003026912535
0,0,9.988609313964844,0,0,-0.009800000116229057,-0.01700000066872456,-0.0009999999964224499,-0.057000003026912535
0,0,9.988609313964844,0,0,-0.009800000116229057,0.16500000138989213,-0.0009999999964224499,0.0030000000934877653
0,0,10.007762908935547,0,0,0.009800000116229057,-0.07799999992939192,0.05900000114378995,-0.057000003026912535
0,0,10.007762908935547,0,0,0.009800000116229057,-0.01700000066872456,-0.06200000165415938,-0.057000003026912535
0,0,10.007762908935547,0,0,0.009800000116229057,-0.01700000066872456,-0.0009999999964224499,0.0030000000934877653
0,0,9.988609313964844,0,0,-0.009800000116229057,0.0429999995335041,-0.0009999999964224499,0.0030000000934877653
0,0,9.988609313964844,0,0,-0.009800000116229057,0.0429999995335041,0.05900000114378995,0.0030000000934877653
0,0,9.988609313964844,0,0,-0.009800000116229057,-0.01700000066872456,-0.12299999424472013,-0.057000003026912535
0,0,9.988609313964844,0,0,-0.009800000116229057,-0.01700000066872456,0.05900000114378995,0.06399999977103679
0,0,9.998186111450195,0,0,0,0.10400000212922476,-0.06200000165415938,-0.057000003026912535
0,0,9.998186111450195,0,0,0,-0.01700000066872456,-0.06200000165415938,0.06399999977103679
0,0,9.998186111450195,0,0,0,0.0429999995335041,-0.06200000165415938,0.0030000000934877653
0,0,9.998186111450195,0,0,0,-0.07799999992939192,-0.0009999999964224499,0.0030000000934877653
0,0,9.998186111450195,0,0,0,0.16500000138989213,0.05900000114378995,-0.057000003026912535
0,0,9.998186111450195,0,0,0,0.0429999995335041,-0.0009999999964224499,0.06399999977103679
0,0,9.998186111450195,0,0,0,-0.07799999992939192,-0.06200000165415938,-0.057000003026912535
0,0,9.998186111450195,0,0,0,-0.01700000066872456,0.05900000114378995,0.0030000000934877653
0,0,9.988609313964844,0,0,-0.009800000116229057,0.0429999995335041,-0.0009999999964224499,0.12499999903170415
0,0,9.988609313964844,0,0,-0.009800000116229057,0.0429999995335041,-0.0009999999964224499,-0.057000003026912535
0,0,9.988609313964844,0,0,-0.009800000116229057,0.0429999995335041,-0.0009999999964224499,-0.057000003026912535
0,0,9.988609313964844,0,0,-0.009800000116229057,0.0429999995335041,-0.06200000165415938,0.0030000000934877653
0,0,9.988609313964844,0,0,-0.009800000116229057,-0.01700000066872456,-0.06200000165415938,0.0030000000934877653
0,0,9.988609313964844,0,0,0,-0.07799999992939192,0.05900000114378995,0.0030000000934877653
0,0,9.988609313964844,0,0,-0.009800000116229057,0.10400000212922476,0.05900000114378995,-0.057000003026912535
0,0,9.988609313964844,0,0,-0.009800000116229057,0.0429999995335041,-0.0009999999964224499,0.06399999977103679
0,0,9.988609313964844,0,0,-0.009800000116229057,0.10400000212922476,-0.0009999999964224499,0.0030000000934877653
0,0,9.979032516479492,0,0,-0.019600000232458115,0.10400000212922476,-0.0009999999964224499,-0.057000003026912535
0,0,9.988609313964844,0,0,-0.009800000116229057,-0.01700000066872456,0.1199999937343507,0.0030000000934877653
0,0,9.988609313964844,0,0,-0.009800000116229057,-0.01700000066872456,-0.0009999999964224499,0.0030000000934877653
0,0,9.979032516479492,0,0,-0.019600000232458115,-0.01700000066872456,0.05900000114378995,0.0030000000934877653
0,0,9.988609313964844,0,0,-0.009800000116229057,0.0429999995335041,0.05900000114378995,-0.057000003026912535
0,0,9.988609313964844,0,0,-0.009800000116229057,0.10400000212922476,-0.0009999999964224499,0.0030000000934877653
0,0,9.988609313964844,0,0,-0.009800000116229057,-0.01700000066872456,-0.06200000165415938,0.06399999977103679
0,0,9.988609313964844,0,0,-0.009800000116229057,0.16500000138989213,0.05900000114378995,0.0030000000934877653
0,0,9.988609313964844,0,0,-0.009800000116229057,-0.01700000066872456,-0.0009999999964224499,0.0030000000934877653
0,0,9.988609313964844,0,0,-0.009800000116229057,-0.07799999992939192,-0.06200000165415938,0.0030000000934877653
0,0,9.988609313964844,0,0,-0.009800000116229057,-0.1390000058601659,0.05900000114378995,-0.057000003026912535
0,0,9.979032516479492,0,0,-0.019600000232458115,-0.01700000066872456,-0.06200000165415938,-0.057000003026912535
0,0,9.979032516479492,0,0,-0.019600000232458115,0.0429999995335041,0.05900000114378995,0.0030000000934877653
0,0,9.998186111450195,0,0,0,-0.07799999992939192,-0.0009999999964224499,0.0030000000934877653
0,0,9.998186111450195,0,0,0,-0.1390000058601659,0.05900000114378995,0.12499999903170415
0,0,9.988609313964844,0,0,0,-0.01700000066872456,-0.0009999999964224499,0.06399999977103679
0,0,9.988609313964844,0,0,-0.009800000116229057,0.0429999995335041,0.05900000114378995,0.0030000000934877653
0,0,9.988609313964844,0,0,-0.009800000116229057,-0.1390000058601659,0.05900000114378995,0.06399999977103679
0,0,9.988609313964844,0,0,-0.009800000116229057,-0.01700000066872456,-0.0009999999964224499,0.0030000000934877653
0,0,9.979032516479492,0,0,-0.019600000232458115,0.0429999995335041,-0.0009999999964224499,-0.057000003026912535
0,0,9.988609313964844,0,0,-0.009800000116229057,0.0429999995335041,-0.06200000165415938,-0.057000003026912535
0,0,9.979032516479492,0,0,-0.019600000232458115,-0.01700000066872456,-0.0009999999964224499,-0.057000003026912535
0,0,9.979032516479492,0,0,-0.019600000232458115,0.0429999995335041,-0.06200000165415938,0.0030000000934877653
0,0,9.979032516479492,0,0,-0.019600000232458115,0.0429999995335041,-0.06200000165415938,-0.057000003026912535
0,0,9.979032516479492,0,0,-0.019600000232458115,-0.01700000066872456,-0.0009999999964224499,0.06399999977103679
0,0,9.998186111450195,0,0,0,0.10400000212922476,-0.0009999999964224499,-0.1180000022875799
0,0,9.988609313964844,0,0,-0.009800000116229057,-0.01700000066872456,-0.0009999999964224499,0.06399999977103679
0,0,9.988609313964844,0,0,-0.009800000116229057,-0.01700000066872456,-0.06200000165415938,-0.057000003026912535
0,0,9.988609313964844,0,0,-0.009800000116229057,0.0429999995335041,0.05900000114378995,0.0030000000934877653
0,0,9.979032516479492,0,0,-0.019600000232458115,-0.07799999992939192,-0.0009999999964224499,0.06399999977103679
0,0,9.988609313964844,0,0,-0.009800000116229057,-0.01700000066872456,0.05900000114378995,0.0030000000934877653
0,0,9.988609313964844,0,0,-0.009800000116229057,-0.01700000066872456,-0.06200000165415938,0.06399999977103679
0,0,9.988609313964844,0,0,-0.009800000116229057,0.0429999995335041,-0.0009999999964224499,0.0030000000934877653
0,0,9.988609313964844,0,0,-0.009800000116229057,-0.01700000066872456,-0.0009999999964224499,0.06399999977103679
0,0,9.988609313964844,0,0,-0.009800000116229057,-0.1390000058601659,-0.24500000610626807,0.06399999977103679
0,0,9.988609313964844,0,0,-0.009800000116229057,0.10400000212922476,0.05900000114378995,-0.057000003026912535
0,0,9.988609313964844,0,0,-0.009800000116229057,-0.01700000066872456,0.1199999937343507,0.06399999977103679
0,0,9.979032516479492,0,0,-0.019600000232458115,-0.01700000066872456,0.1199999937343507,0.06399999977103679
0,0,9.979032516479492,0,0,-0.019600000232458115,0.10400000212922476,-0.0009999999964224499,0.0030000000934877653
0,0,9.979032516479492,0,0,-0.019600000232458115,0.0429999995335041,-0.0009999999964224499,0.0030000000934877653
0,0,9.96945571899414,0,0,-0.029399998486042023,0.0429999995335041,0.05900000114378995,0.06399999977103679
0,0,9.988609313964844,0,0,-0.029399998486042023,-0.01700000066872456,-0.06200000165415938,0.06399999977103679
0,0,9.96945571899414,0,0,-0.009800000116229057,-0.01700000066872456,0.05900000114378995,0.0030000000934877653
0,0,9.96945571899414,0,0,-0.029399998486042023,-0.07799999992939192,-0.06200000165415938,-0.057000003026912535
0,0,9.979032516479492,0,0,-0.019600000232458115,0.10400000212922476,-0.06200000165415938,-0.057000003026912535
0,0,9.979032516479492,0,0,-0.019600000232458115,-0.01700000066872456,0.18099999966512467,0.0030000000934877653
0,0,9.979032516479492,0,0,-0.009800000116229057,0.0429999995335041,0.05900000114378995,0.0030000000934877653
0,0,9.979032516479492,0,0,-0.019600000232458115,0.2259999939804529,0.05900000114378995,-0.057000003026912535
0,0,9.979032516479492,0,0,-0.019600000232458115,0.0429999995335041,0.05900000114378995,-0.057000003026912535
0,0,9.988609313964844,0,0,-0.009800000116229057,-0.1390000058601659,-0.06200000165415938,0.0030000000934877653
0,0,9.988609313964844,0,0,-0.009800000116229057,-0.07799999992939192,-0.06200000165415938,0.0030000000934877653
0,0,9.979032516479492,0,0,-0.019600000232458115,-0.01700000066872456,-0.06200000165415938,0.06399999977103679
0,0,9.979032516479492,0,0,-0.019600000232458115,-0.01700000066872456,-0.06200000165415938,0.06399999977103679
0,0,9.96945571899414,0,0,-0.019600000232458115,-0.01700000066872456,-0.06200000165415938,0.0030000000934877653
0,0,9.979032516479492,0,0,-0.019600000232458115,-0.01700000066872456,-0.0009999999964224499,-0.057000003026912535
0,0,9.979032516479492,0,0,-0.019600000232458115,-0.19999999845072666,-0.0009999999964224499,0.06399999977103679
-0.009576806798577309,0,9.979032516479492,0,0,-0.019600000232458115,-0.01700000066872456,-0.0009999999964224499,0.06399999977103679
-0.009576806798577309,0,9.96945571899414,0,0,-0.029399998486042023,0.10400000212922476,0.05900000114378995,-0.057000003026912535
0,0,9.96945571899414,0,0,-0.029399998486042023,0.0429999995335041,0.1199999937343507,0.12499999903170415
0,0,9.96945571899414,0,0,-0.019600000232458115,0.0429999995335041,0.1199999937343507,0.12499999903170415
0,0,9.979032516479492,0,0,-0.019600000232458115,-0.07799999992939192,0.05900000114378995,0.06399999977103679
0,0,9.988609313964844,0,0,-0.019600000232458115,-0.01700000066872456,0.05900000114378995,-0.057000003026912535
0,0,9.988609313964844,0,0,0,-0.19999999845072666,-0.06200000165415938,-0.057000003026912535
0,0,9.988609313964844,0,0,-0.009800000116229057,-0.01700000066872456,-0.0009999999964224499,0.06399999977103679
0,0,9.998186111450195,0,0,0,-0.01700000066872456,0.1199999937343507,0.0030000000934877653
0,0,9.988609313964844,0,0,0,0.10400000212922476,-0.0009999999964224499,0.0030000000934877653
0,0,9.979032516479492,0,0,-0.019600000232458115,0.0429999995335041,0.05900000114378995,0.0030000000934877653
0,0,9.979032516479492,0,0,-0.019600000232458115,0.0429999995335041,0.05900000114378995,0.06399999977103679
0,0,9.979032516479492,0,0,-0.019600000232458115,-0.1390000058601659,-0.0009999999964224499,0.12499999903170415
0,0,9.979032516479492,0,0,-0.019600000232458115,-0.01700000066872456,-0.06200000165415938,-0.057000003026912535
0,0,9.979032516479492,0,0,-0.019600000232458115,-0.07799999992939192,0.05900000114378995,0.0030000000934877653
0,0,9.979032516479492,0,0,-0.019600000232458115,0.10400000212922476,-0.0009999999964224499,-0.057000003026912535
0,0,9.979032516479492,0,0,-0.019600000232458115,-0.01700000066872456,-0.0009999999964224499,0.06399999977103679
0,0,9.979032516479492,0,0,-0.019600000232458115,-0.1390000058601659,-0.0009999999964224499,0.12499999903170415
0,0,9.979032516479492,0,0,-0.019600000232458115,-0.01700000066872456,-0.0009999999964224499,-0.057000003026912535
0,0,9.979032516479492,0,0,-0.019600000232458115,-0.01700000066872456,-0.0009999999964224499,-0.057000003026912535
0,0,9.979032516479492,0,0,-0.019600000232458115,-0.01700000066872456,-0.12299999424472013,0.0030000000934877653
0,0,9.988609313964844,0,0,-0.009800000116229057,-0.01700000066872456,-0.06200000165415938,0.06399999977103679
0,0,9.988609313964844,0,0,-0.019600000232458115,0.10400000212922476,-0.0009999999964224499,0.0030000000934877653
0,0,9.979032516479492,0,0,-0.009800000116229057,0.10400000212922476,0.05900000114378995,-0.057000003026912535
0,0,9.979032516479492,0,0,-0.019600000232458115,-0.07799999992939192,0.05900000114378995,-0.057000003026912535
0,0,9.988609313964844,0,0,-0.009800000116229057,0.0429999995335041,-0.0009999999964224499,0.0030000000934877653
0,0,9.988609313964844,0,0,-0.009800000116229057,-0.07799999992939192,-0.0009999999964224499,-0.1180000022875799
0,0,9.988609313964844,0,0,-0.019600000232458115,-0.01700000066872456,-0.0009999999964224499,-0.057000003026912535
0,0,9.988609313964844,0,0,-0.009800000116229057,0.0429999995335041,-0.0009999999964224499,0.0030000000934877653
0,0,9.979032516479492,0,0,-0.019600000232458115,-0.01700000066872456,0.05900000114378995,-0.057000003026912535
0,0,9.979032516479492,0,0,-0.019600000232458115,0.0429999995335041,-0.0009999999964224499,-0.057000003026912535
0,0,9.979032516479492,0,0,-0.019600000232458115,0.0429999995335041,-0.06200000165415938,0.06399999977103679
-0.009576806798577309,0,9.979032516479492,0,0,-0.019600000232458115,0.0429999995335041,-0.0009999999964224499,0.06399999977103679
0,0,9.979032516479492,0,0,-0.019600000232458115,-0.1390000058601659,0.05900000114378995,0.06399999977103679
0,0,9.96945571899414,0,0,-0.019600000232458115,-0.07799999992939192,0.05900000114378995,0.06399999977103679
0,0,9.979032516479492,0,0,-0.019600000232458115,0.16500000138989213,-0.0009999999964224499,-0.057000003026912535
0,0,9.979032516479492,0,0,-0.019600000232458115,-0.01700000066872456,0.05900000114378995,-0.057000003026912535
0,0,9.979032516479492,0,0,-0.019600000232458115,-0.07799999992939192,0.05900000114378995,0.0030000000934877653
0,0,9.96945571899414,0,0,-0.019600000232458115,-0.01700000066872456,-0.06200000165415938,-0.057000003026912535
0,0,9.979032516479492,0,0,-0.019600000232458115,-0.07799999992939192,-0.0009999999964224499,0.06399999977103679
0,0,9.979032516479492,0,0,-0.019600000232458115,0.0429999995335041,0.05900000114378995,0.06399999977103679
0,0,9.979032516479492,0,0,-0.019600000232458115,-0.1390000058601659,-0.06200000165415938,-0.1180000022875799
0,0,9.979032516479492,0,0,-0.019600000232458115,-0.07799999992939192,0.05900000114378995,-0.057000003026912535
0,0,9.979032516479492,0,0,-0.019600000232458115,0.16500000138989213,0.05900000114378995,-0.1180000022875799
0,0,9.979032516479492,0,0,-0.019600000232458115,-0.3220000103122746,-0.12299999424472013,0.06399999977103679
0,0,9.979032516479492,0,0,-0.019600000232458115,0.0429999995335041,-0.0009999999964224499,0.06399999977103679
0,0,9.979032516479492,0,0,-0.019600000232458115,-0.01700000066872456,-0.06200000165415938,0.06399999977103679
0,0,9.979032516479492,0,0,-0.019600000232458115,-0.01700000066872456,-0.0009999999964224499,-0.057000003026912535
0,0,9.979032516479492,0,0,-0.019600000232458115,-0.1390000058601659,-0.0009999999964224499,-0.057000003026912535
0,0,9.979032516479492,0,0,-0.019600000232458115,0.10400000212922476,0.05900000114378995,-0.057000003026912535
0,0,9.979032516479492,0,0,-0.009800000116229057,0.0429999995335041,-0.0009999999964224499,-0.1180000022875799
0,0,9.988609313964844,0,0,-0.009800000116229057,0.0429999995335041,-0.06200000165415938,0.06399999977103679
0,0,9.979032516479492,0,0,-0.029399998486042023,-0.07799999992939192,0.05900000114378995,0.0030000000934877653
0,0,9.979032516479492,0,0,-0.019600000232458115,-0.07799999992939192,-0.06200000165415938,0.0030000000934877653
0,0,9.979032516479492,0,0,0,0.10400000212922476,0.05900000114378995,-0.057000003026912535
0,0,9.979032516479492,0,0,0,0.10400000212922476,-0.0009999999964224499,-0.057000003026912535
0,0,9.979032516479492,0,0,0,-0.01700000066872456,-0.0009999999964224499,0.0030000000934877653
0,0,9.979032516479492,0,0,0,-0.01700000066872456,-0.0009999999964224499,0.06399999977103679
0,0,9.96945571899414,0,0,-0.009800000116229057,0.0429999995335041,-0.06200000165415938,0.12499999903170415
0,0,9.96945571899414,0,0,-0.009800000116229057,0.0429999995335041,-0.06200000165415938,0.0030000000934877653
0,0,9.96945571899414,0,0,-0.009800000116229057,-0.1390000058601659,-0.0009999999964224499,0.06399999977103679
0,0,9.988609313964844,0,0,0,-0.07799999992939192,-0.12299999424472013,0.0030000000934877653
0,0,9.988609313964844,0,0,0.009800000116229057,-0.01700000066872456,-0.06200000165415938,0.0030000000934877653
0,0,9.988609313964844,0,0,0.009800000116229057,-0.1390000058601659,-0.0009999999964224499,0.06399999977103679
0,0,9.988609313964844,0,0,0.009800000116229057,-0.44399999549339614,-0.0009999999964224499,0.06399999977103679
0,0,9.979032516479492,0,0,0,-0.1390000058601659,-0.12299999424472013,0.0030000000934877653
0,0,9.979032516479492,0,0,0,-0.01700000066872456,0.05900000114378995,0.0030000000934877653
0,0,9.979032516479492,0,0,0,0.1070000026395942,-0.18400000017549412,-0.05200000106461238
0,0,9.988609313964844,0,0,0,-0.0749999994190225,-0.0009999999964224499,0.06899999839828364
0,0,9.988609313964844,0,0,0,-0.13600000534979648,0.1199999937343507,0.06899999839828364
0,0,9.988609313964844,0,0,0.009800000116229057,0.04600000004387353,0.05900000114378995,0.007999999971379599
0,0,9.988609313964844,0,0,0.009800000116229057,0.04600000004387353,0.05900000114378995,0.06899999839828364
0,0,9.998186111450195,0,0,0.019600000232458115,-0.01400000015835513,-0.0009999999964224499,0.007999999971379599
0,0,9.998186111450195,0,0,0.019600000232458115,-0.19699999794035722,-0.06200000165415938,0.007999999971379599
0,0,9.988609313964844,0,0,0.009800000116229057,-0.19699999794035722,-0.06200000165415938,0.007999999971379599
0,0,9.988609313964844,0,0,0.009800000116229057,-0.01400000015835513,0.05900000114378995,-0.05200000106461238
0,0,9.988609313964844,0,0,0.009800000116229057,0.1070000026395942,-0.0009999999964224499,0.007999999971379599
0,0,9.988609313964844,0,0,0.009800000116229057,0.04600000004387353,-0.0009999999964224499,0.007999999971379599
0,0,9.988609313964844,0,0,0.009800000116229057,-0.01400000015835513,0.05900000114378995,0.007999999971379599
0,0,9.988609313964844,0,0,0.009800000116229057,-0.01400000015835513,-0.0009999999964224499,0.06899999839828364
0,0,9.988609313964844,0,0,0.009800000116229057,-0.0749999994190225,-0.0009999999964224499,0.007999999971379599
0,0,9.998186111450195,0,0,0.019600000232458115,-0.01400000015835513,-0.06200000165415938,0.007999999971379599
0,0,9.998186111450195,0,0,0.019600000232458115,0.04600000004387353,-0.0009999999964224499,0.06899999839828364
0,0,9.998186111450195,0,0,0.019600000232458115,0.04600000004387353,-0.0009999999964224499,0.007999999971379599
0,0,9.998186111450195,0,0,0.019600000232458115,-0.0749999994190225,-0.0009999999964224499,0.007999999971379599
0,0,9.998186111450195,0,0,0.019600000232458115,0.1070000026395942,0.05900000114378995,-0.11299999699022645
0,0,9.998186111450195,0,0,0.019600000232458115,-0.01400000015835513,0.05900000114378995,-0.05200000106461238
0,0,9.988609313964844,0,0,0.009800000116229057,0.04600000004387353,0.1199999937343507,0.007999999971379599
0,0,9.988609313964844,0,0,0.009800000116229057,0.04600000004387353,-0.0009999999964224499,0.19099999691961836
0,0,9.988609313964844,0,0,0.009800000116229057,-0.01400000015835513,0.05900000114378995,-0.05200000106461238
0,0,9.998186111450195,0,0,0.019600000232458115,0.04600000004387353,-0.0009999999964224499,0.007999999971379599
0,0,9.998186111450195,0,0,0.019600000232458115,0.04600000004387353,-0.0009999999964224499,0.007999999971379599
0,0,9.998186111450195,0,0,0.019600000232458115,-0.01400000015835513,-0.06200000165415938,0.007999999971379599
0,0,9.998186111450195,0,0,0.019600000232458115,-0.01400000015835513,-0.0009999999964224499,0.007999999971379599
0,0,9.998186111450195,0,0,0.019600000232458115,-0.13600000534979648,-0.0009999999964224499,0.06899999839828364
0,0,9.998186111450195,0,0,0.019600000232458115,-0.01400000015835513,-0.0009999999964224499,0.007999999971379599
0,0,9.998186111450195,0,0,0.019600000232458115,0.04600000004387353,-0.0009999999964224499,0.007999999971379599
0,0,9.998186111450195,0,0,0.019600000232458115,-0.19699999794035722,-0.12299999424472013,0.007999999971379599
0,0,9.998186111450195,0,0,0.019600000232458115,0.04600000004387353,0.05900000114378995,-0.05200000106461238
0,0,9.998186111450195,0,0,0.019600000232458115,-0.01400000015835513,-0.06200000165415938,0.007999999971379599
0,0,9.988609313964844,0,0,0.009800000116229057,-0.01400000015835513,0.05900000114378995,-0.05200000106461238
0,0,9.988609313964844,0,0,0.009800000116229057,0.1070000026395942,-0.06200000165415938,0.007999999971379599
0,0,9.988609313964844,0,0,0,-0.01400000015835513,0.05900000114378995,0.06899999839828364
0,0,9.988609313964844,0,0,0,0.04600000004387353,-0.0009999999964224499,-0.17400000292100043
0,0,9.988609313964844,0,0,0,-0.01400000015835513,-0.0009999999964224499,0.13000000432905762
0,0,9.998186111450195,0,0,0.009800000116229057,0.1070000026395942,-0.0009999999964224499,0.007999999971379599
0,0,9.988609313964844,0,0,0,-0.13600000534979648,0.05900000114378995,0.007999999971379599
0,0,9.998186111450195,0,0,0,-0.0749999994190225,0.05900000114378995,0.007999999971379599
0,0,9.988609313964844,0,0,0,-0.0749999994190225,-0.12299999424472013,0.007999999971379599
0,0,9.988609313964844,0,0,0,0.04600000004387353,-0.0009999999964224499,-0.05200000106461238
0,0,9.988609313964844,0,0,0,0.04600000004387353,0.1199999937343507,0.007999999971379599
0,0,9.998186111450195,0,0,0,0.04600000004387353,-0.06200000165415938,-0.11299999699022645
0,0,9.988609313964844,0,0,0.009800000116229057,0.1070000026395942,-0.0009999999964224499,0.007999999971379599
0,0,9.988609313964844,0,0,0,-0.01400000015835513,-0.0009999999964224499,-0.05200000106461238
0,0,9.988609313964844,0,0,0,-0.01400000015835513,-0.06200000165415938,0.007999999971379599
0,0,9.988609313964844,0,0,0,-0.01400000015835513,-0.0009999999964224499,0.06899999839828364
0,0,9.988609313964844,0,0,0,-0.01400000015835513,0.05900000114378995,0.007999999971379599
0,0,9.988609313964844,0,0,0,-0.0749999994190225,-0.0009999999964224499,-0.05200000106461238
0,0,9.988609313964844,0,0,0,0.04600000004387353,-0.0009999999964224499,-0.05200000106461238
0,0,9.988609313964844,0,0,0,-0.01400000015835513,0.05900000114378995,0.007999999971379599
0,0,9.988609313964844,0,0,0,-0.01400000015835513,0.05900000114378995,0.007999999971379599
0,0,9.988609313964844,0,0,0,0.1070000026395942,0.05900000114378995,0.06899999839828364
0,0,9.988609313964844,0,0,0,-0.01400000015835513,0.05900000114378995,-0.05200000106461238
0,0,9.988609313964844,0,0,0,0.1070000026395942,-0.0009999999964224499,0.06899999839828364
0,0,9.988609313964844,0,0,0,-0.0749999994190225,0.05900000114378995,-0.05200000106461238
0,0,9.988609313964844,0,0,0,-0.01400000015835513,-0.06200000165415938,0.13000000432905762
0,0,9.998186111450195,0,0,0.009800000116229057,-0.01400000015835513,-0.06200000165415938,0.13000000432905762
0,0,9.998186111450195,0,0,0.009800000116229057,-0.01400000015835513,0.05900000114378995,0.06899999839828364
0,0,9.998186111450195,0,0,0.009800000116229057,-0.0749999994190225,0.05900000114378995,0.007999999971379599
0,0,9.998186111450195,0,0,0.009800000116229057,-0.0749999994190225,-0.06200000165415938,0.06899999839828364
0,0,9.998186111450195,0,0,0.009800000116229057,-0.0749999994190225,-0.0009999999964224499,0.13000000432905762
0,0,9.998186111450195,0,0,0.009800000116229057,-0.01400000015835513,-0.06200000165415938,0.06899999839828364
0,0,9.998186111450195,0,0,0.009800000116229057,-0.01400000015835513,0.05900000114378995,0.007999999971379599
0,0,9.998186111450195,0,0,0.009800000116229057,-0.01400000015835513,-0.0009999999964224499,-0.05200000106461238
0,0,9.998186111450195,0,0,0.009800000116229057,0.04600000004387353,0.05900000114378995,0.06899999839828364
0,0,9.998186111450195,0,0,0.009800000116229057,-0.01400000015835513,0.05900000114378995,-0.05200000106461238
0,0,9.998186111450195,0,0,0.009800000116229057,0.04600000004387353,-0.0009999999964224499,-0.05200000106461238
0,0,9.998186111450195,0,0,0.009800000116229057,-0.01400000015835513,-0.0009999999964224499,0.007999999971379599
0,0,9.998186111450195,0,0,0.009800000116229057,-0.01400000015835513,-0.0009999999964224499,0.007999999971379599
0,0,9.988609313964844,0,0,0,0.04600000004387353,-0.06200000165415938,0.007999999971379599
0,0,9.988609313964844,0,0,0,-0.01400000015835513,-0.06200000165415938,0.06899999839828364
0,0,9.998186111450195,0,0,0.009800000116229057,-0.0749999994190225,0.05900000114378995,0.06899999839828364
0,0,9.998186111450195,0,0,0.009800000116229057,-0.01400000015835513,0.05900000114378995,-0.11299999699022645
0,0,9.998186111450195,0,0,0.009800000116229057,0.16800000190026157,-0.06200000165415938,0.06899999839828364
0,0,9.998186111450195,0,0,0.009800000116229057,-0.01400000015835513,-0.0009999999964224499,-0.05200000106461238
0,0,9.998186111450195,0,0,0.009800000116229057,0.1070000026395942,0.05900000114378995,-0.05200000106461238
0,0,9.998186111450195,0,0,0.009800000116229057,-0.0749999994190225,-0.06200000165415938,0.06899999839828364
0,0,9.998186111450195,0,0,0.009800000116229057,-0.0749999994190225,-0.0009999999964224499,0.007999999971379599
0,0,9.998186111450195,0,0,0.009800000116229057,0.04600000004387353,-0.0009999999964224499,-0.11299999699022645
0,0,9.998186111450195,0,0,0.009800000116229057,0.04600000004387353,-0.06200000165415938,-0.05200000106461238
0,0,9.998186111450195,0,0,0,-0.01400000015835513,-0.06200000165415938,0.007999999971379599
0,0,9.998186111450195,0,0,0,-0.19699999794035722,0.05900000114378995,0.007999999971379599
0,0,9.998186111450195,0,0,0,-0.0749999994190225,-0.0009999999964224499,0.007999999971379599
0,0,9.998186111450195,0,0,0,0.04600000004387353,0.05900000114378995,0.007999999971379599
0,0,9.998186111450195,0,0,0,-0.0749999994190225,0.05900000114378995,0.007999999971379599
0,0,10.007762908935547,0,0,0.009800000116229057,-0.19699999794035722,-0.0009999999964224499,0.007999999971379599
0,0,9.998186111450195,0,0,0,-0.01400000015835513,0.05900000114378995,-0.05200000106461238
0,0,9.998186111450195,0,0,0,0.1070000026395942,-0.06200000165415938,0.007999999971379599
0,0,10.007762908935547,0,0,0,-0.01400000015835513,0.05900000114378995,-0.05200000106461238
0,0,9.998186111450195,0,0,0,-0.0749999994190225,-0.0009999999964224499,0.06899999839828364
0,0,9.998186111450195,0,0,0,-0.01400000015835513,-0.0009999999964224499,-0.05200000106461238
0,0,9.998186111450195,0,0,0,-0.13600000534979648,-0.0009999999964224499,0.007999999971379599
0,0,9.998186111450195,0,0,0,0.1070000026395942,-0.06200000165415938,0.007999999971379599
0,0,9.998186111450195,0,0,0,-0.01400000015835513,0.05900000114378995,0.06899999839828364
0,0,9.998186111450195,0,0,0,0.16800000190026157,-0.0009999999964224499,0.007999999971379599
0,0,9.998186111450195,0,0,0,-0.01400000015835513,-0.12299999424472013,0.007999999971379599
0,0,9.998186111450195,0,0,0,-0.01400000015835513,-0.0009999999964224499,0.06899999839828364
0,0,9.998186111450195,0,0,0,-0.0749999994190225,0.05900000114378995,0.007999999971379599
0,0,9.998186111450195,0,0,0,-0.0749999994190225,-0.0009999999964224499,0.007999999971379599
0,0,9.998186111450195,0,0,0,-0.0749999994190225,-0.06200000165415938,0.007999999971379599
0,0,9.998186111450195,0,0,0,-0.13600000534979648,-0.12299999424472013,0.06899999839828364
0,0,9.998186111450195,0,0,0,-0.01400000015835513,-0.06200000165415938,0.007999999971379599
0,0,9.998186111450195,0,0,0,-0.0749999994190225,-0.0009999999964224499,0.007999999971379599
0,0,9.998186111450195,0,0,0,0.04600000004387353,-0.0009999999964224499,0.007999999971379599
0,0,9.988609313964844,0,0,-0.009800000116229057,0.16800000190026157,0.05900000114378995,-0.05200000106461238
0,0,9.988609313964844,0,0,-0.009800000116229057,0.04600000004387353,-0.06200000165415938,0.007999999971379599
0,0,9.998186111450195,0,0,0,-0.0749999994190225,-0.0009999999964224499,0.007999999971379599
0,0,9.998186111450195,0,0,0,-0.01400000015835513,-0.0009999999964224499,0.007999999971379599
0,0,9.988609313964844,0,0,-0.009800000116229057,0.1070000026395942,-0.0009999999964224499,-0.05200000106461238
0,0,9.988609313964844,0,0,-0.009800000116229057,-0.0749999994190225,-0.06200000165415938,0.06899999839828364
-0.009576806798577309,0,9.988609313964844,0,0,-0.009800000116229057,-0.01400000015835513,-0.0009999999964224499,0.007999999971379599
0,0,10.007762908935547,0,0,0.009800000116229057,-0.01400000015835513,-0.0009999999964224499,0.007999999971379599
0,0,9.998186111450195,0,0,0,-0.01400000015835513,-0.06200000165415938,0.007999999971379599
0,0,9.998186111450195,0,0,0,0.16800000190026157,-0.0009999999964224499,-0.05200000106461238
0,0,9.998186111450195,0,0,0,-0.13600000534979648,-0.18400000017549412,-0.05200000106461238
0,0,9.988609313964844,0,0,-0.009800000116229057,-0.01400000015835513,-0.0009999999964224499,0.06899999839828364
0,0,9.988609313964844,0,0,-0.009800000116229057,-0.01400000015835513,0.18099999966512467,0.007999999971379599
0,0,9.998186111450195,0,0,0,0.04600000004387353,-0.0009999999964224499,0.06899999839828364
0,0,9.998186111450195,0,0,0,0.2289999944908223,-0.0009999999964224499,0.06899999839828364
0,0,9.998186111450195,0,0,0,-0.0749999994190225,-0.0009999999964224499,-0.11299999699022645
0,0,9.998186111450195,0,0,0,0.1070000026395942,-0.0009999999964224499,-0.05200000106461238
-0.009576806798577309,0,9.998186111450195,0,0,0,0.1070000026395942,0.05900000114378995,0.06899999839828364
0,0,9.998186111450195,0,0,0,0.1070000026395942,-0.0009999999964224499,-0.05200000106461238
0,0,9.998186111450195,0,0,0,0.04600000004387353,-0.0009999999964224499,-0.05200000106461238
0,0,9.998186111450195,0,0,0,-0.0749999994190225,0.3029999981864594,-0.05200000106461238
0,0,9.988609313964844,0,0,-0.009800000116229057,0.04600000004387353,0.05900000114378995,0.007999999971379599
0,0,9.988609313964844,0,0,-0.009800000116229057,0.04600000004387353,0.05900000114378995,0.007999999971379599
0,0,9.988609313964844,0,0,-0.009800000116229057,-0.01400000015835513,-0.0009999999964224499,0.007999999971379599
0,0,9.998186111450195,0,0,0,0.1070000026395942,-0.0009999999964224499,0.007999999971379599
0,0,9.998186111450195,0,0,0,-0.13600000534979648,0.05900000114378995,0.007999999971379599
0,0,9.988609313964844,0,0,-0.009800000116229057,-0.0749999994190225,0.1199999937343507,0.007999999971379599
0,0,9.998186111450195,0,0,0,-0.0749999994190225,-0.06200000165415938,0.06899999839828364
0,0,9.998186111450195,0,0,0,-0.0749999994190225,-0.06200000165415938,0.06899999839828364
0,0,9.979032516479492,0,0,-0.019600000232458115,-0.01400000015835513,0.05900000114378995,-0.05200000106461238
0,0,9.988609313964844,0,0,-0.009800000116229057,-0.0749999994190225,0.05900000114378995,-0.05200000106461238
0,0,9.988609313964844,0,0,-0.009800000116229057,-0.01400000015835513,-0.0009999999964224499,-0.05200000106461238
0,0,9.988609313964844,0,0,-0.009800000116229057,-0.13600000534979648,0.05900000114378995,0.007999999971379599
0,0,9.988609313964844,0,0,-0.009800000116229057,0.04600000004387353,-0.06200000165415938,0.007999999971379599
0,0,9.988609313964844,0,0,-0.009800000116229057,-0.01400000015835513,-0.0009999999964224499,0.007999999971379599
0,0,9.988609313964844,0,0,-0.009800000116229057,-0.01400000015835513,-0.0009999999964224499,0.007999999971379599
0,0,9.988609313964844,0,0,-0.009800000116229057,-0.01400000015835513,-0.0009999999964224499,0.007999999971379599
0,0,9.988609313964844,0,0,-0.009800000116229057,0.04600000004387353,-0.06200000165415938,0.007999999971379599
0,0,9.998186111450195,0,0,0,-0.01400000015835513,-0.06200000165415938,0.007999999971379599
0,0,9.998186111450195,0,0,0,-0.0749999994190225,0.05900000114378995,0.007999999971379599
0,0,9.988609313964844,0,0,-0.009800000116229057,-0.01400000015835513,-0.06200000165415938,0.007999999971379599
0,0,9.988609313964844,0,0,-0.009800000116229057,-0.01400000015835513,0.05900000114378995,0.06899999839828364
0,0,9.988609313964844,0,0,-0.009800000116229057,0.04600000004387353,-0.0009999999964224499,0.06899999839828364
0,0,9.988609313964844,0,0,-0.009800000116229057,0.04600000004387353,-0.0009999999964224499,0.007999999971379599
0,0,9.988609313964844,0,0,-0.009800000116229057,-0.0749999994190225,-0.06200000165415938,0.06899999839828364
0,0,9.988609313964844,0,0,-0.009800000116229057,-0.01400000015835513,-0.12299999424472013,0.06899999839828364
0,0,9.988609313964844,0,0,-0.009800000116229057,-0.0749999994190225,-0.0009999999964224499,0.06899999839828364
0,0,9.988609313964844,0,0,-0.009800000116229057,-0.01400000015835513,-0.0009999999964224499,0.007999999971379599
0,0,9.988609313964844,0,0,-0.009800000116229057,0.04600000004387353,-0.0009999999964224499,0.06899999839828364
0,0,9.988609313964844,0,0,-0.009800000116229057,-0.0749999994190225,-0.0009999999964224499,-0.05200000106461238
0,0,9.988609313964844,0,0,-0.009800000116229057,-0.0749999994190225,-0.0009999999964224499,-0.05200000106461238
0,0,9.988609313964844,0,0,-0.009800000116229057,-0.0749999994190225,-0.12299999424472013,-0.05200000106461238
0,0,9.988609313964844,0,0,-0.009800000116229057,-0.0749999994190225,-0.06200000165415938,0.13000000432905762
0,0,9.988609313964844,0,0,-0.009800000116229057,0.04600000004387353,-0.06200000165415938,-0.11299999699022645
0,0,9.988609313964844,0,0,-0.009800000116229057,0.04600000004387353,0.05900000114378995,0.007999999971379599
0,0,9.998186111450195,0,0,0,-0.01400000015835513,-0.0009999999964224499,-0.05200000106461238
0,0,9.998186111450195,0,0,0,-0.0749999994190225,-0.0009999999964224499,0.007999999971379599
0,0,9.998186111450195,0,0,-0.009800000116229057,0.04600000004387353,0.05900000114378995,0.007999999971379599
0,0,9.998186111450195,0,0,0,0.04600000004387353,-0.0009999999964224499,-0.05200000106461238
0,0,9.988609313964844,0,0,-0.009800000116229057,0.04600000004387353,-0.06200000165415938,-0.05200000106461238
0,0,9.988609313964844,0,0,-0.009800000116229057,0.1070000026395942,0.05900000114378995,-0.05200000106461238
0,0,9.988609313964844,0,0,-0.009800000116229057,-0.0749999994190225,-0.06200000165415938,0.007999999971379599
0,0,9.988609313964844,0,0,-0.009800000116229057,0.04600000004387353,-0.0009999999964224499,-0.05200000106461238
-0.009576806798577309,0,9.988609313964844,0,0,-0.009800000116229057,-0.13600000534979648,0.05900000114378995,0.007999999971379599
0,0,9.988609313964844,0,0,-0.009800000116229057,-0.01400000015835513,0.05900000114378995,0.06899999839828364
0,0,9.988609313964844,0,0,-0.009800000116229057,0.04600000004387353,-0.06200000165415938,0.007999999971379599
0,0,9.988609313964844,0,0,-0.009800000116229057,0.04600000004387353,-0.0009999999964224499,0.007999999971379599
0,0,9.988609313964844,0,0,-0.009800000116229057,0.04600000004387353,0.05900000114378995,0.007999999971379599
0,0,9.988609313964844,0,0,-0.009800000116229057,-0.01400000015835513,0.05900000114378995,-0.05200000106461238
0,0,9.988609313964844,0,0,0,0.16800000190026157,0.05900000114378995,-0.05200000106461238
0,0,9.998186111450195,0,0,0,-0.01400000015835513,0.1199999937343507,-0.11299999699022645
0,0,9.998186111450195,0,0,0,-0.0749999994190225,-0.06200000165415938,0.06899999839828364
0,0,9.988609313964844,0,0,0,-0.0749999994190225,-0.06200000165415938,0.007999999971379599
0,0,9.988609313964844,0,0,0,0.04600000004387353,-0.0009999999964224499,0.06899999839828364
0,0,9.988609313964844,0,0,0,-0.01400000015835513,-0.0009999999964224499,0.06899999839828364
0,0,9.988609313964844,0,0,0,0.04600000004387353,-0.0009999999964224499,0.007999999971379599
0,0,9.998186111450195,0,0,0.009800000116229057,-0.01400000015835513,-0.0009999999964224499,0.06899999839828364
0,0,9.998186111450195,0,0,0.009800000116229057,-0.01400000015835513,-0.0009999999964224499,0.007999999971379599
0,0,9.988609313964844,0,0,0,-0.13600000534979648,-0.0009999999964224499,0.19099999691961836
0,0,9.988609313964844,0,0,0,0.04600000004387353,-0.12299999424472013,0.007999999971379599
0,0,9.998186111450195,0,0,0.009800000116229057,0.1070000026395942,-0.0009999999964224499,-0.05200000106461238
0,0,9.988609313964844,0,0,0,-0.01400000015835513,-0.06200000165415938,0.007999999971379599
0,0,9.998186111450195,0,0,0.009800000116229057,0.1070000026395942,-0.0009999999964224499,0.06899999839828364
0,0,9.979032516479492,0,0,-0.009800000116229057,-0.01400000015835513,-0.0009999999964224499,-0.05200000106461238
0,0,9.979032516479492,0,0,-0.009800000116229057,0.1070000026395942,-0.0009999999964224499,-0.05200000106461238
0,0,9.979032516479492,0,0,-0.009800000116229057,0.04600000004387353,-0.06200000165415938,0.06899999839828364
0,0,9.979032516479492,0,0,-0.009800000116229057,0.04600000004387353,-0.0009999999964224499,-0.11299999699022645
0,0,9.979032516479492,0,0,-0.009800000116229057,0.04600000004387353,-0.06200000165415938,0.007999999971379599
0,0,9.988609313964844,0,0,0,-0.01400000015835513,0.05900000114378995,0.06899999839828364
0,0,9.979032516479492,0,0,0,-0.0749999994190225,-0.0009999999964224499,-0.05200000106461238
0,0,9.988609313964844,0,0,-0.009800000116229057,0.04600000004387353,0.05900000114378995,0.007999999971379599
-0.009576806798577309,0,9.988609313964844,0,0,0,0.04600000004387353,-0.0009999999964224499,-0.05200000106461238
0,0,9.988609313964844,0,0,0,0.04600000004387353,-0.06200000165415938,0.007999999971379599
0,0,9.988609313964844,0,0,0,-0.01400000015835513,0.05900000114378995,-0.11299999699022645
0,0,9.998186111450195,0,0,0.009800000116229057,0.1070000026395942,-0.0009999999964224499,0.007999999971379599
0,0,9.988609313964844,0,0,0.009800000116229057,0.04600000004387353,0.05900000114378995,0.007999999971379599
0,0,9.988609313964844,0,0,0,-0.01400000015835513,0.05900000114378995,-0.05200000106461238
0,0,9.979032516479492,0,0,-0.009800000116229057,0.1070000026395942,-0.0009999999964224499,0.06899999839828364
0,0,9.979032516479492,0,0,-0.009800000116229057,-0.0749999994190225,-0.0009999999964224499,0.06899999839828364
0,0,9.988609313964844,0,0,0,0.04600000004387353,-0.06200000165415938,0.06899999839828364
0,0,9.988609313964844,0,0,0,0.1070000026395942,-0.0009999999964224499,0.007999999971379599
0,0,9.988609313964844,0,0,0,-0.01400000015835513,-0.0009999999964224499,0.007999999971379599
0,0,9.979032516479492,0,0,-0.009800000116229057,-0.0749999994190225,-0.0009999999964224499,0.007999999971379599
0,0,9.979032516479492,0,0,-0.009800000116229057,-0.0749999994190225,0.05900000114378995,-0.05200000106461238
0,0,9.979032516479492,0,0,-0.009800000116229057,-0.01400000015835513,-0.0009999999964224499,0.06899999839828364
0,0,9.988609313964844,0,0,0,0.04600000004387353,-0.0009999999964224499,0.13000000432905762
0,0,9.988609313964844,0,0,0,-0.01400000015835513,0.05900000114378995,0.06899999839828364
0,0,9.988609313964844,0,0,0,-0.01400000015835513,-0.0009999999964224499,0.007999999971379599
0,0,9.988609313964844,0,0,0,-0.13600000534979648,-0.0009999999964224499,0.007999999971379599
0,0,9.988609313964844,0,0,0,-0.01400000015835513,-0.06200000165415938,0.06899999839828364
0,0,9.988609313964844,0,0,0,-0.01400000015835513,-0.0009999999964224499,0.007999999971379599
0,0,9.988609313964844,0,0,0,0.04600000004387353,-0.0009999999964224499,-0.05200000106461238
0,0,9.979032516479492,0,0,-0.009800000116229057,0.04600000004387353,-0.06200000165415938,0.007999999971379599
0,0,9.979032516479492,0,0,-0.009800000116229057,0.1070000026395942,-0.0009999999964224499,-0.11299999699022645
0,0,9.979032516479492,0,0,-0.009800000116229057,-0.0749999994190225,-0.06200000165415938,0.06899999839828364
0,0,9.979032516479492,0,0,-0.009800000116229057,-0.0749999994190225,-0.0009999999964224499,0.007999999971379599
0,0,9.979032516479492,0,0,-0.009800000116229057,0.04600000004387353,-0.0009999999964224499,0.06899999839828364
0,0,9.979032516479492,0,0,-0.009800000116229057,-0.01400000015835513,-0.0009999999964224499,0.06899999839828364
0,0,9.998186111450195,0,0,0.009800000116229057,-0.257999990530918,0.05900000114378995,0.007999999971379599
0,0,9.998186111450195,0,0,0.009800000116229057,-0.01400000015835513,-0.0009999999964224499,-0.05200000106461238
0,0,9.988609313964844,0,0,0,-0.0749999994190225,0.05900000114378995,-0.05200000106461238
0,0,9.979032516479492,0,0,0,0.04600000004387353,0.05900000114378995,0.06899999839828364
0,0,9.979032516479492,0,0,-0.009800000116229057,0.1070000026395942,-0.0009999999964224499,0.007999999971379599
0,0,9.988609313964844,0,0,0,-0.01400000015835513,-0.0009999999964224499,0.06899999839828364
0,0,9.988609313964844,0,0,0,0.16800000190026157,-0.06200000165415938,0.007999999971379599
0,0,9.988609313964844,0,0,0,-0.0749999994190225,0.05900000114378995,0.06899999839828364
0,0,9.979032516479492,0,0,-0.009800000116229057,-0.01400000015835513,-0.06200000165415938,-0.11299999699022645
0,0,9.979032516479492,0,0,-0.009800000116229057,-0.01400000015835513,0.1199999937343507,0.007999999971379599
0,0,9.979032516479492,0,0,-0.009800000116229057,-0.0749999994190225,-0.0009999999964224499,0.13000000432905762
0,0,9.96945571899414,0,0,-0.019600000232458115,0.04600000004387353,-0.0009999999964224499,0.007999999971379599
0,0,9.96945571899414,0,0,-0.019600000232458115,-0.0749999994190225,-0.06200000165415938,0.007999999971379599
0,0,9.96945571899414,0,0,-0.019600000232458115,-0.01400000015835513,0.05900000114378995,0.06899999839828364
0,0,9.96945571899414,0,0,-0.019600000232458115,-0.0749999994190225,-0.12299999424472013,-0.05200000106461238
0,0,9.988609313964844,0,0,0,-0.01400000015835513,0.05900000114378995,0.06899999839828364
0,0,9.988609313964844,0,0,0,-0.01400000015835513,-0.06200000165415938,0.007999999971379599
0,0,9.979032516479492,0,0,-0.009800000116229057,0.1070000026395942,-0.12299999424472013,0.007999999971379599
0,0,9.979032516479492,0,0,-0.009800000116229057,-0.13600000534979648,-0.06200000165415938,0.06899999839828364
0,0,9.979032516479492,0,0,-0.009800000116229057,-0.0749999994190225,-0.06200000165415938,-0.05200000106461238
0,0,9.979032516479492,0,0,-0.009800000116229057,-0.01400000015835513,-0.06200000165415938,0.007999999971379599
0,0,9.979032516479492,0,0,-0.009800000116229057,0.04600000004387353,0.05900000114378995,0.007999999971379599
0,0,9.988609313964844,0,0,0,-0.0749999994190225,-0.0009999999964224499,0.007999999971379599
0,0,9.988609313964844,0,0,0,-0.0749999994190225,-0.0009999999964224499,0.007999999971379599
0,0,9.988609313964844,0,0,0,0.16800000190026157,-0.0009999999964224499,0.06899999839828364
0,0,9.988609313964844,0,0,0,0.04600000004387353,0.05900000114378995,0.06899999839828364
0,0,9.988609313964844,0,0,0,0.2899999870813831,-0.0009999999964224499,0.007999999971379599
0,0,9.988609313964844,0,0,0,-0.0749999994190225,-0.12299999424472013,-0.05200000106461238
0,0,9.988609313964844,0,0,0,-0.01400000015835513,-0.0009999999964224499,0.007999999971379599
0,0,9.988609313964844,0,0,0,-0.01400000015835513,-0.06200000165415938,-0.05200000106461238
0,0,9.988609313964844,0,0,0,-0.01400000015835513,0.1199999937343507,0.007999999971379599
0,0,9.988609313964844,0,0,0,-0.01400000015835513,-0.0009999999964224499,-0.05200000106461238
0,0,9.988609313964844,0,0,0,-0.13600000534979648,0.05900000114378995,0.06899999839828364
0,0,9.988609313964844,0,0,-0.009800000116229057,-0.01400000015835513,0.05900000114378995,0.06899999839828364
0,0,9.979032516479492,0,0,-0.009800000116229057,-0.01400000015835513,0.05900000114378995,-0.05200000106461238
0,0,9.979032516479492,0,0,-0.009800000116229057,-0.01400000015835513,0.05900000114378995,0.007999999971379599
0,0,9.979032516479492,0,0,-0.009800000116229057,0.04600000004387353,-0.0009999999964224499,-0.05200000106461238
0,0,9.979032516479492,0,0,-0.009800000116229057,-0.0749999994190225,-0.0009999999964224499,0.007999999971379599
0,0,9.979032516479492,0,0,-0.009800000116229057,-0.01400000015835513,-0.06200000165415938,0.007999999971379599
-0.009576806798577309,0,9.979032516479492,0,0,-0.009800000116229057,0.04600000004387353,0.05900000114378995,0.007999999971379599
0,0,9.979032516479492,0,0,-0.009800000116229057,-0.01400000015835513,-0.0009999999964224499,-0.05200000106461238
0,0,9.979032516479492,0,0,-0.009800000116229057,0.16800000190026157,0.1199999937343507,0.007999999971379599
0,0,9.979032516479492,0,0,-0.009800000116229057,-0.0749999994190225,-0.06200000165415938,0.007999999971379599
0,0,9.979032516479492,0,0,-0.009800000116229057,0.04600000004387353,-0.06200000165415938,0.06899999839828364
0,0,9.979032516479492,0,0,-0.009800000116229057,-0.0749999994190225,-0.06200000165415938,0.13000000432905762
0,0,9.998186111450195,0,0,0.009800000116229057,-0.0749999994190225,-0.06200000165415938,0.007999999971379599
0,0,9.988609313964844,0,0,0,0.1070000026395942,-0.0009999999964224499,0.007999999971379599
0,0,9.979032516479492,0,0,-0.009800000116229057,-0.13600000534979648,-0.0009999999964224499,0.007999999971379599
0,0,9.96945571899414,0,0,-0.019600000232458115,-0.01400000015835513,0.1199999937343507,0.007999999971379599
0,0,9.979032516479492,0,0,-0.019600000232458115,0.04600000004387353,-0.0009999999964224499,-0.11299999699022645
0,0,9.979032516479492,0,0,0,0.1070000026395942,-0.0009999999964224499,-0.05200000106461238
0,0,9.979032516479492,0,0,0,0.04600000004387353,-0.06200000165415938,0.06899999839828364
0,0,9.979032516479492,0,0,0,-0.01400000015835513,-0.0009999999964224499,0.007999999971379599
0,0,9.979032516479492,0,0,0,-0.01400000015835513,-0.06200000165415938,-0.05200000106461238
0,0,9.979032516479492,0,0,0,-0.01400000015835513,-0.0009999999964224499,-0.05200000106461238
0,0,9.979032516479492,0,0,0,0.1070000026395942,-0.0009999999964224499,-0.11299999699022645
0,0,9.979032516479492,0,0,0,-0.13600000534979648,0.05900000114378995,0.007999999971379599
0,0,9.979032516479492,0,0,0,-0.01400000015835513,0.05900000114378995,0.06899999839828364
0,0,9.979032516479492,0,0,0,-0.13600000534979648,-0.12299999424472013,0.13000000432905762
0,0,9.979032516479492,0,0,0,0.04600000004387353,-0.06200000165415938,0.007999999971379599
0,0,9.979032516479492,0,0,0,0.16800000190026157,0.05900000114378995,-0.05200000106461238
0,0,9.979032516479492,0,0,0,0.04600000004387353,-0.06200000165415938,0.007999999971379599
0,0,9.979032516479492,0,0,0,-0.257999990530918,-0.06200000165415938,0.007999999971379599
0,0,9.979032516479492,0,0,0,0.11099999887334903,0.05799999875029794,-0.05900000114378995
0,0,9.979032516479492,0,0,0,0.049999999612681666,-0.06299999737754478,0.0009999999964224499
0,0,9.979032516479492,0,0,0,0.049999999612681666,-0.06299999737754478,0.0009999999964224499
0,0,9.979032516479492,0,0,0,-0.07099999651516105,-0.0019999999928448997,0.06200000165415938
0,0,9.979032516479492,0,0,0,-0.07099999651516105,-0.0019999999928448997,0.06200000165415938
0,0,9.979032516479492,0,0,0,0.049999999612681666,-0.06299999737754478,0.06200000165415938
0,0,9.979032516479492,0,0,0,0.049999999612681666,-0.0019999999928448997,-0.05900000114378995
0,0,9.979032516479492,0,0,-0.009800000116229057,-0.009999999755783667,-0.06299999737754478,0.0009999999964224499
0,0,9.96945571899414,0,0,-0.009800000116229057,-0.009999999755783667,-0.0019999999928448997,0.06200000165415938
0,0,9.96945571899414,0,0,-0.009800000116229057,-0.009999999755783667,-0.12400000330831876,0.06200000165415938
0,0,9.96945571899414,0,0,-0.009800000116229057,-0.009999999755783667,-0.0019999999928448997,-0.1199999937343507
0,0,9.96945571899414,0,0,-0.009800000116229057,-0.009999999755783667,0.1189999980109653,0.0009999999964224499
0,0,9.979032516479492,0,0,0,-0.07099999651516105,-0.0019999999928448997,0.0009999999964224499
0,0,9.979032516479492,0,0,0,0.049999999612681666,0.05799999875029794,-0.05900000114378995
0,0,9.979032516479492,0,0,0,-0.1319999957758284,-0.06299999737754478,-0.05900000114378995
0,0,9.979032516479492,0,0,0,-0.009999999755783667,-0.06299999737754478,0.0009999999964224499
0,0,9.988609313964844,0,0,0.009800000116229057,-0.009999999755783667,-0.06299999737754478,-0.05900000114378995
0,0,9.979032516479492,0,0,0,-0.009999999755783667,-0.0019999999928448997,0.0009999999964224499
0,0,9.979032516479492,0,0,0,-0.009999999755783667,-0.0019999999928448997,0.0009999999964224499
0,0,9.979032516479492,0,0,0,0.049999999612681666,-0.0019999999928448997,0.0009999999964224499
0,0,9.959878921508789,0,0,-0.019600000232458115,0.11099999887334903,-0.0019999999928448997,0.0009999999964224499
0,0,9.959878921508789,0,0,-0.019600000232458115,0.049999999612681666,-0.06299999737754478,0.0009999999964224499
0,0,9.96945571899414,0,0,-0.009800000116229057,-0.009999999755783667,-0.06299999737754478,0.0009999999964224499
0,0,9.96945571899414,0,0,-0.009800000116229057,0.049999999612681666,-0.0019999999928448997,0.0009999999964224499
0,0,9.979032516479492,0,0,0,-0.07099999651516105,-0.06299999737754478,0.06200000165415938
0,0,9.979032516479492,0,0,0,-0.009999999755783667,-0.06299999737754478,-0.05900000114378995
0,0,9.979032516479492,0,0,0,0.11099999887334903,0.05799999875029794,0.0009999999964224499
0,0,9.979032516479492,0,0,0,-0.07099999651516105,0.05799999875029794,0.0009999999964224499
0,0,9.979032516479492,0,0,0,-0.009999999755783667,0.05799999875029794,0.06200000165415938
0,0,9.979032516479492,0,0,0,0.049999999612681666,-0.06299999737754478,0.0009999999964224499
0,0,9.979032516479492,0,0,0,0.11099999887334903,-0.06299999737754478,0.0009999999964224499
0,0,9.979032516479492,0,0,0,0.11099999887334903,-0.06299999737754478,0.0009999999964224499
0,0,9.979032516479492,0,0,0,0.049999999612681666,-0.0019999999928448997,-0.05900000114378995
0,0,9.979032516479492,0,0,0,-0.009999999755783667,-0.06299999737754478,0.12299999424472013
0,0,9.979032516479492,0,0,0,-0.07099999651516105,0.05799999875029794,0.06200000165415938
0,0,9.979032516479492,0,0,0,0.049999999612681666,-0.0019999999928448997,-0.05900000114378995
0,0,9.96945571899414,0,0,-0.009800000116229057,0.11099999887334903,0.05799999875029794,0.0009999999964224499
0,0,9.96945571899414,0,0,-0.009800000116229057,-0.07099999651516105,-0.0019999999928448997,-0.05900000114378995
0,0,9.96945571899414,0,0,-0.009800000116229057,0.11099999887334903,0.1189999980109653,-0.05900000114378995
0,0,9.96945571899414,0,0,-0.009800000116229057,-0.07099999651516105,-0.12400000330831876,0.06200000165415938
-0.009576806798577309,0,9.979032516479492,0,0,-0.009800000116229057,-0.1319999957758284,-0.06299999737754478,0.06200000165415938
0,0,9.979032516479492,0,0,0,-0.009999999755783667,-0.0019999999928448997,-0.05900000114378995
0,0,9.979032516479492,0,0,0,-0.009999999755783667,-0.06299999737754478,0.0009999999964224499
0,0,9.979032516479492,0,0,0,0.049999999612681666,0.05799999875029794,0.0009999999964224499
0,0,9.979032516479492,0,0,0,0.11099999887334903,-0.1849999958988795,-0.05900000114378995
0,0,9.96945571899414,0,0,-0.009800000116229057,0.049999999612681666,-0.0019999999928448997,0.06200000165415938
0,0,9.96945571899414,0,0,-0.009800000116229057,0.049999999612681666,-0.0019999999928448997,0.0009999999964224499
0,0,9.96945571899414,0,0,-0.009800000116229057,0.11099999887334903,-0.0019999999928448997,-0.05900000114378995
0,0,9.96945571899414,0,0,-0.009800000116229057,-0.009999999755783667,-0.0019999999928448997,0.06200000165415938
0,0,9.959878921508789,0,0,-0.019600000232458115,-0.009999999755783667,-0.0019999999928448997,-0.05900000114378995
0,0,9.96945571899414,0,0,-0.009800000116229057,0.049999999612681666,-0.0019999999928448997,0.0009999999964224499
0,0,9.96945571899414,0,0,-0.009800000116229057,-0.009999999755783667,0.05799999875029794,0.0009999999964224499
0,0,9.96945571899414,0,0,-0.009800000116229057,-0.07099999651516105,-0.0019999999928448997,0.12299999424472013
0,0,9.959878921508789,0,0,-0.009800000116229057,0.049999999612681666,0.05799999875029794,0.06200000165415938
