Accelerometer_Gx,Accelerometer_Gy,Accelerometer_Gz,Accelerometer_X,Accelerometer_Y,Accelerometer_Z,Gyroscope_Z,Gyroscope_X,Gyroscope_Y
0,0,10.007762908935547,0.007499999832361937,0.006599999964237213,-0.009800000116229057,-0.04200000047506539,0.05900000114378995,0.11599999750059588
0,0,10.017339706420898,0.000699999975040555,0.000699999975040555,-0.058799996972084045,0.017999999727163266,0.05900000114378995,-0.0659999978879142
0,0,10.017339706420898,0.000699999975040555,0.000699999975040555,-0.058799996972084045,0.017999999727163266,0.05900000114378995,-0.0659999978879142
0,0,10.007762908935547,0.0008999999845400453,0.00009999999747378752,-0.07840000092983246,0.07900000232288394,0.05900000114378995,-0.004999999877891834
0,0,10.007762908935547,0.0008999999845400453,0,-0.06859999895095825,0.07900000232288394,0.05900000114378995,-0.004999999877891834
0,0,9.998186111450195,0.000699999975040555,0,-0.06859999895095825,0.017999999727163266,-0.06200000165415938,-0.004999999877891834
0,0,10.007762908935547,0.0005999999702908099,0,-0.06859999895095825,-0.04200000047506539,-0.0009999999964224499,0.05499999823992851
0,0,9.998186111450195,0.0005999999702908099,0.00009999999747378752,-0.06859999895095825,-0.10299999973573276,-0.06200000165415938,-0.004999999877891834
0,0,9.998186111450195,0.00039999998989515007,0.00029999998514540493,-0.07840000092983246,-0.04200000047506539,-0.0009999999964224499,0.11599999750059588
0,0,9.998186111450195,0.00029999998514540493,0.00039999998989515007,-0.07840000092983246,-0.04200000047506539,-0.0009999999964224499,0.11599999750059588
0,0,9.998186111450195,0.00029999998514540493,0.00029999998514540493,-0.07840000092983246,0.017999999727163266,-0.0009999999964224499,-0.004999999877891834
0,0,9.998186111450195,0.00009999999747378752,0.00009999999747378752,-0.07840000092983246,0.07900000232288394,-0.06200000165415938,-0.004999999877891834
0,0,10.007762908935547,0.00019999999494757503,-0.00019999999494757503,-0.06859999895095825,0.1400000015835513,0.05900000114378995,-0.0659999978879142
0,0,10.007762908935547,0.00019999999494757503,-0.00019999999494757503,-0.06859999895095825,0.017999999727163266,-0.0009999999964224499,0.05499999823992851
0,0,10.007762908935547,0,-0.00019999999494757503,-0.07840000092983246,0.017999999727163266,-0.06200000165415938,-0.0659999978879142
0,0,9.998186111450195,0.00029999998514540493,-0.00029999998514540493,-0.07840000092983246,0.07900000232288394,-0.0009999999964224499,-0.004999999877891834
0,0,9.998186111450195,0.00029999998514540493,-0.0004999999655410647,0,-0.04200000047506539,-0.0009999999964224499,0.05499999823992851
0,0,9.988609313964844,0.00019999999494757503,-0.00029999998514540493,0,0.017999999727163266,-0.06200000165415938,-0.12700000381868817
0,0,9.988609313964844,0,-0.00039999998989515007,0,0.017999999727163266,-0.06200000165415938,-0.0659999978879142
0,0,9.988609313964844,0,-0.00039999998989515007,0,-0.04200000047506539,0.1199999937343507,-0.12700000381868817
0,0,9.988609313964844,0.00019999999494757503,-0.00029999998514540493,0,0.017999999727163266,-0.0009999999964224499,0.05499999823992851
0,0,9.988609313964844,0.00009999999747378752,-0.00029999998514540493,0,-0.04200000047506539,-0.18400000017549412,0.11599999750059588
0,0,9.988609313964844,-0.00029999998514540493,-0.00019999999494757503,0,-0.04200000047506539,-0.12299999424472013,-0.0659999978879142
0,0,9.988609313964844,-0.0005999999702908099,-0.00009999999747378752,0,0.07900000232288394,0.05900000114378995,0.05499999823992851
0,0,9.988609313964844,-0.00039999998989515007,-0.00029999998514540493,0,-0.04200000047506539,0.05900000114378995,-0.004999999877891834
0,0,9.988609313964844,-0.00029999998514540493,-0.00009999999747378752,0,-0.04200000047506539,-0.18400000017549412,-0.0659999978879142
0,0,9.988609313964844,-0.0007999999797903001,0,0,0.017999999727163266,-0.06200000165415938,-0.0659999978879142
0,0,9.988609313964844,-0.0008999999845400453,-0.00009999999747378752,0,0.017999999727163266,-0.06200000165415938,0.05499999823992851
0,0,9.988609313964844,-0.0009999999310821295,-0.00009999999747378752,0,-0.10299999973573276,-0.06200000165415938,-0.004999999877891834
0,0,9.988609313964844,-0.0011999999405816197,0.00009999999747378752,0,0.017999999727163266,-0.06200000165415938,0.05499999823992851
0,0,9.988609313964844,-0.0013000000035390258,0,0,-0.10299999973573276,-0.0009999999964224499,0.05499999823992851
0,0,9.979032516479492,-0.0010999999940395355,0,-0.009800000116229057,0.1400000015835513,0.05900000114378995,-0.004999999877891834
0,0,9.979032516479492,-0.0009999999310821295,-0.00019999999494757503,-0.009800000116229057,0.07900000232288394,0.05900000114378995,0.05499999823992851
0,0,9.979032516479492,-0.0010999999940395355,-0.00009999999747378752,-0.019600000232458115,-0.04200000047506539,-0.06200000165415938,0.05499999823992851
0,0,9.979032516479492,-0.0008999999845400453,0,-0.009800000116229057,-0.04200000047506539,0.05900000114378995,0.05499999823992851
0,0,9.979032516479492,-0.0008999999845400453,0,-0.009800000116229057,0.017999999727163266,-0.0009999999964224499,0.11599999750059588
0,0,9.979032516479492,-0.000699999975040555,0,-0.009800000116229057,-0.04200000047506539,0.05900000114378995,0.05499999823992851
0,0,9.979032516479492,-0.000699999975040555,-0.00009999999747378752,-0.009800000116229057,0.07900000232288394,-0.0009999999964224499,-0.004999999877891834
0,0,9.979032516479492,-0.000699999975040555,0,-0.009800000116229057,0.07900000232288394,-0.0009999999964224499,0.05499999823992851
0,0,9.979032516479492,-0.000699999975040555,-0.00019999999494757503,-0.009800000116229057,0.017999999727163266,-0.0009999999964224499,0.05499999823992851
0,0,9.979032516479492,-0.000699999975040555,-0.00019999999494757503,-0.009800000116229057,-0.04200000047506539,-0.06200000165415938,0.05499999823992851
0,0,9.979032516479492,-0.0007999999797903001,-0.00009999999747378752,-0.009800000116229057,-0.10299999973573276,0.1199999937343507,0.05499999823992851
0,0,9.979032516479492,-0.0004999999655410647,0.00009999999747378752,-0.019600000232458115,-0.04200000047506539,-0.0009999999964224499,-0.004999999877891834
0,0,9.979032516479492,-0.0004999999655410647,0.00019999999494757503,-0.009800000116229057,0.07900000232288394,0.05900000114378995,0.05499999823992851
0,0,9.979032516479492,-0.00029999998514540493,0,-0.009800000116229057,-0.04200000047506539,-0.06200000165415938,-0.004999999877891834
0,0,9.979032516479492,-0.0004999999655410647,0.00009999999747378752,-0.009800000116229057,-0.04200000047506539,0.05900000114378995,-0.004999999877891834
0,0,9.988609313964844,-0.00029999998514540493,0.00019999999494757503,-0.009800000116229057,0.017999999727163266,0.05900000114378995,-0.004999999877891834
0,0,9.979032516479492,-0.00019999999494757503,0.00009999999747378752,-0.009800000116229057,0.017999999727163266,0.05900000114378995,0.05499999823992851
0,0,9.979032516479492,0,0.00009999999747378752,-0.009800000116229057,0.07900000232288394,-0.0009999999964224499,-0.004999999877891834
0,0,9.979032516479492,0,-0.00009999999747378752,-0.009800000116229057,0.07900000232288394,-0.0009999999964224499,-0.004999999877891834
0,0,9.979032516479492,-0.00009999999747378752,-0.00029999998514540493,-0.009800000116229057,0.07900000232288394,-0.06200000165415938,-0.004999999877891834
0,0,9.979032516479492,-0.00039999998989515007,-0.0008999999845400453,-0.009800000116229057,0.1400000015835513,-0.06200000165415938,-0.0659999978879142
0,0,9.979032516479492,-0.00019999999494757503,-0.0009999999310821295,-0.009800000116229057,0.07900000232288394,0.05900000114378995,-0.0659999978879142
0,0,9.979032516479492,-0.00009999999747378752,-0.0008999999845400453,0,-0.04200000047506539,0.05900000114378995,-0.004999999877891834
0,0,9.979032516479492,-0.00009999999747378752,-0.0008999999845400453,-0.009800000116229057,-0.04200000047506539,-0.06200000165415938,-0.004999999877891834
0,0,9.979032516479492,-0.00029999998514540493,-0.0007999999797903001,-0.009800000116229057,-0.04200000047506539,-0.12299999424472013,-0.004999999877891834
0,0,9.979032516479492,-0.0005999999702908099,-0.0005999999702908099,-0.009800000116229057,-0.04200000047506539,-0.12299999424472013,-0.004999999877891834
0,0,9.979032516479492,-0.0004999999655410647,-0.0004999999655410647,-0.009800000116229057,-0.04200000047506539,0.05900000114378995,0.05499999823992851
0,0,9.979032516479492,-0.0005999999702908099,-0.00029999998514540493,-0.019600000232458115,-0.04200000047506539,-0.06200000165415938,-0.004999999877891834
0,0,9.96945571899414,-0.0004999999655410647,-0.0005999999702908099,-0.009800000116229057,0.07900000232288394,0.05900000114378995,-0.004999999877891834
0,0,9.979032516479492,-0.00279999990016222,-0.000699999975040555,-0.019600000232458115,0.20099999417411205,-0.18400000017549412,-0.004999999877891834
0,0,9.979032516479492,-0.0032999999821186066,-0.0013000000035390258,-0.009800000116229057,0.20099999417411205,-0.18400000017549412,-0.004999999877891834
0,0,9.979032516479492,-0.0038999998942017555,-0.0010999999940395355,-0.009800000116229057,0.017999999727163266,-0.06200000165415938,0.05499999823992851
0,0,9.979032516479492,-0.004100000020116568,-0.0010999999940395355,-0.009800000116229057,0.017999999727163266,0.18099999966512467,0.05499999823992851
0,0,9.979032516479492,-0.0037999998312443495,-0.0009999999310821295,0,-0.04200000047506539,0.18099999966512467,-0.0659999978879142
0,0,9.979032516479492,-0.0037999998312443495,-0.0009999999310821295,0,0.017999999727163266,0.24200000559589865,0.05499999823992851
0,0,9.979032516479492,-0.003499999875202775,-0.0009999999310821295,0,0.017999999727163266,0.24200000559589865,-0.004999999877891834
0,0,9.979032516479492,-0.003499999875202775,-0.0009999999310821295,0,0.017999999727163266,0.05900000114378995,-0.0659999978879142
0,0,9.979032516479492,-0.0032999999821186066,-0.0008999999845400453,0,0.07900000232288394,-0.06200000165415938,-0.0659999978879142
0,0,9.979032516479492,-0.0032999999821186066,-0.0008999999845400453,0,-0.04200000047506539,-0.12299999424472013,-0.0659999978879142
0,0,9.979032516479492,-0.0030999998562037945,-0.0007999999797903001,0,-0.04200000047506539,-0.18400000017549412,-0.004999999877891834
0,0,9.979032516479492,-0.0030999998562037945,-0.0007999999797903001,0,0.017999999727163266,-0.06200000165415938,0.05499999823992851
0,0,9.988609313964844,-0.00279999990016222,-0.0007999999797903001,0,-0.04200000047506539,0.1199999937343507,0.11599999750059588
0,0,9.979032516479492,-0.00279999990016222,-0.0007999999797903001,0,0.1400000015835513,-0.0009999999964224499,-0.0659999978879142
0,0,9.979032516479492,-0.0026000000070780516,-0.000699999975040555,0,-0.04200000047506539,-0.06200000165415938,-0.004999999877891834
0,0,9.979032516479492,-0.0026000000070780516,-0.000699999975040555,0,-0.04200000047506539,-0.06200000165415938,-0.0659999978879142
0,0,9.979032516479492,-0.0024999999441206455,-0.000699999975040555,0,0.017999999727163266,-0.12299999424472013,-0.004999999877891834
0,0,9.979032516479492,-0.0024999999441206455,-0.000699999975040555,0,0.017999999727163266,0.05900000114378995,-0.004999999877891834
0,0,9.979032516479492,-0.002300000051036477,-0.0005999999702908099,0,0.1400000015835513,0.05900000114378995,0.05499999823992851
0,0,9.979032516479492,-0.002099999925121665,-0.0005999999702908099,0,0.017999999727163266,0.1199999937343507,-0.004999999877891834
0,0,9.979032516479492,-0.002099999925121665,-0.0005999999702908099,-0.009800000116229057,0.017999999727163266,0.1199999937343507,-0.004999999877891834
0,0,9.96945571899414,-0.001999999862164259,-0.0004999999655410647,0,-0.04200000047506539,0.05900000114378995,-0.004999999877891834
0,0,9.979032516479492,-0.001999999862164259,-0.0004999999655410647,0.009800000116229057,0.017999999727163266,-0.0009999999964224499,0.05499999823992851
0,0,9.988609313964844,-0.0017999999690800905,-0.0004999999655410647,0.009800000116229057,0.1400000015835513,-0.0009999999964224499,-0.004999999877891834
0,0,9.988609313964844,-0.0016999999061226845,-0.0004999999655410647,0.009800000116229057,0.1400000015835513,-0.0009999999964224499,-0.004999999877891834
0,0,9.988609313964844,-0.0016999999061226845,-0.0004999999655410647,-0.009800000116229057,-0.04200000047506539,-0.06200000165415938,0.05499999823992851
0,0,9.979032516479492,-0.0015999999595806003,-0.00039999998989515007,0,-0.10299999973573276,0.05900000114378995,0.05499999823992851
0,0,9.979032516479492,-0.0015999999595806003,-0.00039999998989515007,0,0.017999999727163266,0.05900000114378995,0.11599999750059588
0,0,9.979032516479492,-0.001500000013038516,-0.00039999998989515007,0,0.07900000232288394,-0.0009999999964224499,-0.0659999978879142
0,0,9.96945571899414,-0.001500000013038516,-0.00039999998989515007,-0.009800000116229057,-0.04200000047506539,0.18099999966512467,-0.004999999877891834
0,0,9.979032516479492,-0.00139999995008111,-0.00039999998989515007,0,-0.04200000047506539,0.05900000114378995,-0.004999999877891834
0,0,9.979032516479492,-0.0013000000035390258,-0.00029999998514540493,0,0.07900000232288394,0.05900000114378995,-0.0659999978879142
0,0,9.979032516479492,-0.0013000000035390258,-0.00029999998514540493,0,-0.16400000566650674,-0.18400000017549412,-0.0659999978879142
0,0,9.988609313964844,-0.0013000000035390258,-0.00029999998514540493,0.009800000116229057,-0.04200000047506539,-0.12299999424472013,-0.004999999877891834
0,0,9.96945571899414,-0.0011999999405816197,-0.00029999998514540493,0.009800000116229057,-0.04200000047506539,-0.06200000165415938,0.05499999823992851
0,0,9.96945571899414,-0.0010999999940395355,-0.00029999998514540493,0,-0.04200000047506539,-0.12299999424472013,-0.004999999877891834
0,0,9.96945571899414,-0.0010999999940395355,-0.00029999998514540493,0,0.07900000232288394,0.1199999937343507,0.11599999750059588
0,0,9.96945571899414,-0.0009999999310821295,-0.00019999999494757503,-0.009800000116229057,-0.04200000047506539,0.1199999937343507,0.11599999750059588
0,0,9.96945571899414,-0.0009999999310821295,-0.00019999999494757503,-0.009800000116229057,-0.04200000047506539,-0.0009999999964224499,0.05499999823992851
0,0,9.979032516479492,-0.0009999999310821295,-0.00019999999494757503,0,0.07900000232288394,0.1199999937343507,-0.0659999978879142
0,0,9.979032516479492,-0.0008999999845400453,-0.00019999999494757503,0,-0.16400000566650674,0.05900000114378995,-0.0659999978879142
0,0,9.979032516479492,-0.0008999999845400453,-0.00019999999494757503,0,0.017999999727163266,-0.06200000165415938,-0.0659999978879142
0,0,9.988609313964844,-0.0008999999845400453,-0.00019999999494757503,0.009800000116229057,-0.04200000047506539,-0.06200000165415938,0.11599999750059588
0,0,9.988609313964844,-0.0007999999797903001,-0.00019999999494757503,-0.009800000116229057,0.017999999727163266,-0.06200000165415938,-0.0659999978879142
0,0,9.96945571899414,-0.0007999999797903001,-0.00019999999494757503,-0.009800000116229057,-0.04200000047506539,0.1199999937343507,-0.12700000381868817
0,0,9.96945571899414,-0.000699999975040555,-0.00019999999494757503,-0.009800000116229057,-0.04200000047506539,0.1199999937343507,-0.12700000381868817
0,0,9.96945571899414,-0.000699999975040555,-0.00019999999494757503,0,-0.04200000047506539,0.05900000114378995,0.05499999823992851
0,0,9.979032516479492,-0.000699999975040555,-0.00019999999494757503,0,0.07900000232288394,0.1199999937343507,-0.004999999877891834
0,0,9.979032516479492,-0.000699999975040555,-0.00019999999494757503,0,-0.16400000566650674,0.05900000114378995,0.05499999823992851
0,0,9.979032516479492,-0.0005999999702908099,-0.00009999999747378752,0,-0.16400000566650674,0.18099999966512467,0.11599999750059588
0,0,9.96945571899414,-0.0005999999702908099,-0.00009999999747378752,-0.009800000116229057,-0.2250000115972807,0.18099999966512467,0.05499999823992851
0,0,9.96945571899414,-0.0005999999702908099,-0.00009999999747378752,0.009800000116229057,-0.04200000047506539,0.1199999937343507,0.05499999823992851
0,0,9.979032516479492,-0.0005999999702908099,-0.00009999999747378752,0.009800000116229057,-0.10299999973573276,0.05900000114378995,-0.004999999877891834
0,0,9.988609313964844,-0.0004999999655410647,-0.00009999999747378752,0.019600000232458115,0.017999999727163266,-0.0009999999964224499,0.05499999823992851
0,0,9.988609313964844,-0.0004999999655410647,-0.00009999999747378752,0.019600000232458115,-0.10299999973573276,0.1199999937343507,0.11599999750059588
0,0,9.988609313964844,-0.0004999999655410647,-0.00009999999747378752,0.019600000232458115,-0.04200000047506539,0.05900000114378995,0.05499999823992851
0,0,9.979032516479492,-0.00039999998989515007,-0.00009999999747378752,0.009800000116229057,-0.04200000047506539,-0.0009999999964224499,-0.004999999877891834
0,0,9.979032516479492,-0.00039999998989515007,-0.00009999999747378752,0.009800000116229057,0.017999999727163266,0.05900000114378995,-0.004999999877891834
0,0,9.979032516479492,-0.00039999998989515007,-0.00009999999747378752,0.009800000116229057,-0.04200000047506539,-0.0009999999964224499,-0.004999999877891834
0,0,9.979032516479492,-0.00039999998989515007,-0.00009999999747378752,0.009800000116229057,-0.04200000047506539,-0.0009999999964224499,-0.004999999877891834
0,0,9.979032516479492,-0.00039999998989515007,-0.00009999999747378752,0.009800000116229057,0.017999999727163266,0.05900000114378995,0.05499999823992851
0,0,9.979032516479492,-0.00039999998989515007,-0.00009999999747378752,0.009800000116229057,-0.04200000047506539,0.1199999937343507,0.05499999823992851
0,0,9.979032516479492,-0.00029999998514540493,0,0.009800000116229057,0.07900000232288394,0.05900000114378995,-0.004999999877891834
0,0,9.979032516479492,-0.00029999998514540493,0,0.009800000116229057,0.07900000232288394,0.05900000114378995,-0.004999999877891834
0,0,9.979032516479492,-0.00029999998514540493,0,0.009800000116229057,-0.10299999973573276,0.05900000114378995,0.05499999823992851
-0.009576806798577309,0,9.979032516479492,-0.00029999998514540493,0,0.019600000232458115,-0.10299999973573276,-0.06200000165415938,-0.0659999978879142
0,0,9.96945571899414,-0.00029999998514540493,0,0,0.017999999727163266,-0.12299999424472013,0.05499999823992851
0,0,9.979032516479492,-0.00029999998514540493,0,0.009800000116229057,0.07900000232288394,0.05900000114378995,-0.0659999978879142
0,0,9.979032516479492,-0.00019999999494757503,0,0.009800000116229057,0.07900000232288394,0.05900000114378995,-0.0659999978879142
0,0,9.979032516479492,-0.00019999999494757503,0,0.009800000116229057,-0.10299999973573276,-0.06200000165415938,-0.004999999877891834
0,0,9.979032516479492,-0.00019999999494757503,0,0.009800000116229057,-0.16400000566650674,-0.0009999999964224499,-0.004999999877891834
0,0,9.979032516479492,-0.00019999999494757503,0,0.009800000116229057,-0.16400000566650674,-0.0009999999964224499,-0.004999999877891834
0,0,9.979032516479492,-0.00019999999494757503,0,0.009800000116229057,-0.04200000047506539,-0.0009999999964224499,-0.0659999978879142
0,0,9.979032516479492,-0.00019999999494757503,0,0.009800000116229057,-0.04200000047506539,-0.0009999999964224499,-0.0659999978879142
0,0,9.979032516479492,-0.00019999999494757503,0,0.009800000116229057,-0.04200000047506539,-0.0009999999964224499,0.11599999750059588
0,0,9.979032516479492,-0.00019999999494757503,0,0.009800000116229057,0.017999999727163266,-0.06200000165415938,0.05499999823992851
0,0,9.979032516479492,-0.00019999999494757503,0,0,0.017999999727163266,-0.06200000165415938,0.05499999823992851
0,0,9.979032516479492,-0.00019999999494757503,0,0.009800000116229057,-0.04200000047506539,-0.0009999999964224499,-0.0659999978879142
0,0,9.979032516479492,-0.00019999999494757503,0,0.009800000116229057,0.017999999727163266,-0.0009999999964224499,0.05499999823992851
0,0,9.979032516479492,-0.00019999999494757503,0,0.009800000116229057,0.017999999727163266,0.05900000114378995,-0.0659999978879142
0,0,9.979032516479492,-0.00009999999747378752,0,0.009800000116229057,0.017999999727163266,0.05900000114378995,-0.0659999978879142
0,0,9.96945571899414,-0.00009999999747378752,0,0,0.07900000232288394,-0.0009999999964224499,0.05499999823992851
0,0,9.979032516479492,-0.00009999999747378752,0,0.009800000116229057,-0.16400000566650674,-0.12299999424472013,0.11599999750059588
0,0,9.979032516479492,-0.00009999999747378752,0,0.009800000116229057,0.07900000232288394,-0.0009999999964224499,0.05499999823992851
0,0,9.979032516479492,-0.00009999999747378752,0,0.009800000116229057,-0.10299999973573276,0.24200000559589865,-0.004999999877891834
0,0,9.96945571899414,-0.00009999999747378752,0,0,0.07900000232288394,-0.06200000165415938,-0.004999999877891834
0,0,9.96945571899414,-0.00009999999747378752,0,0,0.017999999727163266,0.1199999937343507,-0.0659999978879142
0,0,9.96945571899414,-0.00009999999747378752,0,0,-0.04200000047506539,-0.0009999999964224499,-0.0659999978879142
0,0,9.96945571899414,-0.00009999999747378752,0,0,0.1400000015835513,-0.06200000165415938,0.05499999823992851
0,0,9.96945571899414,-0.00009999999747378752,0,0,0.017999999727163266,0.05900000114378995,-0.004999999877891834
0,0,9.96945571899414,-0.00009999999747378752,0,0,0.07900000232288394,0.05900000114378995,-0.0659999978879142
0,0,9.96945571899414,-0.00009999999747378752,0,0,-0.10299999973573276,0.05900000114378995,-0.004999999877891834
0,0,9.96945571899414,-0.00009999999747378752,0,0,0.017999999727163266,0.1199999937343507,-0.0659999978879142
0,0,9.979032516479492,-0.00009999999747378752,0,0.009800000116229057,0.017999999727163266,-0.0009999999964224499,-0.004999999877891834
0,0,9.979032516479492,-0.00009999999747378752,0,0.009800000116229057,0.017999999727163266,0.1199999937343507,0.11599999750059588
0,0,9.979032516479492,0,0,0,0.017999999727163266,-0.0009999999964224499,-0.004999999877891834
0,0,9.979032516479492,0,0,0.009800000116229057,0.07900000232288394,0.1199999937343507,-0.004999999877891834
0,0,9.979032516479492,0,0,0,0.017999999727163266,-0.0009999999964224499,0.05499999823992851
0,0,9.979032516479492,0,0,0,0.07900000232288394,0.05900000114378995,-0.0659999978879142
0,0,9.979032516479492,0,0,0,0.017999999727163266,0.1199999937343507,0.05499999823992851
0,0,9.979032516479492,0,0,0,-0.10299999973573276,-0.06200000165415938,-0.004999999877891834
0,0,9.979032516479492,0,0,0,-0.10299999973573276,-0.12299999424472013,-0.004999999877891834
0,0,9.979032516479492,0,0,0,0.017999999727163266,-0.0009999999964224499,-0.004999999877891834
0,0,9.979032516479492,0,0,0.019600000232458115,0.017999999727163266,-0.0009999999964224499,-0.004999999877891834
0,0,9.979032516479492,0,0,0,-0.10299999973573276,0.05900000114378995,0.05499999823992851
0,0,9.988609313964844,0,0,0.009800000116229057,0.07900000232288394,-0.0009999999964224499,-0.004999999877891834
0,0,9.988609313964844,0,0,0.009800000116229057,-0.2250000115972807,-0.06200000165415938,-0.004999999877891834
0,0,9.988609313964844,0,0,0.009800000116229057,0.017999999727163266,-0.06200000165415938,0.05499999823992851
0,0,9.988609313964844,0,0,0.009800000116229057,-0.04200000047506539,-0.0009999999964224499,-0.0659999978879142
0,0,9.988609313964844,0,0,0.009800000116229057,0.017999999727163266,0.05900000114378995,0.05499999823992851
0,0,9.988609313964844,0,0,0,0.07900000232288394,0.05900000114378995,-0.004999999877891834
0,0,9.988609313964844,0,0,0.009800000116229057,-0.04200000047506539,0.05900000114378995,0.05499999823992851
0,0,9.988609313964844,0,0,0.009800000116229057,-0.04200000047506539,-0.0009999999964224499,-0.0659999978879142
0,0,9.988609313964844,0,0,0.009800000116229057,0.017999999727163266,0.1199999937343507,-0.004999999877891834
0,0,9.988609313964844,0,0,0.009800000116229057,-0.04200000047506539,0.05900000114378995,-0.004999999877891834
0,0,9.988609313964844,0,0,0.009800000116229057,-0.16400000566650674,-0.0009999999964224499,0.11599999750059588
0,0,9.988609313964844,0,0,0.009800000116229057,-0.04200000047506539,-0.0009999999964224499,-0.004999999877891834
0,0,9.988609313964844,0,0,0.009800000116229057,0.017999999727163266,-0.0009999999964224499,-0.004999999877891834
0,0,9.998186111450195,0,0,0.019600000232458115,-0.04200000047506539,0.05900000114378995,-0.004999999877891834
0,0,9.998186111450195,0,0,0.019600000232458115,0.20099999417411205,-0.0009999999964224499,-0.0659999978879142
0,0,9.998186111450195,0,0,0.019600000232458115,0.017999999727163266,0.1199999937343507,-0.0659999978879142
0,0,9.988609313964844,0,0,0.019600000232458115,0.017999999727163266,-0.0009999999964224499,-0.004999999877891834
0,0,9.988609313964844,0,0,0.009800000116229057,0.017999999727163266,-0.0009999999964224499,0.05499999823992851
0,0,9.988609313964844,0,0,0.009800000116229057,-0.10299999973573276,-0.0009999999964224499,-0.0659999978879142
0,0,9.998186111450195,0,0,0.009800000116229057,-0.04200000047506539,-0.12299999424472013,-0.0659999978879142
0,0,9.998186111450195,0,0,0.019600000232458115,-0.04200000047506539,-0.0009999999964224499,-0.004999999877891834
0,0,9.998186111450195,0,0,0.019600000232458115,-0.04200000047506539,0.1199999937343507,-0.004999999877891834
0,0,9.998186111450195,0,0,0.019600000232458115,0.017999999727163266,-0.12299999424472013,0.05499999823992851
0,0,9.998186111450195,0,0,0.009800000116229057,-0.04200000047506539,-0.0009999999964224499,0.05499999823992851
0,0,9.988609313964844,0,0,0.009800000116229057,0.017999999727163266,-0.0009999999964224499,-0.0659999978879142
0,0,9.988609313964844,0,0,0.019600000232458115,0.017999999727163266,0.05900000114378995,-0.004999999877891834
0,0,9.998186111450195,0,0,0.019600000232458115,-0.04200000047506539,0.1199999937343507,-0.004999999877891834
0,0,9.998186111450195,0,0,0.019600000232458115,-0.04200000047506539,0.05900000114378995,-0.12700000381868817
0,0,9.998186111450195,0,0,0.019600000232458115,-0.04200000047506539,-0.06200000165415938,0.05499999823992851
0,0,9.998186111450195,0,0,0.009800000116229057,0.1400000015835513,-0.0009999999964224499,-0.12700000381868817
0,0,9.998186111450195,0,0,0.019600000232458115,0.07900000232288394,-0.0009999999964224499,0.05499999823992851
0,0,9.998186111450195,0,0,0.019600000232458115,-0.04200000047506539,0.05900000114378995,-0.004999999877891834
0,0,9.998186111450195,0,0,0.019600000232458115,-0.04200000047506539,0.05900000114378995,0.05499999823992851
0,0,9.998186111450195,0,0,0.019600000232458115,-0.04200000047506539,0.05900000114378995,0.05499999823992851
0,0,9.998186111450195,0,0,0.019600000232458115,-0.04200000047506539,-0.0009999999964224499,-0.004999999877891834
0,0,9.998186111450195,0,0,0.019600000232458115,0.017999999727163266,0.05900000114378995,-0.004999999877891834
0,0,9.998186111450195,0,0,0.019600000232458115,0.07900000232288394,-0.06200000165415938,-0.004999999877891834
0,0,9.998186111450195,0,0,0.019600000232458115,-0.04200000047506539,-0.06200000165415938,0.05499999823992851
0,0,9.998186111450195,0,0,0,-0.04200000047506539,0.05900000114378995,0.05499999823992851
0,0,9.998186111450195,0,0,0,-0.04200000047506539,0.05900000114378995,0.05499999823992851
0,0,9.998186111450195,0,0,0,0.017999999727163266,-0.0009999999964224499,-0.0659999978879142
0,0,9.998186111450195,0,0,0,0.07900000232288394,0.05900000114378995,-0.0659999978879142
0,0,9.998186111450195,0,0,0,-0.04200000047506539,-0.0009999999964224499,-0.004999999877891834
0,0,9.998186111450195,0,0,0,-0.04200000047506539,-0.0009999999964224499,-0.0659999978879142
0,0,9.988609313964844,0,0,-0.009800000116229057,0.017999999727163266,-0.0009999999964224499,-0.0659999978879142
0,0,9.998186111450195,0,0,0,0.017999999727163266,-0.0009999999964224499,-0.004999999877891834
0,0,9.998186111450195,0,0,0,0.07900000232288394,-0.0009999999964224499,-0.004999999877891834
0,0,9.998186111450195,0,0,0,0.017999999727163266,0.05900000114378995,-0.004999999877891834
0,0,9.998186111450195,0,0,0,0.07900000232288394,-0.0009999999964224499,0.05499999823992851
0,0,9.998186111450195,0,0,0,-0.04200000047506539,0.05900000114378995,-0.0659999978879142
0,0,9.998186111450195,0,0,0,0.1400000015835513,-0.0009999999964224499,-0.004999999877891834
0,0,9.998186111450195,0,0,0,-0.10299999973573276,-0.0009999999964224499,-0.004999999877891834
0,0,9.998186111450195,0,0,0,-0.04200000047506539,-0.06200000165415938,0.05499999823992851
0,0,9.998186111450195,0,0,0,-0.04200000047506539,0.18099999966512467,-0.004999999877891834
0,0,9.998186111450195,0,0,0,-0.04200000047506539,-0.0009999999964224499,-0.0659999978879142
0,0,9.998186111450195,0,0,-0.009800000116229057,0.017999999727163266,-0.06200000165415938,0.05499999823992851
0,0,9.988609313964844,0,0,0,-0.04200000047506539,-0.06200000165415938,-0.004999999877891834
0,0,9.998186111450195,0,0,0,0.017999999727163266,-0.0009999999964224499,-0.004999999877891834
0,0,9.998186111450195,0,0,-0.009800000116229057,-0.04200000047506539,0.1199999937343507,-0.0659999978879142
0,0,9.998186111450195,0,0,0,0.07900000232288394,0.05900000114378995,-0.004999999877891834
0,0,9.998186111450195,0,0,0,0.017999999727163266,-0.06200000165415938,0.05499999823992851
0,0,9.998186111450195,0,0,-0.009800000116229057,0.017999999727163266,-0.06200000165415938,0.05499999823992851
0,0,9.988609313964844,0,0,-0.009800000116229057,-0.04200000047506539,0.05900000114378995,0.11599999750059588
0,0,9.988609313964844,0,0,-0.009800000116229057,0.1400000015835513,0.05900000114378995,-0.004999999877891834
0,0,9.998186111450195,0,0,0.009800000116229057,-0.04200000047506539,-0.0009999999964224499,0.05499999823992851
0,0,9.998186111450195,0,0,0,-0.10299999973573276,0.1199999937343507,-0.004999999877891834
0,0,9.998186111450195,0,0,0,-0.04200000047506539,-0.0009999999964224499,-0.0659999978879142
0,0,9.988609313964844,0,0,-0.009800000116229057,0.07900000232288394,-0.12299999424472013,-0.004999999877891834
0,0,9.988609313964844,0,0,-0.009800000116229057,0.017999999727163266,0.05900000114378995,-0.004999999877891834
0,0,9.988609313964844,0,0,-0.009800000116229057,0.017999999727163266,0.1199999937343507,-0.004999999877891834
0,0,9.988609313964844,0,0,-0.009800000116229057,-0.10299999973573276,0.05900000114378995,0.11599999750059588
0,0,10.007762908935547,0,0,0.009800000116229057,-0.10299999973573276,0.05900000114378995,0.05499999823992851
0,0,9.998186111450195,0,0,0,-0.10299999973573276,-0.0009999999964224499,-0.004999999877891834
0,0,9.998186111450195,0,0,-0.009800000116229057,0.20099999417411205,0.05900000114378995,0.05499999823992851
0,0,9.998186111450195,0,0,0,-0.04200000047506539,0.05900000114378995,-0.0659999978879142
0,0,9.998186111450195,0,0,0,0.017999999727163266,0.05900000114378995,-0.004999999877891834
0,0,9.998186111450195,0,0,0,0.017999999727163266,0.05900000114378995,-0.004999999877891834
0,0,9.988609313964844,0,0,0,-0.04200000047506539,-0.0009999999964224499,-0.004999999877891834
0,0,9.988609313964844,0,0,0,0.017999999727163266,-0.0009999999964224499,-0.0659999978879142
0,0,9.998186111450195,0,0,0,-0.04200000047506539,-0.18400000017549412,-0.004999999877891834
-0.009576806798577309,0,9.998186111450195,0,0,0,-0.04200000047506539,0.1199999937343507,-0.004999999877891834
0,0,9.998186111450195,0,0,0,0.07900000232288394,0.1199999937343507,-0.0659999978879142
0,0,9.998186111450195,0,0,0,-0.10299999973573276,-0.0009999999964224499,-0.12700000381868817
0,0,9.998186111450195,0,0,0,0.017999999727163266,-0.06200000165415938,-0.0659999978879142
0,0,9.998186111450195,0,0,0,0.017999999727163266,-0.06200000165415938,-0.0659999978879142
0,0,9.998186111450195,0,0,0,-0.16400000566650674,0.05900000114378995,0.05499999823992851
0,0,9.988609313964844,0,0,0,0.03400000133744912,0.04500000098543482,-0.06700000028140622
0,0,9.988609313964844,0,0,0,0.03400000133744912,0.10600000024610218,-0.12799999954207358
0,0,9.988609313964844,0,0,-0.009800000116229057,-0.14799999405106096,-0.014999999216793838,-0.006000000186975531
0,0,9.988609313964844,0,0,0,-0.02600000053230619,-0.014999999216793838,-0.006000000186975531
0,0,9.988609313964844,0,0,0,0.03400000133744912,-0.014999999216793838,0.0539999991814898
0,0,9.988609313964844,0,0,0,-0.02600000053230619,-0.014999999216793838,-0.06700000028140622
0,0,9.988609313964844,0,0,0,-0.02600000053230619,-0.014999999216793838,0.0539999991814898
0,0,9.988609313964844,0,0,0,-0.02600000053230619,-0.07600000181251451,-0.006000000186975531
0,0,9.988609313964844,0,0,0,0.03400000133744912,0.04500000098543482,0.0539999991814898
0,0,9.988609313964844,0,0,0,0.03400000133744912,-0.014999999216793838,-0.06700000028140622
0,0,9.988609313964844,0,0,0,0.03400000133744912,-0.014999999216793838,-0.06700000028140622
0,0,9.988609313964844,0,0,0,-0.14799999405106096,-0.014999999216793838,-0.006000000186975531
0,0,9.988609313964844,0,0,-0.009800000116229057,-0.14799999405106096,-0.014999999216793838,-0.006000000186975531
0,0,9.979032516479492,0,0,-0.009800000116229057,0.03400000133744912,-0.13700000107318186,0.11500000177721047
0,0,9.988609313964844,0,0,0,0.03400000133744912,-0.014999999216793838,0.0539999991814898
0,0,9.988609313964844,0,0,0,0.09500000059811649,-0.07600000181251451,0.11500000177721047
0,0,9.988609313964844,0,0,0,-0.08700000146050021,0.04500000098543482,0.11500000177721047
0,0,9.979032516479492,0,0,0,-0.02600000053230619,-0.014999999216793838,-0.006000000186975531
0,0,9.979032516479492,0,0,-0.009800000116229057,0.09500000059811649,-0.014999999216793838,-0.06700000028140622
0,0,9.988609313964844,0,0,0,-0.08700000146050021,-0.014999999216793838,-0.006000000186975531
0,0,9.988609313964844,0,0,0,-0.08700000146050021,-0.014999999216793838,-0.006000000186975531
0,0,9.988609313964844,0,0,0,0.15599999985878385,0.04500000098543482,-0.006000000186975531
0,0,9.988609313964844,0,0,0,0.03400000133744912,0.04500000098543482,-0.006000000186975531
0,0,9.988609313964844,0,0,0,0.21700000578955783,0.10600000024610218,-0.006000000186975531
0,0,9.988609313964844,0,0,0,-0.02600000053230619,-0.07600000181251451,-0.006000000186975531
0,0,9.988609313964844,0,0,0,-0.02600000053230619,-0.07600000181251451,-0.006000000186975531
0,0,9.979032516479492,0,0,-0.009800000116229057,-0.02600000053230619,-0.07600000181251451,0.0539999991814898
0,0,9.979032516479492,0,0,-0.009800000116229057,0.09500000059811649,-0.014999999216793838,0.0539999991814898
0,0,9.979032516479492,0,0,-0.009800000116229057,-0.14799999405106096,0.10600000024610218,0.0539999991814898
0,0,9.979032516479492,0,0,-0.009800000116229057,0.03400000133744912,-0.07600000181251451,0.0539999991814898
0,0,9.979032516479492,0,0,-0.009800000116229057,-0.20899999998183494,-0.014999999216793838,0.11500000177721047
0,0,9.979032516479492,0,0,-0.009800000116229057,-0.08700000146050021,-0.014999999216793838,0.0539999991814898
0,0,9.988609313964844,0,0,0,0.09500000059811649,-0.014999999216793838,0.0539999991814898
-0.009576806798577309,0,9.988609313964844,0,0,0,-0.02600000053230619,-0.07600000181251451,-0.006000000186975531
0,0,9.988609313964844,0,0,0,-0.2699999925723957,-0.07600000181251451,-0.12799999954207358
0,0,9.988609313964844,0,0,0,0.03400000133744912,-0.014999999216793838,0.11500000177721047
0,0,9.988609313964844,0,0,0,0.03400000133744912,-0.07600000181251451,0.0539999991814898
0,0,9.988609313964844,0,0,0,-0.02600000053230619,-0.07600000181251451,-0.006000000186975531
0,0,9.988609313964844,0,0,0,-0.08700000146050021,-0.014999999216793838,-0.006000000186975531
0,0,9.988609313964844,0,0,0,0.03400000133744912,0.04500000098543482,0.0539999991814898
0,0,9.988609313964844,0,0,0,0.03400000133744912,0.04500000098543482,0.0539999991814898
0,0,9.998186111450195,0,0,0,0.03400000133744912,-0.014999999216793838,0.0539999991814898
0,0,9.988609313964844,0,0,0.009800000116229057,-0.08700000146050021,-0.07600000181251451,-0.006000000186975531
0,0,9.988609313964844,0,0,0,-0.08700000146050021,-0.014999999216793838,-0.006000000186975531
0,0,9.988609313964844,0,0,0,-0.14799999405106096,-0.014999999216793838,-0.006000000186975531
0,0,9.988609313964844,0,0,0,-0.02600000053230619,-0.07600000181251451,-0.006000000186975531
0,0,9.988609313964844,0,0,0,-0.02600000053230619,-0.07600000181251451,-0.006000000186975531
0,0,9.988609313964844,0,0,0,-0.02600000053230619,0.04500000098543482,-0.06700000028140622
0,0,9.988609313964844,0,0,0,-0.02600000053230619,0.04500000098543482,0.0539999991814898
0,0,9.988609313964844,0,0,0,-0.02600000053230619,-0.014999999216793838,-0.06700000028140622
0,0,9.988609313964844,0,0,0.009800000116229057,0.03400000133744912,0.10600000024610218,-0.006000000186975531
0,0,9.988609313964844,0,0,0.009800000116229057,-0.02600000053230619,-0.13700000107318186,-0.006000000186975531
0,0,9.988609313964844,0,0,0.009800000116229057,0.03400000133744912,0.04500000098543482,-0.006000000186975531
0,0,9.988609313964844,0,0,0.009800000116229057,-0.02600000053230619,0.10600000024610218,0.0539999991814898
0,0,9.988609313964844,0,0,0.009800000116229057,-0.02600000053230619,-0.014999999216793838,-0.006000000186975531
0,0,9.998186111450195,0,0,0.009800000116229057,-0.08700000146050021,-0.07600000181251451,-0.006000000186975531
0,0,9.998186111450195,0,0,0.019600000232458115,0.09500000059811649,-0.014999999216793838,0.0539999991814898
0,0,9.998186111450195,0,0,0.019600000232458115,0.15599999985878385,-0.014999999216793838,-0.06700000028140622
0,0,9.998186111450195,0,0,0.019600000232458115,0.03400000133744912,0.10600000024610218,-0.06700000028140622
0,0,9.988609313964844,0,0,0.009800000116229057,-0.02600000053230619,0.04500000098543482,-0.006000000186975531
0,0,9.988609313964844,0,0,0.009800000116229057,-0.02600000053230619,-0.07600000181251451,-0.06700000028140622
0,0,9.988609313964844,0,0,0.009800000116229057,0.03400000133744912,-0.014999999216793838,0.0539999991814898
0,0,9.988609313964844,0,0,0.009800000116229057,-0.02600000053230619,0.10600000024610218,-0.06700000028140622
0,0,9.988609313964844,0,0,0.009800000116229057,-0.02600000053230619,0.04500000098543482,-0.006000000186975531
0,0,9.988609313964844,0,0,0,0.03400000133744912,0.04500000098543482,-0.006000000186975531
0,0,9.979032516479492,0,0,0,0.09500000059811649,-0.13700000107318186,-0.12799999954207358
0,0,9.988609313964844,0,0,0.009800000116229057,-0.20899999998183494,0.10600000024610218,-0.006000000186975531
0,0,9.988609313964844,0,0,0.009800000116229057,0.15599999985878385,0.04500000098543482,-0.006000000186975531
0,0,9.988609313964844,0,0,0.009800000116229057,0.03400000133744912,0.10600000024610218,-0.06700000028140622
0,0,9.988609313964844,0,0,0.009800000116229057,-0.02600000053230619,-0.014999999216793838,-0.006000000186975531
0,0,9.988609313964844,0,0,0.009800000116229057,0.03400000133744912,-0.07600000181251451,-0.06700000028140622
0,0,9.988609313964844,0,0,0.009800000116229057,-0.08700000146050021,-0.014999999216793838,-0.006000000186975531
0,0,9.988609313964844,0,0,0.009800000116229057,-0.02600000053230619,0.04500000098543482,-0.12799999954207358
0,0,9.988609313964844,0,0,0.009800000116229057,0.03400000133744912,-0.014999999216793838,-0.06700000028140622
0,0,9.988609313964844,0,0,0.009800000116229057,0.03400000133744912,-0.014999999216793838,-0.06700000028140622
0,0,9.988609313964844,0,0,0.009800000116229057,-0.08700000146050021,0.04500000098543482,-0.06700000028140622
0,0,9.988609313964844,0,0,0.009800000116229057,0.03400000133744912,-0.07600000181251451,-0.06700000028140622
0,0,9.988609313964844,0,0,0.009800000116229057,-0.02600000053230619,0.10600000024610218,-0.06700000028140622
0,0,9.998186111450195,0,0,0.009800000116229057,0.09500000059811649,-0.07600000181251451,-0.006000000186975531
0,0,9.998186111450195,0,0,0.019600000232458115,0.03400000133744912,-0.13700000107318186,-0.06700000028140622
0,0,9.979032516479492,0,0,0.019600000232458115,-0.08700000146050021,-0.014999999216793838,-0.06700000028140622
0,0,9.979032516479492,0,0,0,0.09500000059811649,-0.014999999216793838,0.0539999991814898
0,0,9.998186111450195,0,0,0.019600000232458115,0.03400000133744912,-0.014999999216793838,-0.06700000028140622
0,0,9.998186111450195,0,0,0.019600000232458115,-0.14799999405106096,-0.13700000107318186,-0.06700000028140622
0,0,9.988609313964844,0,0,0.009800000116229057,0.03400000133744912,-0.07600000181251451,0.0539999991814898
0,0,9.988609313964844,0,0,0.009800000116229057,-0.08700000146050021,-0.014999999216793838,-0.006000000186975531
0,0,9.998186111450195,0,0,0.019600000232458115,0.03400000133744912,-0.07600000181251451,-0.06700000028140622
0,0,9.998186111450195,0,0,0.019600000232458115,-0.02600000053230619,0.10600000024610218,0.0539999991814898
0,0,9.988609313964844,0,0,0.009800000116229057,0.15599999985878385,-0.014999999216793838,0.11500000177721047
0,0,9.988609313964844,0,0,0.009800000116229057,-0.08700000146050021,-0.07600000181251451,0.0539999991814898
0,0,9.988609313964844,0,0,0.009800000116229057,0.03400000133744912,-0.014999999216793838,-0.006000000186975531
0,0,9.988609313964844,0,0,0.009800000116229057,0.03400000133744912,-0.07600000181251451,-0.06700000028140622
0,0,9.988609313964844,0,0,0.009800000116229057,0.03400000133744912,0.04500000098543482,-0.006000000186975531
0,0,9.988609313964844,0,0,0.009800000116229057,-0.02600000053230619,-0.014999999216793838,-0.006000000186975531
0,0,9.979032516479492,0,0,0.009800000116229057,0.09500000059811649,-0.014999999216793838,-0.006000000186975531
0,0,9.988609313964844,0,0,0.009800000116229057,0.03400000133744912,0.04500000098543482,-0.06700000028140622
0,0,9.988609313964844,0,0,0.009800000116229057,0.03400000133744912,0.10600000024610218,-0.006000000186975531
0,0,9.988609313964844,0,0,0,0.21700000578955783,0.10600000024610218,-0.06700000028140622
0,0,9.988609313964844,0,0,0,-0.02600000053230619,0.04500000098543482,-0.006000000186975531
0,0,9.988609313964844,0,0,0,0.03400000133744912,0.04500000098543482,-0.006000000186975531
0,0,9.988609313964844,0,0,0,-0.20899999998183494,-0.07600000181251451,-0.006000000186975531
0,0,9.988609313964844,0,0,0,0.15599999985878385,0.04500000098543482,-0.006000000186975531
0,0,9.988609313964844,0,0,0,-0.08700000146050021,-0.014999999216793838,0.0539999991814898
0,0,9.988609313964844,0,0,0,-0.02600000053230619,-0.014999999216793838,0.11500000177721047
0,0,9.988609313964844,0,0,0,0.03400000133744912,-0.014999999216793838,-0.006000000186975531
0,0,9.988609313964844,0,0,0,0.15599999985878385,0.04500000098543482,-0.006000000186975531
0,0,9.988609313964844,0,0,0,-0.08700000146050021,-0.014999999216793838,-0.006000000186975531
0,0,9.998186111450195,0,0,0,-0.08700000146050021,-0.014999999216793838,-0.006000000186975531
0,0,9.998186111450195,0,0,0.009800000116229057,0.09500000059811649,0.10600000024610218,-0.06700000028140622
0,0,9.998186111450195,0,0,0.009800000116229057,-0.02600000053230619,-0.07600000181251451,-0.06700000028140622
0,0,9.988609313964844,0,0,0,-0.08700000146050021,-0.07600000181251451,-0.06700000028140622
0,0,9.998186111450195,0,0,0,-0.02600000053230619,0.10600000024610218,-0.006000000186975531
0,0,9.988609313964844,0,0,0,-0.02600000053230619,0.10600000024610218,-0.06700000028140622
0,0,9.988609313964844,0,0,0,0.03400000133744912,-0.07600000181251451,-0.06700000028140622
0,0,9.988609313964844,0,0,-0.009800000116229057,-0.02600000053230619,-0.014999999216793838,-0.06700000028140622
0,0,9.979032516479492,0,0,-0.009800000116229057,-0.02600000053230619,0.04500000098543482,-0.06700000028140622
0,0,9.979032516479492,0,0,0,-0.02600000053230619,-0.07600000181251451,-0.06700000028140622
0,0,9.998186111450195,0,0,0.009800000116229057,0.03400000133744912,-0.07600000181251451,-0.006000000186975531
0,0,9.988609313964844,0,0,0,-0.02600000053230619,0.04500000098543482,-0.006000000186975531
0,0,9.988609313964844,0,0,0,-0.14799999405106096,0.04500000098543482,0.0539999991814898
0,0,9.998186111450195,0,0,0.009800000116229057,-0.08700000146050021,-0.014999999216793838,0.11500000177721047
0,0,9.988609313964844,0,0,0,-0.02600000053230619,-0.014999999216793838,-0.006000000186975531
0,0,9.979032516479492,0,0,-0.009800000116229057,0.09500000059811649,0.10600000024610218,0.11500000177721047
0,0,9.979032516479492,0,0,-0.009800000116229057,0.03400000133744912,-0.014999999216793838,-0.06700000028140622
0,0,9.979032516479492,0,0,-0.009800000116229057,0.03400000133744912,0.10600000024610218,-0.006000000186975531
0,0,9.979032516479492,0,0,-0.009800000116229057,0.03400000133744912,-0.07600000181251451,0.0539999991814898
0,0,9.979032516479492,0,0,-0.009800000116229057,0.15599999985878385,0.04500000098543482,-0.06700000028140622
0,0,9.979032516479492,0,0,-0.009800000116229057,-0.02600000053230619,-0.014999999216793838,0.0539999991814898
0,0,9.988609313964844,0,0,-0.009800000116229057,0.03400000133744912,-0.07600000181251451,-0.06700000028140622
0,0,9.998186111450195,0,0,0.009800000116229057,-0.08700000146050021,0.10600000024610218,-0.06700000028140622
0,0,9.998186111450195,0,0,0.009800000116229057,-0.02600000053230619,-0.014999999216793838,0.11500000177721047
0,0,9.998186111450195,0,0,0.009800000116229057,-0.02600000053230619,-0.07600000181251451,-0.06700000028140622
0,0,9.998186111450195,0,0,0.009800000116229057,0.03400000133744912,-0.07600000181251451,-0.06700000028140622
0,0,9.998186111450195,0,0,0.009800000116229057,-0.08700000146050021,-0.07600000181251451,-0.006000000186975531
0,0,9.998186111450195,0,0,0.009800000116229057,0.03400000133744912,-0.014999999216793838,-0.006000000186975531
0,0,10.007762908935547,0,0,0.009800000116229057,-0.02600000053230619,-0.014999999216793838,-0.006000000186975531
0,0,9.988609313964844,0,0,0,-0.02600000053230619,-0.19799999366374263,-0.006000000186975531
0,0,9.998186111450195,0,0,0.009800000116229057,-0.02600000053230619,-0.014999999216793838,-0.06700000028140622
0,0,9.998186111450195,0,0,0.009800000116229057,0.15599999985878385,-0.19799999366374263,-0.006000000186975531
0,0,9.998186111450195,0,0,0,0.15599999985878385,-0.19799999366374263,-0.006000000186975531
0,0,9.988609313964844,-0.009099999442696571,0,0.009800000116229057,0.03400000133744912,0.04500000098543482,0.0539999991814898
0,0,9.988609313964844,0.0005999999702908099,0,0,-0.02600000053230619,-0.014999999216793838,-0.006000000186975531
0,0,9.998186111450195,0.0005999999702908099,0,0.009800000116229057,0.03400000133744912,-0.014999999216793838,0.0539999991814898
0,0,9.988609313964844,0.0005999999702908099,0,0,-0.08700000146050021,0.04500000098543482,0.11500000177721047
0,0,9.988609313964844,0.0004999999655410647,0,0,-0.02600000053230619,-0.13700000107318186,-0.06700000028140622
0,0,9.988609313964844,0.0004999999655410647,0,0,-0.02600000053230619,0.04500000098543482,-0.006000000186975531
0,0,9.979032516479492,0.0004999999655410647,0,0.009800000116229057,0.03400000133744912,0.10600000024610218,-0.06700000028140622
0,0,9.979032516479492,0.0004999999655410647,0,-0.009800000116229057,0.03400000133744912,0.10600000024610218,-0.06700000028140622
0,0,9.988609313964844,0.00039999998989515007,0,-0.009800000116229057,0.03400000133744912,0.10600000024610218,-0.006000000186975531
0,0,9.988609313964844,0.00039999998989515007,0,0,0.03400000133744912,-0.07600000181251451,0.0539999991814898
0,0,9.988609313964844,0.00039999998989515007,0,0,-0.02600000053230619,-0.07600000181251451,0.0539999991814898
0,0,9.998186111450195,0.00039999998989515007,0,0.009800000116229057,-0.08700000146050021,-0.014999999216793838,-0.006000000186975531
0,0,9.998186111450195,0.00039999998989515007,0,0.009800000116229057,0.09500000059811649,0.04500000098543482,-0.06700000028140622
0,0,9.988609313964844,0.00039999998989515007,0,0,0.09500000059811649,0.04500000098543482,-0.006000000186975531
0,0,9.988609313964844,0.00029999998514540493,0,0,0.03400000133744912,-0.07600000181251451,-0.06700000028140622
0,0,9.979032516479492,0.00029999998514540493,0,0,0.03400000133744912,-0.014999999216793838,-0.12799999954207358
0,0,9.979032516479492,0.00029999998514540493,0,-0.009800000116229057,-0.02600000053230619,-0.014999999216793838,-0.006000000186975531
0,0,9.979032516479492,0.00029999998514540493,0,-0.009800000116229057,0.09500000059811649,-0.014999999216793838,0.0539999991814898
0,0,9.979032516479492,0.00029999998514540493,0,-0.009800000116229057,-0.14799999405106096,-0.07600000181251451,-0.006000000186975531
0,0,9.988609313964844,0.00029999998514540493,0,0,0.09500000059811649,-0.014999999216793838,-0.006000000186975531
0,0,9.988609313964844,0.00029999998514540493,0,0,-0.08700000146050021,-0.014999999216793838,-0.06700000028140622
0,0,9.988609313964844,0.00019999999494757503,0,0,-0.02600000053230619,-0.014999999216793838,0.0539999991814898
0,0,9.979032516479492,0.00019999999494757503,0,-0.009800000116229057,-0.08700000146050021,-0.014999999216793838,-0.006000000186975531
0,0,9.998186111450195,0.00019999999494757503,0,0.009800000116229057,0.03400000133744912,0.04500000098543482,-0.006000000186975531
0,0,9.998186111450195,0.00019999999494757503,0,0.009800000116229057,0.03400000133744912,0.04500000098543482,-0.06700000028140622
0,0,9.998186111450195,0.00019999999494757503,0,0.009800000116229057,-0.02600000053230619,-0.07600000181251451,0.0539999991814898
0,0,9.998186111450195,0.00019999999494757503,0,0.009800000116229057,-0.2699999925723957,-0.13700000107318186,0.0539999991814898
0,0,9.988609313964844,0.00019999999494757503,0,0,0.03400000133744912,-0.014999999216793838,-0.06700000028140622
0,0,9.988609313964844,0.00019999999494757503,0,0,-0.14799999405106096,-0.014999999216793838,-0.006000000186975531
0,0,9.998186111450195,0.00019999999494757503,0,0,-0.02600000053230619,-0.13700000107318186,-0.006000000186975531
0,0,9.998186111450195,0.00019999999494757503,0,0.009800000116229057,0.03400000133744912,0.04500000098543482,0.0539999991814898
0,0,9.988609313964844,0.00009999999747378752,0,0.009800000116229057,0.03400000133744912,0.04500000098543482,-0.06700000028140622
0,0,9.998186111450195,0.00009999999747378752,0,0,-0.08700000146050021,-0.014999999216793838,0.0539999991814898
0,0,9.998186111450195,0.00009999999747378752,0,0.009800000116229057,0.09500000059811649,-0.014999999216793838,-0.06700000028140622
0,0,9.998186111450195,0.00009999999747378752,0,0.009800000116229057,-0.08700000146050021,-0.014999999216793838,-0.006000000186975531
0,0,9.998186111450195,0.00009999999747378752,0,0.009800000116229057,-0.02600000053230619,-0.014999999216793838,0.0539999991814898
0,0,9.998186111450195,0.00009999999747378752,0,0.009800000116229057,-0.08700000146050021,-0.014999999216793838,-0.006000000186975531
0,0,9.988609313964844,0.00009999999747378752,0,0.009800000116229057,-0.39200000443394367,-0.13700000107318186,0.11500000177721047
0,0,9.988609313964844,0.00009999999747378752,0,0,-0.02600000053230619,0.04500000098543482,-0.006000000186975531
0,0,9.998186111450195,0.00009999999747378752,0,0.009800000116229057,0.03400000133744912,-0.014999999216793838,-0.06700000028140622
0,0,9.998186111450195,0.00009999999747378752,0,0.009800000116229057,-0.02600000053230619,-0.014999999216793838,-0.006000000186975531
0,0,9.998186111450195,0.00009999999747378752,0,0.009800000116229057,0.09500000059811649,0.04500000098543482,-0.006000000186975531
0,0,9.998186111450195,0.00009999999747378752,0,0.009800000116229057,-0.14799999405106096,-0.014999999216793838,-0.006000000186975531
0,0,9.988609313964844,0.00009999999747378752,0,0,-0.02600000053230619,-0.014999999216793838,-0.006000000186975531
0,0,9.998186111450195,0.00009999999747378752,0,0.019600000232458115,-0.02600000053230619,0.04500000098543482,0.0539999991814898
0,0,10.007762908935547,0.00009999999747378752,0,0.019600000232458115,-0.20899999998183494,-0.07600000181251451,0.0539999991814898
0,0,10.007762908935547,0.00009999999747378752,0,0.019600000232458115,0.03400000133744912,-0.07600000181251451,0.0539999991814898
0,0,10.007762908935547,0,0,0.019600000232458115,0.03400000133744912,-0.014999999216793838,-0.006000000186975531
0,0,10.007762908935547,0,0,0.019600000232458115,-0.02600000053230619,-0.014999999216793838,-0.06700000028140622
0,0,10.007762908935547,0,0,0.019600000232458115,-0.08700000146050021,-0.014999999216793838,-0.006000000186975531
0,0,10.007762908935547,0,0,0.019600000232458115,-0.02600000053230619,-0.07600000181251451,0.0539999991814898
0,0,10.007762908935547,0,0,0.019600000232458115,-0.02600000053230619,0.04500000098543482,-0.06700000028140622
0,0,10.007762908935547,0,0,0,-0.08700000146050021,-0.014999999216793838,0.11500000177721047
0,0,10.017339706420898,0,0,0.009800000116229057,-0.08700000146050021,0.10600000024610218,-0.006000000186975531
0,0,9.998186111450195,0,0,0,-0.08700000146050021,-0.13700000107318186,-0.006000000186975531
0,0,10.007762908935547,0,0,0,0.15599999985878385,-0.014999999216793838,-0.12799999954207358
0,0,10.017339706420898,0,0,0,-0.02600000053230619,0.10600000024610218,-0.006000000186975531
0,0,10.017339706420898,0,0,0.009800000116229057,-0.02600000053230619,-0.014999999216793838,-0.12799999954207358
0,0,10.017339706420898,0,0,0.009800000116229057,-0.14799999405106096,-0.07600000181251451,-0.06700000028140622
0,0,10.017339706420898,0,0,0.009800000116229057,-0.02600000053230619,-0.014999999216793838,0.0539999991814898
0,0,10.02691650390625,0,0,0.009800000116229057,-0.08700000146050021,0.10600000024610218,-0.006000000186975531
0,0,10.02691650390625,0,0,0.019600000232458115,0.03400000133744912,-0.014999999216793838,-0.006000000186975531
0,0,10.02691650390625,0,0,0.019600000232458115,0.03400000133744912,-0.13700000107318186,0.0539999991814898
0,0,10.02691650390625,0,0,0.019600000232458115,0.03400000133744912,-0.07600000181251451,-0.006000000186975531
0,0,10.02691650390625,0,0,0.019600000232458115,-0.14799999405106096,-0.13700000107318186,-0.006000000186975531
0,0,10.02691650390625,0,0,0.019600000232458115,-0.02600000053230619,-0.014999999216793838,-0.006000000186975531
0,0,10.02691650390625,0,0,0.019600000232458115,0.03400000133744912,-0.014999999216793838,-0.12799999954207358
0,0,10.017339706420898,0,0,0.009800000116229057,-0.02600000053230619,0.04500000098543482,-0.06700000028140622
0,0,10.017339706420898,0,0,0.009800000116229057,-0.08700000146050021,0.10600000024610218,-0.006000000186975531
0,0,10.017339706420898,0,0,0.019600000232458115,0.09500000059811649,0.04500000098543482,-0.006000000186975531
0,0,10.02691650390625,0,0,0.019600000232458115,0.09500000059811649,-0.014999999216793838,-0.06700000028140622
0,0,10.02691650390625,0,0,0.009800000116229057,-0.08700000146050021,-0.014999999216793838,0.0539999991814898
0,0,10.02691650390625,0,0,0.019600000232458115,-0.02600000053230619,-0.014999999216793838,-0.006000000186975531
0,0,10.02691650390625,0,0,0.019600000232458115,-0.08700000146050021,-0.014999999216793838,-0.006000000186975531
0,0,10.017339706420898,0,0,0.009800000116229057,0.03400000133744912,-0.014999999216793838,0.0539999991814898
0,0,10.017339706420898,0,0,0.009800000116229057,0.15599999985878385,0.04500000098543482,0.0539999991814898
0,0,10.02691650390625,0,0,0.009800000116229057,-0.02600000053230619,-0.07600000181251451,-0.006000000186975531
0,0,10.02691650390625,0,0,0.019600000232458115,-0.02600000053230619,-0.07600000181251451,0.11500000177721047
0,0,10.02691650390625,0,0,0.019600000232458115,-0.02600000053230619,-0.014999999216793838,-0.006000000186975531
0,0,10.02691650390625,0,0,0.009800000116229057,-0.08700000146050021,0.04500000098543482,-0.006000000186975531
0,0,10.017339706420898,0,0,0.009800000116229057,0.03400000133744912,-0.07600000181251451,0.0539999991814898
0,0,10.017339706420898,0,0,0.009800000116229057,-0.14799999405106096,0.04500000098543482,0.0539999991814898
0,0,10.017339706420898,0,0,0.009800000116229057,-0.08700000146050021,-0.07600000181251451,-0.006000000186975531
0,0,10.017339706420898,0,0,0.009800000116229057,-0.02600000053230619,-0.014999999216793838,0.0539999991814898
0,0,10.017339706420898,0,0,0.009800000116229057,-0.02600000053230619,0.04500000098543482,-0.12799999954207358
0,0,10.017339706420898,0,0,0.009800000116229057,-0.08700000146050021,-0.014999999216793838,0.0539999991814898
0,0,10.017339706420898,0,0,0.009800000116229057,-0.02600000053230619,-0.014999999216793838,-0.06700000028140622
0,0,10.017339706420898,0,0,0.009800000116229057,-0.02600000053230619,0.04500000098543482,0.0539999991814898
0,0,10.017339706420898,0,0,0.009800000116229057,-0.08700000146050021,-0.014999999216793838,0.0539999991814898
0,0,10.017339706420898,0,0,0.009800000116229057,-0.08700000146050021,0.04500000098543482,-0.006000000186975531
0,0,10.017339706420898,0,0,0.009800000116229057,-0.08700000146050021,-0.014999999216793838,0.11500000177721047
0,0,10.017339706420898,0,0,0.009800000116229057,-0.02600000053230619,0.04500000098543482,0.11500000177721047
0,0,10.017339706420898,0,0,0.009800000116229057,-0.02600000053230619,-0.014999999216793838,-0.06700000028140622
0,0,10.017339706420898,0,0,0.009800000116229057,-0.08700000146050021,-0.19799999366374263,0.0539999991814898
0,0,10.017339706420898,0,0,0.009800000116229057,-0.02600000053230619,-0.014999999216793838,0.0539999991814898
0,0,10.02691650390625,0,0,0.009800000116229057,-0.02600000053230619,-0.014999999216793838,-0.06700000028140622
0,0,10.017339706420898,0,0,0.009800000116229057,0.09500000059811649,-0.014999999216793838,-0.006000000186975531
0,0,10.007762908935547,0,0,0.009800000116229057,-0.02600000053230619,-0.13700000107318186,-0.006000000186975531
0,0,10.017339706420898,0,0,0.009800000116229057,0.03400000133744912,-0.07600000181251451,0.0539999991814898
0,0,10.017339706420898,0,0,0.009800000116229057,0.03400000133744912,-0.07600000181251451,-0.006000000186975531
0,0,10.017339706420898,0,0,0,0.03400000133744912,-0.014999999216793838,-0.006000000186975531
0,0,10.017339706420898,0,0,0,-0.14799999405106096,-0.014999999216793838,0.0539999991814898
0,0,10.017339706420898,0,0,0,0.09500000059811649,-0.014999999216793838,-0.06700000028140622
0,0,10.017339706420898,0,0,0,0.09500000059811649,-0.014999999216793838,-0.06700000028140622
0,0,10.007762908935547,0,0,0,0.03400000133744912,-0.014999999216793838,-0.006000000186975531
0,0,10.017339706420898,0,0,0.009800000116229057,0.03400000133744912,-0.07600000181251451,0.0539999991814898
0,0,10.017339706420898,0,0,0,0.15599999985878385,0.10600000024610218,0.0539999991814898
0,0,10.017339706420898,0,0,-0.009800000116229057,0.03400000133744912,-0.014999999216793838,-0.006000000186975531
0,0,10.007762908935547,0,0,-0.009800000116229057,-0.14799999405106096,-0.07600000181251451,0.0539999991814898
0,0,10.007762908935547,0,0,-0.009800000116229057,-0.08700000146050021,0.04500000098543482,-0.006000000186975531
0,0,10.017339706420898,0,0,0,-0.08700000146050021,-0.014999999216793838,-0.006000000186975531
0,0,10.017339706420898,0,0,0,-0.08700000146050021,-0.07600000181251451,-0.06700000028140622
0,0,10.007762908935547,0,0,-0.009800000116229057,0.09500000059811649,-0.07600000181251451,0.0539999991814898
0,0,10.007762908935547,0,0,-0.009800000116229057,-0.14799999405106096,-0.07600000181251451,0.11500000177721047
0,0,10.017339706420898,0,0,0,0.03400000133744912,0.04500000098543482,-0.06700000028140622
0,0,10.017339706420898,0,0,0,0.03400000133744912,-0.014999999216793838,-0.06700000028140622
0,0,10.017339706420898,0,0,0,0.09500000059811649,0.04500000098543482,0.11500000177721047
0,0,10.007762908935547,0,0,-0.009800000116229057,-0.02600000053230619,-0.014999999216793838,-0.06700000028140622
-0.009576806798577309,0,10.017339706420898,0,0,0,-0.14799999405106096,-0.014999999216793838,0.11500000177721047
0,0,10.017339706420898,0,0,0,0.03400000133744912,-0.07600000181251451,-0.06700000028140622
0,0,10.017339706420898,0,0,0,-0.08700000146050021,0.10600000024610218,-0.006000000186975531
0,0,10.007762908935547,0,0,-0.009800000116229057,0.09500000059811649,-0.014999999216793838,0.0539999991814898
0,0,10.007762908935547,0,0,0,0.03400000133744912,-0.014999999216793838,0.0539999991814898
0,0,10.017339706420898,0,0,-0.009800000116229057,-0.02600000053230619,0.04500000098543482,0.0539999991814898
-0.009576806798577309,0,10.007762908935547,0,0,-0.009800000116229057,-0.02600000053230619,0.04500000098543482,-0.12799999954207358
0,0,10.007762908935547,0,0,-0.009800000116229057,-0.08700000146050021,-0.07600000181251451,-0.006000000186975531
0,0,10.007762908935547,0,0,-0.009800000116229057,0.03400000133744912,-0.014999999216793838,-0.06700000028140622
0,0,10.007762908935547,0,0,-0.009800000116229057,0.03400000133744912,-0.014999999216793838,0.0539999991814898
0,0,10.007762908935547,0,0,-0.009800000116229057,-0.08700000146050021,-0.014999999216793838,-0.06700000028140622
0,0,10.007762908935547,0,0,-0.009800000116229057,-0.02600000053230619,-0.014999999216793838,-0.006000000186975531
0,0,10.007762908935547,0,0,-0.019600000232458115,0.03400000133744912,-0.13700000107318186,0.11500000177721047
0,0,9.998186111450195,0,0,-0.019600000232458115,-0.02600000053230619,0.04500000098543482,-0.006000000186975531
0,0,9.998186111450195,0,0,-0.019600000232458115,-0.02600000053230619,-0.014999999216793838,-0.06700000028140622
0,0,10.007762908935547,0,0,-0.009800000116229057,-0.02600000053230619,-0.014999999216793838,-0.06700000028140622
0,0,10.007762908935547,0,0,-0.009800000116229057,-0.02600000053230619,0.04500000098543482,-0.006000000186975531
0,0,10.007762908935547,0,0,-0.009800000116229057,-0.02600000053230619,-0.07600000181251451,-0.006000000186975531
0,0,10.007762908935547,0,0,-0.009800000116229057,-0.02600000053230619,0.10600000024610218,0.0539999991814898
0,0,10.007762908935547,0,0,-0.009800000116229057,0.09500000059811649,-0.014999999216793838,0.0539999991814898
0,0,10.007762908935547,0,0,-0.009800000116229057,-0.08700000146050021,-0.07600000181251451,-0.12799999954207358
0,0,10.007762908935547,0,0,-0.009800000116229057,-0.02600000053230619,-0.014999999216793838,-0.006000000186975531
0,0,9.998186111450195,0,0,-0.019600000232458115,0.03400000133744912,-0.014999999216793838,-0.006000000186975531
0,0,9.998186111450195,0,0,-0.019600000232458115,0.09500000059811649,0.04500000098543482,-0.06700000028140622
0,0,9.998186111450195,0,0,-0.019600000232458115,0.03400000133744912,-0.014999999216793838,-0.006000000186975531
0,0,9.998186111450195,0,0,-0.019600000232458115,0.03400000133744912,-0.07600000181251451,-0.006000000186975531
0,0,9.988609313964844,0,0,-0.029399998486042023,0.03400000133744912,-0.07600000181251451,-0.006000000186975531
0,0,9.988609313964844,0,0,-0.029399998486042023,0.03400000133744912,-0.07600000181251451,-0.006000000186975531
0,0,10.007762908935547,0,0,-0.009800000116229057,-0.08700000146050021,-0.07600000181251451,-0.006000000186975531
0,0,10.007762908935547,0,0,-0.009800000116229057,-0.014999999216793838,0.05499999823992851,-0.06399999977103679
0,0,9.998186111450195,0,0,0,0.04500000098543482,0.05499999823992851,-0.0030000000934877653
0,0,9.988609313964844,0,0,-0.009800000116229057,-0.014999999216793838,-0.0659999978879142,-0.06399999977103679
0,0,9.998186111450195,0,0,0,0.04500000098543482,0.05499999823992851,0.057000003026912535
0,0,9.998186111450195,0,0,-0.009800000116229057,-0.07600000181251451,-0.004999999877891834,-0.0030000000934877653
0,0,9.998186111450195,0,0,0,-0.014999999216793838,-0.0659999978879142,-0.06399999977103679
0,0,9.998186111450195,0,0,0,0.04500000098543482,0.05499999823992851,-0.06399999977103679
0,0,9.998186111450195,0,0,0,0.10600000024610218,-0.12700000381868817,0.057000003026912535
0,0,9.998186111450195,0,0,0,-0.014999999216793838,0.05499999823992851,-0.06399999977103679
0,0,9.998186111450195,0,0,0,0.10600000024610218,-0.0659999978879142,0.057000003026912535
0,0,10.007762908935547,0,0,-0.009800000116229057,-0.07600000181251451,0.05499999823992851,0.057000003026912535
0,0,9.998186111450195,0,0,0.009800000116229057,-0.014999999216793838,0.17700000343136985,0.057000003026912535
0,0,10.007762908935547,0,0,0.009800000116229057,-0.014999999216793838,-0.0659999978879142,-0.0030000000934877653
0,0,9.998186111450195,0,0,0.009800000116229057,0.04500000098543482,-0.0659999978879142,-0.12499999903170415
0,0,9.988609313964844,0,0,-0.009800000116229057,-0.014999999216793838,-0.004999999877891834,0.057000003026912535
0,0,9.988609313964844,0,0,0,-0.014999999216793838,-0.004999999877891834,-0.0030000000934877653
0,0,9.988609313964844,0,0,-0.009800000116229057,-0.07600000181251451,-0.004999999877891834,0.057000003026912535
0,0,9.988609313964844,0,0,-0.009800000116229057,-0.014999999216793838,-0.004999999877891834,-0.0030000000934877653
0,0,9.988609313964844,0,0,-0.009800000116229057,0.04500000098543482,0.11599999750059588,-0.06399999977103679
0,0,9.988609313964844,0,0,-0.009800000116229057,-0.13700000107318186,0.05499999823992851,0.1180000022875799
0,0,10.007762908935547,0,0,0.009800000116229057,-0.07600000181251451,0.05499999823992851,-0.0030000000934877653
0,0,9.988609313964844,0,0,-0.009800000116229057,0.04500000098543482,-0.004999999877891834,0.1180000022875799
0,0,9.988609313964844,0,0,-0.009800000116229057,-0.014999999216793838,-0.004999999877891834,0.057000003026912535
0,0,9.998186111450195,0,0,0,0.04500000098543482,-0.0659999978879142,-0.06399999977103679
0,0,9.998186111450195,0,0,0,-0.014999999216793838,-0.004999999877891834,0.1180000022875799
0,0,9.998186111450195,0,0,0,-0.014999999216793838,-0.004999999877891834,-0.06399999977103679
0,0,10.007762908935547,0,0,0.009800000116229057,0.04500000098543482,0.05499999823992851,0.057000003026912535
0,0,9.998186111450195,0,0,0,-0.07600000181251451,-0.004999999877891834,0.057000003026912535
0,0,9.988609313964844,0,0,-0.009800000116229057,-0.014999999216793838,0.05499999823992851,-0.06399999977103679
0,0,9.988609313964844,0,0,-0.009800000116229057,0.04500000098543482,-0.004999999877891834,-0.0030000000934877653
0,0,9.988609313964844,0,0,-0.009800000116229057,-0.014999999216793838,0.05499999823992851,-0.0030000000934877653
0,0,9.998186111450195,0,0,-0.009800000116229057,-0.014999999216793838,-0.004999999877891834,-0.12499999903170415
0,0,9.998186111450195,0,0,0,-0.07600000181251451,-0.004999999877891834,-0.06399999977103679
0,0,9.998186111450195,0,0,0,0.10600000024610218,-0.0659999978879142,-0.0030000000934877653
0,0,9.998186111450195,0,0,0,0.2890000046982109,0.05499999823992851,-0.06399999977103679
0,0,9.998186111450195,0,0,0,-0.07600000181251451,0.05499999823992851,-0.06399999977103679
0,0,9.998186111450195,0,0,-0.009800000116229057,-0.07600000181251451,-0.004999999877891834,0.057000003026912535
0,0,9.988609313964844,0,0,-0.009800000116229057,0.04500000098543482,0.05499999823992851,-0.06399999977103679
0,0,9.988609313964844,0,0,-0.009800000116229057,0.10600000024610218,0.05499999823992851,-0.12499999903170415
0,0,9.988609313964844,0,0,-0.009800000116229057,-0.014999999216793838,-0.004999999877891834,0.1180000022875799
0,0,9.998186111450195,0,0,0,-0.13700000107318186,0.05499999823992851,-0.0030000000934877653
0,0,9.998186111450195,0,0,0,0.16699999283666295,0.05499999823992851,-0.06399999977103679
0,0,9.988609313964844,0,0,-0.009800000116229057,0.16699999283666295,0.05499999823992851,-0.06399999977103679
0,0,9.988609313964844,0,0,-0.009800000116229057,0.04500000098543482,-0.004999999877891834,-0.06399999977103679
0,0,9.998186111450195,0,0,0,-0.07600000181251451,-0.004999999877891834,0.057000003026912535
0,0,9.998186111450195,0,0,0,0.04500000098543482,-0.004999999877891834,-0.0030000000934877653
0,0,9.998186111450195,0,0,0,-0.014999999216793838,0.05499999823992851,0.1180000022875799
0,0,9.998186111450195,0,0,0,0.04500000098543482,-0.0659999978879142,-0.06399999977103679
0,0,9.988609313964844,0,0,-0.009800000116229057,0.10600000024610218,-0.0659999978879142,-0.0030000000934877653
0,0,9.988609313964844,0,0,0,-0.07600000181251451,-0.0659999978879142,-0.06399999977103679
0,0,9.988609313964844,0,0,0,0.04500000098543482,-0.004999999877891834,-0.0030000000934877653
0,0,9.988609313964844,0,0,0.009800000116229057,0.04500000098543482,-0.004999999877891834,-0.0030000000934877653
0,0,9.998186111450195,0,0,0.009800000116229057,-0.07600000181251451,-0.004999999877891834,0.057000003026912535
0,0,9.998186111450195,0,0,0.009800000116229057,0.04500000098543482,-0.004999999877891834,-0.0030000000934877653
0,0,9.998186111450195,0,0,0.009800000116229057,-0.07600000181251451,0.05499999823992851,-0.0030000000934877653
0,0,9.988609313964844,0,0,0,-0.07600000181251451,0.11599999750059588,-0.06399999977103679
0,0,9.988609313964844,0,0,0,-0.014999999216793838,-0.0659999978879142,-0.06399999977103679
0,0,9.988609313964844,0,0,0,0.04500000098543482,-0.0659999978879142,0.057000003026912535
0,0,9.988609313964844,0,0,0,0.04500000098543482,0.05499999823992851,-0.06399999977103679
0,0,9.988609313964844,0,0,0,0.10600000024610218,-0.004999999877891834,-0.0030000000934877653
0,0,9.988609313964844,0,0,0,0.04500000098543482,-0.0659999978879142,0.057000003026912535
0,0,9.988609313964844,0,0,0,0.04500000098543482,0.05499999823992851,-0.0030000000934877653
0,0,9.988609313964844,0,0,0,0.04500000098543482,-0.004999999877891834,-0.12499999903170415
0,0,9.988609313964844,0,0,-0.009800000116229057,0.04500000098543482,-0.0659999978879142,0.057000003026912535
0,0,9.988609313964844,0,0,-0.009800000116229057,0.04500000098543482,-0.0659999978879142,0.057000003026912535
0,0,9.988609313964844,0,0,0,0.10600000024610218,-0.004999999877891834,-0.06399999977103679
0,0,9.988609313964844,0,0,0,0.10600000024610218,-0.004999999877891834,-0.06399999977103679
0,0,9.979032516479492,0,0,0,-0.014999999216793838,-0.12700000381868817,-0.0030000000934877653
0,0,9.988609313964844,0,0,0,0.04500000098543482,-0.004999999877891834,0.057000003026912535
0,0,9.988609313964844,0,0,0,0.04500000098543482,-0.004999999877891834,0.057000003026912535
0,0,9.988609313964844,0,0,0,-0.014999999216793838,-0.004999999877891834,-0.06399999977103679
0,0,9.988609313964844,0,0,0,0.04500000098543482,-0.004999999877891834,-0.0030000000934877653
0,0,9.988609313964844,0,0,-0.009800000116229057,-0.13700000107318186,-0.0659999978879142,-0.0030000000934877653
0,0,9.979032516479492,0,0,-0.009800000116229057,-0.014999999216793838,0.05499999823992851,-0.0030000000934877653
0,0,9.979032516479492,0,0,-0.009800000116229057,-0.014999999216793838,-0.004999999877891834,-0.06399999977103679
0,0,9.979032516479492,0,0,-0.009800000116229057,-0.014999999216793838,-0.004999999877891834,-0.06399999977103679
0,0,9.998186111450195,0,0,0,0.04500000098543482,-0.004999999877891834,-0.06399999977103679
0,0,9.998186111450195,0,0,0.009800000116229057,-0.014999999216793838,-0.004999999877891834,-0.0030000000934877653
0,0,9.988609313964844,0,0,0,-0.014999999216793838,-0.004999999877891834,-0.06399999977103679
0,0,9.988609313964844,0,0,0,-0.014999999216793838,-0.004999999877891834,-0.0030000000934877653
0,0,9.988609313964844,0,0,0,0.04500000098543482,-0.004999999877891834,-0.0030000000934877653
0,0,9.988609313964844,0,0,0,0.04500000098543482,-0.004999999877891834,-0.0030000000934877653
0,0,9.988609313964844,0,0,0,-0.07600000181251451,-0.004999999877891834,-0.0030000000934877653
0,0,9.988609313964844,0,0,0,-0.014999999216793838,-0.0659999978879142,-0.06399999977103679
0,0,9.988609313964844,0,0,0,-0.014999999216793838,0.05499999823992851,-0.0030000000934877653
0,0,9.988609313964844,0,0,0,-0.07600000181251451,-0.004999999877891834,0.057000003026912535
0,0,9.988609313964844,0,0,0.009800000116229057,0.04500000098543482,-0.004999999877891834,-0.12499999903170415
0,0,9.988609313964844,0,0,0,-0.07600000181251451,-0.004999999877891834,-0.0030000000934877653
0,0,9.979032516479492,0,0,0,0.10600000024610218,-0.004999999877891834,0.057000003026912535
-0.009576806798577309,0,9.988609313964844,0,0,0.009800000116229057,-0.014999999216793838,-0.0659999978879142,-0.0030000000934877653
0,0,9.998186111450195,0,0,0.009800000116229057,0.04500000098543482,0.05499999823992851,-0.0030000000934877653
0,0,9.988609313964844,0,0,0,-0.07600000181251451,-0.004999999877891834,-0.0030000000934877653
0,0,9.988609313964844,0,0,0,0.04500000098543482,-0.004999999877891834,0.057000003026912535
0,0,9.998186111450195,0,0,0.009800000116229057,-0.014999999216793838,0.05499999823992851,-0.06399999977103679
0,0,9.998186111450195,0,0,0.009800000116229057,-0.014999999216793838,0.05499999823992851,-0.0030000000934877653
0,0,9.998186111450195,0,0,0,-0.014999999216793838,-0.0659999978879142,0.057000003026912535
0,0,9.988609313964844,0,0,0,0.2890000046982109,-0.004999999877891834,-0.06399999977103679
0,0,9.998186111450195,0,0,0,-0.07600000181251451,-0.12700000381868817,-0.0030000000934877653
0,0,9.998186111450195,0,0,0,-0.07600000181251451,0.11599999750059588,-0.0030000000934877653
0,0,9.998186111450195,0,0,0,0.04500000098543482,-0.0659999978879142,-0.0030000000934877653
0,0,9.988609313964844,0,0,-0.009800000116229057,0.04500000098543482,-0.004999999877891834,-0.0030000000934877653
0,0,9.988609313964844,0,0,-0.009800000116229057,0.04500000098543482,0.05499999823992851,-0.0030000000934877653
0,0,9.979032516479492,0,0,-0.009800000116229057,-0.014999999216793838,-0.004999999877891834,0.1180000022875799
0,0,9.988609313964844,0,0,-0.009800000116229057,0.10600000024610218,-0.0659999978879142,0.057000003026912535
0,0,9.988609313964844,0,0,-0.009800000116229057,-0.014999999216793838,-0.0659999978879142,-0.06399999977103679
0,0,9.988609313964844,0,0,-0.009800000116229057,-0.014999999216793838,-0.004999999877891834,-0.0030000000934877653
-0.019153613597154617,0,9.988609313964844,0,0,-0.009800000116229057,-0.014999999216793838,-0.0659999978879142,-0.0030000000934877653
0,0,9.979032516479492,0,0,-0.019600000232458115,-0.07600000181251451,0.05499999823992851,-0.0030000000934877653
0,0,9.979032516479492,0,0,-0.019600000232458115,-0.13700000107318186,-0.0659999978879142,-0.0030000000934877653
0,0,9.979032516479492,0,0,-0.019600000232458115,0.16699999283666295,0.11599999750059588,0.057000003026912535
0,0,9.979032516479492,0,0,-0.019600000232458115,0.04500000098543482,-0.004999999877891834,0.1180000022875799
0,0,9.979032516479492,0,0,-0.019600000232458115,-0.014999999216793838,0.05499999823992851,0.1180000022875799
0,0,9.979032516479492,0,0,-0.019600000232458115,-0.014999999216793838,0.05499999823992851,-0.0030000000934877653
0,0,9.979032516479492,0,0,-0.019600000232458115,0.10600000024610218,-0.004999999877891834,-0.0030000000934877653
0,0,9.988609313964844,0,0,-0.009800000116229057,0.04500000098543482,-0.12700000381868817,0.057000003026912535
0,0,9.988609313964844,0,0,-0.009800000116229057,0.04500000098543482,0.11599999750059588,-0.06399999977103679
0,0,9.988609313964844,0,0,-0.019600000232458115,-0.014999999216793838,-0.004999999877891834,0.1180000022875799
0,0,9.979032516479492,0,0,-0.019600000232458115,-0.014999999216793838,-0.0659999978879142,-0.0030000000934877653
0,0,9.979032516479492,0,0,-0.019600000232458115,0.04500000098543482,-0.004999999877891834,0.057000003026912535
0,0,9.988609313964844,0,0,-0.009800000116229057,-0.014999999216793838,-0.12700000381868817,-0.0030000000934877653
0,0,9.979032516479492,0,0,-0.009800000116229057,0.04500000098543482,-0.004999999877891834,0.057000003026912535
0,0,9.96945571899414,0,0,-0.009800000116229057,-0.014999999216793838,-0.0659999978879142,-0.06399999977103679
0,0,9.979032516479492,0,0,-0.019600000232458115,0.16699999283666295,0.05499999823992851,0.057000003026912535
0,0,9.979032516479492,0,0,-0.019600000232458115,0.04500000098543482,0.05499999823992851,0.057000003026912535
0,0,9.979032516479492,0,0,-0.019600000232458115,0.16699999283666295,-0.004999999877891834,-0.0030000000934877653
0,0,9.979032516479492,0,0,-0.019600000232458115,0.04500000098543482,-0.0659999978879142,-0.0030000000934877653
0,0,9.979032516479492,0,0,-0.019600000232458115,0.10600000024610218,0.05499999823992851,0.057000003026912535
0,0,9.979032516479492,0,0,-0.019600000232458115,-0.07600000181251451,-0.0659999978879142,-0.06399999977103679
0,0,9.979032516479492,0,0,-0.019600000232458115,0.2890000046982109,-0.004999999877891834,-0.06399999977103679
0,0,9.979032516479492,0,0,-0.019600000232458115,0.04500000098543482,-0.004999999877891834,0.057000003026912535
0,0,9.979032516479492,0,0,-0.009800000116229057,-0.07600000181251451,-0.004999999877891834,-0.06399999977103679
0,0,9.988609313964844,0,0,-0.009800000116229057,0.16699999283666295,0.05499999823992851,-0.0030000000934877653
0,0,9.979032516479492,0,0,-0.019600000232458115,-0.014999999216793838,-0.004999999877891834,0.057000003026912535
0,0,9.979032516479492,0,0,-0.019600000232458115,0.04500000098543482,-0.004999999877891834,-0.06399999977103679
0,0,9.979032516479492,0,0,-0.019600000232458115,-0.014999999216793838,-0.004999999877891834,-0.0030000000934877653
0,0,9.988609313964844,0,0,-0.009800000116229057,-0.014999999216793838,-0.004999999877891834,0.057000003026912535
0,0,9.988609313964844,0,0,-0.009800000116229057,-0.014999999216793838,-0.004999999877891834,0.057000003026912535
0,0,9.988609313964844,0,0,-0.009800000116229057,0.04500000098543482,0.05499999823992851,-0.0030000000934877653
0,0,9.988609313964844,0,0,-0.019600000232458115,-0.07600000181251451,-0.004999999877891834,0.057000003026912535
0,0,9.96945571899414,0,0,-0.029399998486042023,-0.014999999216793838,0.05499999823992851,-0.0030000000934877653
0,0,9.979032516479492,0,0,-0.029399998486042023,-0.014999999216793838,-0.004999999877891834,-0.06399999977103679
0,0,9.988609313964844,0,0,-0.009800000116229057,0.10600000024610218,-0.004999999877891834,0.1180000022875799
0,0,9.988609313964844,0,0,-0.009800000116229057,0.04500000098543482,0.11599999750059588,-0.0030000000934877653
0,0,9.988609313964844,0,0,-0.009800000116229057,-0.014999999216793838,-0.004999999877891834,-0.0030000000934877653
0,0,9.988609313964844,0,0,-0.009800000116229057,-0.07600000181251451,-0.004999999877891834,-0.06399999977103679
0,0,9.988609313964844,0,0,0,0.04500000098543482,-0.12700000381868817,-0.0030000000934877653
0,0,9.988609313964844,0,0,0,0.04500000098543482,0.05499999823992851,-0.06399999977103679
0,0,9.988609313964844,0,0,0.009800000116229057,-0.014999999216793838,-0.12700000381868817,-0.0030000000934877653
0,0,9.988609313964844,0,0,0.009800000116229057,0.04500000098543482,0.05499999823992851,-0.06399999977103679
0,0,9.988609313964844,0,0,0.009800000116229057,-0.13700000107318186,-0.004999999877891834,-0.0030000000934877653
0,0,9.988609313964844,0,0,0,0.10600000024610218,-0.004999999877891834,0.057000003026912535
0,0,9.988609313964844,0,0,0,0.04500000098543482,0.11599999750059588,0.057000003026912535
0,0,9.979032516479492,0,0,0,0.04500000098543482,-0.004999999877891834,-0.0030000000934877653
0,0,9.988609313964844,0,0,0,0.04500000098543482,-0.004999999877891834,-0.06399999977103679
0,0,9.988609313964844,0,0,0,0.22800001210765014,-0.004999999877891834,-0.06399999977103679
0,0,9.988609313964844,0,0,0,-0.014999999216793838,-0.24899998899980968,-0.0030000000934877653
0,0,9.988609313964844,0,0,0.009800000116229057,0.2890000046982109,0.2379999960219306,-0.06399999977103679
0,0,9.988609313964844,0,0,0.009800000116229057,0.04500000098543482,0.05499999823992851,0.057000003026912535
0,0,9.998186111450195,0,0,0,-0.07600000181251451,-0.0659999978879142,-0.06399999977103679
0,0,9.988609313964844,0,0,0,0.10600000024610218,-0.0659999978879142,-0.0030000000934877653
0,0,9.988609313964844,0,0,0,0.04500000098543482,-0.004999999877891834,-0.06399999977103679
0,0,9.988609313964844,0,0,0,0.04500000098543482,-0.004999999877891834,-0.06399999977103679
0,0,9.998186111450195,0,0,0.009800000116229057,-0.014999999216793838,0.05499999823992851,-0.0030000000934877653
0,0,9.979032516479492,0,0,-0.009800000116229057,0.04500000098543482,-0.004999999877891834,0.1180000022875799
0,0,9.988609313964844,0,0,-0.009800000116229057,0.10600000024610218,-0.004999999877891834,-0.06399999977103679
0,0,9.988609313964844,0,0,0,0.10600000024610218,-0.004999999877891834,-0.06399999977103679
0,0,9.988609313964844,0,0,0,-0.014999999216793838,0.05499999823992851,0.057000003026912535
0,0,9.988609313964844,0,0,0,-0.07600000181251451,-0.12700000381868817,0.1180000022875799
0,0,9.988609313964844,0,0,-0.009800000116229057,0.10600000024610218,0.05499999823992851,-0.0030000000934877653
0,0,9.988609313964844,0,0,0,0.04500000098543482,-0.004999999877891834,-0.0030000000934877653
0,0,9.988609313964844,0,0,0,-0.014999999216793838,0.05499999823992851,-0.06399999977103679
0,0,9.998186111450195,0,0,0.009800000116229057,-0.014999999216793838,0.11599999750059588,-0.0030000000934877653
0,0,9.998186111450195,0,0,0.009800000116229057,-0.07600000181251451,-0.12700000381868817,-0.0030000000934877653
0,0,9.988609313964844,0,0,0.009800000116229057,0.04500000098543482,0.05499999823992851,0.057000003026912535
0,0,9.988609313964844,0,0,0,0.04500000098543482,-0.004999999877891834,-0.0030000000934877653
0,0,9.988609313964844,0,0,0,-0.014999999216793838,-0.0659999978879142,-0.0030000000934877653
0,0,9.988609313964844,0,0,0,0.10600000024610218,0.05499999823992851,-0.0030000000934877653
0,0,9.988609313964844,0,0,0,-0.13700000107318186,-0.0659999978879142,-0.0030000000934877653
0,0,9.988609313964844,0,0,0,-0.07600000181251451,0.05499999823992851,0.057000003026912535
0,0,9.988609313964844,0,0,0,0.10600000024610218,-0.12700000381868817,-0.0030000000934877653
0,0,9.988609313964844,0,0,0,-0.014999999216793838,-0.004999999877891834,-0.0030000000934877653
0,0,9.988609313964844,0,0,0,-0.014999999216793838,0.05499999823992851,-0.0030000000934877653
0,0,9.988609313964844,0,0,0,0.04500000098543482,-0.0659999978879142,-0.0030000000934877653
0,0,9.988609313964844,0,0,0,-0.014999999216793838,0.05499999823992851,-0.06399999977103679
0,0,9.988609313964844,0,0,0,-0.014999999216793838,-0.004999999877891834,-0.0030000000934877653
0,0,9.979032516479492,0,0,-0.009800000116229057,-0.014999999216793838,-0.0659999978879142,-0.06399999977103679
0,0,9.988609313964844,0,0,0,0.10600000024610218,-0.004999999877891834,-0.06399999977103679
0,0,9.979032516479492,0,0,-0.009800000116229057,-0.19799999366374263,-0.0659999978879142,0.057000003026912535
0,0,9.979032516479492,0,0,-0.009800000116229057,0.3499999972887716,0.05499999823992851,-0.12499999903170415
0,0,9.979032516479492,0,0,-0.009800000116229057,0.04500000098543482,0.05499999823992851,-0.06399999977103679
0,0,9.979032516479492,0,0,0,-0.07600000181251451,-0.004999999877891834,-0.0030000000934877653
0,0,9.988609313964844,0,0,0,-0.014999999216793838,-0.0659999978879142,0.057000003026912535
0,0,9.988609313964844,0,0,0,-0.014999999216793838,-0.004999999877891834,-0.06399999977103679
0,0,9.979032516479492,0,0,0,-0.13700000107318186,-0.004999999877891834,-0.0030000000934877653
0,0,9.988609313964844,0,0,-0.009800000116229057,-0.13700000107318186,-0.004999999877891834,-0.0030000000934877653
0,0,9.988609313964844,0,0,-0.009800000116229057,0.04500000098543482,0.05499999823992851,0.057000003026912535
0,0,9.979032516479492,0,0,-0.009800000116229057,0.04500000098543482,0.05499999823992851,0.057000003026912535
0,0,9.979032516479492,0,0,-0.009800000116229057,0.10600000024610218,-0.004999999877891834,-0.0030000000934877653
0,0,9.988609313964844,0,0,0,-0.014999999216793838,-0.004999999877891834,-0.0030000000934877653
0,0,9.988609313964844,0,0,0,-0.13700000107318186,-0.0659999978879142,-0.0030000000934877653
0,0,9.988609313964844,0,0,0,0.04500000098543482,0.05499999823992851,-0.0030000000934877653
0,0,9.988609313964844,0,0,0,-0.19799999366374263,0.05499999823992851,0.057000003026912535
0,0,9.988609313964844,0,0,0,0.16699999283666295,0.11599999750059588,-0.0030000000934877653
0,0,9.988609313964844,0,0,0,-0.13700000107318186,-0.0659999978879142,0.057000003026912535
0,0,9.988609313964844,0,0,0,-0.07600000181251451,-0.0659999978879142,0.057000003026912535
0,0,9.998186111450195,0,0,0.009800000116229057,0.10600000024610218,-0.0659999978879142,-0.06399999977103679
0,0,9.988609313964844,0,0,0,0.3499999972887716,-0.004999999877891834,-0.06399999977103679
0,0,9.988609313964844,0,0,0,-0.014999999216793838,0.05499999823992851,0.057000003026912535
0,0,9.988609313964844,0,0,0,-0.014999999216793838,-0.004999999877891834,-0.0030000000934877653
0,0,9.988609313964844,0,0,0,0.04500000098543482,-0.004999999877891834,-0.0030000000934877653
0,0,9.988609313964844,0,0,0,0.10600000024610218,0.05499999823992851,0.057000003026912535
0,0,9.988609313964844,0,0,0,-0.014999999216793838,0.05499999823992851,-0.0030000000934877653
0,0,9.988609313964844,0,0,0,-0.014999999216793838,-0.0659999978879142,-0.0030000000934877653
0,0,9.988609313964844,0,0,0,0.04500000098543482,-0.004999999877891834,0.057000003026912535
0,0,9.988609313964844,0,0,0,-0.014999999216793838,-0.004999999877891834,-0.0030000000934877653
0,0,9.998186111450195,0,0,0.009800000116229057,0.04500000098543482,-0.004999999877891834,0.057000003026912535
0,0,9.988609313964844,0,0,0,-0.014999999216793838,0.05499999823992851,-0.0030000000934877653
0,0,9.988609313964844,0,0,0,0.04500000098543482,-0.0659999978879142,0.057000003026912535
0,0,9.988609313964844,0,0,0,-0.014999999216793838,0.05499999823992851,-0.12499999903170415
0,0,9.988609313964844,0,0,0,-0.07600000181251451,-0.004999999877891834,-0.0030000000934877653
0,0,9.988609313964844,0,0,0,0.16699999283666295,0.05499999823992851,0.057000003026912535
0,0,9.988609313964844,0,0,0,-0.014999999216793838,-0.0659999978879142,0.057000003026912535
0,0,9.988609313964844,0,0,0,0.04500000098543482,0.05499999823992851,0.1180000022875799
0,0,9.988609313964844,0,0,0,-0.014999999216793838,-0.0659999978879142,-0.0030000000934877653
0,0,9.988609313964844,0,0,0,-0.014999999216793838,-0.004999999877891834,0.057000003026912535
0,0,9.988609313964844,0,0,0,-0.13700000107318186,-0.12700000381868817,0.1180000022875799
0,0,9.988609313964844,0,0,0,0.04500000098543482,0.05499999823992851,0.057000003026912535
0,0,9.988609313964844,0,0,0,-0.07600000181251451,0.17700000343136985,-0.0030000000934877653
0,0,9.998186111450195,0,0,0.009800000116229057,-0.014999999216793838,0.05499999823992851,0.057000003026912535
0,0,9.998186111450195,0,0,0.009800000116229057,-0.07600000181251451,-0.004999999877891834,-0.0030000000934877653
0,0,9.998186111450195,0,0,0.009800000116229057,-0.014999999216793838,0.05499999823992851,-0.06399999977103679
0,0,9.998186111450195,0,0,0.009800000116229057,-0.014999999216793838,-0.004999999877891834,0.057000003026912535
0,0,9.998186111450195,0,0,0,0.04500000098543482,0.05499999823992851,0.057000003026912535
0,0,9.998186111450195,0,0,0.009800000116229057,-0.014999999216793838,-0.004999999877891834,-0.0030000000934877653
0,0,9.998186111450195,0,0,0.009800000116229057,0.10600000024610218,-0.12700000381868817,-0.0030000000934877653
0,0,9.998186111450195,0,0,0.009800000116229057,-0.014999999216793838,0.05499999823992851,-0.06399999977103679
0,0,9.998186111450195,0,0,0.009800000116229057,0.04500000098543482,0.05499999823992851,-0.0030000000934877653
0,0,9.998186111450195,0,0,0.009800000116229057,0.10600000024610218,0.11599999750059588,-0.12499999903170415
0,0,9.988609313964844,0,0,0,0.04500000098543482,-0.004999999877891834,-0.06399999977103679
0,0,9.988609313964844,0,0,0,0.16699999283666295,0.05499999823992851,-0.0030000000934877653
0,0,9.988609313964844,0,0,0,0.5330000017408804,0.11599999750059588,-0.18600000496247812
0,0,9.988609313964844,0,0,0,0.04500000098543482,-0.004999999877891834,0.1180000022875799
0,0,9.988609313964844,0,0,0,0.10600000024610218,0.05499999823992851,-0.12499999903170415
0,0,9.988609313964844,0,0,0,-0.13700000107318186,-0.0659999978879142,0.057000003026912535
0,0,9.988609313964844,0,0,0,-0.014999999216793838,-0.0659999978879142,-0.0030000000934877653
0,0,9.988609313964844,0,0,0,-0.014999999216793838,-0.004999999877891834,-0.06399999977103679
0,0,9.988609313964844,0,0,0,-0.07600000181251451,-0.004999999877891834,-0.0030000000934877653
0,0,9.998186111450195,0,0,0,-0.014999999216793838,-0.004999999877891834,-0.0030000000934877653
0,0,9.998186111450195,0,0,0.009800000116229057,-0.13700000107318186,-0.0659999978879142,-0.0030000000934877653
0,0,9.998186111450195,0,0,0,-0.014999999216793838,-0.12700000381868817,-0.06399999977103679
0,0,9.988609313964844,0,0,0,-0.014999999216793838,0.05499999823992851,-0.0030000000934877653
0,0,9.988609313964844,0,0,0,-0.014999999216793838,-0.004999999877891834,-0.0030000000934877653
0,0,9.998186111450195,0,0,0.009800000116229057,-0.014999999216793838,0.05499999823992851,-0.0030000000934877653
0,0,9.988609313964844,0,0,0,0.04500000098543482,0.05499999823992851,-0.0030000000934877653
0,0,9.988609313964844,0,0,0,0.04500000098543482,-0.004999999877891834,-0.0030000000934877653
0,0,9.988609313964844,0,0,0,-0.07600000181251451,0.11599999750059588,0.057000003026912535
0,0,9.988609313964844,0,0,0,-0.014999999216793838,-0.004999999877891834,-0.0030000000934877653
0,0,9.998186111450195,0,0,0,-0.07600000181251451,-0.0659999978879142,-0.0030000000934877653
0,0,9.998186111450195,0,0,0.009800000116229057,0.04500000098543482,-0.0659999978879142,-0.06399999977103679
0,0,9.998186111450195,0,0,0.009800000116229057,0.10600000024610218,-0.004999999877891834,-0.0030000000934877653
0,0,9.998186111450195,0,0,0.009800000116229057,0.10600000024610218,-0.004999999877891834,-0.0030000000934877653
0,0,9.998186111450195,0,0,0.009800000116229057,-0.07600000181251451,-0.004999999877891834,-0.0030000000934877653
0,0,9.998186111450195,0,0,0.009800000116229057,-0.13700000107318186,0.17700000343136985,0.057000003026912535
-0.009576806798577309,0,9.998186111450195,0,0,0.009800000116229057,0.04500000098543482,0.05499999823992851,-0.0030000000934877653
-0.009576806798577309,0,9.998186111450195,0,0,0.009800000116229057,0.04500000098543482,0.05499999823992851,-0.0030000000934877653
0,0,9.988609313964844,0,0,0,-0.014999999216793838,0.11599999750059588,-0.0030000000934877653
0,0,9.998186111450195,0,0,0.009800000116229057,0.10600000024610218,0.11599999750059588,-0.06399999977103679
0,0,9.998186111450195,0,0,0.009800000116229057,-0.014999999216793838,-0.0659999978879142,-0.06399999977103679
0,0,9.998186111450195,0,0,0.009800000116229057,-0.014999999216793838,-0.004999999877891834,-0.0030000000934877653
0,0,9.998186111450195,0,0,0.009800000116229057,-0.07600000181251451,0.05499999823992851,0.057000003026912535
0,0,9.998186111450195,0,0,0.009800000116229057,-0.014999999216793838,-0.0659999978879142,0.057000003026912535
0,0,9.998186111450195,0,0,0.009800000116229057,-0.014999999216793838,0.05499999823992851,-0.0030000000934877653
0,0,9.998186111450195,0,0,0.009800000116229057,0.04500000098543482,0.05499999823992851,0.057000003026912535
0,0,9.998186111450195,0,0,0.009800000116229057,-0.014999999216793838,0.05499999823992851,-0.0030000000934877653
0,0,9.998186111450195,0,0,0.009800000116229057,-0.07600000181251451,0.05499999823992851,-0.0030000000934877653
0,0,9.998186111450195,0,0,0.009800000116229057,-0.014999999216793838,-0.0659999978879142,-0.06399999977103679
0,0,9.998186111450195,0,0,0.009800000116229057,-0.014999999216793838,-0.12700000381868817,-0.0030000000934877653
0,0,9.998186111450195,0,0,0.009800000116229057,0.04500000098543482,-0.0659999978879142,-0.06399999977103679
0,0,9.998186111450195,0,0,0.009800000116229057,0.10600000024610218,0.05499999823992851,0.1180000022875799
0,0,9.998186111450195,0,0,0.009800000116229057,0.04500000098543482,-0.004999999877891834,-0.0030000000934877653
0,0,9.998186111450195,0,0,0.009800000116229057,0.10600000024610218,-0.004999999877891834,0.1180000022875799
0,0,9.988609313964844,0,0,0.009800000116229057,0.04500000098543482,0.05499999823992851,-0.06399999977103679
0,0,9.998186111450195,0,0,0.009800000116229057,-0.014999999216793838,-0.004999999877891834,0.057000003026912535
0,0,9.998186111450195,0,0,0.009800000116229057,-0.07600000181251451,-0.12700000381868817,-0.0030000000934877653
0,0,9.988609313964844,0,0,0,-0.07600000181251451,-0.004999999877891834,-0.06399999977103679
0,0,9.988609313964844,0,0,0,-0.014999999216793838,-0.004999999877891834,0.057000003026912535
0,0,9.988609313964844,0,0,0,-0.07600000181251451,-0.004999999877891834,0.1180000022875799
0,0,9.988609313964844,0,0,0,-0.07600000181251451,-0.0659999978879142,-0.0030000000934877653
0,0,9.988609313964844,0,0,0,-0.08700000146050021,-0.06700000028140622,-0.06500000216452881
0,0,9.988609313964844,0,0,0,-0.02600000053230619,-0.006000000186975531,0.05600000063342052
0,0,9.988609313964844,0,0,0,-0.02600000053230619,-0.006000000186975531,0.05600000063342052
0,0,9.988609313964844,0,0,0,-0.08700000146050021,-0.006000000186975531,-0.06500000216452881
0,0,9.988609313964844,0,0,0,-0.14799999405106096,0.0539999991814898,-0.12599999475508955
0,0,9.998186111450195,0,0,0.009800000116229057,0.03400000133744912,-0.06700000028140622,0.05600000063342052
0,0,9.988609313964844,0,0,0,-0.02600000053230619,-0.06700000028140622,0.05600000063342052
0,0,9.988609313964844,0,0,0,0.03400000133744912,-0.006000000186975531,-0.0039999999856897995
0,0,9.998186111450195,0,0,0.009800000116229057,0.09500000059811649,0.0539999991814898,-0.06500000216452881
0,0,9.998186111450195,0,0,0.009800000116229057,0.09500000059811649,0.0539999991814898,-0.0039999999856897995
0,0,9.998186111450195,0,0,0.009800000116229057,0.03400000133744912,0.0539999991814898,-0.0039999999856897995
0,0,9.998186111450195,0,0,0.009800000116229057,-0.02600000053230619,0.0539999991814898,-0.06500000216452881
0,0,9.998186111450195,0,0,0.009800000116229057,0.09500000059811649,-0.006000000186975531,-0.0039999999856897995
0,0,9.988609313964844,0,0,0,0.09500000059811649,0.0539999991814898,-0.12599999475508955
0,0,9.998186111450195,0,0,0.009800000116229057,-0.08700000146050021,-0.006000000186975531,0.05600000063342052
0,0,9.988609313964844,0,0,0,-0.02600000053230619,-0.006000000186975531,0.05600000063342052
0,0,9.988609313964844,0,0,0,-0.08700000146050021,-0.006000000186975531,-0.06500000216452881
0,0,9.988609313964844,0,0,0,0.09500000059811649,0.0539999991814898,-0.0039999999856897995
0,0,9.988609313964844,0,0,0,-0.02600000053230619,0.0539999991814898,0.05600000063342052
0,0,9.988609313964844,0,0,0,0.15599999985878385,0.0539999991814898,-0.0039999999856897995
0,0,9.988609313964844,0,0,0,0.03400000133744912,-0.06700000028140622,-0.06500000216452881
0,0,9.988609313964844,0,0,0,-0.02600000053230619,0.0539999991814898,-0.0039999999856897995
0,0,9.988609313964844,0,0,0,-0.08700000146050021,0.0539999991814898,-0.06500000216452881
0,0,9.988609313964844,0,0,0,0.3999999969014533,-0.006000000186975531,-0.0039999999856897995
0,0,9.988609313964844,0,0,0,-0.02600000053230619,-0.006000000186975531,-0.0039999999856897995
0,0,9.988609313964844,0,0,0,0.15599999985878385,-0.006000000186975531,-0.12599999475508955
0,0,9.988609313964844,0,0,0,0.03400000133744912,-0.006000000186975531,0.05600000063342052
0,0,9.988609313964844,0,0,0,-0.14799999405106096,-0.06700000028140622,0.05600000063342052
0,0,9.96945571899414,0,0,-0.009800000116229057,0.03400000133744912,0.0539999991814898,-0.0039999999856897995
0,0,9.979032516479492,0,0,-0.009800000116229057,-0.08700000146050021,-0.006000000186975531,-0.06500000216452881
0,0,9.988609313964844,0,0,0,0.03400000133744912,0.0539999991814898,0.05600000063342052
0,0,9.988609313964844,0,0,0.009800000116229057,0.03400000133744912,-0.12799999954207358,-0.06500000216452881
0,0,9.988609313964844,0,0,0,-0.02600000053230619,-0.06700000028140622,-0.0039999999856897995
0,0,9.988609313964844,0,0,0,-0.08700000146050021,-0.006000000186975531,0.11699999322398127
0,0,9.998186111450195,0,0,0,0.03400000133744912,-0.06700000028140622,-0.0039999999856897995
0,0,9.988609313964844,0,0,0,-0.08700000146050021,-0.06700000028140622,0.11699999322398127
0,0,9.988609313964844,0,0,0,0.09500000059811649,-0.006000000186975531,-0.0039999999856897995
0,0,9.988609313964844,0,0,0,0.09500000059811649,0.0539999991814898,-0.06500000216452881
0,0,9.988609313964844,0,0,0,-0.08700000146050021,-0.006000000186975531,0.05600000063342052
0,0,9.988609313964844,0,0,0,0.03400000133744912,0.0539999991814898,-0.0039999999856897995
0,0,9.988609313964844,0,0,-0.019600000232458115,-0.08700000146050021,-0.006000000186975531,-0.06500000216452881
0,0,9.979032516479492,0,0,0,0.09500000059811649,0.0539999991814898,-0.06500000216452881
0,0,9.988609313964844,0,0,0,-0.02600000053230619,-0.06700000028140622,0.05600000063342052
0,0,9.979032516479492,0,0,-0.009800000116229057,-0.02600000053230619,-0.06700000028140622,0.05600000063342052
0,0,9.979032516479492,0,0,-0.009800000116229057,-0.02600000053230619,0.0539999991814898,-0.0039999999856897995
0,0,9.988609313964844,0,0,0,0.03400000133744912,-0.06700000028140622,-0.06500000216452881
0,0,9.988609313964844,0,0,0,-0.02600000053230619,0.0539999991814898,-0.06500000216452881
0,0,9.988609313964844,0,0,0,-0.02600000053230619,-0.006000000186975531,-0.0039999999856897995
0,0,9.988609313964844,0,0,0,0.03400000133744912,-0.006000000186975531,-0.12599999475508955
0,0,9.988609313964844,0,0,0,-0.08700000146050021,-0.006000000186975531,0.05600000063342052
0,0,9.988609313964844,0,0,0,0.03400000133744912,0.0539999991814898,0.05600000063342052
0,0,9.979032516479492,0,0,-0.009800000116229057,0.03400000133744912,-0.06700000028140622,-0.0039999999856897995
0,0,9.979032516479492,0,0,-0.009800000116229057,-0.02600000053230619,0.11500000177721047,0.11699999322398127
0,0,9.988609313964844,0,0,0,-0.02600000053230619,0.11500000177721047,0.05600000063342052
0,0,9.988609313964844,0,0,0,0.09500000059811649,0.0539999991814898,-0.0039999999856897995
0,0,9.988609313964844,0,0,-0.009800000116229057,-0.02600000053230619,0.11500000177721047,-0.0039999999856897995
0,0,9.979032516479492,0,0,-0.009800000116229057,0.03400000133744912,0.0539999991814898,0.05600000063342052
0,0,9.998186111450195,0,0,-0.009800000116229057,0.03400000133744912,-0.006000000186975531,-0.0039999999856897995
0,0,9.979032516479492,0,0,-0.009800000116229057,0.2780000117203318,-0.006000000186975531,-0.0039999999856897995
0,0,9.96945571899414,0,0,-0.009800000116229057,-0.14799999405106096,0.0539999991814898,0.05600000063342052
0,0,9.979032516479492,0,0,-0.009800000116229057,0.03400000133744912,-0.12799999954207358,0.05600000063342052
0,0,9.979032516479492,0,0,-0.009800000116229057,0.03400000133744912,-0.06700000028140622,-0.0039999999856897995
0,0,9.979032516479492,0,0,-0.009800000116229057,0.03400000133744912,-0.006000000186975531,0.11699999322398127
0,0,9.979032516479492,0,0,-0.009800000116229057,-0.08700000146050021,-0.06700000028140622,-0.06500000216452881
0,0,9.979032516479492,0,0,-0.009800000116229057,-0.02600000053230619,-0.006000000186975531,0.05600000063342052
0,0,9.988609313964844,0,0,0,0.03400000133744912,0.11500000177721047,0.11699999322398127
0,0,9.988609313964844,0,0,0,-0.08700000146050021,-0.006000000186975531,-0.06500000216452881
0,0,9.988609313964844,0,0,-0.009800000116229057,-0.08700000146050021,0.0539999991814898,0.11699999322398127
0,0,9.979032516479492,0,0,-0.009800000116229057,-0.08700000146050021,-0.006000000186975531,-0.06500000216452881
0,0,9.979032516479492,0,0,-0.009800000116229057,-0.02600000053230619,-0.006000000186975531,0.11699999322398127
0,0,9.988609313964844,0,0,-0.009800000116229057,-0.08700000146050021,-0.006000000186975531,0.05600000063342052
0,0,9.988609313964844,0,0,0,-0.08700000146050021,0.0539999991814898,-0.0039999999856897995
0,0,9.988609313964844,0,0,0,0.03400000133744912,-0.006000000186975531,-0.0039999999856897995
0,0,9.988609313964844,0,0,0,0.03400000133744912,-0.006000000186975531,-0.0039999999856897995
0,0,9.988609313964844,0,0,0,-0.02600000053230619,0.0539999991814898,-0.06500000216452881
0,0,9.988609313964844,0,0,0,-0.02600000053230619,0.0539999991814898,-0.0039999999856897995
0,0,9.988609313964844,0,0,0,0.03400000133744912,0.0539999991814898,-0.06500000216452881
0,0,9.979032516479492,0,0,-0.009800000116229057,-0.08700000146050021,-0.06700000028140622,0.05600000063342052
0,0,9.979032516479492,0,0,-0.009800000116229057,0.03400000133744912,0.0539999991814898,-0.0039999999856897995
0,0,9.988609313964844,0,0,-0.009800000116229057,0.03400000133744912,-0.06700000028140622,0.05600000063342052
0,0,9.979032516479492,0,0,-0.009800000116229057,-0.14799999405106096,-0.12799999954207358,-0.0039999999856897995
0,0,9.979032516479492,0,0,-0.009800000116229057,-0.02600000053230619,0.11500000177721047,0.05600000063342052
0,0,9.96945571899414,0,0,-0.009800000116229057,0.03400000133744912,-0.006000000186975531,-0.06500000216452881
0,0,9.96945571899414,0,0,-0.019600000232458115,-0.02600000053230619,0.11500000177721047,0.05600000063342052
0,0,9.979032516479492,0,0,-0.009800000116229057,0.03400000133744912,0.0539999991814898,-0.06500000216452881
0,0,9.979032516479492,0,0,-0.009800000116229057,-0.02600000053230619,-0.006000000186975531,-0.06500000216452881
0,0,9.96945571899414,0,0,-0.019600000232458115,-0.08700000146050021,0.0539999991814898,0.05600000063342052
0,0,9.979032516479492,0,0,-0.009800000116229057,-0.02600000053230619,0.0539999991814898,0.05600000063342052
0,0,9.979032516479492,0,0,-0.009800000116229057,-0.02600000053230619,-0.006000000186975531,0.05600000063342052
0,0,9.979032516479492,0,0,-0.009800000116229057,-0.14799999405106096,-0.06700000028140622,-0.0039999999856897995
0,0,9.979032516479492,0,0,-0.009800000116229057,0.09500000059811649,-0.06700000028140622,0.05600000063342052
0,0,9.979032516479492,0,0,-0.009800000116229057,0.03400000133744912,-0.12799999954207358,-0.0039999999856897995
0,0,9.979032516479492,0,0,-0.009800000116229057,-0.14799999405106096,0.11500000177721047,-0.0039999999856897995
0,0,9.979032516479492,0,0,-0.009800000116229057,-0.02600000053230619,-0.06700000028140622,0.05600000063342052
0,0,9.979032516479492,0,0,-0.009800000116229057,0.03400000133744912,-0.006000000186975531,-0.0039999999856897995
0,0,9.979032516479492,0,0,-0.009800000116229057,0.03400000133744912,0.11500000177721047,-0.0039999999856897995
0,0,9.979032516479492,0,0,-0.009800000116229057,0.03400000133744912,-0.06700000028140622,-0.0039999999856897995
0,0,9.979032516479492,0,0,0,-0.02600000053230619,-0.006000000186975531,-0.06500000216452881
0,0,9.979032516479492,0,0,0,-0.02600000053230619,-0.006000000186975531,-0.06500000216452881
0,0,9.979032516479492,0,0,0,-0.08700000146050021,-0.006000000186975531,-0.0039999999856897995
0,0,9.979032516479492,0,0,0,-0.08700000146050021,-0.006000000186975531,-0.0039999999856897995
0,0,9.979032516479492,0,0,0,-0.02600000053230619,-0.006000000186975531,-0.0039999999856897995
0,0,9.96945571899414,0,0,0,0.09500000059811649,0.0539999991814898,-0.0039999999856897995
0,0,9.96945571899414,0,0,-0.009800000116229057,0.03400000133744912,0.0539999991814898,-0.06500000216452881
0,0,9.96945571899414,0,0,-0.009800000116229057,0.03400000133744912,0.0539999991814898,0.05600000063342052
0,0,9.979032516479492,0,0,0,-0.02600000053230619,-0.006000000186975531,0.05600000063342052
0,0,9.979032516479492,0,0,0,-0.08700000146050021,0.0539999991814898,0.05600000063342052
0,0,9.979032516479492,0,0,0,0.03400000133744912,-0.006000000186975531,-0.06500000216452881
0,0,9.988609313964844,0,0,0.009800000116229057,0.03400000133744912,0.11500000177721047,-0.0039999999856897995
0,0,9.979032516479492,0,0,0,0.03400000133744912,-0.006000000186975531,-0.0039999999856897995
0,0,9.979032516479492,0,0,0,-0.02600000053230619,-0.06700000028140622,-0.0039999999856897995
0,0,9.979032516479492,0,0,0,0.09500000059811649,0.0539999991814898,-0.0039999999856897995
0,0,9.979032516479492,0,0,0,0.03400000133744912,0.0539999991814898,0.05600000063342052
0,0,9.979032516479492,0,0,0,0.15599999985878385,-0.06700000028140622,0.05600000063342052
0,0,9.979032516479492,0,0,0,-0.02600000053230619,-0.06700000028140622,-0.06500000216452881
0,0,9.979032516479492,0,0,0,0.09500000059811649,-0.006000000186975531,0.05600000063342052
0,0,9.979032516479492,0,0,0,-0.08700000146050021,-0.06700000028140622,-0.0039999999856897995
0,0,9.979032516479492,0,0,0,0.03400000133744912,-0.006000000186975531,-0.0039999999856897995
0,0,9.979032516479492,0,0,0,-0.08700000146050021,-0.006000000186975531,-0.0039999999856897995
0,0,9.979032516479492,0,0,0,-0.02600000053230619,0.11500000177721047,0.05600000063342052
0,0,9.979032516479492,0,0,0,-0.02600000053230619,-0.006000000186975531,-0.0039999999856897995
0,0,9.979032516479492,0,0,0,0.03400000133744912,-0.006000000186975531,-0.06500000216452881
0,0,9.979032516479492,0,0,0,0.09500000059811649,-0.006000000186975531,-0.0039999999856897995
0,0,9.988609313964844,0,0,0,-0.02600000053230619,-0.006000000186975531,0.05600000063342052
0,0,9.988609313964844,0,0,0.009800000116229057,-0.08700000146050021,-0.006000000186975531,0.05600000063342052
0,0,9.979032516479492,0,0,0,-0.02600000053230619,-0.006000000186975531,0.05600000063342052
0,0,9.979032516479492,0,0,0,0.09500000059811649,-0.006000000186975531,0.05600000063342052
0,0,9.979032516479492,0,0,0,0.03400000133744912,-0.12799999954207358,-0.06500000216452881
0,0,9.979032516479492,0,0,0,-0.08700000146050021,-0.06700000028140622,-0.0039999999856897995
0,0,9.979032516479492,0,0,0,-0.20899999998183494,-0.006000000186975531,0.05600000063342052
0,0,9.979032516479492,0,0,0,-0.02600000053230619,0.11500000177721047,-0.0039999999856897995
0,0,9.979032516479492,0,0,0,0.03400000133744912,0.0539999991814898,-0.0039999999856897995
0,0,9.979032516479492,0,0,0,0.03400000133744912,-0.006000000186975531,-0.0039999999856897995
0,0,9.988609313964844,0,0,0.009800000116229057,-0.02600000053230619,0.11500000177721047,0.05600000063342052
0,0,9.988609313964844,0,0,0.009800000116229057,-0.02600000053230619,-0.006000000186975531,0.05600000063342052
0,0,9.979032516479492,0,0,0,-0.02600000053230619,-0.006000000186975531,0.05600000063342052
0,0,9.979032516479492,0,0,0,0.09500000059811649,-0.006000000186975531,-0.06500000216452881
0,0,9.979032516479492,0,0,0,0.09500000059811649,-0.006000000186975531,-0.06500000216452881
0,0,9.979032516479492,0,0,0,0.09500000059811649,0.0539999991814898,-0.0039999999856897995
0,0,9.979032516479492,0,0,0,0.09500000059811649,0.11500000177721047,-0.06500000216452881
0,0,9.979032516479492,0,0,0,-0.08700000146050021,-0.06700000028140622,-0.0039999999856897995
0,0,9.979032516479492,0,0,0,-0.2699999925723957,-0.18900000547284757,-0.0039999999856897995
0,0,9.979032516479492,0,0,0,-0.08700000146050021,0.11500000177721047,-0.0039999999856897995
0,0,9.979032516479492,0,0,0,-0.08700000146050021,-0.006000000186975531,-0.0039999999856897995
0,0,9.979032516479492,0,0,0,-0.14799999405106096,-0.06700000028140622,0.05600000063342052
0,0,9.979032516479492,0,0,0,-0.14799999405106096,-0.06700000028140622,-0.0039999999856897995
0,0,9.979032516479492,0,0,0,-0.02600000053230619,-0.06700000028140622,-0.06500000216452881
0,0,9.979032516479492,0,0,0,-0.08700000146050021,-0.006000000186975531,-0.0039999999856897995
0,0,9.979032516479492,0,0,0,-0.02600000053230619,-0.006000000186975531,-0.0039999999856897995
0,0,9.979032516479492,0,0,0,0.09500000059811649,0.0539999991814898,-0.0039999999856897995
0,0,9.988609313964844,0,0,0.009800000116229057,-0.02600000053230619,-0.006000000186975531,-0.0039999999856897995
0,0,9.988609313964844,0,0,0.009800000116229057,-0.02600000053230619,-0.06700000028140622,-0.0039999999856897995
0,0,9.979032516479492,0,0,0,0.09500000059811649,-0.006000000186975531,0.05600000063342052
0,0,9.979032516479492,0,0,0,0.03400000133744912,0.0539999991814898,-0.0039999999856897995
0,0,9.979032516479492,0,0,0,-0.02600000053230619,-0.06700000028140622,-0.06500000216452881
0,0,9.979032516479492,0,0,0,-0.02600000053230619,-0.06700000028140622,-0.06500000216452881
0,0,9.979032516479492,0,0,0,-0.02600000053230619,-0.006000000186975531,0.05600000063342052
0,0,9.979032516479492,0,0,0,0.03400000133744912,-0.006000000186975531,-0.0039999999856897995
0,0,9.979032516479492,0,0,0,0.09500000059811649,-0.06700000028140622,-0.0039999999856897995
0,0,9.979032516479492,0,0,0,-0.02600000053230619,0.0539999991814898,-0.0039999999856897995
0,0,9.979032516479492,0,0,0,0.09500000059811649,-0.006000000186975531,-0.0039999999856897995
0,0,9.979032516479492,0,0,0,0.03400000133744912,0.0539999991814898,-0.0039999999856897995
0,0,9.988609313964844,0,0,0.009800000116229057,0.03400000133744912,-0.006000000186975531,-0.12599999475508955
0,0,9.988609313964844,0,0,0.009800000116229057,0.03400000133744912,-0.006000000186975531,-0.12599999475508955
0,0,9.988609313964844,0,0,0.009800000116229057,-0.02600000053230619,-0.006000000186975531,-0.0039999999856897995
0,0,9.979032516479492,0,0,0,-0.02600000053230619,-0.06700000028140622,-0.06500000216452881
0,0,9.979032516479492,0,0,0,0.03400000133744912,-0.006000000186975531,-0.0039999999856897995
0,0,9.979032516479492,0,0,0,0.03400000133744912,-0.006000000186975531,0.05600000063342052
0,0,9.979032516479492,0,0,0,0.03400000133744912,0.11500000177721047,-0.06500000216452881
0,0,9.979032516479492,0,0,0,-0.02600000053230619,-0.18900000547284757,-0.0039999999856897995
0,0,9.979032516479492,0,0,0,-0.02600000053230619,-0.006000000186975531,-0.06500000216452881
0,0,9.979032516479492,0,0,0,-0.02600000053230619,-0.006000000186975531,0.05600000063342052
0,0,9.988609313964844,0,0,0.009800000116229057,0.03400000133744912,-0.006000000186975531,-0.0039999999856897995
0,0,9.988609313964844,0,0,0.009800000116229057,-0.02600000053230619,0.0539999991814898,-0.0039999999856897995
0,0,9.998186111450195,0,0,0.019600000232458115,0.09500000059811649,0.0539999991814898,-0.0039999999856897995
0,0,9.988609313964844,0,0,0.009800000116229057,0.09500000059811649,-0.006000000186975531,0.05600000063342052
0,0,9.988609313964844,0,0,0.009800000116229057,-0.02600000053230619,-0.006000000186975531,-0.0039999999856897995
0,0,9.979032516479492,0,0,0.009800000116229057,-0.02600000053230619,0.0539999991814898,-0.0039999999856897995
0,0,9.979032516479492,0,0,0,0.03400000133744912,-0.006000000186975531,-0.06500000216452881
0,0,9.979032516479492,0,0,0.009800000116229057,-0.02600000053230619,-0.006000000186975531,-0.0039999999856897995
0,0,9.998186111450195,0,0,0.019600000232458115,-0.14799999405106096,-0.006000000186975531,0.05600000063342052
0,0,9.988609313964844,0,0,0.009800000116229057,-0.02600000053230619,0.0539999991814898,-0.0039999999856897995
0,0,9.988609313964844,0,0,0.009800000116229057,0.03400000133744912,0.11500000177721047,-0.0039999999856897995
0,0,9.988609313964844,0,0,0.009800000116229057,0.09500000059811649,0.11500000177721047,-0.0039999999856897995
0,0,9.988609313964844,0,0,0.009800000116229057,0.09500000059811649,0.0539999991814898,-0.0039999999856897995
0,0,9.988609313964844,0,0,0.009800000116229057,0.03400000133744912,-0.006000000186975531,-0.06500000216452881
0,0,9.988609313964844,0,0,0.009800000116229057,-0.02600000053230619,-0.06700000028140622,-0.0039999999856897995
0,0,9.988609313964844,0,0,0,0.03400000133744912,-0.06700000028140622,0.05600000063342052
0,0,9.979032516479492,0,0,0,-0.02600000053230619,-0.06700000028140622,-0.0039999999856897995
0,0,9.998186111450195,0,0,0.019600000232458115,-0.08700000146050021,-0.006000000186975531,0.11699999322398127
0,0,9.998186111450195,0,0,0.009800000116229057,0.09500000059811649,-0.006000000186975531,-0.0039999999856897995
0,0,9.988609313964844,0,0,0.009800000116229057,-0.08700000146050021,-0.06700000028140622,0.11699999322398127
0,0,9.988609313964844,0,0,0.009800000116229057,0.03400000133744912,-0.006000000186975531,-0.0039999999856897995
0,0,9.988609313964844,0,0,0,-0.08700000146050021,-0.006000000186975531,-0.0039999999856897995
0,0,9.988609313964844,0,0,0,0.03400000133744912,0.0539999991814898,-0.0039999999856897995
0,0,9.988609313964844,0,0,0,0.03400000133744912,0.0539999991814898,-0.0039999999856897995
0,0,9.988609313964844,0,0,0,-0.02600000053230619,0.11500000177721047,0.05600000063342052
0,0,9.988609313964844,0,0,0,0.03400000133744912,0.11500000177721047,0.05600000063342052
0,0,9.988609313964844,0,0,0,-0.02600000053230619,-0.06700000028140622,0.05600000063342052
0,0,9.988609313964844,0,0,0,-0.08700000146050021,-0.006000000186975531,0.05600000063342052
0,0,9.998186111450195,0,0,0.009800000116229057,0.03400000133744912,-0.006000000186975531,-0.06500000216452881
0,0,9.998186111450195,0,0,0.009800000116229057,-0.02600000053230619,-0.06700000028140622,-0.06500000216452881
0,0,9.988609313964844,0,0,0,0.09500000059811649,0.0539999991814898,-0.06500000216452881
0,0,9.988609313964844,0,0,0,0.09500000059811649,0.0539999991814898,-0.06500000216452881
0,0,9.988609313964844,0,0,0,-0.08700000146050021,0.0539999991814898,-0.0039999999856897995
0,0,9.988609313964844,0,0,0,-0.02600000053230619,-0.006000000186975531,0.05600000063342052
0,0,9.988609313964844,0,0,0,-0.02600000053230619,0.11500000177721047,0.05600000063342052
0,0,9.988609313964844,0,0,0,-0.02600000053230619,0.11500000177721047,-0.0039999999856897995
0,0,9.998186111450195,0,0,0,0.03400000133744912,-0.006000000186975531,0.05600000063342052
0,0,9.988609313964844,0,0,0,-0.02600000053230619,0.11500000177721047,-0.06500000216452881
0,0,9.988609313964844,0,0,0,0.09500000059811649,-0.06700000028140622,-0.12599999475508955
0,0,9.988609313964844,0,0,0,0.15599999985878385,-0.006000000186975531,-0.06500000216452881
0,0,9.988609313964844,0,0,0.009800000116229057,-0.02600000053230619,-0.006000000186975531,-0.0039999999856897995
0,0,9.998186111450195,0,0,0.009800000116229057,-0.02600000053230619,0.0539999991814898,-0.06500000216452881
0,0,9.998186111450195,0,0,0,0.09500000059811649,0.0539999991814898,-0.0039999999856897995
-0.009576806798577309,0,9.988609313964844,0,0,0.009800000116229057,0.03400000133744912,-0.06700000028140622,-0.06500000216452881
0,0,9.998186111450195,0,0,0.009800000116229057,0.03400000133744912,-0.06700000028140622,0.05600000063342052
0,0,9.988609313964844,0,0,0,0.09500000059811649,-0.006000000186975531,-0.0039999999856897995
0,0,9.988609313964844,0,0,0.009800000116229057,-0.08700000146050021,-0.006000000186975531,-0.0039999999856897995
0,0,9.988609313964844,0,0,0,-0.20899999998183494,0.0539999991814898,-0.06500000216452881
0,0,9.988609313964844,0,0,0,-0.08700000146050021,-0.006000000186975531,-0.0039999999856897995
0,0,9.979032516479492,0,0,0,-0.39200000443394367,-0.2499999980634083,0.11699999322398127
0,0,9.988609313964844,0,0,-0.009800000116229057,0.03400000133744912,-0.006000000186975531,-0.0039999999856897995
0,0,9.988609313964844,0,0,0,-0.08700000146050021,0.17599999436777122,-0.06500000216452881
0,0,9.988609313964844,0,0,0,0.03400000133744912,-0.006000000186975531,-0.0039999999856897995
0,0,9.988609313964844,0,0,0,-0.14799999405106096,-0.006000000186975531,-0.0039999999856897995
-0.009576806798577309,0,9.988609313964844,0,0,0,-0.02600000053230619,-0.06700000028140622,-0.0039999999856897995
0,0,9.988609313964844,0,0,0,0.03400000133744912,0.0539999991814898,-0.0039999999856897995
0,0,9.988609313964844,0,0,0,-0.02600000053230619,-0.006000000186975531,-0.06500000216452881
0,0,9.988609313964844,0,0,0,0.03400000133744912,-0.006000000186975531,-0.0039999999856897995
0,0,9.998186111450195,0,0,0.009800000116229057,-0.08700000146050021,0.0539999991814898,-0.0039999999856897995
0,0,9.998186111450195,0,0,0.009800000116229057,-0.02600000053230619,0.17599999436777122,0.05600000063342052
0,0,9.998186111450195,0,0,0.009800000116229057,0.03400000133744912,-0.18900000547284757,-0.0039999999856897995
0,0,9.998186111450195,0,0,0.009800000116229057,-0.08700000146050021,0.0539999991814898,-0.0039999999856897995
0,0,9.979032516479492,0,0,-0.009800000116229057,-0.02600000053230619,-0.06700000028140622,-0.0039999999856897995
0,0,9.979032516479492,0,0,-0.009800000116229057,0.03400000133744912,0.11500000177721047,-0.0039999999856897995
0,0,9.979032516479492,0,0,-0.009800000116229057,-0.08700000146050021,-0.06700000028140622,-0.0039999999856897995
0,0,9.988609313964844,0,0,0,-0.02600000053230619,0.0539999991814898,-0.0039999999856897995
0,0,9.988609313964844,0,0,0,0.03400000133744912,0.0539999991814898,-0.0039999999856897995
0,0,9.988609313964844,0,0,0.009800000116229057,0.03400000133744912,-0.006000000186975531,0.05600000063342052
0,0,9.998186111450195,0,0,0.009800000116229057,-0.02600000053230619,-0.06700000028140622,-0.0039999999856897995
0,0,9.998186111450195,0,0,0,-0.08700000146050021,0.0539999991814898,0.11699999322398127
0,0,9.998186111450195,0,0,0,-0.02600000053230619,-0.06700000028140622,-0.06500000216452881
0,0,9.988609313964844,0,0,-0.009800000116229057,0.03400000133744912,-0.006000000186975531,-0.0039999999856897995
0,0,9.988609313964844,0,0,-0.009800000116229057,-0.08700000146050021,-0.06700000028140622,-0.0039999999856897995
0,0,9.988609313964844,0,0,-0.009800000116229057,-0.02600000053230619,-0.006000000186975531,-0.0039999999856897995
0,0,9.988609313964844,0,0,-0.009800000116229057,-0.08700000146050021,-0.006000000186975531,-0.06500000216452881
0,0,9.979032516479492,0,0,-0.009800000116229057,0.03400000133744912,-0.006000000186975531,0.05600000063342052
0,0,9.979032516479492,0,0,-0.019600000232458115,0.03400000133744912,-0.06700000028140622,0.05600000063342052
0,0,9.988609313964844,0,0,-0.009800000116229057,0.15599999985878385,-0.06700000028140622,-0.06500000216452881
0,0,9.988609313964844,0,0,-0.009800000116229057,-0.02600000053230619,-0.12799999954207358,0.05600000063342052
0,0,9.988609313964844,0,0,-0.009800000116229057,0.03400000133744912,-0.06700000028140622,-0.0039999999856897995
0,0,9.988609313964844,0,0,-0.009800000116229057,0.03400000133744912,-0.006000000186975531,0.17799999915475526
0,0,9.979032516479492,0,0,-0.019600000232458115,-0.02600000053230619,-0.006000000186975531,0.05600000063342052
-0.009576806798577309,0,9.979032516479492,0,0,-0.019600000232458115,0.03400000133744912,0.11500000177721047,-0.06500000216452881
0,0,9.988609313964844,0,0,-0.009800000116229057,0.03400000133744912,0.0539999991814898,-0.0039999999856897995
0,0,9.988609313964844,0,0,-0.009800000116229057,-0.08700000146050021,-0.006000000186975531,-0.06500000216452881
0,0,9.988609313964844,0,0,-0.009800000116229057,-0.02600000053230619,-0.006000000186975531,-0.06500000216452881
0,0,9.988609313964844,0,0,-0.009800000116229057,0.03400000133744912,-0.06700000028140622,-0.0039999999856897995
0,0,9.988609313964844,0,0,-0.009800000116229057,0.03400000133744912,-0.06700000028140622,-0.0039999999856897995
0,0,9.988609313964844,0,0,-0.009800000116229057,-0.02600000053230619,-0.006000000186975531,0.05600000063342052
0,0,9.979032516479492,0,0,-0.009800000116229057,-0.02600000053230619,-0.006000000186975531,0.05600000063342052
0,0,9.988609313964844,0,0,-0.009800000116229057,0.03400000133744912,0.0539999991814898,-0.0039999999856897995
0,0,9.988609313964844,0,0,-0.009800000116229057,-0.08700000146050021,-0.006000000186975531,-0.12599999475508955
0,0,9.988609313964844,0,0,-0.009800000116229057,-0.02600000053230619,-0.006000000186975531,0.05600000063342052
0,0,9.988609313964844,0,0,-0.009800000116229057,-0.02600000053230619,-0.006000000186975531,-0.0039999999856897995
0,0,9.988609313964844,0,0,-0.009800000116229057,-0.08700000146050021,0.0539999991814898,-0.0039999999856897995
0,0,9.988609313964844,0,0,-0.009800000116229057,0.03400000133744912,-0.12799999954207358,-0.06500000216452881
0,0,9.988609313964844,0,0,-0.009800000116229057,0.09500000059811649,0.0539999991814898,-0.0039999999856897995
0,0,9.988609313964844,0,0,-0.009800000116229057,0.03400000133744912,0.0539999991814898,-0.06500000216452881
0,0,9.988609313964844,0,0,-0.009800000116229057,0.03400000133744912,0.0539999991814898,-0.06500000216452881
0,0,9.988609313964844,0,0,-0.009800000116229057,-0.02600000053230619,0.0539999991814898,0.05600000063342052
0,0,9.988609313964844,0,0,-0.009800000116229057,0.09500000059811649,0.0539999991814898,-0.0039999999856897995
0,0,9.988609313964844,0,0,-0.009800000116229057,-0.14799999405106096,-0.06700000028140622,-0.0039999999856897995
0,0,9.988609313964844,0,0,-0.009800000116229057,0.15599999985878385,-0.06700000028140622,0.05600000063342052
0,0,9.988609313964844,0,0,-0.009800000116229057,0.09500000059811649,-0.006000000186975531,-0.0039999999856897995
0,0,9.988609313964844,0,0,-0.009800000116229057,-0.14799999405106096,-0.006000000186975531,0.05600000063342052
0,0,9.988609313964844,0,0,-0.009800000116229057,-0.02600000053230619,-0.006000000186975531,-0.0039999999856897995
0,0,9.988609313964844,0,0,-0.009800000116229057,-0.02600000053230619,-0.006000000186975531,0.05600000063342052
0,0,9.988609313964844,0,0,-0.009800000116229057,-0.02600000053230619,-0.006000000186975531,0.05600000063342052
0,0,9.979032516479492,0,0,-0.019600000232458115,0.03400000133744912,0.0539999991814898,0.05600000063342052
0,0,9.979032516479492,0,0,-0.019600000232458115,-0.02600000053230619,-0.006000000186975531,0.11699999322398127
0,0,9.979032516479492,0,0,-0.019600000232458115,-0.08700000146050021,-0.06700000028140622,-0.06500000216452881
0,0,9.979032516479492,0,0,-0.019600000232458115,-0.02600000053230619,-0.006000000186975531,0.05600000063342052
0,0,9.988609313964844,0,0,-0.009800000116229057,-0.08700000146050021,-0.006000000186975531,0.11699999322398127
