Accelerometer_Gx,Accelerometer_Gy,Accelerometer_Gz,Accelerometer_X,Accelerometer_Y,Accelerometer_Z,Gyroscope_Z,Gyroscope_X,Gyroscope_Y
-0.009576806798577309,0,9.998186111450195,0.00029999998514540493,0,0.009800000116229057,0.048000001495804245,0,0.04500000098543482
-0.009576806798577309,0,10.007762908935547,0,0,0.009800000116229057,0.048000001495804245,0,0.10600000024610218
0,0,9.998186111450195,0,0,0,-0.012000000373951061,0.12100000279794933,-0.07600000181251451
0,0,10.007762908935547,0,0,0.009800000116229057,0.048000001495804245,0,-0.014999999216793838
0,0,10.007762908935547,0,0,0.009800000116229057,0.048000001495804245,0,-0.014999999216793838
0,0,10.017339706420898,0,0,0.019600000232458115,-0.012000000373951061,0,0.04500000098543482
0,0,9.998186111450195,0,0,-0.009800000116229057,-0.07300000130214508,0,0.10600000024610218
0,0,9.998186111450195,0,0,0,0.10900000075647161,-0.12199999852133472,0.04500000098543482
0,0,10.007762908935547,0,0,0.009800000116229057,0.048000001495804245,0.05999999686717535,0.10600000024610218
0,0,10.007762908935547,0,0,-0.009800000116229057,0.048000001495804245,0.05999999686717535,0.04500000098543482
0,0,10.007762908935547,0,0,0,-0.07300000130214508,0,-0.014999999216793838
0,0,10.007762908935547,0,0,-0.009800000116229057,-0.07300000130214508,0.05999999686717535,-0.07600000181251451
0,0,9.998186111450195,0,0,0,-0.07300000130214508,0.05999999686717535,-0.07600000181251451
0,0,9.998186111450195,0,0,-0.019600000232458115,-0.012000000373951061,-0.06099999926066736,0.04500000098543482
-0.009576806798577309,0,9.998186111450195,0,0,-0.009800000116229057,0.048000001495804245,-0.12199999852133472,-0.014999999216793838
0,0,9.988609313964844,0,0,-0.009800000116229057,-0.012000000373951061,0.05999999686717535,-0.07600000181251451
0,0,9.988609313964844,0,0,-0.019600000232458115,-0.012000000373951061,0,-0.014999999216793838
0,0,9.988609313964844,0,0,-0.019600000232458115,0.10900000075647161,0.05999999686717535,0.10600000024610218
0,0,9.988609313964844,0,0,-0.009800000116229057,0.10900000075647161,0.12100000279794933,-0.07600000181251451
0,0,9.979032516479492,0,0,-0.019600000232458115,-0.012000000373951061,0,0.04500000098543482
0,0,9.998186111450195,0,0,-0.009800000116229057,0.10900000075647161,0.05999999686717535,-0.014999999216793838
0,0,9.998186111450195,0,0,-0.009800000116229057,-0.07300000130214508,0,0.10600000024610218
0,0,9.998186111450195,0,0,-0.009800000116229057,0.10900000075647161,-0.06099999926066736,-0.014999999216793838
0,0,9.998186111450195,0,0,-0.009800000116229057,-0.07300000130214508,0,-0.13700000107318186
0,0,9.988609313964844,0,0,0,-0.07300000130214508,0,0.10600000024610218
0,0,9.988609313964844,0,0,-0.019600000232458115,-0.19499999315337319,0,0.10600000024610218
0,0,9.998186111450195,0,0,-0.029399998486042023,-0.07300000130214508,0,0.04500000098543482
0,0,9.998186111450195,0,0,-0.019600000232458115,0.048000001495804245,0.05999999686717535,0.04500000098543482
0,0,9.988609313964844,0,0,-0.019600000232458115,0.10900000075647161,0.05999999686717535,-0.014999999216793838
0,0,9.988609313964844,0,0,-0.019600000232458115,0.048000001495804245,-0.06099999926066736,0.04500000098543482
0,0,9.979032516479492,0,0,-0.029399998486042023,0.048000001495804245,0.12100000279794933,-0.014999999216793838
0,0,9.998186111450195,0,0,-0.019600000232458115,0.048000001495804245,0.05999999686717535,0.04500000098543482
0,0,9.998186111450195,0,0,-0.019600000232458115,0.048000001495804245,0.05999999686717535,0.04500000098543482
0,0,9.998186111450195,0,0,-0.009800000116229057,0.10900000075647161,0.18199999538851008,-0.014999999216793838
0,0,9.988609313964844,0,0,-0.019600000232458115,-0.012000000373951061,0.05999999686717535,-0.014999999216793838
0,0,9.979032516479492,0,0,-0.019600000232458115,0.048000001495804245,0.05999999686717535,-0.07600000181251451
0,0,9.979032516479492,0,0,-0.019600000232458115,0.048000001495804245,0.05999999686717535,-0.07600000181251451
0,0,9.998186111450195,0,0,-0.029399998486042023,0.10900000075647161,0.05999999686717535,-0.014999999216793838
0,0,9.979032516479492,0,0,-0.029399998486042023,-0.012000000373951061,0,-0.014999999216793838
0,0,9.979032516479492,0,0,-0.029399998486042023,-0.012000000373951061,0,0.04500000098543482
0,0,9.979032516479492,0,0,-0.029399998486042023,-0.012000000373951061,0,0.04500000098543482
0,0,9.979032516479492,0,0,-0.029399998486042023,0.048000001495804245,0,0.10600000024610218
0,0,9.979032516479492,0,0,-0.03920000046491623,0.048000001495804245,0,0.10600000024610218
0,0,9.979032516479492,0,0,-0.029399998486042023,0.048000001495804245,0.12100000279794933,-0.014999999216793838
0,0,9.979032516479492,0,0,-0.019600000232458115,0.048000001495804245,0.12100000279794933,-0.014999999216793838
0,0,9.988609313964844,0,0,-0.019600000232458115,0.048000001495804245,0.12100000279794933,0.04500000098543482
0,0,9.959878921508789,0,0,-0.029399998486042023,0.048000001495804245,-0.06099999926066736,0.04500000098543482
0,0,9.979032516479492,0,0,-0.029399998486042023,-0.13400000056281244,0.05999999686717535,0.04500000098543482
0,0,9.979032516479492,0,0,-0.029399998486042023,-0.012000000373951061,0.05999999686717535,0.04500000098543482
0,0,9.979032516479492,0,0,-0.029399998486042023,-0.07300000130214508,-0.06099999926066736,0.04500000098543482
0,0,9.979032516479492,0,0,-0.029399998486042023,-0.13400000056281244,-0.12199999852133472,-0.014999999216793838
0,0,9.979032516479492,0,0,-0.029399998486042023,-0.012000000373951061,0.05999999686717535,0.04500000098543482
-0.009576806798577309,0,9.979032516479492,0,0,-0.029399998486042023,-0.012000000373951061,-0.06099999926066736,-0.014999999216793838
0,0,9.979032516479492,0,0,-0.029399998486042023,-0.012000000373951061,0,0.04500000098543482
0,0,9.988609313964844,0,0,-0.029399998486042023,0.048000001495804245,0.05999999686717535,-0.014999999216793838
-0.009576806798577309,-0.019153613597154617,9.96945571899414,0,0,-0.09799999743700027,-0.25599999908414717,0.30400000725005805,-0.014999999216793838
-0.009576806798577309,-0.019153613597154617,9.96945571899414,0,0,-0.09799999743700027,-0.25599999908414717,0.30400000725005805,-0.014999999216793838
0,0,9.979032516479492,0,0,-0.03920000046491623,-0.19499999315337319,0,0.04500000098543482
-0.009576806798577309,0,9.988609313964844,0,0,-0.029399998486042023,-0.012000000373951061,0,-0.014999999216793838
0,0,9.998186111450195,0,0,-0.04899999871850014,-0.25599999908414717,0,0.04500000098543482
0,0,9.988609313964844,0,0,-0.03920000046491623,-0.37800001094569513,0.12100000279794933,-0.014999999216793838
0,0,10.036493301391602,0,0,0,-0.25599999908414717,-0.06099999926066736,0.04500000098543482
-0.009576806798577309,0,9.96945571899414,0,0,0.009800000116229057,-0.25599999908414717,0.18199999538851008,-0.014999999216793838
-0.009576806798577309,0,9.96945571899414,0,0,0.03920000046491623,-0.07300000130214508,0.18199999538851008,-0.014999999216793838
0,0,9.979032516479492,0,0,-0.04899999871850014,0.16999999334703236,0,-0.014999999216793838
0,-0.009576806798577309,9.911994934082031,0,0,0.009800000116229057,-0.25599999908414717,0.30400000725005805,0.04500000098543482
0,0,9.940725326538086,0,0,-0.03920000046491623,-0.012000000373951061,0.30400000725005805,0.04500000098543482
0,0,9.988609313964844,0,0,0,-0.13400000056281244,0.36499999984061876,0.04500000098543482
0,0,9.998186111450195,0,0,0.029399998486042023,-0.07300000130214508,-0.06099999926066736,-0.014999999216793838
0,0,9.998186111450195,0,0,0.029399998486042023,-0.25599999908414717,0.12100000279794933,-0.014999999216793838
0,0,10.007762908935547,0,0,0.03920000046491623,-0.19499999315337319,-0.06099999926066736,0.10600000024610218
0,0,9.979032516479492,0,0,0.04899999871850014,0.2920000052085803,0,0.04500000098543482
0,0,9.959878921508789,0,0,0.03920000046491623,0.3529999977991411,0.12100000279794933,0.04500000098543482
0,0,9.959878921508789,0,0,-0.019600000232458115,0.3529999977991411,0.12100000279794933,0.04500000098543482
0,0,9.950302124023438,0,0,0.04899999871850014,0.23099998593759313,-0.06099999926066736,-0.07600000181251451
0,0,10.017339706420898,0,0,0.009800000116229057,-0.13400000056281244,0,0.04500000098543482
0,0,9.988609313964844,0,0,0.03920000046491623,0.048000001495804245,0.05999999686717535,0.10600000024610218
0,0,9.940725326538086,0,0,-0.03920000046491623,0.048000001495804245,0.18199999538851008,0.10600000024610218
-0.009576806798577309,0,10.007762908935547,0,0,0.03920000046491623,-0.012000000373951061,-0.1830000044521087,-0.014999999216793838
0,0,9.959878921508789,0,0,0.019600000232458115,0.048000001495804245,0.05999999686717535,-0.07600000181251451
-0.009576806798577309,0,9.988609313964844,0,0,0.019600000232458115,-0.07300000130214508,0.05999999686717535,0.04500000098543482
0,0,9.979032516479492,0,0,0.03920000046491623,-0.13400000056281244,-0.24399999704266945,0.10600000024610218
0,0,9.998186111450195,0,0,0.058799996972084045,-0.012000000373951061,0.05999999686717535,0.04500000098543482
0,0,9.988609313964844,0,0,0.058799996972084045,0.10900000075647161,0.18199999538851008,0.04500000098543482
0,0,9.998186111450195,0,0,0.04899999871850014,0.048000001495804245,0.05999999686717535,-0.014999999216793838
0,0,9.998186111450195,0,0,0.04899999871850014,-0.19499999315337319,0,0.04500000098543482
0,0,10.007762908935547,0,0,0.029399998486042023,-0.012000000373951061,0.05999999686717535,-0.014999999216793838
0,0,9.988609313964844,0,0,0.029399998486042023,-0.07300000130214508,0.12100000279794933,0.04500000098543482
0,0,9.979032516479492,0,0,0.019600000232458115,0.16999999334703236,0,0.04500000098543482
0,0,9.988609313964844,0,0,0.03920000046491623,-0.07300000130214508,0.12100000279794933,-0.07600000181251451
0,0,9.979032516479492,0,0,0.029399998486042023,-0.012000000373951061,0.05999999686717535,0.10600000024610218
0,0,9.96945571899414,0,0,0.019600000232458115,-0.07300000130214508,0,-0.07600000181251451
0,0,9.979032516479492,0,0,0.029399998486042023,-0.012000000373951061,0.05999999686717535,0.04500000098543482
0,0,9.979032516479492,0,0,0.029399998486042023,0.048000001495804245,0,0.04500000098543482
0,0,9.988609313964844,0,0,0.03920000046491623,0.048000001495804245,-0.06099999926066736,0.04500000098543482
0,0,9.96945571899414,0,0,0.019600000232458115,-0.012000000373951061,0,-0.13700000107318186
0,0,9.979032516479492,0,0,0.029399998486042023,-0.13400000056281244,0,0.04500000098543482
0,0,9.988609313964844,0,0,0.03920000046491623,-0.012000000373951061,0,-0.014999999216793838
0,0,9.988609313964844,0,0,0.03920000046491623,-0.012000000373951061,0.05999999686717535,-0.07600000181251451
0,0,9.96945571899414,0,0,0.019600000232458115,-0.07300000130214508,0,0.04500000098543482
0,0,9.979032516479492,0,0,0.029399998486042023,0.10900000075647161,-0.06099999926066736,0.04500000098543482
0,0,9.979032516479492,0,0,0.029399998486042023,0.048000001495804245,0.05999999686717535,0.04500000098543482
0,0,9.979032516479492,0,0,0.029399998486042023,-0.31699999167470794,0,0.16699999283666295
0,0,9.979032516479492,0,0,0.029399998486042023,0.10900000075647161,0.05999999686717535,0.04500000098543482
0,0,9.979032516479492,0,0,0.029399998486042023,-0.07300000130214508,0,-0.014999999216793838
0,0,9.979032516479492,0,0,0.029399998486042023,0.048000001495804245,-0.12199999852133472,-0.014999999216793838
0,0,9.979032516479492,0,0,0.029399998486042023,0.048000001495804245,0.05999999686717535,0.04500000098543482
0,0,9.979032516479492,0,0,0.029399998486042023,0.048000001495804245,-0.06099999926066736,-0.014999999216793838
0,0,9.979032516479492,0,0,0,-0.012000000373951061,0.12100000279794933,0.04500000098543482
0,0,9.979032516479492,0,0,0,0.16999999334703236,0.05999999686717535,-0.014999999216793838
0,0,9.998186111450195,0,0,0.019600000232458115,0.048000001495804245,0.05999999686717535,-0.014999999216793838
0,0,9.988609313964844,0,0,0.009800000116229057,0.10900000075647161,-0.06099999926066736,-0.014999999216793838
0,0,9.988609313964844,0,0,0.009800000116229057,-0.012000000373951061,0,-0.07600000181251451
0,0,9.998186111450195,0,0,0.009800000116229057,-0.012000000373951061,0,-0.07600000181251451
0,0,9.96945571899414,0,0,0.019600000232458115,-0.07300000130214508,0.05999999686717535,-0.014999999216793838
0,0,9.979032516479492,0,0,0.019600000232458115,-0.012000000373951061,-0.06099999926066736,0.04500000098543482
0,0,9.959878921508789,0,0,0,-0.13400000056281244,-0.06099999926066736,-0.014999999216793838
0,0,9.998186111450195,0,0,0.019600000232458115,-0.012000000373951061,0,-0.07600000181251451
0,0,9.988609313964844,0,0,0.019600000232458115,-0.012000000373951061,0,-0.014999999216793838
0,0,9.988609313964844,0,0,0.009800000116229057,0.048000001495804245,-0.06099999926066736,-0.014999999216793838
0,0,9.979032516479492,0,0,0,0.10900000075647161,0.05999999686717535,0.10600000024610218
0,0,9.988609313964844,0,0,0.009800000116229057,-0.012000000373951061,0.12100000279794933,-0.014999999216793838
0,0,9.998186111450195,0,0,0.019600000232458115,0.048000001495804245,0.05999999686717535,0.10600000024610218
0,0,9.998186111450195,0,0,0.019600000232458115,-0.012000000373951061,-0.06099999926066736,-0.13700000107318186
0,0,9.988609313964844,0,0,0.009800000116229057,-0.012000000373951061,-0.06099999926066736,0.04500000098543482
0,0,9.988609313964844,0,0,0.009800000116229057,-0.012000000373951061,0.12100000279794933,-0.014999999216793838
0,0,9.988609313964844,0,0,0.019600000232458115,-0.07300000130214508,-0.06099999926066736,-0.014999999216793838
0,0,9.988609313964844,0,0,0.009800000116229057,-0.07300000130214508,-0.06099999926066736,0.04500000098543482
0,0,9.988609313964844,0,0,0,-0.012000000373951061,0.05999999686717535,-0.014999999216793838
0,0,9.998186111450195,0,0,0.019600000232458115,0.048000001495804245,0,-0.07600000181251451
0,0,9.998186111450195,0,0,0.029399998486042023,0.048000001495804245,0.05999999686717535,-0.014999999216793838
0,0,9.998186111450195,0,0,0.019600000232458115,-0.07300000130214508,0,0.04500000098543482
0,0,9.988609313964844,0,0,0.009800000116229057,-0.07300000130214508,-0.12199999852133472,-0.014999999216793838
0,0,9.988609313964844,0,0,0.009800000116229057,-0.07300000130214508,0.05999999686717535,-0.07600000181251451
-0.009576806798577309,0,9.988609313964844,0,0,0,-0.25599999908414717,-0.06099999926066736,0.10600000024610218
0,0,9.988609313964844,0,0,0.009800000116229057,0.048000001495804245,0.18199999538851008,0.04500000098543482
0,0,9.998186111450195,0,0,0,0.048000001495804245,0.18199999538851008,0.04500000098543482
0,0,9.979032516479492,0,0,-0.019600000232458115,0.048000001495804245,0.12100000279794933,-0.07600000181251451
0,0,9.998186111450195,0,0,0.029399998486042023,0.10900000075647161,0,-0.07600000181251451
0,0,9.998186111450195,0,0,0.019600000232458115,-0.31699999167470794,0.05999999686717535,0.04500000098543482
0,0,9.988609313964844,0,0,0,-0.25599999908414717,0.05999999686717535,0.04500000098543482
0,0,9.979032516479492,0,0,0,-0.07300000130214508,-0.12199999852133472,-0.014999999216793838
0,0,9.998186111450195,0,0,0.029399998486042023,0.16999999334703236,0,0.04500000098543482
0,0,9.988609313964844,0,0,0.009800000116229057,-0.012000000373951061,0.05999999686717535,-0.014999999216793838
0,0,9.998186111450195,0,0,0.019600000232458115,-0.07300000130214508,0.05999999686717535,0.04500000098543482
0,0,9.998186111450195,0,0,0.019600000232458115,-0.07300000130214508,0,-0.014999999216793838
0,0,9.988609313964844,0,0,0.009800000116229057,-0.07300000130214508,-0.06099999926066736,-0.014999999216793838
0,0,9.998186111450195,0,0,0.019600000232458115,0.10900000075647161,0.05999999686717535,-0.014999999216793838
0,0,9.988609313964844,0,0,0.009800000116229057,-0.07300000130214508,0,-0.014999999216793838
0,0,9.988609313964844,0,0,0.009800000116229057,-0.13400000056281244,0,-0.014999999216793838
0,0,9.998186111450195,0,0,0.019600000232458115,-0.012000000373951061,0,0.10600000024610218
0,0,9.998186111450195,0,0,0.019600000232458115,0.048000001495804245,0.12100000279794933,-0.014999999216793838
0,0,9.998186111450195,0,0,0.019600000232458115,-0.07300000130214508,0.12100000279794933,0.04500000098543482
0,0,9.998186111450195,0,0,0.019600000232458115,-0.012000000373951061,0,0.04500000098543482
0,0,9.998186111450195,0,0,0,0.16999999334703236,0.05999999686717535,-0.07600000181251451
0,0,9.998186111450195,0,0,0,0.048000001495804245,-0.06099999926066736,-0.07600000181251451
0,0,9.998186111450195,0,0,0.009800000116229057,0.048000001495804245,-0.06099999926066736,-0.07600000181251451
0,0,9.998186111450195,0,0,0,-0.07300000130214508,-0.06099999926066736,0.04500000098543482
0,0,9.998186111450195,0,0,0,-0.13400000056281244,0,0.10600000024610218
0,0,9.998186111450195,0,0,0,-0.012000000373951061,0.05999999686717535,-0.014999999216793838
0,0,9.988609313964844,0,0,-0.009800000116229057,-0.012000000373951061,0.05999999686717535,-0.014999999216793838
0,0,9.988609313964844,0,0,-0.009800000116229057,0.10900000075647161,0.05999999686717535,0.04500000098543482
0,0,9.998186111450195,0,0,0,-0.07300000130214508,0.05999999686717535,-0.07600000181251451
0,0,9.998186111450195,0,0,0,-0.07300000130214508,-0.06099999926066736,0.10600000024610218
0,0,9.998186111450195,0,0,0,-0.13400000056281244,0,0.04500000098543482
0,0,9.911994934082031,0,0,-0.07840000092983246,0.10900000075647161,0.18199999538851008,0.04500000098543482
0,-0.019153613597154617,9.96945571899414,0,0,-0.019600000232458115,-0.07300000130214508,0.05999999686717535,0.10600000024610218
0,0,9.979032516479492,0,0,0.009800000116229057,-0.012000000373951061,0,-0.014999999216793838
0,0,9.96945571899414,0,0,-0.019600000232458115,-0.13400000056281244,0.12100000279794933,0.04500000098543482
0,0,9.988609313964844,0,0,0,0.10900000075647161,0,-0.014999999216793838
0,0.009576806798577309,9.988609313964844,0,0,0,-0.012000000373951061,0.05999999686717535,0.10600000024610218
0,0,9.988609313964844,0,0,-0.03920000046491623,-0.25599999908414717,0.18199999538851008,0.04500000098543482
0,0,10.036493301391602,0,0,0.019600000232458115,-0.25599999908414717,-0.12199999852133472,0.04500000098543482
0,0,10.02691650390625,0,0,0.009800000116229057,-0.19499999315337319,0.05999999686717535,-0.014999999216793838
0,0,10.017339706420898,0,0,-0.009800000116229057,-0.13400000056281244,0,-0.014999999216793838
0,0,9.988609313964844,0,0,-0.009800000116229057,-0.07300000130214508,0,-0.014999999216793838
0,0,10.007762908935547,0,0,0,0.048000001495804245,0.05999999686717535,0.04500000098543482
0,0,10.007762908935547,0,0,0,-0.012000000373951061,0,-0.014999999216793838
0,0,10.02691650390625,0,0,0.019600000232458115,0.048000001495804245,-0.06099999926066736,-0.07600000181251451
0,0,9.988609313964844,0,0,0.009800000116229057,0.048000001495804245,0.05999999686717535,0.04500000098543482
0,0,9.998186111450195,0,0,0.009800000116229057,0.048000001495804245,0,-0.07600000181251451
0,0,9.998186111450195,0,0,0.019600000232458115,-0.07300000130214508,0,0.04500000098543482
0,0,9.988609313964844,0,0,-0.009800000116229057,0.10900000075647161,0.05999999686717535,-0.014999999216793838
0,0,9.988609313964844,0,0,0,0.048000001495804245,-0.06099999926066736,-0.014999999216793838
0,0,10.017339706420898,0,0,0,0.048000001495804245,0.12100000279794933,0.04500000098543482
0,0,9.998186111450195,0,0,0,-0.012000000373951061,0.05999999686717535,-0.014999999216793838
0,0,10.007762908935547,0,0,0.009800000116229057,-0.012000000373951061,0.12100000279794933,-0.014999999216793838
-0.009576806798577309,0,10.036493301391602,0,0,0.019600000232458115,-0.13400000056281244,-0.12199999852133472,-0.014999999216793838
0,0,10.055646896362305,0,0,0.03920000046491623,-0.07300000130214508,0.05999999686717535,-0.014999999216793838
0,0,10.02691650390625,0,0,0.019600000232458115,-0.07300000130214508,0,0.04500000098543482
0,0,9.988609313964844,0,0,0,0.10900000075647161,0.12100000279794933,-0.014999999216793838
0,0,9.998186111450195,0,0,-0.019600000232458115,-0.07300000130214508,0.05999999686717535,0.10600000024610218
0,0,9.998186111450195,0,0,-0.019600000232458115,-0.012000000373951061,0,-0.07600000181251451
0,0,9.998186111450195,0,0,-0.019600000232458115,-0.07300000130214508,0.05999999686717535,-0.07600000181251451
0,0,9.998186111450195,0,0,0,-0.012000000373951061,0,-0.014999999216793838
0,0,9.988609313964844,0,0,-0.009800000116229057,0.048000001495804245,-0.06099999926066736,0.04500000098543482
0,0,9.998186111450195,0,0,-0.009800000116229057,-0.13400000056281244,0.05999999686717535,0.04500000098543482
0,0,9.998186111450195,0,0,-0.009800000116229057,0.048000001495804245,0,0.04500000098543482
0,0,9.998186111450195,0,0,0,-0.012000000373951061,0,0.04500000098543482
0,0,9.998186111450195,0,0,0,0.048000001495804245,0.05999999686717535,-0.07600000181251451
0,0,9.998186111450195,0,0,0,0.048000001495804245,0.05999999686717535,-0.07600000181251451
0,0,9.988609313964844,0,0,-0.009800000116229057,0.048000001495804245,0,0.04500000098543482
0,0,9.988609313964844,0,0,0,-0.012000000373951061,-0.06099999926066736,-0.014999999216793838
0,0,9.998186111450195,0,0,0.009800000116229057,-0.012000000373951061,0.05999999686717535,-0.014999999216793838
0,0,9.998186111450195,0,0,0.009800000116229057,-0.07300000130214508,0.05999999686717535,-0.07600000181251451
0,0,9.998186111450195,0,0,0.009800000116229057,-0.07300000130214508,-0.12199999852133472,0.04500000098543482
0,0,9.988609313964844,0,0,0,-0.07300000130214508,-0.12199999852133472,0.04500000098543482
0,0,9.998186111450195,0,0,0.009800000116229057,-0.012000000373951061,0,-0.014999999216793838
0,0,9.998186111450195,0,0,0.009800000116229057,-0.012000000373951061,0.05999999686717535,-0.07600000181251451
0,0,9.998186111450195,0,0,0.009800000116229057,-0.07300000130214508,0.05999999686717535,-0.014999999216793838
0,0,9.998186111450195,0,0,0.009800000116229057,-0.07300000130214508,0.12100000279794933,-0.014999999216793838
0,0,9.998186111450195,0,0,0.009800000116229057,-0.13400000056281244,0,0.04500000098543482
0,0,9.998186111450195,0,0,0.009800000116229057,-0.012000000373951061,0,-0.014999999216793838
0,0,9.998186111450195,0,0,0.009800000116229057,0.048000001495804245,0.05999999686717535,-0.014999999216793838
0,0,9.998186111450195,0,0,0.009800000116229057,0.048000001495804245,0.05999999686717535,0.04500000098543482
0,0,9.998186111450195,0,0,0.009800000116229057,-0.07300000130214508,0.12100000279794933,0.04500000098543482
0.019153613597154617,-0.028730420395731926,10.02691650390625,0,-0.00969999935477972,0.019600000232458115,0.048000001495804245,-0.06099999926066736,-0.014999999216793838
0.019153613597154617,-0.028730420395731926,10.02691650390625,0,-0.00969999935477972,0.019600000232458115,-0.25599999908414717,0.12100000279794933,0.04500000098543482
0,0,10.007762908935547,0,0,0.009800000116229057,-0.012000000373951061,-0.06099999926066736,0.04500000098543482
0,0,10.007762908935547,0,0,0.009800000116229057,-0.012000000373951061,-0.06099999926066736,0.04500000098543482
-0.009576806798577309,0,10.007762908935547,0,0,0.019600000232458115,0.048000001495804245,0,-0.014999999216793838
0,0,10.007762908935547,0,0,0.019600000232458115,-0.07300000130214508,0.05999999686717535,-0.13700000107318186
0,0,9.998186111450195,0,0,0,-0.13400000056281244,-0.06099999926066736,-0.014999999216793838
0,0,9.998186111450195,0,0,0.009800000116229057,-0.07300000130214508,0.05999999686717535,-0.014999999216793838
0,0,10.007762908935547,0,0,0,0.048000001495804245,0,-0.014999999216793838
0,0,9.988609313964844,0,0,0,-0.012000000373951061,0.05999999686717535,-0.07600000181251451
0,0,9.998186111450195,0,0,0.009800000116229057,-0.07300000130214508,0,-0.014999999216793838
0,0,9.988609313964844,0,0,0,-0.19499999315337319,0,-0.014999999216793838
0,0,10.007762908935547,0,0,0.009800000116229057,-0.012000000373951061,0.05999999686717535,-0.014999999216793838
0,0,9.988609313964844,0,0,0.009800000116229057,0.048000001495804245,0,0.04500000098543482
0,0,9.998186111450195,0,0,0.009800000116229057,-0.07300000130214508,0,-0.014999999216793838
0,0,9.988609313964844,0,0,0.009800000116229057,-0.012000000373951061,0,0.04500000098543482
0,0,9.988609313964844,0,0,0.009800000116229057,-0.07300000130214508,0,-0.07600000181251451
0,0,9.998186111450195,0,0,0.009800000116229057,-0.07300000130214508,0.05999999686717535,-0.07600000181251451
0,0,9.998186111450195,0,0,0,-0.07300000130214508,0,-0.014999999216793838
0,0,9.988609313964844,0,0,0.009800000116229057,-0.4999999961268166,-0.1830000044521087,0.10600000024610218
0,0,9.988609313964844,0,0,0.009800000116229057,0.4139999903897018,-0.06099999926066736,-0.07600000181251451
0,0,9.988609313964844,0,0,0.009800000116229057,0.048000001495804245,-0.12199999852133472,-0.014999999216793838
0,0,9.998186111450195,0,0,0,-0.012000000373951061,0.12100000279794933,-0.07600000181251451
0,0,9.998186111450195,0,0,0.009800000116229057,0.048000001495804245,0.05999999686717535,0.04500000098543482
0,0,9.998186111450195,0,0,0.009800000116229057,-0.07300000130214508,0,-0.014999999216793838
0,0,9.998186111450195,0,0,0.009800000116229057,-0.13400000056281244,0.12100000279794933,0.04500000098543482
0,0,9.998186111450195,0,0,0.009800000116229057,-0.012000000373951061,0,-0.07600000181251451
0,0,9.998186111450195,0,0,0.009800000116229057,-0.07300000130214508,-0.06099999926066736,-0.07600000181251451
0,0,9.998186111450195,0,0,0.009800000116229057,0.048000001495804245,0.05999999686717535,-0.014999999216793838
0,0,9.998186111450195,0,0,0.009800000116229057,-0.07300000130214508,0,0.04500000098543482
0,0,9.998186111450195,0,0,0.009800000116229057,-0.07300000130214508,0,0.04500000098543482
0,0,9.998186111450195,0,0,0.009800000116229057,-0.07300000130214508,0,0.04500000098543482
0,0,9.998186111450195,0,0,0.009800000116229057,-0.05099999867112037,-0.012000000373951061,-0.019000000453128628
0,0,9.998186111450195,0,0,0.009800000116229057,0.008999999863581633,-0.012000000373951061,-0.07999999804626934
0,0,9.988609313964844,0,0,0,-0.11200000126684104,0.10900000075647161,-0.07999999804626934
0,0,9.998186111450195,0,0,0,-0.23399998644796255,-0.012000000373951061,0.041000001416626686
0,0,9.998186111450195,0,0,0,-0.23399998644796255,0.048000001495804245,0.10199999734224074
0,0,9.998186111450195,0,0,0,0.07000000079177565,-0.012000000373951061,-0.019000000453128628
0,0,9.998186111450195,0,0,0,0.07000000079177565,-0.07300000130214508,-0.019000000453128628
0,0,9.998186111450195,0,0,0,-0.11200000126684104,-0.012000000373951061,-0.019000000453128628
0,0,9.998186111450195,0,0,0,0.008999999863581633,-0.07300000130214508,-0.019000000453128628
0,0,9.998186111450195,0,0,0,0.008999999863581633,-0.07300000130214508,-0.019000000453128628
0,0,9.998186111450195,0,0,0,0.008999999863581633,-0.07300000130214508,0.041000001416626686
0,0,9.998186111450195,0,0,0,-0.11200000126684104,-0.012000000373951061,-0.019000000453128628
0,0,9.998186111450195,0,0,0,0.008999999863581633,-0.012000000373951061,0.041000001416626686
0,0,9.998186111450195,0,0,0,0.13100000005244303,-0.012000000373951061,-0.019000000453128628
0,0,9.998186111450195,0,0,0,0.07000000079177565,0.048000001495804245,-0.019000000453128628
0,0,9.998186111450195,0,0,0,-0.05099999867112037,-0.012000000373951061,0.10199999734224074
0,0,9.96945571899414,0,0,0.058799996972084045,0.25299999857377775,-0.13400000056281244,-0.019000000453128628
0,0,9.998186111450195,0,0,0.019600000232458115,0.008999999863581633,0.048000001495804245,-0.07999999804626934
0,0,10.017339706420898,0,0,0.029399998486042023,0.13100000005244303,0.048000001495804245,0.041000001416626686
0,0,9.988609313964844,0,0,0,0.008999999863581633,-0.012000000373951061,0.041000001416626686
0,0,9.998186111450195,0,0,0.009800000116229057,0.13100000005244303,-0.07300000130214508,-0.019000000453128628
0,0,9.998186111450195,0,0,0.019600000232458115,-0.05099999867112037,-0.13400000056281244,0.041000001416626686
0,0,9.979032516479492,0,0,0,0.07000000079177565,-0.012000000373951061,0.041000001416626686
0,0,9.998186111450195,0,0,0,-0.05099999867112037,0.048000001495804245,-0.07999999804626934
0,0,9.988609313964844,0,0,0.009800000116229057,0.07000000079177565,-0.07300000130214508,0.041000001416626686
0,0,10.007762908935547,0,0,0.009800000116229057,0.13100000005244303,-0.012000000373951061,-0.019000000453128628
0,0,10.017339706420898,0,0,0,-0.11200000126684104,0.10900000075647161,-0.019000000453128628
0,0,9.979032516479492,0,0,-0.009800000116229057,-0.05099999867112037,-0.07300000130214508,-0.019000000453128628
0,0,9.988609313964844,0,0,0.019600000232458115,-0.11200000126684104,0.048000001495804245,0.041000001416626686
0,0,9.998186111450195,0,0,0.009800000116229057,0.008999999863581633,-0.07300000130214508,0.10199999734224074
0,0,9.998186111450195,0,0,0,0.07000000079177565,-0.13400000056281244,-0.07999999804626934
0,0,10.007762908935547,0,0,0.009800000116229057,-0.05099999867112037,-0.012000000373951061,0.041000001416626686
0,0,9.998186111450195,0,0,0,-0.11200000126684104,0.16999999334703236,0.041000001416626686
0,0,10.017339706420898,0,0,0,-0.11200000126684104,0.10900000075647161,0.041000001416626686
0,0,9.998186111450195,0,0,0.009800000116229057,0.13100000005244303,0.048000001495804245,-0.019000000453128628
0,0,10.007762908935547,0,0,0.009800000116229057,-0.11200000126684104,-0.012000000373951061,-0.07999999804626934
0,0,9.998186111450195,0,0,0,0.07000000079177565,0.10900000075647161,-0.14099999730693671
0,0,9.988609313964844,0,0,-0.019600000232458115,0.07000000079177565,0.048000001495804245,0.041000001416626686
0,0,9.979032516479492,0,0,-0.009800000116229057,0.008999999863581633,-0.07300000130214508,-0.019000000453128628
0,0,10.007762908935547,0,0,-0.009800000116229057,-0.11200000126684104,0.048000001495804245,-0.019000000453128628
0,0,9.998186111450195,0,0,-0.019600000232458115,0.07000000079177565,0.048000001495804245,-0.019000000453128628
0,0,10.007762908935547,0,0,-0.009800000116229057,-0.23399998644796255,-0.012000000373951061,0.10199999734224074
0,0,10.017339706420898,0,0,0,-0.11200000126684104,-0.07300000130214508,0.10199999734224074
-0.019153613597154617,0,9.998186111450195,0,0,0,0.19200000598321698,-0.012000000373951061,-0.019000000453128628
0,0,9.998186111450195,0,0,-0.009800000116229057,0.07000000079177565,0.048000001495804245,0.041000001416626686
0,0,9.988609313964844,0,0,-0.019600000232458115,-0.05099999867112037,-0.012000000373951061,0.10199999734224074
0,0,9.998186111450195,0,0,-0.019600000232458115,-0.11200000126684104,0.048000001495804245,-0.07999999804626934
0,0,10.007762908935547,0,0,0,-0.05099999867112037,-0.012000000373951061,0.041000001416626686
-0.009576806798577309,0,10.007762908935547,0,0,0.009800000116229057,0.13100000005244303,0.10900000075647161,-0.14099999730693671
0,0,10.02691650390625,0,0,0.04899999871850014,0.07000000079177565,-0.13400000056281244,-0.019000000453128628
0,0,10.007762908935547,0,0,0.029399998486042023,-0.05099999867112037,-0.012000000373951061,-0.019000000453128628
0,0,9.988609313964844,0,0,-0.009800000116229057,0.008999999863581633,0.048000001495804245,-0.019000000453128628
0,0,9.988609313964844,0,0,0,-0.05099999867112037,0.048000001495804245,-0.019000000453128628
0,0,10.007762908935547,0,0,0,0.07000000079177565,-0.012000000373951061,-0.019000000453128628
0,0,10.017339706420898,0,0,0.009800000116229057,-0.05099999867112037,-0.07300000130214508,0.041000001416626686
0,0,10.017339706420898,0,0,0.009800000116229057,0.008999999863581633,0.10900000075647161,-0.019000000453128628
0,0,10.007762908935547,0,0,0,0.008999999863581633,0.048000001495804245,0.041000001416626686
0,0,10.007762908935547,0,0,0,0.07000000079177565,0.048000001495804245,0.041000001416626686
0,0,9.998186111450195,0,0,-0.009800000116229057,0.07000000079177565,0.048000001495804245,-0.019000000453128628
0,0,10.007762908935547,0,0,0,-0.05099999867112037,0.048000001495804245,0.041000001416626686
0,0,9.988609313964844,0,0,-0.009800000116229057,0.07000000079177565,0.048000001495804245,0.041000001416626686
0,0,9.998186111450195,0,0,-0.009800000116229057,0.008999999863581633,-0.012000000373951061,-0.019000000453128628
0,0,10.007762908935547,0,0,0,0.008999999863581633,0.10900000075647161,-0.019000000453128628
0,0,9.998186111450195,0,0,-0.009800000116229057,-0.11200000126684104,-0.012000000373951061,0.041000001416626686
0,0,9.998186111450195,0,0,-0.009800000116229057,-0.05099999867112037,-0.012000000373951061,0.041000001416626686
0,0,10.007762908935547,0,0,0,-0.05099999867112037,-0.012000000373951061,-0.019000000453128628
0,0,10.007762908935547,0,0,0,0.008999999863581633,0.10900000075647161,-0.019000000453128628
0,0,10.007762908935547,0,0,0,-0.11200000126684104,0.10900000075647161,-0.019000000453128628
0,0,10.007762908935547,0,0,0,-0.05099999867112037,-0.012000000373951061,-0.019000000453128628
0,0,10.007762908935547,0,0,0,0.008999999863581633,-0.012000000373951061,-0.019000000453128628
0,0,10.007762908935547,0,0,-0.009800000116229057,0.13100000005244303,-0.012000000373951061,0.10199999734224074
0,0,10.007762908935547,0,0,0,0.07000000079177565,-0.012000000373951061,-0.07999999804626934
0,0,10.007762908935547,0,0,0,0.008999999863581633,-0.012000000373951061,0.10199999734224074
0,0,10.007762908935547,0,0,0,0.07000000079177565,0.048000001495804245,-0.07999999804626934
-0.028730420395731926,0.009576806798577309,10.036493301391602,0,0,0,0.008999999863581633,-0.012000000373951061,0.041000001416626686
-0.009576806798577309,-0.009576806798577309,9.998186111450195,0,0,-0.019600000232458115,-0.11200000126684104,-0.13400000056281244,-0.019000000453128628
0,0,9.988609313964844,0,0,-0.019600000232458115,0.07000000079177565,0.048000001495804245,-0.14099999730693671
0,0,10.007762908935547,0,0,-0.019600000232458115,-0.1729999938574018,0.048000001495804245,-0.019000000453128628
0,0,9.998186111450195,0,0,-0.009800000116229057,-0.05099999867112037,-0.012000000373951061,0.041000001416626686
0,0,10.007762908935547,0,0,0,0.07000000079177565,-0.012000000373951061,-0.07999999804626934
0,0,10.007762908935547,0,0,-0.009800000116229057,0.07000000079177565,0.048000001495804245,-0.07999999804626934
0,0,10.007762908935547,0,0,0,0.07000000079177565,-0.012000000373951061,0.041000001416626686
0,0,9.998186111450195,0,0,0.009800000116229057,0.19200000598321698,0.048000001495804245,-0.019000000453128628
0,0,10.007762908935547,0,0,0,0.008999999863581633,0.048000001495804245,-0.07999999804626934
0,0,10.007762908935547,0,0,-0.009800000116229057,0.008999999863581633,0.16999999334703236,-0.07999999804626934
0,0,9.998186111450195,0,0,0,0.07000000079177565,0.10900000075647161,0.041000001416626686
0,0,9.998186111450195,0,0,-0.009800000116229057,0.008999999863581633,-0.07300000130214508,-0.019000000453128628
0,0,10.007762908935547,0,0,0,0.07000000079177565,0.048000001495804245,-0.019000000453128628
0,0,10.007762908935547,0,0,-0.009800000116229057,0.008999999863581633,0.048000001495804245,-0.019000000453128628
-0.009576806798577309,0,10.007762908935547,0,0,-0.009800000116229057,-0.05099999867112037,-0.07300000130214508,-0.019000000453128628
0,0,10.007762908935547,0,0,-0.009800000116229057,0.07000000079177565,-0.13400000056281244,0.041000001416626686
0,0,9.988609313964844,0,0,-0.019600000232458115,0.13100000005244303,0.048000001495804245,-0.07999999804626934
0,0,10.007762908935547,0,0,-0.009800000116229057,0.008999999863581633,-0.13400000056281244,-0.019000000453128628
0,0,10.017339706420898,0,0,0,-0.05099999867112037,-0.13400000056281244,0.041000001416626686
0,0,10.017339706420898,0,0,0,-0.11200000126684104,-0.012000000373951061,0.041000001416626686
0,0,9.998186111450195,0,0,-0.009800000116229057,0.07000000079177565,-0.012000000373951061,-0.019000000453128628
-0.009576806798577309,0,9.998186111450195,0,0,0,0.07000000079177565,-0.012000000373951061,-0.019000000453128628
0,0,10.02691650390625,0,0,-0.009800000116229057,-0.11200000126684104,-0.07300000130214508,-0.07999999804626934
0,0,10.007762908935547,0,0,0,0.008999999863581633,-0.07300000130214508,-0.07999999804626934
0,0,9.998186111450195,0,0,-0.009800000116229057,0.008999999863581633,-0.07300000130214508,-0.07999999804626934
0,0,10.007762908935547,0,0,0,-0.05099999867112037,0.048000001495804245,0.10199999734224074
0,0,10.007762908935547,0,0,0,-0.05099999867112037,-0.13400000056281244,0.041000001416626686
0,0,10.007762908935547,0,0,0,-0.05099999867112037,-0.012000000373951061,0.041000001416626686
0,0,9.998186111450195,0,0,0,-0.11200000126684104,-0.07300000130214508,-0.019000000453128628
0,0,9.998186111450195,0,0,-0.009800000116229057,0.07000000079177565,-0.012000000373951061,-0.019000000453128628
0,0,9.998186111450195,0,0,0,0.13100000005244303,-0.07300000130214508,0.041000001416626686
0,0,10.007762908935547,0,0,-0.009800000116229057,-0.05099999867112037,-0.07300000130214508,0.041000001416626686
0,0,9.998186111450195,0,0,-0.019600000232458115,-0.11200000126684104,0.048000001495804245,-0.019000000453128628
0,0,9.998186111450195,0,0,-0.009800000116229057,0.13100000005244303,-0.012000000373951061,-0.07999999804626934
0,0,9.998186111450195,0,0,-0.009800000116229057,0.07000000079177565,-0.012000000373951061,-0.019000000453128628
0,0,9.998186111450195,0,0,-0.009800000116229057,-0.1729999938574018,-0.07300000130214508,0.041000001416626686
0,0,10.007762908935547,0,0,0,-0.05099999867112037,-0.012000000373951061,-0.14099999730693671
0,0,10.007762908935547,0,0,0,0.19200000598321698,-0.012000000373951061,-0.07999999804626934
0,0,9.998186111450195,0,0,-0.009800000116229057,0.4969999956164472,0.048000001495804245,-0.14099999730693671
0,0,10.007762908935547,0,0,0,0.07000000079177565,0.048000001495804245,-0.019000000453128628
0,0,10.007762908935547,0,0,0,0.008999999863581633,0.048000001495804245,-0.019000000453128628
0,0,10.007762908935547,0,0,0,0.13100000005244303,0.10900000075647161,-0.019000000453128628
0,0,10.007762908935547,0,0,0,0.07000000079177565,0.048000001495804245,0.041000001416626686
0,0,10.007762908935547,0,0,0,0.008999999863581633,-0.012000000373951061,-0.14099999730693671
0,0,10.007762908935547,0,0,0,-0.05099999867112037,0.048000001495804245,-0.019000000453128628
0,0,10.007762908935547,0,0,0,0.008999999863581633,-0.012000000373951061,0.041000001416626686
0,0,10.007762908935547,0,0,0,-0.11200000126684104,-0.012000000373951061,-0.019000000453128628
0.028730420395731926,0,9.921571731567383,0.009099999442696571,0,-0.08819999545812607,-0.11200000126684104,0.3529999977991411,0.041000001416626686
0,0,9.988609313964844,-0.0005999999702908099,0,-0.019600000232458115,-0.05099999867112037,-0.012000000373951061,-0.07999999804626934
0,0,9.998186111450195,-0.0005999999702908099,0,-0.009800000116229057,-0.05099999867112037,0.10900000075647161,-0.019000000453128628
0,0,9.998186111450195,-0.0004999999655410647,0,0.029399998486042023,0.008999999863581633,-0.07300000130214508,0.041000001416626686
-0.009576806798577309,0,9.988609313964844,-0.0004999999655410647,0,0.029399998486042023,-0.05099999867112037,-0.012000000373951061,0.041000001416626686
0,0,9.998186111450195,-0.0004999999655410647,0,0,0.19200000598321698,-0.012000000373951061,0.041000001416626686
0,0,10.017339706420898,-0.0004999999655410647,0,0.03920000046491623,0.19200000598321698,0.048000001495804245,0.041000001416626686
0,0,9.998186111450195,-0.0004999999655410647,0,0,0.13100000005244303,0.048000001495804245,-0.07999999804626934
-0.009576806798577309,0,10.017339706420898,-0.0004999999655410647,0,0.029399998486042023,-0.11200000126684104,-0.07300000130214508,-0.019000000453128628
0,0,10.036493301391602,-0.00039999998989515007,0,0.019600000232458115,0.07000000079177565,-0.012000000373951061,-0.07999999804626934
0,0,10.046070098876953,-0.00039999998989515007,0,-0.009800000116229057,-0.23399998644796255,0.16999999334703236,0.041000001416626686
0,0,10.036493301391602,-0.00039999998989515007,0,0,-0.1729999938574018,0.048000001495804245,0.10199999734224074
0,0,10.036493301391602,-0.00039999998989515007,0,0.029399998486042023,0.008999999863581633,-0.19499999315337319,-0.019000000453128628
0,0,10.017339706420898,-0.00039999998989515007,0,-0.029399998486042023,-0.11200000126684104,-0.07300000130214508,0.041000001416626686
0,0,10.017339706420898,-0.00039999998989515007,0,-0.019600000232458115,-0.29500000571894974,0.10900000075647161,-0.019000000453128628
0,0,9.988609313964844,-0.00029999998514540493,0,-0.009800000116229057,-0.11200000126684104,0.23099998593759313,-0.019000000453128628
0,0,9.979032516479492,-0.00029999998514540493,0,-0.019600000232458115,0.008999999863581633,0.048000001495804245,-0.019000000453128628
0,0,9.998186111450195,-0.00029999998514540493,0,0.029399998486042023,0.13100000005244303,-0.07300000130214508,-0.019000000453128628
0,0,9.998186111450195,-0.00029999998514540493,0,0.009800000116229057,0.19200000598321698,-0.012000000373951061,0.041000001416626686
0,0,10.007762908935547,-0.00029999998514540493,0,0.009800000116229057,0.008999999863581633,-0.012000000373951061,0.041000001416626686
0,0,10.007762908935547,-0.00029999998514540493,0,-0.009800000116229057,0.07000000079177565,0.10900000075647161,0.041000001416626686
0,0,10.007762908935547,-0.00029999998514540493,0,-0.019600000232458115,-0.11200000126684104,0.048000001495804245,0.041000001416626686
0,0,10.007762908935547,-0.00029999998514540493,0,0.019600000232458115,0.07000000079177565,0.048000001495804245,0.041000001416626686
0,0,9.998186111450195,-0.00019999999494757503,0,0.009800000116229057,0.13100000005244303,0.048000001495804245,-0.07999999804626934
0,0,9.979032516479492,-0.00019999999494757503,0,-0.058799996972084045,0.13100000005244303,-0.13400000056281244,0.10199999734224074
0,0,9.979032516479492,-0.00019999999494757503,0,0.009800000116229057,0.3139999911643385,-0.012000000373951061,-0.019000000453128628
0,0,9.998186111450195,-0.00019999999494757503,0,0.029399998486042023,-0.05099999867112037,0.048000001495804245,0.10199999734224074
0,0,9.979032516479492,-0.00019999999494757503,0,0.009800000116229057,-0.11200000126684104,-0.07300000130214508,-0.019000000453128628
0,0,10.007762908935547,-0.00019999999494757503,0,0.029399998486042023,-0.1729999938574018,0.10900000075647161,0.041000001416626686
0,0,9.998186111450195,-0.00019999999494757503,0,0.029399998486042023,0.13100000005244303,-0.07300000130214508,0.041000001416626686
0,0,9.988609313964844,-0.00019999999494757503,0,0.03920000046491623,-0.11200000126684104,0.048000001495804245,-0.019000000453128628
0,0,9.96945571899414,-0.00019999999494757503,0,0.029399998486042023,0.07000000079177565,0.048000001495804245,0.041000001416626686
0,0,9.959878921508789,-0.00009999999747378752,0,0.029399998486042023,0.07000000079177565,-0.012000000373951061,-0.14099999730693671
0,0,10.007762908935547,-0.00009999999747378752,0,0.058799996972084045,-0.05099999867112037,-0.012000000373951061,-0.019000000453128628
0,0,9.979032516479492,-0.00009999999747378752,0,0.03920000046491623,0.008999999863581633,0.048000001495804245,0.041000001416626686
0,0,9.998186111450195,-0.00009999999747378752,0,0.03920000046491623,0.07000000079177565,0.048000001495804245,-0.019000000453128628
0,0,10.017339706420898,-0.00009999999747378752,0,0.058799996972084045,0.13100000005244303,-0.012000000373951061,-0.07999999804626934
0,0,9.998186111450195,-0.00009999999747378752,0,0.04899999871850014,0.008999999863581633,-0.07300000130214508,-0.019000000453128628
0,0,9.979032516479492,-0.00009999999747378752,0,0.03920000046491623,0.13100000005244303,0.048000001495804245,-0.07999999804626934
0,0,9.988609313964844,-0.00009999999747378752,0,0.029399998486042023,-0.05099999867112037,-0.012000000373951061,0.041000001416626686
0,0,9.998186111450195,-0.00009999999747378752,0,0.03920000046491623,0.07000000079177565,-0.012000000373951061,-0.019000000453128628
0,0,10.007762908935547,-0.00009999999747378752,0,0.04899999871850014,0.008999999863581633,0.048000001495804245,-0.019000000453128628
0,0,10.007762908935547,-0.00009999999747378752,0,0.04899999871850014,0.008999999863581633,0.048000001495804245,0.041000001416626686
0,0,9.998186111450195,-0.00009999999747378752,0,0.03920000046491623,-0.05099999867112037,0.10900000075647161,0.041000001416626686
0,0,9.998186111450195,-0.00009999999747378752,0,0.03920000046491623,-0.05099999867112037,-0.012000000373951061,0.10199999734224074
0,0,9.988609313964844,-0.00009999999747378752,0,0.029399998486042023,0.07000000079177565,-0.07300000130214508,0.041000001416626686
0,0,9.998186111450195,-0.00009999999747378752,0,0.03920000046491623,-0.05099999867112037,0.048000001495804245,-0.019000000453128628
0,0,10.007762908935547,-0.00009999999747378752,0,0.04899999871850014,0.008999999863581633,-0.012000000373951061,0.041000001416626686
0,0,10.007762908935547,-0.00009999999747378752,0,0.04899999871850014,-0.05099999867112037,-0.07300000130214508,-0.019000000453128628
0,0,10.007762908935547,-0.00009999999747378752,0,0.04899999871850014,0.07000000079177565,0.10900000075647161,0.041000001416626686
0,0,9.998186111450195,-0.00009999999747378752,0,0.03920000046491623,0.008999999863581633,-0.07300000130214508,-0.019000000453128628
0,0,9.998186111450195,0,0,0.03920000046491623,0.008999999863581633,0.10900000075647161,-0.019000000453128628
0,0,9.998186111450195,0,0,0.03920000046491623,-0.05099999867112037,0.10900000075647161,0.041000001416626686
0,0,10.007762908935547,0,0,0.03920000046491623,0.07000000079177565,-0.012000000373951061,-0.07999999804626934
0,0,10.007762908935547,0,0,0.04899999871850014,-0.05099999867112037,0.048000001495804245,0.041000001416626686
0,0,10.007762908935547,0,0,0.04899999871850014,0.07000000079177565,0.048000001495804245,0.041000001416626686
0,0,10.007762908935547,0,0,0.04899999871850014,0.008999999863581633,0.10900000075647161,-0.019000000453128628
0,0,10.007762908935547,0,0,0.04899999871850014,-0.05099999867112037,0.048000001495804245,-0.14099999730693671
0,0,10.007762908935547,0,0,0.04899999871850014,0.008999999863581633,-0.07300000130214508,-0.019000000453128628
0,0,9.998186111450195,0,0,0.03920000046491623,0.13100000005244303,-0.012000000373951061,0.041000001416626686
0,0,9.998186111450195,0,0,0.03920000046491623,-0.1729999938574018,0.048000001495804245,0.041000001416626686
0,0,9.998186111450195,0,0,0.03920000046491623,0.07000000079177565,0.10900000075647161,-0.019000000453128628
0,0,9.998186111450195,0,0,0.03920000046491623,-0.11200000126684104,-0.012000000373951061,-0.019000000453128628
0,0,9.998186111450195,0,0,0.03920000046491623,-0.05099999867112037,0.048000001495804245,-0.019000000453128628
0,0,9.998186111450195,0,0,0.03920000046491623,-0.05099999867112037,-0.012000000373951061,-0.019000000453128628
0,0,10.02691650390625,0,0,0.04899999871850014,0.07000000079177565,-0.012000000373951061,-0.019000000453128628
0,0,9.998186111450195,0,0,0.04899999871850014,-0.11200000126684104,-0.012000000373951061,-0.07999999804626934
0,0,10.007762908935547,0,0,0.029399998486042023,-0.05099999867112037,-0.07300000130214508,0.10199999734224074
-0.009576806798577309,0,9.998186111450195,0,0,0.03920000046491623,0.008999999863581633,-0.07300000130214508,0.041000001416626686
-0.009576806798577309,0,9.998186111450195,0,0,0.03920000046491623,-0.05099999867112037,-0.012000000373951061,0.041000001416626686
0,-0.009576806798577309,9.988609313964844,-0.018299998715519905,0,0.019600000232458115,-0.05099999867112037,-0.07300000130214508,-0.07999999804626934
0,0,10.02691650390625,0.0013000000035390258,0,0.029399998486042023,0.008999999863581633,-0.012000000373951061,-0.019000000453128628
0,0,10.017339706420898,0.0011999999405816197,0,0,0.008999999863581633,0.048000001495804245,0.10199999734224074
0,0,9.998186111450195,0.0011999999405816197,0,0.009800000116229057,-0.1729999938574018,-0.012000000373951061,0.041000001416626686
0,0,9.998186111450195,0.0010999999940395355,0,0,0.008999999863581633,-0.012000000373951061,0.041000001416626686
-0.009576806798577309,0,10.007762908935547,0.0010999999940395355,0,-0.009800000116229057,-0.05099999867112037,0.048000001495804245,0.041000001416626686
0,0,9.988609313964844,0.0009999999310821295,0,-0.009800000116229057,0.008999999863581633,0.048000001495804245,-0.07999999804626934
0,0,9.998186111450195,0.0009999999310821295,0,0,0.008999999863581633,0.10900000075647161,0.10199999734224074
0,0,9.998186111450195,0.0008999999845400453,0,0,0.008999999863581633,0.10900000075647161,0.10199999734224074
0,0,9.998186111450195,0.0008999999845400453,0,0,-0.11200000126684104,0.048000001495804245,-0.019000000453128628
0,0,10.007762908935547,0.0008999999845400453,0,0.009800000116229057,0.008999999863581633,-0.07300000130214508,0.041000001416626686
0,0,10.007762908935547,0.0008999999845400453,0,0.009800000116229057,-0.05099999867112037,0.048000001495804245,0.041000001416626686
0,0,10.017339706420898,0.0007999999797903001,0,0.009800000116229057,-0.11200000126684104,-0.012000000373951061,0.041000001416626686
0,0,10.007762908935547,0.0007999999797903001,0,0,-0.05099999867112037,-0.07300000130214508,-0.019000000453128628
0,0,10.007762908935547,0.000699999975040555,0,0.009800000116229057,0.07000000079177565,0.048000001495804245,-0.019000000453128628
0,0,9.998186111450195,0.000699999975040555,0,0,0.008999999863581633,-0.07300000130214508,0.1629999966029081
0,0,10.007762908935547,0.000699999975040555,0,0.019600000232458115,-0.05099999867112037,0.10900000075647161,0.10199999734224074
0,0,9.998186111450195,0.000699999975040555,0,0.009800000116229057,-0.1729999938574018,-0.07300000130214508,-0.07999999804626934
0,0,9.998186111450195,0.0005999999702908099,0,0,-0.11200000126684104,-0.012000000373951061,-0.019000000453128628
0,0,10.007762908935547,0.0005999999702908099,0,0.009800000116229057,-0.05099999867112037,-0.012000000373951061,-0.019000000453128628
0,0,10.007762908935547,0.0005999999702908099,0,0.009800000116229057,0.008999999863581633,0.10900000075647161,-0.019000000453128628
0,0,9.998186111450195,0.0005999999702908099,0,0,-0.05099999867112037,0.048000001495804245,0.041000001416626686
0,0,10.007762908935547,0.0005999999702908099,0,0,-0.11200000126684104,0.10900000075647161,0.041000001416626686
0,0,9.998186111450195,0.0005999999702908099,0,0,0.008999999863581633,-0.012000000373951061,-0.019000000453128628
0,0,9.998186111450195,0.0004999999655410647,0,0,0.008999999863581633,0.048000001495804245,0.041000001416626686
-0.009576806798577309,0,10.007762908935547,-0.009200000204145908,0,0.009800000116229057,-0.05099999867112037,-0.012000000373951061,-0.07999999804626934
0,0,9.998186111450195,0.0004999999655410647,0,0,-0.05099999867112037,0.048000001495804245,-0.14099999730693671
0,0,10.007762908935547,0.00039999998989515007,0,0,0.008999999863581633,-0.012000000373951061,0.041000001416626686
0,0,9.998186111450195,0.00039999998989515007,0,0,0.008999999863581633,0.048000001495804245,0.041000001416626686
0,0,9.998186111450195,0.00039999998989515007,0,0,0.008999999863581633,0.10900000075647161,0.041000001416626686
0,0,9.998186111450195,0.00039999998989515007,0,0,0.008999999863581633,-0.012000000373951061,0.041000001416626686
0,0,9.998186111450195,0.00039999998989515007,0,0,0.008999999863581633,0.048000001495804245,0.041000001416626686
0,0,9.988609313964844,0.00039999998989515007,0,-0.009800000116229057,-0.05099999867112037,0.048000001495804245,0.041000001416626686
0,0,10.007762908935547,0.00029999998514540493,0,0.009800000116229057,0.07000000079177565,0.048000001495804245,-0.07999999804626934
0,0,10.007762908935547,0.00039999998989515007,0,0.009800000116229057,0.008999999863581633,0.048000001495804245,0.041000001416626686
0,0,10.007762908935547,0.00029999998514540493,0,0.009800000116229057,0.008999999863581633,0.048000001495804245,-0.07999999804626934
0,0,10.007762908935547,0.00029999998514540493,0,0.009800000116229057,-0.05099999867112037,-0.07300000130214508,-0.019000000453128628
-0.019153613597154617,0,10.007762908935547,0.00029999998514540493,0,0.009800000116229057,0.008999999863581633,-0.07300000130214508,-0.019000000453128628
0,0,10.007762908935547,0.00029999998514540493,0,0.009800000116229057,-0.05099999867112037,0.048000001495804245,-0.019000000453128628
0,0,10.007762908935547,0.00029999998514540493,0,0.009800000116229057,-0.05099999867112037,-0.012000000373951061,-0.019000000453128628
0,0,10.017339706420898,0.00029999998514540493,0,0.019600000232458115,0.008999999863581633,-0.07300000130214508,-0.019000000453128628
0,0,10.007762908935547,0.00019999999494757503,0,0.019600000232458115,0.07000000079177565,-0.012000000373951061,-0.019000000453128628
0,0,10.007762908935547,0.00019999999494757503,0,0.009800000116229057,0.07000000079177565,-0.012000000373951061,-0.019000000453128628
0,0,10.007762908935547,0.00019999999494757503,0,0.009800000116229057,-0.05099999867112037,0.048000001495804245,-0.019000000453128628
0,0,10.007762908935547,0.00019999999494757503,0,0.009800000116229057,-0.1729999938574018,0.048000001495804245,0.10199999734224074
0,0,9.998186111450195,0.00019999999494757503,0,0,-0.05099999867112037,-0.07300000130214508,-0.019000000453128628
0,0,10.017339706420898,0.00019999999494757503,0,0.019600000232458115,0.008999999863581633,-0.07300000130214508,-0.019000000453128628
0,0,10.007762908935547,0.00019999999494757503,0,0.009800000116229057,-0.05099999867112037,-0.012000000373951061,-0.07999999804626934
0,0,10.007762908935547,0.00019999999494757503,0,0.009800000116229057,0.008999999863581633,-0.012000000373951061,-0.019000000453128628
0,0,10.007762908935547,0.00019999999494757503,0,0.009800000116229057,0.07000000079177565,0.048000001495804245,-0.07999999804626934
0,0,10.017339706420898,0.00019999999494757503,0,0.03920000046491623,0.07000000079177565,0.048000001495804245,0.041000001416626686
0,0,10.02691650390625,0.00019999999494757503,0,0.019600000232458115,-0.11200000126684104,0.10900000075647161,0.041000001416626686
0,0,10.036493301391602,0.00009999999747378752,0,0,-0.11200000126684104,-0.012000000373951061,-0.019000000453128628
0,0,10.02691650390625,0.00009999999747378752,0,0,0.008999999863581633,-0.012000000373951061,-0.019000000453128628
0,0,10.017339706420898,0.00009999999747378752,0,0.009800000116229057,-0.05099999867112037,0.10900000075647161,0.041000001416626686
0,0,10.017339706420898,0.00009999999747378752,0,0.029399998486042023,-0.05099999867112037,0.10900000075647161,0.041000001416626686
0,0,10.02691650390625,0.00009999999747378752,0,0,0.07000000079177565,0.16999999334703236,0.041000001416626686
0,0,9.998186111450195,0.00009999999747378752,0,-0.03920000046491623,-0.05099999867112037,0.10900000075647161,-0.019000000453128628
0,0,9.998186111450195,0.00009999999747378752,0,-0.03920000046491623,-0.23399998644796255,0.10900000075647161,-0.019000000453128628
0,0,9.998186111450195,0.00009999999747378752,0,-0.029399998486042023,-0.11200000126684104,-0.012000000373951061,-0.07999999804626934
0,0,10.02691650390625,0.00009999999747378752,0,-0.009800000116229057,0.008999999863581633,-0.012000000373951061,-0.019000000453128628
0,0,10.007762908935547,0.00009999999747378752,0,-0.009800000116229057,-0.05099999867112037,0.048000001495804245,-0.019000000453128628
0,0,10.007762908935547,0.00009999999747378752,0,0.009800000116229057,-0.05099999867112037,0.048000001495804245,-0.019000000453128628
0,0,10.007762908935547,0.00009999999747378752,0,0,0.008999999863581633,0.10900000075647161,-0.019000000453128628
-0.009576806798577309,0,10.007762908935547,0.00009999999747378752,0,-0.019600000232458115,-0.05099999867112037,0.048000001495804245,0.041000001416626686
0,0,10.017339706420898,0.00009999999747378752,0,-0.009800000116229057,-0.05099999867112037,-0.012000000373951061,-0.019000000453128628
0,0,10.02691650390625,0.00009999999747378752,0,0,-0.11200000126684104,0.048000001495804245,-0.14099999730693671
0,0,10.007762908935547,0.00009999999747378752,0,-0.009800000116229057,-0.11200000126684104,0.048000001495804245,0.041000001416626686
0,0,10.02691650390625,0.00009999999747378752,0,0.009800000116229057,-0.05099999867112037,-0.07300000130214508,-0.019000000453128628
0,0,10.02691650390625,0.00009999999747378752,0,0.009800000116229057,-0.05099999867112037,-0.07300000130214508,-0.019000000453128628
0,0,10.017339706420898,0.00009999999747378752,0,0,0.008999999863581633,0.048000001495804245,-0.07999999804626934
0,0,9.988609313964844,0.00009999999747378752,0,0.009800000116229057,0.13100000005244303,0.16999999334703236,0.041000001416626686
0,0,10.017339706420898,0.00009999999747378752,0,-0.009800000116229057,-0.05099999867112037,0.10900000075647161,-0.019000000453128628
0,0,9.988609313964844,0.00009999999747378752,0,0,0.008999999863581633,0.10900000075647161,0.041000001416626686
0,0,9.988609313964844,0.00009999999747378752,0,0,0.008999999863581633,0.10900000075647161,0.041000001416626686
0,0,10.007762908935547,0.00009999999747378752,0,0,0.19200000598321698,0.048000001495804245,-0.019000000453128628
0,0,10.017339706420898,0,0,0,-0.05099999867112037,-0.07300000130214508,-0.07999999804626934
0,0,10.007762908935547,0,0,0.009800000116229057,0.008999999863581633,0.048000001495804245,0.041000001416626686
0,0,10.007762908935547,0,0,0,-0.05099999867112037,0.10900000075647161,-0.019000000453128628
0,0,10.007762908935547,0,0,0,0.008999999863581633,0.10900000075647161,-0.019000000453128628
0,0,9.998186111450195,0,0,-0.019600000232458115,-0.05099999867112037,0.048000001495804245,-0.019000000453128628
0,0,10.007762908935547,0,0,-0.019600000232458115,0.008999999863581633,0.16999999334703236,0.041000001416626686
0,0,10.02691650390625,0,0,0.009800000116229057,-0.05099999867112037,-0.012000000373951061,0.041000001416626686
0,0,10.017339706420898,0,0,0.009800000116229057,-0.05099999867112037,-0.07300000130214508,0.041000001416626686
0,0,10.007762908935547,0,0,0.009800000116229057,-0.1729999938574018,-0.012000000373951061,0.041000001416626686
0,0,10.007762908935547,0,0,0.009800000116229057,0.07000000079177565,-0.012000000373951061,-0.07999999804626934
0,0,10.007762908935547,0,0,0,0.008999999863581633,0.048000001495804245,-0.07999999804626934
0,0,10.007762908935547,0,0,0,0.07000000079177565,-0.07300000130214508,-0.019000000453128628
0,0,10.007762908935547,0,0,0,0.008999999863581633,-0.012000000373951061,0.041000001416626686
0,0,10.007762908935547,0,0,0.009800000116229057,0.008999999863581633,0.048000001495804245,-0.019000000453128628
0,0,10.017339706420898,0,0,0.009800000116229057,0.008999999863581633,-0.07300000130214508,-0.07999999804626934
0,0,10.007762908935547,0,0,0,-0.05099999867112037,-0.13400000056281244,-0.019000000453128628
0,0,10.007762908935547,0,0,0,0.008999999863581633,-0.012000000373951061,-0.019000000453128628
0,0,10.007762908935547,0,0,0,0.012000000373951061,0.03599999945432653,-0.13600000534979648
0,0,10.007762908935547,0,0,0,0.012000000373951061,-0.08499999667351618,0.04600000004387353
0,0,10.007762908935547,0,0,0,-0.2920000052085803,-0.024000000747902123,-0.01400000015835513
0,0,10.007762908935547,0,0,0,0.07300000130214508,0.03599999945432653,0.04600000004387353
0,0,10.007762908935547,0,0,0,0.19499999315337319,0.03599999945432653,0.04600000004387353
0,0,10.007762908935547,0,0,0,0.19499999315337319,-0.08499999667351618,-0.0749999994190225
0,0,10.007762908935547,0,0,0,0.012000000373951061,-0.024000000747902123,0.04600000004387353
0,0,10.007762908935547,0,0,0,0.012000000373951061,-0.024000000747902123,0.04600000004387353
0,0,10.007762908935547,0,0,0,0.13400000056281244,-0.024000000747902123,-0.0749999994190225
0,0,10.007762908935547,0,0,0,0.07300000130214508,-0.08499999667351618,-0.01400000015835513
0,0,9.998186111450195,0,0,-0.009800000116229057,-0.10900000075647161,0.03599999945432653,0.04600000004387353
0,0,9.988609313964844,0,0,-0.019600000232458115,0.13400000056281244,-0.024000000747902123,-0.13600000534979648
0,0,9.988609313964844,0,0,-0.019600000232458115,-0.10900000075647161,0.03599999945432653,-0.01400000015835513
0,0,9.998186111450195,0,0,-0.009800000116229057,-0.16999999334703236,-0.14600000260429016,0.04600000004387353
0,0,10.007762908935547,0,0,0,0.13400000056281244,0.03599999945432653,-0.01400000015835513
-0.009576806798577309,0,10.007762908935547,-0.00969999935477972,0,0,0.012000000373951061,-0.024000000747902123,0.1070000026395942
-0.019153613597154617,0,10.017339706420898,0,0,0.009800000116229057,0.19499999315337319,-0.024000000747902123,-0.01400000015835513
0,0,9.979032516479492,0,0,-0.009800000116229057,0.31699999167470794,0.03599999945432653,0.04600000004387353
0,0,10.007762908935547,0,0,-0.009800000116229057,0.07300000130214508,-0.024000000747902123,0.04600000004387353
-0.009576806798577309,0,9.988609313964844,0,0,-0.009800000116229057,-0.048000001495804245,-0.08499999667351618,-0.01400000015835513
0,0,9.998186111450195,0,0,-0.019600000232458115,0.012000000373951061,-0.08499999667351618,-0.01400000015835513
0,-0.009576806798577309,9.998186111450195,0,0,-0.019600000232458115,-0.16999999334703236,-0.024000000747902123,-0.01400000015835513
0,-0.009576806798577309,9.998186111450195,0,0,-0.019600000232458115,-0.10900000075647161,-0.08499999667351618,-0.01400000015835513
0,0,10.017339706420898,0,0,0.009800000116229057,-0.23099998593759313,-0.024000000747902123,-0.01400000015835513
0,0,10.017339706420898,0,0,0.009800000116229057,-0.048000001495804245,-0.08499999667351618,-0.01400000015835513
0,0,9.998186111450195,0,0,0,-0.048000001495804245,0.03599999945432653,-0.01400000015835513
0,0,9.988609313964844,0,0,-0.009800000116229057,-0.10900000075647161,0.03599999945432653,-0.01400000015835513
0,0,10.007762908935547,0,0,0,-0.048000001495804245,0.03599999945432653,-0.0749999994190225
0,0,9.998186111450195,0,0,0,0.07300000130214508,0.03599999945432653,0.04600000004387353
0,0,9.988609313964844,0,0,-0.009800000116229057,0.13400000056281244,-0.024000000747902123,-0.01400000015835513
0,0,9.998186111450195,0,0,-0.009800000116229057,-0.048000001495804245,-0.024000000747902123,-0.01400000015835513
0,0,10.007762908935547,0,0,0,0.012000000373951061,-0.024000000747902123,-0.01400000015835513
0,0,9.998186111450195,0,0,-0.009800000116229057,0.012000000373951061,-0.14600000260429016,-0.0749999994190225
0,0,10.007762908935547,0,0,0,0.012000000373951061,-0.08499999667351618,-0.01400000015835513
0,0,10.007762908935547,0,0,0,0.13400000056281244,0.03599999945432653,0.04600000004387353
0,0,10.017339706420898,0,0,0,0.07300000130214508,0.03599999945432653,0.1070000026395942
0,0,10.007762908935547,0,0,0.009800000116229057,0.012000000373951061,-0.024000000747902123,0.1070000026395942
0,0,9.998186111450195,0,0,-0.009800000116229057,-0.048000001495804245,-0.024000000747902123,-0.01400000015835513
0,0,9.998186111450195,0,0,-0.009800000116229057,0.07300000130214508,0.0969999987149939,-0.01400000015835513
0,0,10.007762908935547,0,0,0,-0.16999999334703236,-0.024000000747902123,-0.01400000015835513
0,0,10.007762908935547,0,0,0,0.07300000130214508,-0.024000000747902123,0.04600000004387353
0,0,10.007762908935547,0,0,0,0.012000000373951061,-0.024000000747902123,-0.01400000015835513
0,0,10.007762908935547,0,0,0,-0.048000001495804245,-0.08499999667351618,-0.0749999994190225
0,0,10.007762908935547,0,0,0,0.07300000130214508,0.0969999987149939,0.04600000004387353
0,0,9.998186111450195,0,0,0,0.19499999315337319,-0.024000000747902123,0.04600000004387353
0,0,9.998186111450195,0,0,-0.009800000116229057,-0.048000001495804245,-0.024000000747902123,0.04600000004387353
0,0,9.998186111450195,0,0,-0.009800000116229057,0.13400000056281244,-0.024000000747902123,-0.01400000015835513
0,0,9.998186111450195,0,0,-0.009800000116229057,-0.048000001495804245,0.0969999987149939,-0.01400000015835513
0,0,9.998186111450195,0,0,-0.009800000116229057,0.07300000130214508,-0.024000000747902123,0.1070000026395942
0,0,9.998186111450195,0,0,-0.009800000116229057,0.012000000373951061,-0.024000000747902123,-0.0749999994190225
-0.009576806798577309,0,9.998186111450195,0,0,-0.009800000116229057,-0.048000001495804245,0.03599999945432653,0.1070000026395942
0,0,9.988609313964844,0,0,-0.019600000232458115,-0.23099998593759313,-0.024000000747902123,0.04600000004387353
0,0,9.988609313964844,0,0,-0.019600000232458115,0.07300000130214508,-0.08499999667351618,0.04600000004387353
0,0,9.998186111450195,0,0,0,-0.10900000075647161,-0.024000000747902123,0.1070000026395942
0,0,9.998186111450195,0,0,0.019600000232458115,0.07300000130214508,0.03599999945432653,-0.0749999994190225
0,0,9.998186111450195,0,0,0.009800000116229057,0.07300000130214508,-0.08499999667351618,0.04600000004387353
0,0,9.998186111450195,0,0,0.009800000116229057,0.012000000373951061,-0.024000000747902123,0.04600000004387353
0,0,9.998186111450195,0,0,0.009800000116229057,0.012000000373951061,-0.024000000747902123,0.1070000026395942
0,0,9.998186111450195,0,0,0.009800000116229057,-0.048000001495804245,0.0969999987149939,0.04600000004387353
0,0,9.998186111450195,0,0,0.009800000116229057,-0.048000001495804245,0.03599999945432653,-0.0749999994190225
0.028730420395731926,0,9.921571731567383,0.009099999442696571,0,-0.009800000116229057,0.13400000056281244,0.15800000464576788,0.1070000026395942
0,0,9.988609313964844,-0.0005999999702908099,0,0.009800000116229057,0.07300000130214508,0.15800000464576788,0.04600000004387353
0,0,9.979032516479492,-0.0005999999702908099,0,0.019600000232458115,0.012000000373951061,-0.024000000747902123,-0.01400000015835513
0,0,9.988609313964844,-0.0005999999702908099,0,0,-0.10900000075647161,-0.08499999667351618,0.04600000004387353
0,0,9.998186111450195,-0.0004999999655410647,0,0.019600000232458115,0.07300000130214508,-0.08499999667351618,-0.01400000015835513
0,0,9.998186111450195,-0.0004999999655410647,0,0.029399998486042023,-0.048000001495804245,0.03599999945432653,0.04600000004387353
0,0,10.007762908935547,-0.0004999999655410647,0,0,-0.16999999334703236,0.0969999987149939,0.1070000026395942
0,0,10.007762908935547,-0.0004999999655410647,0,0.019600000232458115,-0.10900000075647161,0.15800000464576788,0.04600000004387353
0,0,9.998186111450195,-0.0004999999655410647,0,0,-0.10900000075647161,-0.024000000747902123,-0.01400000015835513
0,0,10.007762908935547,-0.0004999999655410647,0,0.04899999871850014,0.31699999167470794,-0.08499999667351618,-0.0749999994190225
0,0,9.988609313964844,-0.00039999998989515007,0,0.019600000232458115,-0.048000001495804245,-0.024000000747902123,-0.0749999994190225
0,0,10.007762908935547,-0.00039999998989515007,0,0.019600000232458115,-0.048000001495804245,-0.024000000747902123,-0.01400000015835513
0,0,10.007762908935547,-0.00039999998989515007,0,0.009800000116229057,0.012000000373951061,0.0969999987149939,-0.0749999994190225
0,0,9.988609313964844,-0.00039999998989515007,0,0,-0.048000001495804245,0.03599999945432653,-0.01400000015835513
0,0,9.988609313964844,-0.00039999998989515007,0,0.009800000116229057,0.012000000373951061,-0.08499999667351618,0.04600000004387353
0,0,9.998186111450195,-0.00039999998989515007,0,0.009800000116229057,0.07300000130214508,0.0969999987149939,-0.0749999994190225
0,0,10.017339706420898,-0.00029999998514540493,0,0.029399998486042023,-0.16999999334703236,-0.024000000747902123,-0.01400000015835513
0,0,9.96945571899414,-0.00029999998514540493,0,0.019600000232458115,0.07300000130214508,-0.024000000747902123,-0.0749999994190225
0,0,9.988609313964844,-0.00029999998514540493,0,-0.009800000116229057,0.07300000130214508,-0.08499999667351618,-0.01400000015835513
0,0,10.017339706420898,-0.00029999998514540493,0,0.019600000232458115,0.07300000130214508,0.03599999945432653,-0.01400000015835513
0,0,10.007762908935547,-0.00029999998514540493,0,0.019600000232458115,0.37800001094569513,0.0969999987149939,-0.01400000015835513
0,0,9.998186111450195,-0.00029999998514540493,0,0.019600000232458115,0.07300000130214508,0.0969999987149939,-0.01400000015835513
0,0,9.988609313964844,-0.00029999998514540493,0,0,-0.10900000075647161,0.15800000464576788,-0.01400000015835513
-0.009576806798577309,0,9.998186111450195,-0.00019999999494757503,0,0.009800000116229057,0.13400000056281244,0.0969999987149939,-0.0749999994190225
0,0,9.998186111450195,-0.00019999999494757503,0,0,-0.048000001495804245,-0.024000000747902123,0.04600000004387353
0,0,10.007762908935547,-0.00019999999494757503,0,0.029399998486042023,0.13400000056281244,-0.024000000747902123,-0.01400000015835513
0,0,9.988609313964844,-0.00019999999494757503,0,0.019600000232458115,0.012000000373951061,-0.024000000747902123,0.04600000004387353
0,0,9.979032516479492,-0.00019999999494757503,0,0.009800000116229057,0.07300000130214508,-0.08499999667351618,-0.0749999994190225
0,0,9.988609313964844,-0.00019999999494757503,0,0.009800000116229057,-0.10900000075647161,-0.08499999667351618,-0.01400000015835513
0,0,10.017339706420898,-0.00019999999494757503,0,0.029399998486042023,-0.2920000052085803,0.03599999945432653,0.1070000026395942
0,0,10.007762908935547,-0.00019999999494757503,0,0.019600000232458115,0.07300000130214508,0.15800000464576788,-0.01400000015835513
0,0,9.998186111450195,-0.00019999999494757503,0,0,-0.048000001495804245,0.03599999945432653,-0.0749999994190225
0,0,9.998186111450195,-0.00019999999494757503,0,0.009800000116229057,0.012000000373951061,0.0969999987149939,-0.0749999994190225
0,0,9.998186111450195,-0.00009999999747378752,0,0.009800000116229057,0.012000000373951061,-0.024000000747902123,-0.0749999994190225
0,0,9.988609313964844,-0.00009999999747378752,0,0,0.012000000373951061,-0.14600000260429016,-0.01400000015835513
0,0,9.988609313964844,-0.00009999999747378752,0,0.009800000116229057,-0.048000001495804245,0.0969999987149939,0.04600000004387353
0,0,9.998186111450195,-0.00009999999747378752,0,0.009800000116229057,-0.10900000075647161,0.03599999945432653,0.04600000004387353
0,0,9.998186111450195,-0.00009999999747378752,0,-0.009800000116229057,-0.048000001495804245,0.03599999945432653,0.04600000004387353
0,0,10.007762908935547,-0.00009999999747378752,0,0,0.012000000373951061,0.0969999987149939,-0.0749999994190225
0,0,9.998186111450195,-0.00009999999747378752,0,0,0.13400000056281244,-0.024000000747902123,-0.01400000015835513
-0.009576806798577309,0,10.007762908935547,-0.00009999999747378752,0,0,-0.048000001495804245,0.0969999987149939,0.04600000004387353
0,0,10.02691650390625,-0.00009999999747378752,0,0.009800000116229057,-0.048000001495804245,-0.08499999667351618,0.04600000004387353
-0.009576806798577309,0,10.017339706420898,-0.00009999999747378752,0,0.009800000116229057,0.012000000373951061,0.03599999945432653,0.04600000004387353
0,0,10.007762908935547,-0.00009999999747378752,0,0,-0.10900000075647161,-0.024000000747902123,-0.01400000015835513
0,0,9.998186111450195,-0.00009999999747378752,0,-0.009800000116229057,0.012000000373951061,-0.08499999667351618,-0.01400000015835513
0,0,9.998186111450195,-0.00009999999747378752,0,-0.019600000232458115,-0.048000001495804245,-0.024000000747902123,0.04600000004387353
0,0,9.988609313964844,-0.00009999999747378752,0,-0.019600000232458115,-0.048000001495804245,-0.024000000747902123,0.04600000004387353
0,0,10.007762908935547,-0.00009999999747378752,0,-0.009800000116229057,0.19499999315337319,0.15800000464576788,0.04600000004387353
0,0,10.007762908935547,-0.00009999999747378752,0,0,-0.048000001495804245,0.03599999945432653,0.04600000004387353
0,0,9.998186111450195,-0.00009999999747378752,0,-0.009800000116229057,0.012000000373951061,0.03599999945432653,-0.0749999994190225
0,0,9.988609313964844,0,0,-0.019600000232458115,-0.23099998593759313,0.0969999987149939,0.1070000026395942
0,0,10.007762908935547,0,0,0,0.19499999315337319,-0.08499999667351618,-0.0749999994190225
0,0,9.998186111450195,0,0,-0.009800000116229057,-0.048000001495804245,-0.024000000747902123,-0.0749999994190225
0,0,9.998186111450195,0,0,-0.009800000116229057,0.012000000373951061,0.15800000464576788,-0.01400000015835513
0,0,10.007762908935547,0,0,-0.009800000116229057,0.13400000056281244,0.03599999945432653,-0.01400000015835513
0,0,9.998186111450195,0,0,-0.009800000116229057,-0.048000001495804245,0.0969999987149939,0.04600000004387353
0,0,9.998186111450195,0,0,-0.009800000116229057,0.07300000130214508,-0.024000000747902123,-0.01400000015835513
0,0,9.998186111450195,0,0,-0.009800000116229057,0.012000000373951061,-0.024000000747902123,-0.01400000015835513
0,0,9.998186111450195,0,0,-0.009800000116229057,0.012000000373951061,0.03599999945432653,0.04600000004387353
0,0,9.998186111450195,0,0,-0.009800000116229057,-0.10900000075647161,-0.08499999667351618,0.1070000026395942
0,0,9.998186111450195,0,0,-0.009800000116229057,-0.10900000075647161,-0.08499999667351618,0.1070000026395942
0,0,10.017339706420898,0,0,0,0.07300000130214508,-0.024000000747902123,-0.01400000015835513
0,0,10.007762908935547,0,0,0,0.012000000373951061,-0.08499999667351618,-0.0749999994190225
0,0,10.007762908935547,0,0,0,0.07300000130214508,-0.024000000747902123,-0.01400000015835513
0,0,9.998186111450195,0,0,-0.009800000116229057,-0.048000001495804245,0.03599999945432653,-0.01400000015835513
0.019153613597154617,0,9.998186111450195,0.019500000402331352,0,0.019600000232458115,0.012000000373951061,0.15800000464576788,0.04600000004387353
0,0,9.998186111450195,0,0,0.009800000116229057,-0.10900000075647161,-0.08499999667351618,-0.01400000015835513
0,0,9.998186111450195,0,0,-0.019600000232458115,0.012000000373951061,-0.08499999667351618,-0.01400000015835513
-0.009576806798577309,0,9.998186111450195,0,0,-0.009800000116229057,0.012000000373951061,0.03599999945432653,-0.01400000015835513
0,0,9.998186111450195,0,0,-0.009800000116229057,0.07300000130214508,-0.08499999667351618,0.04600000004387353
0,0,10.007762908935547,0,0,-0.009800000116229057,0.012000000373951061,-0.024000000747902123,-0.01400000015835513
0,0,10.007762908935547,0,0,-0.009800000116229057,0.012000000373951061,-0.024000000747902123,-0.01400000015835513
0,0,10.007762908935547,0,0,-0.009800000116229057,0.07300000130214508,-0.08499999667351618,0.04600000004387353
0,0,10.007762908935547,0,0,0,0.07300000130214508,-0.08499999667351618,-0.01400000015835513
0,0,9.998186111450195,0,0,0,0.07300000130214508,0.03599999945432653,-0.01400000015835513
0,0,9.998186111450195,0,0,-0.019600000232458115,0.07300000130214508,-0.14600000260429016,0.04600000004387353
0,0,10.007762908935547,0,0,0,0.012000000373951061,-0.08499999667351618,0.04600000004387353
0,0,10.007762908935547,0,0,-0.019600000232458115,-0.048000001495804245,-0.024000000747902123,0.1070000026395942
0,0,9.998186111450195,0,0,-0.009800000116229057,0.012000000373951061,-0.024000000747902123,-0.0749999994190225
0,0,9.988609313964844,0,0,-0.019600000232458115,-0.048000001495804245,0.03599999945432653,-0.0749999994190225
0,0,10.007762908935547,0,0,0,0.012000000373951061,-0.08499999667351618,0.04600000004387353
0,0,10.007762908935547,0,0,0,0.012000000373951061,-0.024000000747902123,-0.01400000015835513
0,0,9.979032516479492,0,0,-0.019600000232458115,0.13400000056281244,0.03599999945432653,0.04600000004387353
0,0,9.988609313964844,0,0,0,-0.048000001495804245,-0.08499999667351618,-0.01400000015835513
0,0,9.979032516479492,0,0,-0.009800000116229057,0.012000000373951061,-0.024000000747902123,0.1070000026395942
0,0,9.988609313964844,0,0,-0.019600000232458115,0.012000000373951061,-0.14600000260429016,-0.01400000015835513
0,0,9.998186111450195,0,0,-0.009800000116229057,0.012000000373951061,-0.024000000747902123,0.1070000026395942
0,0,10.007762908935547,0,0,0,-0.10900000075647161,0.15800000464576788,-0.0749999994190225
0,0,10.007762908935547,0,0,0,0.07300000130214508,0.03599999945432653,0.04600000004387353
0,0,9.998186111450195,0,0,0,0.012000000373951061,-0.024000000747902123,0.04600000004387353
0,0,10.007762908935547,0,0,0.009800000116229057,-0.10900000075647161,-0.024000000747902123,-0.0749999994190225
0,0,10.007762908935547,0,0,-0.009800000116229057,0.012000000373951061,-0.024000000747902123,-0.01400000015835513
0,0,10.007762908935547,0,0,0,-0.048000001495804245,-0.024000000747902123,-0.01400000015835513
0,0,9.998186111450195,0,0,0,0.012000000373951061,0.03599999945432653,-0.01400000015835513
0,0,9.998186111450195,0,0,0,0.07300000130214508,-0.024000000747902123,-0.01400000015835513
0,0,10.007762908935547,0,0,0.009800000116229057,0.13400000056281244,-0.08499999667351618,-0.01400000015835513
0,0,10.007762908935547,0,0,0.009800000116229057,0.012000000373951061,0.03599999945432653,-0.0749999994190225
0,0,10.007762908935547,0,0,0.009800000116229057,-0.048000001495804245,0.0969999987149939,0.04600000004387353
0,0,9.998186111450195,0,0,0,0.012000000373951061,0.03599999945432653,-0.01400000015835513
0,0,9.998186111450195,0,0,0,-0.048000001495804245,-0.024000000747902123,0.04600000004387353
0,0,9.998186111450195,0,0,0,0.07300000130214508,-0.024000000747902123,0.04600000004387353
0,0,9.998186111450195,0,0,0,0.012000000373951061,0.03599999945432653,0.1070000026395942
0,0,9.998186111450195,0,0,0,0.012000000373951061,-0.024000000747902123,0.04600000004387353
0,0,9.998186111450195,0,0,0,-0.048000001495804245,0.03599999945432653,-0.0749999994190225
0,0,9.998186111450195,0,0,0,0.012000000373951061,-0.024000000747902123,-0.01400000015835513
0,0,9.998186111450195,0,0,0,-0.048000001495804245,-0.08499999667351618,-0.13600000534979648
0,0,9.998186111450195,0,0,0,-0.048000001495804245,-0.08499999667351618,-0.13600000534979648
0,0,9.998186111450195,0,0,0,0.012000000373951061,-0.08499999667351618,-0.01400000015835513
0,0,9.998186111450195,0,0,0,-0.048000001495804245,-0.08499999667351618,0.1070000026395942
0,0,9.998186111450195,0,0,-0.009800000116229057,-0.048000001495804245,-0.08499999667351618,0.1070000026395942
0,0,9.988609313964844,0,0,0,-0.048000001495804245,0.03599999945432653,-0.01400000015835513
0,0,9.998186111450195,0,0,0,-0.048000001495804245,0.03599999945432653,-0.01400000015835513
0,0,9.998186111450195,0,0,-0.009800000116229057,-0.048000001495804245,0.0969999987149939,-0.01400000015835513
0,0,10.036493301391602,0,0,0.029399998486042023,-0.048000001495804245,0.0969999987149939,-0.01400000015835513
0,0,10.007762908935547,0,0,0.009800000116229057,0.012000000373951061,-0.2069999951948509,0.04600000004387353
0,0,10.007762908935547,0,0,0,0.13400000056281244,-0.08499999667351618,-0.01400000015835513
0,0,9.988609313964844,0,0,0,-0.16999999334703236,0.03599999945432653,0.04600000004387353
0,0,10.02691650390625,0,0,0.019600000232458115,-0.16999999334703236,-0.08499999667351618,0.04600000004387353
0,0,10.017339706420898,0,0,-0.009800000116229057,-0.048000001495804245,-0.024000000747902123,-0.01400000015835513
0,0,9.988609313964844,0,0,-0.009800000116229057,0.19499999315337319,-0.08499999667351618,-0.0749999994190225
0,0,9.979032516479492,0,0,0,0.012000000373951061,-0.024000000747902123,-0.01400000015835513
0,0,9.998186111450195,0,0,0.009800000116229057,0.07300000130214508,-0.08499999667351618,0.04600000004387353
0,0,10.007762908935547,0,0,0.019600000232458115,0.13400000056281244,-0.024000000747902123,-0.01400000015835513
0,0,10.007762908935547,0,0,0.019600000232458115,0.13400000056281244,-0.024000000747902123,0.04600000004387353
0,0,9.988609313964844,0,0,-0.029399998486042023,0.012000000373951061,0.0969999987149939,0.04600000004387353
0,0,9.988609313964844,0,0,0,0.19499999315337319,0.03599999945432653,-0.01400000015835513
0,0,9.998186111450195,0,0,0,-0.10900000075647161,-0.14600000260429016,-0.01400000015835513
0,0,9.998186111450195,0,0,0,-0.2920000052085803,-0.024000000747902123,0.1070000026395942
0,-0.019153613597154617,9.979032516479492,0,0,-0.019600000232458115,0.012000000373951061,-0.08499999667351618,0.04600000004387353
0,0,9.988609313964844,0,0,-0.009800000116229057,0.012000000373951061,-0.08499999667351618,-0.01400000015835513
0,0,10.017339706420898,0,0,0,0.07300000130214508,-0.08499999667351618,-0.0749999994190225
0,0,9.998186111450195,0,0,-0.009800000116229057,-0.048000001495804245,0.0969999987149939,-0.01400000015835513
0,0,9.979032516479492,0,0,-0.009800000116229057,0.012000000373951061,-0.024000000747902123,0.04600000004387353
0,0,10.007762908935547,0,0,0.009800000116229057,0.012000000373951061,-0.08499999667351618,-0.0749999994190225
0,0,9.998186111450195,0,0,0,-0.10900000075647161,0.15800000464576788,-0.01400000015835513
0,0,9.998186111450195,0,0,0,-0.10900000075647161,0.15800000464576788,-0.01400000015835513
0,0,9.998186111450195,0,0,0,0.012000000373951061,0.0969999987149939,0.04600000004387353
0,0,10.017339706420898,0,0,0.009800000116229057,-0.048000001495804245,-0.08499999667351618,-0.13600000534979648
0,0,10.017339706420898,0,0,0,-0.048000001495804245,-0.024000000747902123,0.04600000004387353
-0.009576806798577309,0,10.02691650390625,0,0,0.029399998486042023,0.012000000373951061,0.21899999723632863,-0.01400000015835513
0,0,9.998186111450195,0,0,0.009800000116229057,-0.048000001495804245,0.03599999945432653,-0.0749999994190225
0,0,9.979032516479492,0,0,-0.019600000232458115,-0.048000001495804245,-0.08499999667351618,-0.01400000015835513
0,0,9.988609313964844,0,0,-0.009800000116229057,-0.048000001495804245,-0.024000000747902123,-0.0749999994190225
0,0,10.007762908935547,0,0,0.019600000232458115,0.012000000373951061,0.03599999945432653,0.04600000004387353
0,0,10.007762908935547,0,0,0.009800000116229057,0.19499999315337319,0.0969999987149939,-0.01400000015835513
0,0,9.998186111450195,0,0,0,-0.23099998593759313,0.03599999945432653,0.1070000026395942
0,0,9.998186111450195,0,0,0.019600000232458115,-0.23099998593759313,-0.2069999951948509,0.04600000004387353
0,0,9.988609313964844,0,0,0.009800000116229057,0.4999999961268166,0.03599999945432653,-0.0749999994190225
0,0,10.007762908935547,0,0,0.009800000116229057,0.37800001094569513,0.15800000464576788,-0.13600000534979648
0,0,9.998186111450195,0,0,0,-0.10900000075647161,-0.14600000260429016,-0.01400000015835513
0,0,9.998186111450195,0,0,0.019600000232458115,-0.10900000075647161,-0.08499999667351618,0.04600000004387353
0,0,10.007762908935547,0,0,0.019600000232458115,0.07300000130214508,-0.024000000747902123,-0.01400000015835513
0,0,10.017339706420898,0,0,0.019600000232458115,0.07300000130214508,-0.024000000747902123,-0.0749999994190225
0,0,10.017339706420898,0,0,0.019600000232458115,0.012000000373951061,-0.024000000747902123,0.04600000004387353
0,0,10.017339706420898,0,0,0.009800000116229057,0.012000000373951061,-0.024000000747902123,0.04600000004387353
0,0,10.017339706420898,0,0,0.019600000232458115,0.07300000130214508,0.03599999945432653,0.04600000004387353
0,0,10.017339706420898,0,0,0.019600000232458115,0.07300000130214508,-0.08499999667351618,-0.0749999994190225
0,0,10.017339706420898,0,0,0.009800000116229057,0.07300000130214508,-0.024000000747902123,0.04600000004387353
0,0,10.007762908935547,0,0,0.009800000116229057,0.07300000130214508,-0.08499999667351618,-0.0749999994190225
0,0,10.007762908935547,0,0,0.009800000116229057,-0.048000001495804245,0.03599999945432653,-0.01400000015835513
0,0,10.017339706420898,0,0,0.019600000232458115,-0.048000001495804245,0.03599999945432653,-0.01400000015835513
0,0,10.017339706420898,0,0,0.029399998486042023,0.012000000373951061,0.0969999987149939,-0.0749999994190225
0,0,10.02691650390625,0,0,0.029399998486042023,0.07300000130214508,-0.024000000747902123,-0.0749999994190225
0,0,10.02691650390625,0,0,0.03920000046491623,0.07300000130214508,-0.024000000747902123,-0.0749999994190225
0,0,10.02691650390625,0,0,0.029399998486042023,0.012000000373951061,-0.024000000747902123,-0.01400000015835513
0,0,10.017339706420898,0,0,0.019600000232458115,-0.10900000075647161,-0.024000000747902123,-0.01400000015835513
0,0,10.017339706420898,0,0,0.019600000232458115,0.07300000130214508,0.03599999945432653,-0.0749999994190225
0,0,10.017339706420898,0,0,0.019600000232458115,-0.048000001495804245,-0.024000000747902123,0.04600000004387353
0,0,10.017339706420898,0,0,0.019600000232458115,0.012000000373951061,-0.14600000260429016,-0.0749999994190225
0,0,10.017339706420898,0,0,0.019600000232458115,-0.048000001495804245,-0.024000000747902123,-0.0749999994190225
0,0,10.017339706420898,0,0,0.019600000232458115,-0.048000001495804245,-0.08499999667351618,-0.0749999994190225
0,0,10.02691650390625,0,0,0.029399998486042023,0.07300000130214508,-0.024000000747902123,0.04600000004387353
0,0,10.02691650390625,0,0,0.029399998486042023,-0.10900000075647161,-0.024000000747902123,-0.01400000015835513
0,0,10.02691650390625,0,0,0.029399998486042023,0.07300000130214508,0.0969999987149939,0.04600000004387353
0,0,10.02691650390625,0,0,0.029399998486042023,0.012000000373951061,-0.08499999667351618,-0.01400000015835513
0,0,10.02691650390625,0,0,0.029399998486042023,-0.048000001495804245,-0.08499999667351618,-0.01400000015835513
0,0,10.02691650390625,0,0,0.029399998486042023,-0.048000001495804245,-0.024000000747902123,0.1070000026395942
0,0,10.02691650390625,0,0,0.029399998486042023,0.13400000056281244,-0.024000000747902123,0.04600000004387353
0,0,10.036493301391602,0,0,0.029399998486042023,0.012000000373951061,0.03599999945432653,-0.01400000015835513
0,0,10.02691650390625,0,0,0.029399998486042023,0.07300000130214508,-0.024000000747902123,-0.01400000015835513
0,0,10.017339706420898,0,0,0.019600000232458115,-0.10900000075647161,-0.08499999667351618,0.04600000004387353
-0.009576806798577309,0,10.017339706420898,0,0,0.029399998486042023,0.012000000373951061,0.03599999945432653,-0.0749999994190225
0,0,10.02691650390625,0,0,0.029399998486042023,-0.048000001495804245,-0.024000000747902123,0.1070000026395942
0,0,10.017339706420898,0,0,0.019600000232458115,-0.10900000075647161,0.0969999987149939,0.04600000004387353
0,0,10.017339706420898,0,0,0.009800000116229057,-0.048000001495804245,-0.14600000260429016,0.1070000026395942
0,0,10.02691650390625,0,0,0.009800000116229057,-0.048000001495804245,0.0969999987149939,-0.0749999994190225
0,0,10.007762908935547,0,0,-0.009800000116229057,0.012000000373951061,-0.024000000747902123,0.1070000026395942
0,0,10.007762908935547,0,0,0,-0.048000001495804245,-0.14600000260429016,0.04600000004387353
0,0,10.017339706420898,0,0,0.019600000232458115,0.012000000373951061,-0.024000000747902123,-0.01400000015835513
0,0,10.017339706420898,0,0,0,-0.048000001495804245,-0.08499999667351618,0.1070000026395942
0,0,10.017339706420898,0,0,0,0.07300000130214508,0.03599999945432653,-0.0749999994190225
0,0,10.02691650390625,0,0,0.009800000116229057,0.012000000373951061,-0.08499999667351618,0.04600000004387353
0,0,10.017339706420898,0,0,0,0.13400000056281244,0.03599999945432653,-0.0749999994190225
0,0,10.017339706420898,0,0,0,-0.10900000075647161,-0.024000000747902123,0.04600000004387353
0,0,10.017339706420898,0,0,-0.009800000116229057,-0.10900000075647161,-0.024000000747902123,0.04600000004387353
0,0,10.007762908935547,0,0,-0.009800000116229057,-0.10900000075647161,-0.024000000747902123,0.04600000004387353
0,0,10.007762908935547,0,0,-0.009800000116229057,0.07300000130214508,0.0969999987149939,0.04600000004387353
0,0,10.017339706420898,0,0,0,0.012000000373951061,0.03599999945432653,0.04600000004387353
-0.009576806798577309,0,10.017339706420898,0,0,0,0.07300000130214508,0.03599999945432653,-0.0749999994190225
-0.009576806798577309,0,10.017339706420898,0,0,0.009800000116229057,-0.048000001495804245,-0.024000000747902123,0.04600000004387353
0,0,10.017339706420898,0,0,0,-0.048000001495804245,-0.024000000747902123,0.1070000026395942
0,0,10.017339706420898,0,0,0,0.012000000373951061,-0.024000000747902123,0.04600000004387353
0,0,10.017339706420898,0,0,0,0.07300000130214508,0.03599999945432653,-0.01400000015835513
0,0,10.017339706420898,0,0,0,0.07300000130214508,-0.08499999667351618,-0.01400000015835513
-0.009576806798577309,0,10.02691650390625,0,0,0.009800000116229057,0.012000000373951061,-0.024000000747902123,0.1070000026395942
0,0,10.017339706420898,0,0,0,-0.048000001495804245,0.0969999987149939,-0.0749999994190225
0,0,10.017339706420898,0,0,0,-0.048000001495804245,0.03599999945432653,-0.01400000015835513
0,0,10.017339706420898,0,0,0,0.012000000373951061,0.03599999945432653,-0.01400000015835513
0,0,10.017339706420898,0,0,0,0.012000000373951061,0.03599999945432653,-0.01400000015835513
-0.009576806798577309,0,10.017339706420898,0,0,0,-0.048000001495804245,-0.024000000747902123,0.04600000004387353
0,0,9.998186111450195,0,0,-0.019600000232458115,0.07300000130214508,0.03599999945432653,0.1070000026395942
0,0,10.007762908935547,0,0,-0.009800000116229057,-0.048000001495804245,0.03599999945432653,0.04600000004387353
0,0,10.007762908935547,0,0,-0.009800000116229057,0.012000000373951061,-0.024000000747902123,-0.01400000015835513
0,0,10.007762908935547,0,0,-0.009800000116229057,0.13400000056281244,0.15800000464576788,0.1070000026395942
0,0,10.007762908935547,0,0,-0.009800000116229057,-0.048000001495804245,0.03599999945432653,-0.01400000015835513
0,0,10.017339706420898,0,0,0,0.07300000130214508,-0.024000000747902123,-0.01400000015835513
0,0,10.007762908935547,0,0,-0.009800000116229057,0.07300000130214508,-0.024000000747902123,-0.01400000015835513
0,0,10.007762908935547,0,0,-0.009800000116229057,-0.16999999334703236,-0.024000000747902123,0.1070000026395942
0,0,10.007762908935547,0,0,-0.009800000116229057,0.07300000130214508,-0.024000000747902123,0.04600000004387353
0,0,10.007762908935547,0,0,-0.009800000116229057,0.07300000130214508,0.0969999987149939,0.04600000004387353
0,0,10.007762908935547,0,0,-0.009800000116229057,-0.10900000075647161,0.03599999945432653,0.04600000004387353
0,0,10.017339706420898,0,0,0,-0.048000001495804245,-0.08499999667351618,-0.01400000015835513
0,0,10.017339706420898,0,0,0,-0.048000001495804245,-0.024000000747902123,-0.0749999994190225
0,0,10.046070098876953,0,0,0.009800000116229057,-0.16999999334703236,-0.08499999667351618,-0.01400000015835513
0,0,10.007762908935547,0,0,0.009800000116229057,0.13400000056281244,-0.024000000747902123,-0.0749999994190225
0,0,10.02691650390625,0,0,0.009800000116229057,-0.10900000075647161,-0.024000000747902123,-0.0749999994190225
0,0,10.017339706420898,0,0,0,0.012000000373951061,-0.024000000747902123,-0.01400000015835513
-0.009576806798577309,0,10.02691650390625,0,0,0.019600000232458115,-0.1749999986443858,-0.07999999804626934,0.10400000212922476
0,-0.009576806798577309,9.979032516479492,0,0,-0.009800000116229057,0.19000000119623298,-0.019000000453128628,-0.01700000066872456
0,0,9.96945571899414,0,0,0,-0.11400000605382507,-0.019000000453128628,0.10400000212922476
0,0,10.046070098876953,0,0,0,-0.05300000012305109,0.041000001416626686,-0.01700000066872456
0,0,9.988609313964844,0,0,0.009800000116229057,0.007000000079177565,-0.14099999730693671,-0.07799999992939192
-0.019153613597154617,0,10.017339706420898,0,0,0,0.06800000267489824,-0.07999999804626934,-0.01700000066872456
0,0,10.02691650390625,0,0,-0.009800000116229057,0.007000000079177565,-0.07999999804626934,0.0429999995335041
0,0,10.02691650390625,0,0,0.009800000116229057,0.007000000079177565,-0.019000000453128628,0.0429999995335041
0,0,10.055646896362305,0,0,0.009800000116229057,-0.2360000045751598,0.10199999734224074,0.0429999995335041
0,0,10.036493301391602,0,0,0.03920000046491623,-0.05300000012305109,-0.019000000453128628,-0.01700000066872456
0,0,10.017339706420898,0,0,-0.009800000116229057,0.007000000079177565,0.041000001416626686,0.0429999995335041
0,0,10.036493301391602,0,0,-0.009800000116229057,0.007000000079177565,-0.019000000453128628,0.0429999995335041
0,0,10.017339706420898,0,0,-0.009800000116229057,0.128999995265459,-0.019000000453128628,-0.01700000066872456
0,0,10.017339706420898,0,0,-0.019600000232458115,-0.05300000012305109,0.10199999734224074,-0.01700000066872456
0,0,10.017339706420898,0,0,-0.029399998486042023,-0.2360000045751598,-0.07999999804626934,0.0429999995335041
0,0,10.007762908935547,0,0,-0.009800000116229057,-0.05300000012305109,0.041000001416626686,-0.01700000066872456
0,0,10.007762908935547,0,0,-0.009800000116229057,-0.05300000012305109,-0.019000000453128628,0.0429999995335041
0,0,9.998186111450195,0,0,-0.019600000232458115,0.007000000079177565,-0.019000000453128628,-0.01700000066872456
0,0,9.998186111450195,0,0,-0.019600000232458115,0.007000000079177565,0.10199999734224074,-0.01700000066872456
0,0,10.007762908935547,0,0,-0.009800000116229057,-0.05300000012305109,-0.07999999804626934,0.0429999995335041
0,0,10.007762908935547,0,0,-0.009800000116229057,0.007000000079177565,-0.07999999804626934,-0.07799999992939192
0,0,10.007762908935547,0,0,-0.009800000116229057,0.007000000079177565,-0.019000000453128628,-0.07799999992939192
0,0,10.007762908935547,0,0,-0.009800000116229057,-0.05300000012305109,0.041000001416626686,-0.01700000066872456
0,0,10.007762908935547,0,0,-0.009800000116229057,0.007000000079177565,0.10199999734224074,-0.01700000066872456
0,0,10.007762908935547,0,0,-0.009800000116229057,-0.11400000605382507,-0.019000000453128628,-0.01700000066872456
0,0,10.007762908935547,0,0,-0.009800000116229057,0.007000000079177565,0.10199999734224074,-0.01700000066872456
0,0,10.007762908935547,0,0,-0.009800000116229057,0.007000000079177565,0.10199999734224074,-0.01700000066872456
0,0,10.007762908935547,0,0,-0.009800000116229057,0.06800000267489824,0.041000001416626686,-0.01700000066872456
0,0,10.007762908935547,0,0,-0.009800000116229057,0.06800000267489824,-0.019000000453128628,-0.01700000066872456
0,0,10.007762908935547,0,0,-0.009800000116229057,0.06800000267489824,-0.019000000453128628,-0.01700000066872456
0,0,10.007762908935547,0,0,-0.009800000116229057,0.007000000079177565,-0.14099999730693671,-0.01700000066872456
0,0,10.007762908935547,0,0,-0.009800000116229057,0.007000000079177565,0.10199999734224074,-0.07799999992939192
0,0,10.007762908935547,0,0,-0.009800000116229057,0.007000000079177565,-0.07999999804626934,-0.07799999992939192
0,0,9.988609313964844,0,0,-0.029399998486042023,0.007000000079177565,-0.07999999804626934,-0.01700000066872456
0,0,9.988609313964844,0,0,-0.029399998486042023,-0.05300000012305109,-0.019000000453128628,0.0429999995335041
0,0,10.007762908935547,0,0,-0.009800000116229057,-0.11400000605382507,-0.019000000453128628,0.0429999995335041
0,0,9.998186111450195,0,0,-0.019600000232458115,0.128999995265459,0.10199999734224074,0.0429999995335041
-0.009576806798577309,0,9.998186111450195,0,0,-0.019600000232458115,0.128999995265459,-0.019000000453128628,0.0429999995335041
0,0,10.017339706420898,0,0,0,0.128999995265459,-0.019000000453128628,0.10400000212922476
0,0,10.02691650390625,0,0,0,-0.05300000012305109,-0.019000000453128628,0.0429999995335041
0,0,10.007762908935547,0,0,-0.019600000232458115,-0.1749999986443858,-0.019000000453128628,-0.01700000066872456
0,0,10.017339706420898,0,0,-0.019600000232458115,-0.05300000012305109,-0.019000000453128628,0.0429999995335041
-0.019153613597154617,0,9.988609313964844,-0.009800000116229057,0,-0.029399998486042023,0.128999995265459,-0.019000000453128628,0.0429999995335041
0,0,9.998186111450195,0,0,-0.029399998486042023,-0.05300000012305109,0.041000001416626686,0.10400000212922476
-0.009576806798577309,0,9.998186111450195,0,0,-0.019600000232458115,0.06800000267489824,0.041000001416626686,-0.07799999992939192
0,0,9.998186111450195,0,0,-0.019600000232458115,0.128999995265459,0.041000001416626686,-0.07799999992939192
0,0,9.988609313964844,0,0,-0.029399998486042023,0.06800000267489824,0.041000001416626686,0.0429999995335041
0,0,9.988609313964844,0,0,-0.009800000116229057,0.007000000079177565,-0.07999999804626934,-0.01700000066872456
0,0,10.007762908935547,0,0,-0.009800000116229057,0.007000000079177565,0.1629999966029081,-0.07799999992939192
0,0,9.988609313964844,0,0,-0.009800000116229057,0.06800000267489824,0.041000001416626686,-0.01700000066872456
0,0,10.007762908935547,0,0,-0.019600000232458115,0.007000000079177565,0.10199999734224074,-0.01700000066872456
0,0,9.998186111450195,0,0,0,0.007000000079177565,-0.07999999804626934,-0.01700000066872456
0,0,9.988609313964844,0,0,-0.009800000116229057,0.19000000119623298,0.041000001416626686,-0.01700000066872456
0,0,10.007762908935547,0,0,-0.019600000232458115,-0.05300000012305109,0.10199999734224074,0.0429999995335041
-0.009576806798577309,0,9.998186111450195,0,0,0,-0.11400000605382507,0.10199999734224074,-0.01700000066872456
0,0,10.007762908935547,0,0,-0.029399998486042023,0.06800000267489824,-0.07999999804626934,0.0429999995335041
0,0,10.017339706420898,0,0,-0.009800000116229057,-0.11400000605382507,0.041000001416626686,-0.07799999992939192
0,0,10.007762908935547,0,0,0,-0.05300000012305109,0.041000001416626686,0.16500000138989213
0,0,9.979032516479492,0,0,-0.009800000116229057,0.007000000079177565,0.041000001416626686,0.10400000212922476
0,0,10.007762908935547,0,0,0,0.06800000267489824,-0.019000000453128628,0.0429999995335041
0,0,9.998186111450195,0,0,-0.009800000116229057,0.007000000079177565,-0.019000000453128628,0.10400000212922476
0,0,9.998186111450195,0,0,-0.019600000232458115,0.06800000267489824,0.10199999734224074,-0.07799999992939192
-0.009576806798577309,0,9.998186111450195,0,0,-0.009800000116229057,0.007000000079177565,0.041000001416626686,0.0429999995335041
0,0,9.979032516479492,0,0,-0.009800000116229057,0.128999995265459,0.041000001416626686,0.0429999995335041
0,0,9.998186111450195,0,0,-0.009800000116229057,-0.05300000012305109,-0.019000000453128628,-0.07799999992939192
0,0,10.007762908935547,0,0,0,0.007000000079177565,0.041000001416626686,0.0429999995335041
0,0,10.007762908935547,0,0,0,0.007000000079177565,0.041000001416626686,-0.01700000066872456
0,0,9.998186111450195,0,0,-0.009800000116229057,0.007000000079177565,-0.019000000453128628,0.0429999995335041
0,0,9.998186111450195,0,0,-0.009800000116229057,-0.05300000012305109,0.10199999734224074,0.0429999995335041
0,0,9.998186111450195,0,0,-0.009800000116229057,0.007000000079177565,0.041000001416626686,-0.01700000066872456
0,0,9.998186111450195,0,0,-0.009800000116229057,-0.11400000605382507,-0.019000000453128628,0.0429999995335041
0,0,10.007762908935547,0,0,0,-0.11400000605382507,-0.019000000453128628,-0.01700000066872456
0,0,9.988609313964844,0,0,-0.009800000116229057,0.128999995265459,0.041000001416626686,-0.01700000066872456
0,0,9.988609313964844,0,0,-0.019600000232458115,0.128999995265459,0.10199999734224074,-0.1390000058601659
0,0,10.007762908935547,0,0,-0.009800000116229057,0.007000000079177565,0.10199999734224074,0.0429999995335041
0,0,9.998186111450195,0,0,-0.009800000116229057,0.007000000079177565,0.041000001416626686,-0.07799999992939192
0,0,9.998186111450195,0,0,-0.009800000116229057,0.007000000079177565,0.041000001416626686,0.0429999995335041
0,0,9.998186111450195,0,0,-0.009800000116229057,0.06800000267489824,-0.07999999804626934,-0.07799999992939192
0,0,9.998186111450195,0,0,-0.009800000116229057,0.06800000267489824,0.041000001416626686,-0.01700000066872456
0,0,9.998186111450195,0,0,-0.009800000116229057,0.06800000267489824,-0.019000000453128628,-0.01700000066872456
0,0,9.998186111450195,0,0,-0.009800000116229057,0.06800000267489824,-0.019000000453128628,0.10400000212922476
0,0,9.998186111450195,0,0,-0.009800000116229057,0.007000000079177565,-0.019000000453128628,-0.07799999992939192
0,0,9.998186111450195,0,0,-0.009800000116229057,0.128999995265459,0.041000001416626686,0.0429999995335041
0,0,9.998186111450195,0,0,-0.009800000116229057,0.06800000267489824,-0.07999999804626934,-0.07799999992939192
0,0,10.007762908935547,0,0,0,0.007000000079177565,-0.07999999804626934,-0.01700000066872456
0,0,9.998186111450195,0,0,-0.009800000116229057,0.06800000267489824,0.10199999734224074,-0.01700000066872456
0,0,9.998186111450195,0,0,-0.009800000116229057,0.06800000267489824,-0.07999999804626934,-0.01700000066872456
0,0,9.988609313964844,0,0,-0.009800000116229057,-0.05300000012305109,-0.019000000453128628,-0.01700000066872456
0,0,9.998186111450195,0,0,-0.009800000116229057,-0.05300000012305109,-0.07999999804626934,0.0429999995335041
0,0,9.988609313964844,0,0,-0.019600000232458115,-0.05300000012305109,-0.07999999804626934,-0.01700000066872456
0,0,9.988609313964844,0,0,-0.019600000232458115,-0.05300000012305109,0.041000001416626686,-0.01700000066872456
0,0,9.998186111450195,0,0,-0.009800000116229057,0.007000000079177565,0.041000001416626686,0.0429999995335041
0,0,9.998186111450195,0,0,0,0.007000000079177565,0.041000001416626686,-0.01700000066872456
0,0,10.007762908935547,0,0,0,0.007000000079177565,-0.019000000453128628,-0.01700000066872456
0.019153613597154617,0,9.892841339111328,0,0,-0.06859999895095825,0.06800000267489824,0.28499999512424284,0.0429999995335041
-0.009576806798577309,-0.019153613597154617,9.988609313964844,0,0,-0.009800000116229057,0.128999995265459,-0.019000000453128628,-0.01700000066872456
0,0,9.979032516479492,0,0,-0.019600000232458115,0.007000000079177565,0.041000001416626686,-0.01700000066872456
0,0,9.96945571899414,0,0,-0.029399998486042023,0.007000000079177565,-0.07999999804626934,0.10400000212922476
0,0,9.959878921508789,0,0,0,0.007000000079177565,-0.019000000453128628,-0.07799999992939192
0,0,9.988609313964844,0,0,-0.009800000116229057,0.007000000079177565,-0.019000000453128628,-0.07799999992939192
0,0,9.988609313964844,0,0,0,0.007000000079177565,-0.07999999804626934,-0.01700000066872456
0,0,9.998186111450195,0,0,0.009800000116229057,0.06800000267489824,-0.019000000453128628,-0.1390000058601659
0,0,9.998186111450195,0,0,0.009800000116229057,0.06800000267489824,-0.019000000453128628,-0.1390000058601659
0,0,9.96945571899414,0,0,0,0.06800000267489824,-0.14099999730693671,-0.01700000066872456
0,0,9.96945571899414,0,0,0,0.06800000267489824,-0.019000000453128628,0.0429999995335041
0,0,9.979032516479492,0,0,-0.009800000116229057,-0.05300000012305109,0.041000001416626686,-0.01700000066872456
0,0,9.979032516479492,0,0,0,-0.11400000605382507,0.10199999734224074,-0.01700000066872456
0,0,9.979032516479492,0,0,0,0.19000000119623298,-0.019000000453128628,-0.07799999992939192
0,0,9.998186111450195,0,0,-0.019600000232458115,0.007000000079177565,-0.019000000453128628,0.0429999995335041
0,0,10.02691650390625,0,0,0.019600000232458115,-0.1749999986443858,-0.019000000453128628,-0.01700000066872456
0,0,10.02691650390625,0,0,0.029399998486042023,0.37299999230812847,-0.019000000453128628,-0.01700000066872456
0,0,10.007762908935547,0,0,0.019600000232458115,0.007000000079177565,-0.019000000453128628,-0.01700000066872456
0,0,10.017339706420898,0,0,0.029399998486042023,-0.1749999986443858,0.10199999734224074,0.0429999995335041
0,0,9.988609313964844,0,0,-0.009800000116229057,-0.11400000605382507,0.1629999966029081,-0.01700000066872456
0,0,9.988609313964844,0,0,0,0.06800000267489824,0.10199999734224074,-0.01700000066872456
0,0,9.998186111450195,0,0,-0.029399998486042023,0.007000000079177565,0.041000001416626686,0.10400000212922476
0,0,10.017339706420898,0,0,0.009800000116229057,-0.05300000012305109,-0.019000000453128628,-0.01700000066872456
0,0,9.998186111450195,0,0,0.029399998486042023,0.19000000119623298,-0.07999999804626934,-0.01700000066872456
-0.009576806798577309,0,9.979032516479492,0,0,-0.009800000116229057,-0.1749999986443858,0.10199999734224074,0.0429999995335041
0,0,9.959878921508789,0,0,-0.009800000116229057,-0.11400000605382507,-0.019000000453128628,0.0429999995335041
0,0,9.959878921508789,0,0,-0.009800000116229057,-0.11400000605382507,-0.019000000453128628,0.0429999995335041
0,0,9.979032516479492,0,0,-0.019600000232458115,-0.11400000605382507,0.10199999734224074,-0.01700000066872456
0,0,10.007762908935547,0,0,0,-0.05300000012305109,-0.07999999804626934,-0.01700000066872456
0,0,9.998186111450195,0,0,0.029399998486042023,0.007000000079177565,0.041000001416626686,0.0429999995335041
0,0,9.998186111450195,0,0,0.009800000116229057,0.007000000079177565,0.041000001416626686,0.0429999995335041
0,0,9.979032516479492,0,0,0.009800000116229057,0.128999995265459,-0.07999999804626934,0.0429999995335041
0,0,9.998186111450195,0,0,0.019600000232458115,0.06800000267489824,0.10199999734224074,0.10400000212922476
0,0,9.998186111450195,0,0,0.009800000116229057,-0.05300000012305109,-0.019000000453128628,0.0429999995335041
0,0,9.998186111450195,0,0,0.009800000116229057,0.06800000267489824,-0.019000000453128628,-0.01700000066872456
0,0,9.998186111450195,0,0,0.009800000116229057,-0.05300000012305109,-0.07999999804626934,-0.01700000066872456
0,0,9.988609313964844,0,0,0,0.19000000119623298,0.041000001416626686,-0.01700000066872456
0,0,9.998186111450195,0,0,0.009800000116229057,0.007000000079177565,0.041000001416626686,-0.07799999992939192
0,0,9.988609313964844,0,0,0,0.19000000119623298,0.10199999734224074,0.0429999995335041
0,0,9.988609313964844,0,0,0,-0.05300000012305109,-0.019000000453128628,-0.01700000066872456
0,0,9.988609313964844,0,0,0,-0.05300000012305109,-0.019000000453128628,0.0429999995335041
0,0,9.988609313964844,0,0,0,0.007000000079177565,-0.019000000453128628,-0.01700000066872456
0,0,9.988609313964844,0,0,0,-0.05300000012305109,-0.019000000453128628,-0.01700000066872456
0,0,9.988609313964844,0,0,0,0.007000000079177565,-0.019000000453128628,-0.01700000066872456
0,0,9.988609313964844,0,0,0,0.128999995265459,0.041000001416626686,-0.01700000066872456
0,0,9.988609313964844,0,0,0,0.007000000079177565,0.041000001416626686,-0.01700000066872456
0,0,9.988609313964844,0,0,0,0.06800000267489824,0.041000001416626686,-0.01700000066872456
-0.019153613597154617,0.009576806798577309,9.911994934082031,0,0.00969999935477972,0.009800000116229057,0.25100000712700693,-0.07999999804626934,-0.01700000066872456
0,-0.009576806798577309,9.988609313964844,0,-0.009099999442696571,-0.009800000116229057,0.007000000079177565,-0.019000000453128628,-0.01700000066872456
-0.009576806798577309,0,9.988609313964844,0,0.0005999999702908099,-0.009800000116229057,0.128999995265459,-0.019000000453128628,-0.07799999992939192
0,0,9.998186111450195,0,0.0005999999702908099,0.009800000116229057,-0.05300000012305109,-0.019000000453128628,-0.01700000066872456
-0.009576806798577309,0,9.96945571899414,0,0.0005999999702908099,-0.019600000232458115,-0.05300000012305109,0.041000001416626686,0.0429999995335041
0,0,9.988609313964844,0,0.0004999999655410647,0,0.06800000267489824,-0.07999999804626934,0.0429999995335041
0,0,9.988609313964844,0,0.0004999999655410647,0.009800000116229057,-0.05300000012305109,-0.019000000453128628,-0.07799999992939192
-0.019153613597154617,0,10.02691650390625,0,0.0004999999655410647,0.019600000232458115,-0.11400000605382507,-0.07999999804626934,-0.01700000066872456
0,0,10.007762908935547,0,0.0004999999655410647,0.019600000232458115,-0.05300000012305109,-0.07999999804626934,0.0429999995335041
0,0,9.998186111450195,0,0.0004999999655410647,0.019600000232458115,-0.11400000605382507,0.1629999966029081,0.0429999995335041
0,0,9.988609313964844,0,0.00039999998989515007,0,0.007000000079177565,0.10199999734224074,0.0429999995335041
0,0,9.988609313964844,0,0.00039999998989515007,0.009800000116229057,0.128999995265459,0.041000001416626686,-0.07799999992939192
0,0,9.988609313964844,0,0.00039999998989515007,0.009800000116229057,0.128999995265459,-0.019000000453128628,-0.01700000066872456
-0.009576806798577309,0,9.988609313964844,0,0.00039999998989515007,-0.019600000232458115,0.007000000079177565,-0.07999999804626934,-0.07799999992939192
0,0,9.988609313964844,0,0.00039999998989515007,0.009800000116229057,-0.05300000012305109,-0.019000000453128628,0.0429999995335041
0,0,9.988609313964844,0,0.00039999998989515007,0,0.007000000079177565,0.041000001416626686,0.16500000138989213
0,0,9.998186111450195,0,0.00029999998514540493,0.019600000232458115,0.007000000079177565,-0.019000000453128628,-0.01700000066872456
0,0,9.988609313964844,0,0.00029999998514540493,0.009800000116229057,0.06800000267489824,0.041000001416626686,-0.01700000066872456
0,0,9.998186111450195,0,0.00029999998514540493,0.019600000232458115,0.007000000079177565,-0.07999999804626934,0.10400000212922476
-0.009576806798577309,0.038307227194309235,9.816226959228516,0.009800000116229057,-0.028999999165534973,0.029399998486042023,0.19000000119623298,0.5290000188473387,-0.01700000066872456
-0.009576806798577309,0,10.02691650390625,0,0.00029999998514540493,-0.058799996972084045,-0.1749999986443858,0.10199999734224074,-0.07799999992939192
0,0,9.940725326538086,0,0.00029999998514540493,0.009800000116229057,-0.11400000605382507,0.041000001416626686,-0.01700000066872456
0,0,9.998186111450195,0,0.00029999998514540493,0.029399998486042023,0.007000000079177565,-0.07999999804626934,0.0429999995335041
0,0,9.988609313964844,0,0.00029999998514540493,0,0.128999995265459,-0.07999999804626934,0.0429999995335041
-0.009576806798577309,-0.009576806798577309,10.065223693847656,0,0.00019999999494757503,-0.058799996972084045,-0.29699999716572056,0.041000001416626686,0.0429999995335041
-0.009576806798577309,0,10.02691650390625,0,0.00019999999494757503,-0.019600000232458115,0.007000000079177565,-0.07999999804626934,-0.01700000066872456
0,0,9.979032516479492,0,0.00019999999494757503,-0.019600000232458115,-0.05300000012305109,-0.019000000453128628,-0.01700000066872456
0,0,9.988609313964844,0,0.00019999999494757503,-0.009800000116229057,-0.11400000605382507,0.041000001416626686,-0.01700000066872456
0,0,9.96945571899414,0,0.00019999999494757503,-0.009800000116229057,0.5560000234406636,0.10199999734224074,-0.01700000066872456
-0.009576806798577309,0,9.988609313964844,0,0.00019999999494757503,0.009800000116229057,-0.05300000012305109,-0.019000000453128628,-0.01700000066872456
0,0,9.988609313964844,0,0.00019999999494757503,0.029399998486042023,-0.11400000605382507,-0.07999999804626934,-0.07799999992939192
0,0,9.988609313964844,0,0.00019999999494757503,0.019600000232458115,0.06800000267489824,0.041000001416626686,-0.07799999992939192
-0.009576806798577309,0,9.988609313964844,0,0.00019999999494757503,0.009800000116229057,0.06800000267489824,-0.019000000453128628,-0.01700000066872456
0,0,9.988609313964844,0,0.00009999999747378752,0.009800000116229057,0.06800000267489824,-0.019000000453128628,-0.07799999992939192
0,0,9.988609313964844,0,0.00009999999747378752,0.009800000116229057,-0.05300000012305109,-0.14099999730693671,0.0429999995335041
0,0,9.979032516479492,0,0.00009999999747378752,0.009800000116229057,-0.05300000012305109,0.041000001416626686,-0.01700000066872456
0,0,9.96945571899414,0,0.00009999999747378752,0.029399998486042023,0.007000000079177565,0.041000001416626686,0.0429999995335041
0,0,9.979032516479492,0,0.00009999999747378752,0,-0.1749999986443858,-0.019000000453128628,0.0429999995335041
0,0,9.979032516479492,0,0.00009999999747378752,0.04899999871850014,0.19000000119623298,-0.07999999804626934,0.0429999995335041
-0.009576806798577309,0,9.979032516479492,0,0.00009999999747378752,0.009800000116229057,-0.11400000605382507,-0.07999999804626934,0.0429999995335041
0,0,10.02691650390625,0,0.00009999999747378752,0.03920000046491623,-0.05300000012305109,-0.07999999804626934,-0.01700000066872456
0,0,9.998186111450195,0,0.00009999999747378752,0.009800000116229057,-0.11400000605382507,-0.019000000453128628,-0.01700000066872456
0,0,10.007762908935547,0,0.00009999999747378752,0,-0.11400000605382507,0.041000001416626686,0.0429999995335041
0,0,9.998186111450195,0,0.00009999999747378752,0.029399998486042023,0.128999995265459,-0.019000000453128628,-0.01700000066872456
0,0,9.979032516479492,0,0.00009999999747378752,0.009800000116229057,0.007000000079177565,0.041000001416626686,0.0429999995335041
0,0,9.988609313964844,0,0.00009999999747378752,0.009800000116229057,-0.2360000045751598,-0.019000000453128628,-0.01700000066872456
0,0,9.988609313964844,0,0.00009999999747378752,0.029399998486042023,0.06800000267489824,-0.019000000453128628,-0.01700000066872456
0,0,9.988609313964844,0,0.00009999999747378752,0,-0.11400000605382507,-0.019000000453128628,-0.01700000066872456
0,0,9.988609313964844,0,0.00009999999747378752,0.019600000232458115,-0.05300000012305109,-0.019000000453128628,-0.01700000066872456
0,0,9.998186111450195,0,0.00009999999747378752,0.019600000232458115,-0.1749999986443858,0.041000001416626686,0.0429999995335041
0,0,9.988609313964844,0,0.00009999999747378752,0.009800000116229057,0.007000000079177565,-0.019000000453128628,0.0429999995335041
0,0,9.988609313964844,0,0.00009999999747378752,0.009800000116229057,0.007000000079177565,0.041000001416626686,0.0429999995335041
0,0,9.988609313964844,0,0.00009999999747378752,0,-0.05300000012305109,-0.019000000453128628,0.0429999995335041
0,0,9.988609313964844,0,0.00009999999747378752,0,-0.05300000012305109,-0.019000000453128628,0.0429999995335041
0,0,9.988609313964844,0,0.00009999999747378752,0,-0.05300000012305109,-0.019000000453128628,0.0429999995335041
0,0,9.979032516479492,0,0.00009999999747378752,0,-0.05300000012305109,0.10199999734224074,-0.01700000066872456
0,0,9.988609313964844,0,0.00009999999747378752,0,-0.05300000012305109,0.10199999734224074,-0.01700000066872456
0,0,9.979032516479492,0,0.00009999999747378752,-0.009800000116229057,-0.11400000605382507,-0.019000000453128628,-0.07799999992939192
0,0,9.998186111450195,0,0,0.009800000116229057,-0.05300000012305109,0.041000001416626686,-0.01700000066872456
0,0,9.998186111450195,0,0,0.009800000116229057,-0.05300000012305109,0.041000001416626686,-0.01700000066872456
0,0,9.988609313964844,0,0,0,0.06800000267489824,0.10199999734224074,0.0429999995335041
0,0,9.988609313964844,0,0,0,-0.05300000012305109,-0.019000000453128628,-0.01700000066872456
0,0,9.988609313964844,0,0,0,0.007000000079177565,0.041000001416626686,0.0429999995335041
0,0,9.988609313964844,0,0,0,-0.11400000605382507,-0.07999999804626934,-0.07799999992939192
0,0,9.988609313964844,0,0,0,0.007000000079177565,-0.20200000323771067,-0.01700000066872456
0,0,9.988609313964844,0,0,0,0.007000000079177565,0.10199999734224074,-0.01700000066872456
0,0,9.988609313964844,0,0,0,0.007000000079177565,-0.019000000453128628,0.0429999995335041
0,0,9.988609313964844,0,0,0,0.007000000079177565,-0.019000000453128628,-0.01700000066872456
0,0,9.979032516479492,0,0,-0.058799996972084045,-0.11400000605382507,-0.019000000453128628,0.0429999995335041
0,0,9.988609313964844,0,0,-0.019600000232458115,-0.1749999986443858,-0.019000000453128628,-0.01700000066872456
0,0,9.988609313964844,0,0,-0.019600000232458115,-0.1749999986443858,-0.019000000453128628,-0.01700000066872456
0,0,9.96945571899414,0,0,-0.07840000092983246,-0.2360000045751598,0.1629999966029081,0.0429999995335041
0,-0.009576806798577309,9.998186111450195,0,0,0.009800000116229057,-0.05300000012305109,-0.019000000453128628,-0.07799999992939192
0,0,9.96945571899414,0,0,-0.019600000232458115,0.19000000119623298,0.10199999734224074,-0.01700000066872456
0,0,9.90241813659668,0,0,-0.06859999895095825,0.25100000712700693,0.041000001416626686,0.0429999995335041
0,0,9.988609313964844,0,0,0.019600000232458115,-0.3579999897562813,0.041000001416626686,0.0429999995335041
0,0,9.96945571899414,0,0,0,-0.1749999986443858,-0.07999999804626934,-0.01700000066872456
0,0,9.979032516479492,0,0,-0.029399998486042023,-0.11400000605382507,0.10199999734224074,-0.01700000066872456
0,0,9.979032516479492,0,0,-0.029399998486042023,-0.11400000605382507,0.10199999734224074,-0.01700000066872456
0,0,9.998186111450195,0,0,-0.03920000046491623,-0.1749999986443858,-0.14099999730693671,-0.01700000066872456
0,0,10.055646896362305,0,0,0.058799996972084045,-0.29699999716572056,0.3459999877148036,0.0429999995335041
0,0,9.959878921508789,0,0,-0.009800000116229057,0.128999995265459,-0.20200000323771067,-0.07799999992939192
0,0,9.96945571899414,0,0,0.009800000116229057,0.128999995265459,-0.07999999804626934,0.0429999995335041
0,0,9.979032516479492,0,0,0,0.128999995265459,-0.07999999804626934,0.0429999995335041
0,0,9.979032516479492,0,0,-0.019600000232458115,0.007000000079177565,0.041000001416626686,0.0429999995335041
0,0,9.988609313964844,0,0,-0.009800000116229057,0.007000000079177565,0.041000001416626686,0.0429999995335041
0,0,9.998186111450195,0,0,-0.009800000116229057,0.128999995265459,0.10199999734224074,-0.01700000066872456
0,0,10.007762908935547,0,0,-0.009800000116229057,0.007000000079177565,-0.14099999730693671,0.0429999995335041
0,0,9.979032516479492,0,0,-0.009800000116229057,0.007000000079177565,-0.07999999804626934,0.0429999995335041
0,0,9.988609313964844,0,0,-0.009800000116229057,-0.05300000012305109,0.041000001416626686,-0.07799999992939192
0,0,9.988609313964844,0,0,0,-0.05300000012305109,-0.019000000453128628,0.0429999995335041
-0.009576806798577309,0,9.998186111450195,0,0,0,0.007000000079177565,-0.019000000453128628,-0.01700000066872456
0,0,9.96945571899414,0,0,0,0.06800000267489824,-0.019000000453128628,-0.07799999992939192
0,0,9.988609313964844,0,0,0,0.007000000079177565,-0.07999999804626934,0.0429999995335041
0,0,9.998186111450195,0,0,0.009800000116229057,0.19000000119623298,-0.019000000453128628,-0.07799999992939192
0,0,9.998186111450195,0,0,0,0.007000000079177565,0.041000001416626686,0.0429999995335041
0,0,9.998186111450195,0,0,0.009800000116229057,-0.05300000012305109,-0.07999999804626934,-0.01700000066872456
0,0,9.998186111450195,0,0,0.009800000116229057,0.06800000267489824,0.10199999734224074,0.0429999995335041
0,0,9.979032516479492,0,0,-0.009800000116229057,0.06800000267489824,0.041000001416626686,-0.07799999992939192
0,0,9.988609313964844,0,0,0,0.06800000267489824,-0.019000000453128628,-0.01700000066872456
0,0,9.988609313964844,0,0,0,0.007000000079177565,0.041000001416626686,-0.1390000058601659
0,0,9.988609313964844,0,0,0,-0.05300000012305109,-0.019000000453128628,0.10400000212922476
0,0,9.988609313964844,0,0,0,0.06800000267489824,0.041000001416626686,-0.07799999992939192
0,0,9.988609313964844,0,0,0,0.007000000079177565,-0.019000000453128628,0.0429999995335041
0,0,9.988609313964844,0,0,0,0.06800000267489824,0.4070000069857908,-0.01700000066872456
0,0,9.998186111450195,0,0,0.009800000116229057,0.007000000079177565,-0.07999999804626934,-0.07799999992939192
0,0,9.988609313964844,0,0,0,0.007000000079177565,-0.07999999804626934,-0.07799999992939192
0,0,9.979032516479492,0,0,0,0.06800000267489824,-0.019000000453128628,0.0429999995335041
0,0,9.988609313964844,0,0,0,0.007000000079177565,-0.019000000453128628,-0.01700000066872456
0,0,9.988609313964844,0,0,0,0.06800000267489824,-0.019000000453128628,-0.07799999992939192
0,0,9.979032516479492,0,0,-0.009800000116229057,0.007000000079177565,-0.019000000453128628,0.0429999995335041
0,0,9.979032516479492,0,0,0,0.128999995265459,-0.019000000453128628,-0.1390000058601659
0,0,9.979032516479492,0,0,-0.009800000116229057,0.128999995265459,-0.019000000453128628,0.10400000212922476
0,0,9.988609313964844,0,0,-0.019600000232458115,0.06800000267489824,-0.07999999804626934,-0.1390000058601659
0,0,9.988609313964844,0,0,0,0.19000000119623298,0.10199999734224074,-0.01700000066872456
0,0,9.988609313964844,0,0,0,0.007000000079177565,-0.019000000453128628,-0.01700000066872456
0,0,9.979032516479492,0,0,-0.009800000116229057,0.128999995265459,-0.019000000453128628,-0.01700000066872456
0,0,9.988609313964844,0,0,0,-0.05300000012305109,-0.019000000453128628,0.0429999995335041
0,0,9.988609313964844,0,0,0,0.007000000079177565,0.10199999734224074,-0.07799999992939192
0,0,9.988609313964844,0,0,0,-0.05300000012305109,-0.019000000453128628,-0.01700000066872456
0,0,9.988609313964844,0,0,0,0.007000000079177565,0.041000001416626686,-0.07799999992939192
0,0,9.988609313964844,0,0,0,-0.05300000012305109,-0.14099999730693671,-0.1390000058601659
0,0,9.988609313964844,0,0,0,0.007000000079177565,-0.07999999804626934,-0.01700000066872456
0,0,9.979032516479492,0,0,-0.009800000116229057,0.06800000267489824,0.041000001416626686,-0.01700000066872456
0,0,9.988609313964844,0,0,0,-0.05300000012305109,0.041000001416626686,-0.01700000066872456
0,0,9.998186111450195,0,0,0,0.06800000267489824,-0.07999999804626934,-0.01700000066872456
-0.009576806798577309,0,9.998186111450195,0,0,0.009800000116229057,-0.11400000605382507,-0.14099999730693671,-0.01700000066872456
0,0,9.988609313964844,0,0,0,-0.11400000605382507,0.041000001416626686,0.0429999995335041
0,0,9.988609313964844,0,0,0,0.06800000267489824,-0.019000000453128628,-0.01700000066872456
0,0,9.979032516479492,0,0,-0.009800000116229057,-0.05300000012305109,-0.07999999804626934,0.0429999995335041
0,0,9.998186111450195,0,0,0,-0.05300000012305109,0.10199999734224074,0.0429999995335041
0,0,9.998186111450195,0,0,0.009800000116229057,-0.05300000012305109,0.041000001416626686,-0.01700000066872456
0,0,9.988609313964844,0,0,0,0.007000000079177565,-0.019000000453128628,0.0429999995335041
0,0,9.988609313964844,0,0,0,0.06800000267489824,-0.019000000453128628,0.0429999995335041
0,0,9.988609313964844,0,0,0,0.06800000267489824,-0.019000000453128628,-0.01700000066872456
0,0,9.988609313964844,0,0,0,0.007000000079177565,-0.019000000453128628,0.10400000212922476
0,0,9.979032516479492,0,0,0,-0.05300000012305109,-0.07999999804626934,0.10400000212922476
0,0,9.979032516479492,0,0,-0.009800000116229057,0.007000000079177565,-0.07999999804626934,0.0429999995335041
