Accelerometer_Gx,Accelerometer_Gy,Accelerometer_Gz,Accelerometer_X,Accelerometer_Y,Accelerometer_Z,Gyroscope_Z,Gyroscope_X,Gyroscope_Y
0,0,10.02691650390625,-0.003599999938160181,0.003499999875202775,0,0.09500000059811649,-0.06200000165415938,0.057000003026912535
0,0,10.02691650390625,-0.0008999999845400453,-0.0011999999405816197,0.009800000116229057,-0.02600000053230619,0.05900000114378995,-0.06399999977103679
0,0,10.02691650390625,-0.0008999999845400453,-0.0011999999405816197,0.009800000116229057,-0.02600000053230619,0.05900000114378995,-0.06399999977103679
0,0,10.02691650390625,-0.0007999999797903001,-0.0010999999940395355,0.009800000116229057,-0.08700000146050021,-0.06200000165415938,0.057000003026912535
0,0,10.02691650390625,-0.0011999999405816197,-0.0007999999797903001,0.009800000116229057,0.09500000059811649,-0.06200000165415938,-0.06399999977103679
0,0,10.017339706420898,-0.0010999999940395355,-0.001500000013038516,0,0.21700000578955783,0.05900000114378995,-0.0030000000934877653
0,0,10.017339706420898,-0.0007999999797903001,-0.0017999999690800905,0,0.21700000578955783,0.05900000114378995,-0.0030000000934877653
0,0,10.007762908935547,-0.0004999999655410647,-0.0011999999405816197,-0.009800000116229057,-0.20899999998183494,0.1199999937343507,-0.0030000000934877653
0,0,9.998186111450195,-0.0004999999655410647,-0.0011999999405816197,-0.019600000232458115,-0.02600000053230619,-0.0009999999964224499,-0.0030000000934877653
0,0,9.998186111450195,-0.0004999999655410647,-0.0010999999940395355,-0.019600000232458115,0.03400000133744912,-0.12299999424472013,-0.06399999977103679
0,0,9.998186111450195,-0.0007999999797903001,-0.0009999999310821295,0,0.15599999985878385,-0.06200000165415938,0.057000003026912535
0,0,9.998186111450195,-0.0009999999310821295,-0.001500000013038516,0,-0.02600000053230619,-0.12299999424472013,-0.0030000000934877653
0,0,9.998186111450195,-0.0011999999405816197,-0.0011999999405816197,0,0.03400000133744912,-0.0009999999964224499,-0.0030000000934877653
0,0,9.998186111450195,-0.0013000000035390258,-0.0013000000035390258,0,-0.02600000053230619,0.05900000114378995,-0.0030000000934877653
0,0,9.998186111450195,-0.0009999999310821295,-0.0010999999940395355,0,-0.02600000053230619,-0.0009999999964224499,-0.0030000000934877653
0,0,9.998186111450195,-0.0010999999940395355,-0.0009999999310821295,0,0.03400000133744912,-0.0009999999964224499,0.057000003026912535
0,0,9.988609313964844,-0.0009999999310821295,-0.0009999999310821295,-0.009800000116229057,-0.14799999405106096,-0.06200000165415938,-0.0030000000934877653
0,0,9.998186111450195,-0.0011999999405816197,-0.0005999999702908099,0,0.15599999985878385,0.18099999966512467,-0.06399999977103679
-0.009576806798577309,0,9.998186111450195,-0.0005999999702908099,-0.0008999999845400453,0,-0.08700000146050021,-0.06200000165415938,-0.0030000000934877653
0,0,9.998186111450195,-0.0007999999797903001,-0.0005999999702908099,0,0.03400000133744912,0.05900000114378995,-0.0030000000934877653
0,0,9.988609313964844,-0.0005999999702908099,-0.0005999999702908099,-0.009800000116229057,0.03400000133744912,0.05900000114378995,-0.0030000000934877653
0,0,9.998186111450195,-0.0004999999655410647,-0.000699999975040555,0,0.03400000133744912,0.05900000114378995,0.057000003026912535
0,0,9.998186111450195,-0.00029999998514540493,-0.000699999975040555,0.009800000116229057,-0.02600000053230619,-0.0009999999964224499,-0.06399999977103679
0,0,9.998186111450195,-0.0004999999655410647,-0.0004999999655410647,0,-0.02600000053230619,-0.06200000165415938,0.1180000022875799
0,0,9.998186111450195,-0.0004999999655410647,-0.0004999999655410647,0,0.03400000133744912,-0.06200000165415938,-0.0030000000934877653
0,0,9.998186111450195,-0.000699999975040555,-0.0005999999702908099,0,-0.02600000053230619,0.05900000114378995,-0.0030000000934877653
0,0,9.998186111450195,-0.00019999999494757503,-0.0004999999655410647,-0.009800000116229057,0.03400000133744912,0.1199999937343507,0.1180000022875799
0,0,9.998186111450195,-0.00009999999747378752,-0.0004999999655410647,0,0.03400000133744912,0.05900000114378995,-0.06399999977103679
0,0,9.988609313964844,0.00009999999747378752,-0.00039999998989515007,-0.009800000116229057,-0.02600000053230619,0.1199999937343507,-0.06399999977103679
0,0,9.998186111450195,0.00029999998514540493,-0.0004999999655410647,0,0.03400000133744912,0.05900000114378995,-0.0030000000934877653
0,0,9.998186111450195,0.00009999999747378752,-0.00039999998989515007,0,-0.02600000053230619,-0.06200000165415938,-0.0030000000934877653
0,0,9.998186111450195,-0.00019999999494757503,-0.00029999998514540493,0,-0.02600000053230619,-0.12299999424472013,0.1180000022875799
0,0,9.998186111450195,0,-0.00029999998514540493,0,0.03400000133744912,0.1199999937343507,0.057000003026912535
0,0,9.988609313964844,0,-0.0004999999655410647,-0.009800000116229057,-0.02600000053230619,-0.06200000165415938,0.057000003026912535
0,0,9.998186111450195,-0.00029999998514540493,0,0,-0.20899999998183494,-0.06200000165415938,0.057000003026912535
0,0,9.998186111450195,-0.00029999998514540493,0,0,-0.14799999405106096,-0.0009999999964224499,-0.06399999977103679
0,0,9.998186111450195,-0.00029999998514540493,0.0004999999655410647,0,-0.02600000053230619,0.05900000114378995,0.057000003026912535
0,0,9.998186111450195,-0.00019999999494757503,0.0004999999655410647,0.009800000116229057,0.15599999985878385,-0.06200000165415938,-0.0030000000934877653
0,0,10.007762908935547,-0.00039999998989515007,0.00009999999747378752,0.009800000116229057,-0.02600000053230619,-0.0009999999964224499,-0.0030000000934877653
0,0,9.988609313964844,-0.00039999998989515007,0.00019999999494757503,-0.009800000116229057,0.2780000117203318,-0.7939999927821677,0.057000003026912535
0,0,9.979032516479492,-0.0026000000070780516,-0.0004999999655410647,-0.03920000046491623,0.03400000133744912,-0.0009999999964224499,-0.06399999977103679
0,0,9.988609313964844,-0.0023999998811632395,-0.0004999999655410647,0,0.03400000133744912,-0.0009999999964224499,-0.0030000000934877653
0,0,9.988609313964844,-0.0024999999441206455,-0.0005999999702908099,-0.009800000116229057,0.03400000133744912,-0.0009999999964224499,-0.0030000000934877653
0,0,9.988609313964844,-0.0024999999441206455,-0.0005999999702908099,-0.009800000116229057,0.03400000133744912,-0.0009999999964224499,-0.0030000000934877653
0,0,9.979032516479492,-0.0024999999441206455,-0.000699999975040555,-0.019600000232458115,-0.14799999405106096,-0.0009999999964224499,0.057000003026912535
0,0,9.979032516479492,-0.002300000051036477,-0.00019999999494757503,-0.019600000232458115,-0.02600000053230619,0.05900000114378995,-0.12499999903170415
0,0,9.988609313964844,-0.0018999999156221747,0.00019999999494757503,-0.009800000116229057,-0.14799999405106096,0.05900000114378995,0.057000003026912535
0,0,9.988609313964844,-0.0018999999156221747,0.00019999999494757503,-0.009800000116229057,-0.08700000146050021,-0.0009999999964224499,-0.06399999977103679
0,0,9.988609313964844,-0.0017999999690800905,0.00019999999494757503,-0.009800000116229057,0.09500000059811649,-0.0009999999964224499,0.057000003026912535
0,0,9.988609313964844,-0.0017999999690800905,0.00019999999494757503,-0.009800000116229057,0.03400000133744912,-0.12299999424472013,-0.0030000000934877653
0,0,9.988609313964844,-0.002199999988079071,0.00009999999747378752,-0.009800000116229057,0.09500000059811649,-0.06200000165415938,0.057000003026912535
0,0,9.988609313964844,-0.0023999998811632395,0.00009999999747378752,-0.009800000116229057,-0.14799999405106096,-0.0009999999964224499,0.057000003026912535
0,0,9.988609313964844,-0.002300000051036477,0.0004999999655410647,-0.009800000116229057,-0.14799999405106096,-0.0009999999964224499,0.057000003026912535
0,0,9.988609313964844,-0.002300000051036477,0.00039999998989515007,-0.009800000116229057,0.03400000133744912,-0.0009999999964224499,0.057000003026912535
0,0,9.988609313964844,-0.002199999988079071,0.00029999998514540493,-0.009800000116229057,0.03400000133744912,-0.0009999999964224499,0.057000003026912535
0,0,9.988609313964844,-0.001999999862164259,0.00029999998514540493,-0.009800000116229057,0.03400000133744912,0.05900000114378995,-0.0030000000934877653
0,0,9.988609313964844,-0.002099999925121665,0.00019999999494757503,-0.009800000116229057,-0.08700000146050021,-0.06200000165415938,0.057000003026912535
0,0,9.988609313964844,-0.002300000051036477,0.00039999998989515007,-0.009800000116229057,0.03400000133744912,-0.0009999999964224499,-0.0030000000934877653
0,0,9.988609313964844,-0.002099999925121665,0.00039999998989515007,0,-0.02600000053230619,0.1199999937343507,0.057000003026912535
0,0,9.979032516479492,-0.001999999862164259,0.00039999998989515007,-0.009800000116229057,0.09500000059811649,-0.0009999999964224499,0.057000003026912535
0,0,9.979032516479492,-0.001999999862164259,0.00039999998989515007,-0.009800000116229057,-0.08700000146050021,0.05900000114378995,-0.0030000000934877653
0,0,9.979032516479492,-0.0017999999690800905,0.00029999998514540493,-0.009800000116229057,0.03400000133744912,-0.06200000165415938,-0.0030000000934877653
0,0,9.979032516479492,-0.0017999999690800905,0.00029999998514540493,-0.009800000116229057,-0.02600000053230619,-0.0009999999964224499,-0.0030000000934877653
0,0,9.979032516479492,-0.0016999999061226845,0.00029999998514540493,-0.009800000116229057,-0.08700000146050021,0.24200000559589865,-0.0030000000934877653
0,0,9.979032516479492,-0.0016999999061226845,0.00029999998514540493,-0.009800000116229057,0.03400000133744912,0.05900000114378995,0.057000003026912535
0,0,9.979032516479492,-0.0015999999595806003,0.00029999998514540493,-0.009800000116229057,0.09500000059811649,0.24200000559589865,0.057000003026912535
0,0,9.988609313964844,-0.00139999995008111,0.00029999998514540493,0,-0.20899999998183494,0.05900000114378995,0.057000003026912535
0,0,9.988609313964844,-0.00139999995008111,0.00029999998514540493,0,0.03400000133744912,0.05900000114378995,-0.06399999977103679
0,0,9.998186111450195,-0.00139999995008111,0.00029999998514540493,0.009800000116229057,0.15599999985878385,0.05900000114378995,-0.0030000000934877653
0,0,9.988609313964844,-0.0013000000035390258,0.00019999999494757503,0,0.03400000133744912,-0.0009999999964224499,0.057000003026912535
0,0,9.988609313964844,-0.0013000000035390258,0.00019999999494757503,0,0.03400000133744912,-0.06200000165415938,0.057000003026912535
0,0,9.988609313964844,-0.0011999999405816197,0.00019999999494757503,0,0.09500000059811649,-0.06200000165415938,0.057000003026912535
0,0,9.979032516479492,-0.0011999999405816197,0.00019999999494757503,0,0.03400000133744912,0.05900000114378995,-0.0030000000934877653
0,0,9.979032516479492,-0.0011999999405816197,0.00019999999494757503,0,-0.14799999405106096,-0.12299999424472013,0.057000003026912535
0,0,9.988609313964844,-0.0010999999940395355,0.00019999999494757503,0,0.03400000133744912,0.05900000114378995,-0.0030000000934877653
0,0,9.988609313964844,-0.0010999999940395355,0.00019999999494757503,0,-0.02600000053230619,-0.06200000165415938,-0.06399999977103679
0,0,9.988609313964844,-0.0009999999310821295,0.00019999999494757503,0,-0.02600000053230619,-0.06200000165415938,0.057000003026912535
0,0,9.988609313964844,-0.0009999999310821295,0.00019999999494757503,0,-0.02600000053230619,-0.06200000165415938,0.057000003026912535
0,0,9.988609313964844,-0.0008999999845400453,0.00019999999494757503,0,0.2780000117203318,-0.0009999999964224499,0.057000003026912535
0,0,9.988609313964844,-0.0008999999845400453,0.00019999999494757503,0,0.09500000059811649,-0.0009999999964224499,-0.06399999977103679
0,0,9.988609313964844,-0.0008999999845400453,0.00009999999747378752,0,-0.02600000053230619,-0.0009999999964224499,0.057000003026912535
0,0,9.988609313964844,-0.0008999999845400453,0.00009999999747378752,0,0.03400000133744912,-0.0009999999964224499,-0.0030000000934877653
0,0,9.988609313964844,-0.0007999999797903001,0.00009999999747378752,0,0.03400000133744912,-0.0009999999964224499,-0.0030000000934877653
0,0,9.988609313964844,-0.0007999999797903001,0.00009999999747378752,0,-0.14799999405106096,-0.0009999999964224499,-0.12499999903170415
0,0,9.979032516479492,-0.000699999975040555,0.00009999999747378752,-0.009800000116229057,-0.02600000053230619,0.05900000114378995,-0.06399999977103679
0,0,9.979032516479492,-0.000699999975040555,0.00009999999747378752,-0.009800000116229057,0.09500000059811649,-0.0009999999964224499,0.057000003026912535
0,0,9.979032516479492,-0.000699999975040555,0.00009999999747378752,-0.009800000116229057,0.09500000059811649,-0.0009999999964224499,0.057000003026912535
0,0,9.998186111450195,-0.000699999975040555,0.00009999999747378752,0,0.03400000133744912,0.1199999937343507,-0.0030000000934877653
0,0,9.979032516479492,-0.0005999999702908099,0.00009999999747378752,-0.009800000116229057,0.03400000133744912,0.05900000114378995,0.057000003026912535
0,0,9.979032516479492,-0.0005999999702908099,0.00009999999747378752,-0.009800000116229057,-0.02600000053230619,-0.06200000165415938,0.057000003026912535
0,0,9.979032516479492,-0.0005999999702908099,0.00009999999747378752,-0.009800000116229057,-0.02600000053230619,-0.06200000165415938,0.057000003026912535
0,0,9.988609313964844,-0.0004999999655410647,0.00009999999747378752,0,-0.08700000146050021,-0.0009999999964224499,0.057000003026912535
0,0,9.988609313964844,-0.0004999999655410647,0.00009999999747378752,0,-0.02600000053230619,0.05900000114378995,-0.0030000000934877653
0,0,9.988609313964844,-0.0004999999655410647,0.00009999999747378752,0,-0.02600000053230619,-0.0009999999964224499,0.057000003026912535
0,0,9.988609313964844,-0.0004999999655410647,0.00009999999747378752,0,-0.20899999998183494,0.05900000114378995,-0.0030000000934877653
0,0,9.988609313964844,-0.0004999999655410647,0.00009999999747378752,0,-0.02600000053230619,0.05900000114378995,0.1180000022875799
0,0,9.988609313964844,-0.0004999999655410647,0.00009999999747378752,0,-0.08700000146050021,0.05900000114378995,0.057000003026912535
0,0,9.988609313964844,-0.00039999998989515007,0.00009999999747378752,0,0.03400000133744912,-0.0009999999964224499,-0.0030000000934877653
0,0,9.988609313964844,-0.00039999998989515007,0.00009999999747378752,0,0.03400000133744912,-0.0009999999964224499,-0.0030000000934877653
0,0,9.988609313964844,-0.00039999998989515007,0,0,0.03400000133744912,-0.12299999424472013,-0.0030000000934877653
0,0,9.988609313964844,-0.00039999998989515007,0,0,0.21700000578955783,0.1199999937343507,-0.06399999977103679
0,0,9.988609313964844,-0.00039999998989515007,0,0,-0.02600000053230619,0.05900000114378995,-0.06399999977103679
0,0,9.998186111450195,-0.00039999998989515007,0,0.009800000116229057,0.15599999985878385,0.1199999937343507,-0.0030000000934877653
0,0,9.979032516479492,-0.00029999998514540493,0,-0.009800000116229057,0.15599999985878385,0.1199999937343507,-0.0030000000934877653
0,0,9.988609313964844,-0.00029999998514540493,0,0,-0.08700000146050021,0.05900000114378995,-0.0030000000934877653
0,0,9.979032516479492,-0.00029999998514540493,0,0,-0.08700000146050021,-0.06200000165415938,-0.0030000000934877653
0,0,9.979032516479492,-0.00029999998514540493,0,0,-0.5140000162954916,-0.12299999424472013,0.1180000022875799
0,0,9.979032516479492,-0.00029999998514540493,0,0,-0.02600000053230619,0.18099999966512467,-0.0030000000934877653
0,0,9.979032516479492,-0.00029999998514540493,0,0,-0.08700000146050021,0.1199999937343507,-0.0030000000934877653
0,0,9.96945571899414,-0.00019999999494757503,0,-0.009800000116229057,-0.02600000053230619,-0.06200000165415938,-0.0030000000934877653
0,0,9.988609313964844,-0.00029999998514540493,0,0.009800000116229057,-0.14799999405106096,0.1199999937343507,0.057000003026912535
0,0,9.988609313964844,-0.00019999999494757503,0,0.009800000116229057,0.03400000133744912,-0.06200000165415938,0.057000003026912535
0,0,9.979032516479492,-0.00019999999494757503,0,0,0.2780000117203318,-0.0009999999964224499,-0.06399999977103679
0,0,9.988609313964844,-0.00019999999494757503,0,0.009800000116229057,0.03400000133744912,-0.06200000165415938,-0.0030000000934877653
0,0,9.988609313964844,-0.00019999999494757503,0,0.009800000116229057,0.09500000059811649,0.1199999937343507,-0.0030000000934877653
0,0,9.988609313964844,-0.00019999999494757503,0,0.009800000116229057,0.03400000133744912,0.05900000114378995,0.057000003026912535
0,0,9.979032516479492,-0.00019999999494757503,0,0.009800000116229057,0.09500000059811649,0.05900000114378995,-0.0030000000934877653
0,0,9.988609313964844,-0.00019999999494757503,0,0,-0.08700000146050021,-0.0009999999964224499,-0.06399999977103679
0,0,9.979032516479492,-0.00019999999494757503,0,0,-0.20899999998183494,0.05900000114378995,-0.0030000000934877653
0,0,9.988609313964844,-0.00019999999494757503,0,0.009800000116229057,-0.08700000146050021,0.1199999937343507,0.1180000022875799
0,0,9.988609313964844,-0.00019999999494757503,0,0.009800000116229057,-0.02600000053230619,-0.06200000165415938,0.057000003026912535
0,0,9.988609313964844,-0.00009999999747378752,0,0.009800000116229057,0.15599999985878385,-0.0009999999964224499,-0.0030000000934877653
0,0,9.988609313964844,-0.00009999999747378752,0,0.009800000116229057,0.09500000059811649,-0.0009999999964224499,0.057000003026912535
0,0,9.988609313964844,-0.00009999999747378752,0,0,0.09500000059811649,-0.0009999999964224499,-0.0030000000934877653
0,0,9.979032516479492,-0.00009999999747378752,0,0,-0.02600000053230619,0.05900000114378995,0.057000003026912535
0,0,9.979032516479492,-0.00009999999747378752,0,0,-0.14799999405106096,-0.0009999999964224499,0.057000003026912535
0,0,9.979032516479492,-0.00009999999747378752,0,0,0.03400000133744912,0.05900000114378995,-0.12499999903170415
0,0,9.96945571899414,-0.00009999999747378752,0,-0.009800000116229057,0.03400000133744912,-0.06200000165415938,0.057000003026912535
0,0,9.96945571899414,-0.00009999999747378752,0,-0.009800000116229057,0.09500000059811649,-0.0009999999964224499,-0.06399999977103679
0,0,9.96945571899414,-0.00009999999747378752,0,-0.009800000116229057,-0.08700000146050021,0.05900000114378995,-0.0030000000934877653
0,0,9.96945571899414,-0.00009999999747378752,0,-0.009800000116229057,-0.08700000146050021,-0.0009999999964224499,0.057000003026912535
0,0,9.979032516479492,-0.00009999999747378752,0,0,-0.08700000146050021,-0.06200000165415938,0.057000003026912535
0,0,9.979032516479492,-0.00009999999747378752,0,0,0.03400000133744912,0.05900000114378995,0.057000003026912535
0,0,9.988609313964844,-0.00009999999747378752,0,0.009800000116229057,-0.20899999998183494,0.05900000114378995,0.057000003026912535
0,0,9.988609313964844,-0.00009999999747378752,0,0.009800000116229057,0.03400000133744912,0.05900000114378995,0.057000003026912535
0,0,9.988609313964844,-0.00009999999747378752,0,0.009800000116229057,-0.02600000053230619,0.05900000114378995,-0.06399999977103679
0,0,9.988609313964844,-0.00009999999747378752,0,0.009800000116229057,0.03400000133744912,-0.06200000165415938,0.1180000022875799
0,0,9.988609313964844,-0.00009999999747378752,0,0.009800000116229057,0.09500000059811649,-0.0009999999964224499,-0.0030000000934877653
0,0,9.988609313964844,0,0,0.009800000116229057,0.09500000059811649,-0.0009999999964224499,-0.06399999977103679
0,0,9.988609313964844,0,0,0.009800000116229057,-0.14799999405106096,0.1199999937343507,0.057000003026912535
0,0,9.988609313964844,0,0,0,-0.08700000146050021,-0.0009999999964224499,-0.0030000000934877653
0,0,9.979032516479492,0,0,0,0.09500000059811649,0.05900000114378995,0.057000003026912535
0,0,9.979032516479492,0,0,0,0.03400000133744912,0.05900000114378995,-0.0030000000934877653
0,0,9.979032516479492,0,0,0,-0.08700000146050021,-0.0009999999964224499,0.057000003026912535
0,0,9.979032516479492,0,0,0,0.03400000133744912,-0.0009999999964224499,-0.06399999977103679
0,0,9.979032516479492,0,0,0,0.03400000133744912,-0.0009999999964224499,-0.0030000000934877653
0,0,9.979032516479492,0,0,0,0.03400000133744912,-0.0009999999964224499,-0.0030000000934877653
0,0,9.979032516479492,0,0,0,0.03400000133744912,0.18099999966512467,0.057000003026912535
0,0,9.979032516479492,0,0,0,0.03400000133744912,-0.0009999999964224499,-0.06399999977103679
0,0,9.988609313964844,0,0,0.009800000116229057,0.09500000059811649,0.18099999966512467,-0.0030000000934877653
0,0,9.979032516479492,0,0,0,-0.02600000053230619,-0.06200000165415938,-0.0030000000934877653
0,0,9.979032516479492,0,0,0,-0.02600000053230619,-0.0009999999964224499,-0.0030000000934877653
0,0,9.988609313964844,0,0,0.009800000116229057,0.09500000059811649,0.05900000114378995,-0.0030000000934877653
-0.009576806798577309,0,9.988609313964844,0,0,0,-0.02600000053230619,-0.06200000165415938,-0.0030000000934877653
0,0,9.988609313964844,0,0,0,0.03400000133744912,0.05900000114378995,-0.0030000000934877653
0,0,9.979032516479492,0,0,-0.009800000116229057,0.15599999985878385,0.05900000114378995,0.057000003026912535
0,0,9.979032516479492,0,0,-0.009800000116229057,0.09500000059811649,-0.0009999999964224499,-0.0030000000934877653
0,0,9.979032516479492,0,0,-0.009800000116229057,0.03400000133744912,0.05900000114378995,-0.0030000000934877653
0,0,9.979032516479492,0,0,-0.009800000116229057,0.03400000133744912,-0.06200000165415938,-0.0030000000934877653
0,0,9.988609313964844,0,0,0,-0.02600000053230619,0.05900000114378995,-0.0030000000934877653
0,0,9.988609313964844,0,0,0,-0.02600000053230619,-0.0009999999964224499,-0.0030000000934877653
0,0,9.988609313964844,0,0,0,-0.08700000146050021,0.18099999966512467,-0.06399999977103679
0,0,9.96945571899414,0,0,-0.019600000232458115,0.03400000133744912,-0.0009999999964224499,0.057000003026912535
0,0,9.988609313964844,0,0,0,-0.02600000053230619,-0.0009999999964224499,-0.06399999977103679
0,0,9.988609313964844,0,0,0,-0.02600000053230619,-0.06200000165415938,0.1180000022875799
0,0,9.979032516479492,0,0,-0.009800000116229057,0.03400000133744912,-0.06200000165415938,-0.0030000000934877653
0,0,9.988609313964844,0,0,0,-0.02600000053230619,-0.0009999999964224499,0.057000003026912535
0,0,9.988609313964844,0,0,-0.009800000116229057,-0.02600000053230619,0.05900000114378995,-0.06399999977103679
0,0,9.979032516479492,0,0,-0.009800000116229057,0.03400000133744912,0.05900000114378995,0.057000003026912535
0,0,9.979032516479492,0,0,-0.009800000116229057,0.09500000059811649,0.05900000114378995,-0.0030000000934877653
0,0,9.988609313964844,0,0,0,-0.08700000146050021,-0.0009999999964224499,-0.0030000000934877653
0,0,9.979032516479492,0,0,0,-0.02600000053230619,-0.0009999999964224499,0.057000003026912535
0,0,9.988609313964844,0,0,0,-0.08700000146050021,0.05900000114378995,0.1180000022875799
0,0,9.988609313964844,0,0,0,-0.02600000053230619,-0.06200000165415938,0.057000003026912535
0,0,9.988609313964844,0,0,0,-0.02600000053230619,0.05900000114378995,-0.0030000000934877653
0,0,9.988609313964844,0,0,0,0.03400000133744912,-0.06200000165415938,-0.0030000000934877653
0,0,9.988609313964844,0,0,0,-0.02600000053230619,0.1199999937343507,-0.0030000000934877653
-0.009576806798577309,0,9.979032516479492,0,0,-0.009800000116229057,-0.02600000053230619,-0.0009999999964224499,-0.06399999977103679
0,0,9.988609313964844,0,0,0,-0.08700000146050021,-0.0009999999964224499,0.057000003026912535
0,0,9.988609313964844,0,0,0,0.09500000059811649,-0.06200000165415938,0.057000003026912535
0,0,9.988609313964844,0,0,0,-0.02600000053230619,-0.0009999999964224499,-0.0030000000934877653
0,0,9.988609313964844,0,0,0,-0.02600000053230619,-0.12299999424472013,0.057000003026912535
0,0,9.979032516479492,0,0,0,0.03400000133744912,0.05900000114378995,-0.0030000000934877653
0,0,9.988609313964844,0,0,0,0.09500000059811649,0.05900000114378995,0.057000003026912535
0,0,9.988609313964844,0,0,0,-0.02600000053230619,-0.12299999424472013,-0.0030000000934877653
0,0,9.988609313964844,0,0,0,0.03400000133744912,-0.0009999999964224499,-0.0030000000934877653
0,0,9.988609313964844,0,0,0,0.03400000133744912,-0.0009999999964224499,0.057000003026912535
0,0,9.988609313964844,0,0,0,-0.02600000053230619,0.05900000114378995,0.057000003026912535
0,0,9.988609313964844,0,0,0,0.03400000133744912,-0.0009999999964224499,-0.0030000000934877653
0,0,9.988609313964844,0,0,0,0.09500000059811649,0.05900000114378995,0.057000003026912535
-0.019153613597154617,0,9.988609313964844,0,0,0,-0.02600000053230619,-0.06200000165415938,-0.0030000000934877653
0,0,9.988609313964844,0,0,0,0.03400000133744912,-0.06200000165415938,-0.0030000000934877653
0,0,9.988609313964844,0,0,0,-0.02600000053230619,-0.0009999999964224499,0.057000003026912535
0,0,9.988609313964844,0,0,0,-0.02600000053230619,-0.06200000165415938,-0.06399999977103679
0,0,9.979032516479492,0,0,0,-0.02600000053230619,0.05900000114378995,-0.06399999977103679
0,0,9.988609313964844,0,0,-0.009800000116229057,-0.02600000053230619,-0.06200000165415938,0.1180000022875799
0,0,9.988609313964844,0,0,0,-0.02600000053230619,-0.0009999999964224499,-0.0030000000934877653
0,0,9.988609313964844,0,0,0,-0.02600000053230619,-0.0009999999964224499,-0.0030000000934877653
0,0,9.988609313964844,0,0,0,-0.14799999405106096,-0.12299999424472013,-0.0030000000934877653
0,0,9.988609313964844,0,0,0,-0.02600000053230619,-0.06200000165415938,-0.0030000000934877653
0,0,9.988609313964844,0,0,0,-0.02600000053230619,-0.0009999999964224499,0.057000003026912535
0,0,9.988609313964844,0,0,0,0.09500000059811649,-0.06200000165415938,0.1180000022875799
0,0,9.988609313964844,0,0,0.009800000116229057,0.03400000133744912,0.05900000114378995,-0.0030000000934877653
0,0,9.988609313964844,0,0,0,-0.02600000053230619,-0.0009999999964224499,0.1180000022875799
0,0,9.988609313964844,0,0,0,0.03400000133744912,-0.06200000165415938,0.057000003026912535
0,0,9.988609313964844,0,0,0,0.03400000133744912,-0.06200000165415938,0.057000003026912535
0,0,9.988609313964844,0,0,0,0.03400000133744912,-0.06200000165415938,-0.0030000000934877653
0,0,9.998186111450195,0,0,0.009800000116229057,-0.02600000053230619,-0.0009999999964224499,-0.0030000000934877653
0,0,9.988609313964844,0,0,0.009800000116229057,0.03400000133744912,-0.0009999999964224499,-0.06399999977103679
0,0,9.988609313964844,0,0,0,-0.08700000146050021,-0.0009999999964224499,0.057000003026912535
0,0,9.988609313964844,0,0,0,-0.02600000053230619,-0.06200000165415938,-0.0030000000934877653
0,0,9.988609313964844,0,0,0,0.03400000133744912,-0.06200000165415938,-0.0030000000934877653
0,0,9.988609313964844,0,0,0,0.03400000133744912,0.05900000114378995,-0.0030000000934877653
0,0,9.979032516479492,0,0,-0.009800000116229057,-0.02600000053230619,-0.12299999424472013,0.057000003026912535
0,0,9.998186111450195,0,0,0.009800000116229057,-0.02600000053230619,-0.06200000165415938,-0.06399999977103679
0,0,9.998186111450195,0,0,0.009800000116229057,0.03400000133744912,0.05900000114378995,-0.06399999977103679
0,0,9.998186111450195,0,0,0.009800000116229057,0.03400000133744912,-0.0009999999964224499,0.057000003026912535
0,0,9.998186111450195,0,0,0.009800000116229057,-0.02600000053230619,-0.0009999999964224499,0.1180000022875799
0,0,9.998186111450195,0,0,0.009800000116229057,0.03400000133744912,-0.0009999999964224499,0.057000003026912535
0,0,9.988609313964844,0,0,0,-0.02600000053230619,0.1199999937343507,-0.0030000000934877653
0,0,9.988609313964844,0,0,0,-0.02600000053230619,0.05900000114378995,0.057000003026912535
0,0,9.998186111450195,0,0,0,-0.08700000146050021,0.05900000114378995,0.057000003026912535
0,0,10.007762908935547,0,0,0.019600000232458115,0.03400000133744912,-0.0009999999964224499,0.057000003026912535
0,0,9.998186111450195,0,0,0.009800000116229057,0.03400000133744912,0.05900000114378995,-0.0030000000934877653
0,0,9.998186111450195,0,0,0.009800000116229057,-0.08700000146050021,0.05900000114378995,-0.0030000000934877653
0,0,9.998186111450195,0,0,0.009800000116229057,-0.02600000053230619,0.05900000114378995,-0.06399999977103679
0,0,9.998186111450195,0,0,0.009800000116229057,-0.02600000053230619,0.05900000114378995,-0.0030000000934877653
0,0,9.998186111450195,0,0,0.009800000116229057,-0.02600000053230619,0.05900000114378995,0.057000003026912535
0,0,9.988609313964844,0,0,0,-0.08700000146050021,0.18099999966512467,-0.0030000000934877653
0,0,9.998186111450195,0,0,0,-0.02600000053230619,-0.0009999999964224499,-0.06399999977103679
0,0,9.998186111450195,0,0,0.009800000116229057,-0.02600000053230619,-0.0009999999964224499,-0.06399999977103679
0,0,9.998186111450195,0,0,0.009800000116229057,-0.02600000053230619,-0.0009999999964224499,-0.0030000000934877653
0,0,10.007762908935547,0,0,0.019600000232458115,-0.14799999405106096,-0.0009999999964224499,0.057000003026912535
0,0,9.988609313964844,0,0,0,0.15599999985878385,0.05900000114378995,-0.12499999903170415
0,0,9.988609313964844,0,0,0,0.03400000133744912,0.05900000114378995,-0.0030000000934877653
0,0,9.988609313964844,0,0,0,0.03400000133744912,-0.0009999999964224499,-0.0030000000934877653
0,0,9.998186111450195,0,0,0.009800000116229057,0.03400000133744912,0.05900000114378995,-0.0030000000934877653
0,0,9.998186111450195,0,0,0.009800000116229057,-0.14799999405106096,0.1199999937343507,-0.0030000000934877653
0,0,9.998186111450195,0,0,0.009800000116229057,0.09500000059811649,0.05900000114378995,0.057000003026912535
0,0,9.988609313964844,0,0,0,-0.14799999405106096,-0.06200000165415938,-0.0030000000934877653
0,0,9.998186111450195,0,0,0.009800000116229057,-0.02600000053230619,-0.0009999999964224499,-0.06399999977103679
0,0,9.998186111450195,0,0,0.009800000116229057,0.21700000578955783,-0.06200000165415938,-0.0030000000934877653
0,0,9.998186111450195,0,0,0.009800000116229057,-0.08700000146050021,-0.0009999999964224499,-0.12499999903170415
0,0,9.998186111450195,0,0,0.009800000116229057,-0.08700000146050021,0.05900000114378995,-0.06399999977103679
0,0,9.998186111450195,0,0,0.009800000116229057,-0.02600000053230619,-0.0009999999964224499,-0.12499999903170415
0,0,9.988609313964844,0,0,0,-0.02600000053230619,0.05900000114378995,-0.0030000000934877653
0,0,9.988609313964844,0,0,0,-0.02600000053230619,0.05900000114378995,-0.0030000000934877653
0,0,9.988609313964844,0,0,0,-0.14799999405106096,0.05900000114378995,-0.0030000000934877653
0,0,9.988609313964844,0,0,0,-0.14799999405106096,0.05900000114378995,-0.0030000000934877653
0,0,9.988609313964844,0,0,0,-0.021999999295971403,-0.013000000266153095,0.1070000026395942
0,0,9.988609313964844,0,0,0,-0.021999999295971403,-0.013000000266153095,-0.01400000015835513
0,0,9.988609313964844,0,0,0,-0.021999999295971403,0.046999999102312236,-0.01400000015835513
0,0,9.988609313964844,0,0,0,-0.08299999855663877,-0.07399999702553048,-0.01400000015835513
0,0,9.998186111450195,0,0,0,-0.021999999295971403,-0.013000000266153095,-0.01400000015835513
0,0,10.007762908935547,0,0,0.019600000232458115,0.09899999683187131,0.046999999102312236,0.04600000004387353
0,0,9.998186111450195,0,0,0.009800000116229057,-0.08299999855663877,-0.013000000266153095,-0.01400000015835513
0,0,9.998186111450195,0,0,0.009800000116229057,0.038000000906257256,0.1079999983629796,-0.0749999994190225
0,0,9.998186111450195,0,0,0.009800000116229057,0.038000000906257256,0.046999999102312236,-0.01400000015835513
0,0,9.988609313964844,0,0,0,0.09899999683187131,-0.013000000266153095,0.04600000004387353
0,0,9.988609313964844,0,0,0,-0.14399999781730613,-0.07399999702553048,0.04600000004387353
0,0,9.988609313964844,0,0,0,0.09899999683187131,-0.013000000266153095,-0.01400000015835513
0,0,9.988609313964844,0,0,0,0.038000000906257256,0.046999999102312236,0.04600000004387353
0,0,9.988609313964844,0,0,0,-0.08299999855663877,-0.07399999702553048,0.04600000004387353
0,0,9.988609313964844,0,0,0,-0.08299999855663877,-0.013000000266153095,-0.01400000015835513
0,0,9.988609313964844,0,0,0,-0.021999999295971403,-0.013000000266153095,0.04600000004387353
0,0,9.988609313964844,0,0,0,0.09899999683187131,0.046999999102312236,-0.01400000015835513
0,0,9.998186111450195,0,0,0.009800000116229057,0.038000000906257256,-0.07399999702553048,0.04600000004387353
0,0,9.988609313964844,0,0,0,-0.021999999295971403,-0.013000000266153095,-0.01400000015835513
0,0,9.998186111450195,0,0,0.009800000116229057,-0.08299999855663877,-0.013000000266153095,-0.01400000015835513
0,0,9.998186111450195,0,0,0.009800000116229057,0.038000000906257256,0.046999999102312236,-0.0749999994190225
0,0,9.998186111450195,0,0,0.009800000116229057,-0.021999999295971403,0.046999999102312236,0.04600000004387353
0,0,9.998186111450195,0,0,0.009800000116229057,0.038000000906257256,0.046999999102312236,-0.01400000015835513
0,0,9.988609313964844,0,0,0,-0.021999999295971403,0.1079999983629796,-0.01400000015835513
0,0,9.988609313964844,0,0,0,-0.021999999295971403,0.046999999102312236,-0.01400000015835513
0,0,9.988609313964844,0,0,0,-0.021999999295971403,0.046999999102312236,-0.01400000015835513
0,0,9.988609313964844,0,0,0,-0.021999999295971403,-0.07399999702553048,-0.01400000015835513
0,0,9.988609313964844,0,0,0,0.038000000906257256,-0.07399999702553048,-0.01400000015835513
0,0,9.988609313964844,0,0,0,-0.021999999295971403,0.046999999102312236,0.04600000004387353
0,0,9.988609313964844,0,0,0,-0.021999999295971403,-0.013000000266153095,0.04600000004387353
0,0,9.998186111450195,0,0,0.009800000116229057,-0.021999999295971403,-0.07399999702553048,-0.01400000015835513
0,0,9.988609313964844,0,0,0,-0.08299999855663877,-0.19600000221697184,0.04600000004387353
0,0,9.998186111450195,0,0,0.009800000116229057,0.038000000906257256,-0.013000000266153095,-0.0749999994190225
0,0,9.998186111450195,0,0,0.009800000116229057,0.038000000906257256,-0.013000000266153095,0.04600000004387353
0,0,9.998186111450195,0,0,0.009800000116229057,0.038000000906257256,-0.013000000266153095,-0.0749999994190225
0,0,9.998186111450195,0,0,0.009800000116229057,0.038000000906257256,-0.07399999702553048,-0.01400000015835513
0,0,9.998186111450195,0,0,0.009800000116229057,0.038000000906257256,0.046999999102312236,0.1070000026395942
0,0,9.998186111450195,0,0,0.009800000116229057,-0.021999999295971403,0.046999999102312236,-0.01400000015835513
0,0,9.998186111450195,0,0,0.009800000116229057,-0.021999999295971403,-0.07399999702553048,-0.01400000015835513
0,0,9.998186111450195,0,0,0.009800000116229057,0.038000000906257256,-0.07399999702553048,-0.01400000015835513
0,0,9.998186111450195,0,0,0.009800000116229057,-0.08299999855663877,-0.07399999702553048,0.04600000004387353
0,0,9.998186111450195,0,0,0.009800000116229057,-0.021999999295971403,-0.013000000266153095,-0.0749999994190225
0,0,9.988609313964844,0,0,0,-0.021999999295971403,-0.07399999702553048,-0.01400000015835513
-0.009576806798577309,0,9.998186111450195,0,0,0.009800000116229057,-0.14399999781730613,-0.07399999702553048,-0.01400000015835513
0,0,9.998186111450195,0,0,0.009800000116229057,-0.021999999295971403,-0.07399999702553048,-0.01400000015835513
0,0,9.998186111450195,0,0,0.009800000116229057,-0.08299999855663877,-0.013000000266153095,0.04600000004387353
0,0,9.998186111450195,0,0,0.009800000116229057,0.038000000906257256,0.046999999102312236,0.04600000004387353
0,0,9.998186111450195,0,0,0.009800000116229057,-0.08299999855663877,-0.07399999702553048,-0.01400000015835513
0,0,9.998186111450195,0,0,0,0.038000000906257256,-0.013000000266153095,0.04600000004387353
0,0,9.998186111450195,0,0,0,0.038000000906257256,0.046999999102312236,-0.0749999994190225
0,0,9.998186111450195,0,0,0,-0.021999999295971403,-0.013000000266153095,-0.01400000015835513
0,0,9.998186111450195,0,0,0,0.28199999461387343,0.046999999102312236,-0.0749999994190225
0,0,9.998186111450195,0,0,0,-0.14399999781730613,0.046999999102312236,0.04600000004387353
0,0,9.998186111450195,0,0,0,0.09899999683187131,-0.07399999702553048,-0.0749999994190225
0,0,9.998186111450195,0,0,0,0.038000000906257256,0.046999999102312236,-0.01400000015835513
0,0,9.998186111450195,0,0,0,-0.021999999295971403,0.046999999102312236,-0.01400000015835513
0,0,9.988609313964844,0,0,-0.009800000116229057,-0.021999999295971403,-0.013000000266153095,-0.01400000015835513
0,0,9.998186111450195,0,0,0,-0.021999999295971403,-0.07399999702553048,-0.01400000015835513
0,0,9.998186111450195,0,0,0,0.038000000906257256,-0.013000000266153095,-0.01400000015835513
0,0,9.998186111450195,0,0,-0.009800000116229057,-0.021999999295971403,-0.013000000266153095,-0.0749999994190225
0,0,9.998186111450195,0,0,0,0.09899999683187131,-0.013000000266153095,-0.01400000015835513
0,0,9.998186111450195,0,0,0,0.038000000906257256,0.046999999102312236,-0.01400000015835513
0,0,9.998186111450195,0,0,0,-0.08299999855663877,0.046999999102312236,0.1070000026395942
0,0,9.998186111450195,0,0,0,0.038000000906257256,-0.07399999702553048,0.04600000004387353
0,0,9.998186111450195,0,0,0,0.09899999683187131,-0.013000000266153095,-0.01400000015835513
0,0,9.998186111450195,0,0,0,0.09899999683187131,-0.013000000266153095,0.04600000004387353
0,0,9.998186111450195,0,0,0,-0.08299999855663877,-0.07399999702553048,0.16800000190026157
0,0,9.998186111450195,0,0,0,-0.08299999855663877,-0.07399999702553048,0.16800000190026157
0,0,9.998186111450195,0,0,0,0.038000000906257256,-0.07399999702553048,0.04600000004387353
0,0,9.998186111450195,0,0,0,-0.021999999295971403,0.046999999102312236,0.04600000004387353
0,0,9.998186111450195,0,0,0,0.038000000906257256,-0.013000000266153095,-0.0749999994190225
0,0,9.998186111450195,0,0,0,0.34299998720443414,0.1079999983629796,-0.13600000534979648
0,0,9.998186111450195,0,0,0,-0.021999999295971403,0.16899999762364695,0.04600000004387353
0,0,9.998186111450195,0,0,0,0.038000000906257256,-0.013000000266153095,-0.01400000015835513
0,0,9.998186111450195,0,0,0,-0.08299999855663877,-0.07399999702553048,-0.01400000015835513
0,0,9.998186111450195,0,0,0,-0.08299999855663877,0.046999999102312236,-0.0749999994190225
0,0,9.998186111450195,0,0,0,-0.08299999855663877,-0.013000000266153095,0.04600000004387353
0,0,9.998186111450195,0,0,0,0.038000000906257256,0.046999999102312236,-0.01400000015835513
0,0,9.998186111450195,0,0,0,-0.08299999855663877,-0.07399999702553048,-0.01400000015835513
0,0,10.007762908935547,0,0,0,-0.021999999295971403,0.046999999102312236,0.04600000004387353
0,0,10.007762908935547,0,0,0.009800000116229057,0.038000000906257256,-0.013000000266153095,0.04600000004387353
0,0,10.007762908935547,0,0,0.009800000116229057,-0.021999999295971403,0.1079999983629796,0.04600000004387353
0,0,9.998186111450195,0,0,0.009800000116229057,-0.08299999855663877,0.046999999102312236,0.1070000026395942
0,0,9.998186111450195,0,0,0,0.038000000906257256,-0.013000000266153095,-0.0749999994190225
0,0,9.998186111450195,0,0,0,-0.021999999295971403,0.046999999102312236,0.04600000004387353
0,0,9.998186111450195,0,0,0,0.038000000906257256,0.1079999983629796,0.04600000004387353
0,0,9.998186111450195,0,0,0,-0.021999999295971403,-0.013000000266153095,0.04600000004387353
0,0,9.998186111450195,0,0,0,0.038000000906257256,-0.013000000266153095,0.04600000004387353
0,0,9.998186111450195,0,0,0,-0.08299999855663877,0.046999999102312236,-0.0749999994190225
0,0,9.998186111450195,0,0,0,0.038000000906257256,0.1079999983629796,0.04600000004387353
0,0,9.988609313964844,0,0,-0.009800000116229057,0.038000000906257256,-0.013000000266153095,0.04600000004387353
0,0,9.988609313964844,0,0,-0.009800000116229057,0.038000000906257256,0.046999999102312236,-0.01400000015835513
0,0,9.988609313964844,0,0,-0.009800000116229057,-0.021999999295971403,-0.013000000266153095,-0.01400000015835513
0,0,9.998186111450195,0,0,0,0.038000000906257256,-0.07399999702553048,-0.0749999994190225
0,0,9.998186111450195,0,0,0,-0.021999999295971403,0.046999999102312236,-0.0749999994190225
-0.009576806798577309,0,9.988609313964844,0,0,-0.009800000116229057,-0.08299999855663877,0.16899999762364695,-0.0749999994190225
0,0,9.988609313964844,0,0,-0.009800000116229057,-0.14399999781730613,-0.13499999628619785,-0.01400000015835513
0,0,9.988609313964844,0,0,-0.009800000116229057,0.038000000906257256,-0.013000000266153095,-0.0749999994190225
0,0,9.998186111450195,0,0,0,-0.08299999855663877,0.046999999102312236,-0.01400000015835513
0,0,9.998186111450195,0,0,0,-0.021999999295971403,0.046999999102312236,0.04600000004387353
0,0,9.998186111450195,0,0,0,0.038000000906257256,-0.07399999702553048,0.04600000004387353
0,0,9.998186111450195,0,0,0,0.038000000906257256,-0.013000000266153095,-0.01400000015835513
0,0,9.998186111450195,0,0,0,-0.021999999295971403,0.046999999102312236,-0.0749999994190225
0,0,9.998186111450195,0,0,0,-0.021999999295971403,-0.13499999628619785,-0.01400000015835513
0,0,9.998186111450195,0,0,0,-0.021999999295971403,-0.013000000266153095,0.1070000026395942
0,0,9.998186111450195,0,0,0,0.038000000906257256,-0.013000000266153095,0.04600000004387353
0,0,9.998186111450195,0,0,0,0.038000000906257256,-0.013000000266153095,0.04600000004387353
0,0,9.988609313964844,0,0,-0.009800000116229057,-0.08299999855663877,0.046999999102312236,0.04600000004387353
0,0,9.988609313964844,0,0,0,0.09899999683187131,-0.013000000266153095,-0.0749999994190225
0,0,9.998186111450195,0,0,0,-0.021999999295971403,-0.013000000266153095,-0.01400000015835513
0,0,9.998186111450195,0,0,0,-0.14399999781730613,-0.13499999628619785,-0.01400000015835513
0,0,9.998186111450195,0,0,0,-0.08299999855663877,-0.013000000266153095,-0.01400000015835513
0,0,9.998186111450195,0,0,0,-0.021999999295971403,-0.013000000266153095,0.04600000004387353
0,0,9.998186111450195,0,0,0,-0.021999999295971403,-0.013000000266153095,0.04600000004387353
0,0,9.998186111450195,0,0,0,-0.021999999295971403,-0.07399999702553048,0.04600000004387353
0,0,9.998186111450195,0,0,0,-0.08299999855663877,0.046999999102312236,-0.01400000015835513
0,0,9.998186111450195,0,0,0,0.09899999683187131,-0.013000000266153095,-0.13600000534979648
0,0,9.998186111450195,0,0,0,-0.08299999855663877,0.046999999102312236,0.04600000004387353
0,0,9.998186111450195,0,0,0,0.09899999683187131,0.1079999983629796,-0.01400000015835513
0,0,9.998186111450195,0,0,0,-0.021999999295971403,-0.013000000266153095,0.1070000026395942
0,0,9.998186111450195,0,0,0.009800000116229057,-0.021999999295971403,-0.013000000266153095,0.1070000026395942
0,0,9.998186111450195,0,0,0,0.09899999683187131,-0.013000000266153095,-0.0749999994190225
0,0,9.998186111450195,0,0,0,0.09899999683187131,-0.013000000266153095,-0.0749999994190225
0,0,9.998186111450195,0,0,0,0.038000000906257256,0.1079999983629796,0.04600000004387353
0,0,10.007762908935547,0,0,0.009800000116229057,0.09899999683187131,-0.013000000266153095,0.04600000004387353
0,0,9.988609313964844,0,0,0,-0.08299999855663877,0.046999999102312236,0.04600000004387353
0,0,9.998186111450195,0,0,0,-0.08299999855663877,0.046999999102312236,0.04600000004387353
0,0,9.998186111450195,0,0,0,-0.021999999295971403,0.046999999102312236,0.1070000026395942
0,0,9.988609313964844,0,0,-0.009800000116229057,0.038000000906257256,-0.013000000266153095,-0.01400000015835513
0,0,9.998186111450195,0,0,0,0.09899999683187131,-0.013000000266153095,-0.01400000015835513
0,0,9.998186111450195,0,0,0,0.038000000906257256,0.046999999102312236,0.04600000004387353
0,0,9.998186111450195,0,0,0,0.038000000906257256,-0.013000000266153095,-0.0749999994190225
0,0,9.998186111450195,0,0,0,-0.021999999295971403,-0.013000000266153095,-0.01400000015835513
0,0,9.998186111450195,0,0,0,0.038000000906257256,-0.013000000266153095,-0.01400000015835513
0,0,9.998186111450195,0,0,0,0.038000000906257256,0.1079999983629796,0.04600000004387353
0,0,9.998186111450195,0,0,0,-0.021999999295971403,-0.07399999702553048,0.04600000004387353
0,0,9.998186111450195,0,0,0,-0.021999999295971403,0.16899999762364695,0.04600000004387353
0,0,9.988609313964844,0,0,0,-0.021999999295971403,0.1079999983629796,-0.01400000015835513
0,0,9.988609313964844,0,0,-0.009800000116229057,-0.021999999295971403,-0.013000000266153095,-0.01400000015835513
0,0,9.988609313964844,0,0,-0.009800000116229057,-0.08299999855663877,-0.13499999628619785,-0.0749999994190225
0,0,9.998186111450195,0,0,0,0.09899999683187131,-0.013000000266153095,-0.01400000015835513
0,0,9.998186111450195,0,0,0,0.038000000906257256,-0.013000000266153095,0.04600000004387353
0,0,9.988609313964844,0,0,0,0.09899999683187131,-0.07399999702553048,-0.01400000015835513
0,0,10.007762908935547,0,0,0.019600000232458115,-0.08299999855663877,-0.013000000266153095,-0.01400000015835513
0,0,9.998186111450195,0,0,0.029399998486042023,-0.021999999295971403,-0.013000000266153095,-0.01400000015835513
0,0,10.017339706420898,0,0,0.009800000116229057,-0.08299999855663877,-0.013000000266153095,-0.01400000015835513
0,0,10.007762908935547,0,0,0.019600000232458115,-0.021999999295971403,0.046999999102312236,-0.13600000534979648
0,0,10.007762908935547,0,0,0.019600000232458115,-0.08299999855663877,0.046999999102312236,-0.01400000015835513
0,0,10.007762908935547,0,0,0.019600000232458115,0.038000000906257256,-0.07399999702553048,0.04600000004387353
0,0,10.007762908935547,0,0,0.019600000232458115,0.038000000906257256,-0.013000000266153095,-0.0749999994190225
0,0,10.007762908935547,0,0,0.019600000232458115,0.038000000906257256,-0.07399999702553048,-0.01400000015835513
0,0,10.007762908935547,0,0,0.019600000232458115,0.09899999683187131,-0.013000000266153095,-0.01400000015835513
0,0,10.007762908935547,0,0,0.019600000232458115,-0.021999999295971403,-0.013000000266153095,-0.0749999994190225
0,0,10.007762908935547,0,0,0.019600000232458115,-0.021999999295971403,0.046999999102312236,-0.01400000015835513
0,0,10.007762908935547,0,0,0.019600000232458115,-0.021999999295971403,-0.013000000266153095,-0.01400000015835513
0,0,10.007762908935547,0,0,0.019600000232458115,-0.021999999295971403,-0.013000000266153095,-0.01400000015835513
0,0,10.007762908935547,0,0,0.019600000232458115,0.09899999683187131,-0.07399999702553048,-0.01400000015835513
0,0,10.007762908935547,0,0,0.019600000232458115,0.038000000906257256,-0.013000000266153095,-0.01400000015835513
0,0,10.007762908935547,0,0,0.019600000232458115,-0.08299999855663877,-0.013000000266153095,-0.01400000015835513
0,0,10.007762908935547,0,0,0.019600000232458115,-0.021999999295971403,-0.013000000266153095,-0.13600000534979648
0,0,10.007762908935547,0,0,0.019600000232458115,-0.021999999295971403,0.1079999983629796,-0.01400000015835513
0,0,9.998186111450195,0,0,0.019600000232458115,-0.021999999295971403,0.046999999102312236,-0.01400000015835513
0,0,10.007762908935547,0,0,0.009800000116229057,0.038000000906257256,-0.013000000266153095,-0.01400000015835513
0,0,9.998186111450195,0,0,0.009800000116229057,-0.08299999855663877,-0.013000000266153095,0.04600000004387353
0,0,9.998186111450195,0,0,0.009800000116229057,0.038000000906257256,-0.07399999702553048,-0.01400000015835513
0,0,9.998186111450195,0,0,0.009800000116229057,-0.021999999295971403,-0.013000000266153095,-0.01400000015835513
0,0,9.998186111450195,0,0,0.009800000116229057,-0.021999999295971403,-0.07399999702553048,0.04600000004387353
0,0,9.998186111450195,0,0,0.009800000116229057,0.038000000906257256,-0.07399999702553048,0.04600000004387353
0,0,9.998186111450195,0,0,0.009800000116229057,-0.021999999295971403,-0.13499999628619785,0.04600000004387353
0,0,10.007762908935547,0,0,0.019600000232458115,-0.08299999855663877,-0.013000000266153095,-0.0749999994190225
0,0,9.998186111450195,0,0,0.009800000116229057,-0.021999999295971403,0.046999999102312236,-0.01400000015835513
0,0,10.017339706420898,0,0,0.029399998486042023,-0.08299999855663877,-0.013000000266153095,-0.01400000015835513
0,0,10.007762908935547,0,0,0.019600000232458115,-0.08299999855663877,0.1079999983629796,-0.01400000015835513
0,0,10.007762908935547,0,0,0.019600000232458115,0.038000000906257256,-0.013000000266153095,-0.01400000015835513
0,0,10.007762908935547,0,0,0.019600000232458115,0.038000000906257256,-0.013000000266153095,0.04600000004387353
0,0,10.007762908935547,0,0,0.019600000232458115,0.09899999683187131,-0.013000000266153095,-0.01400000015835513
0,0,10.007762908935547,0,0,0.019600000232458115,0.038000000906257256,0.046999999102312236,-0.0749999994190225
0,0,9.998186111450195,0,0,0.009800000116229057,0.038000000906257256,-0.13499999628619785,-0.01400000015835513
-0.009576806798577309,0,9.998186111450195,0,0,0.009800000116229057,-0.14399999781730613,0.046999999102312236,-0.0749999994190225
0,0,10.007762908935547,0,0,0.019600000232458115,-0.021999999295971403,0.046999999102312236,0.1070000026395942
0,0,10.017339706420898,0,0,0.029399998486042023,-0.021999999295971403,0.1079999983629796,0.04600000004387353
0,0,10.007762908935547,0,0,0.019600000232458115,0.09899999683187131,-0.07399999702553048,0.04600000004387353
0,0,10.017339706420898,0,0,0.019600000232458115,-0.021999999295971403,0.046999999102312236,0.04600000004387353
0,0,10.007762908935547,0,0,0.019600000232458115,-0.08299999855663877,-0.013000000266153095,-0.01400000015835513
0,0,10.007762908935547,0,0,0,-0.021999999295971403,-0.013000000266153095,0.1070000026395942
0,0,9.988609313964844,0,0,0.009800000116229057,-0.021999999295971403,-0.07399999702553048,-0.01400000015835513
0,0,9.998186111450195,0,0,0.009800000116229057,0.038000000906257256,-0.07399999702553048,-0.0749999994190225
0,0,9.998186111450195,0,0,0.009800000116229057,-0.08299999855663877,-0.013000000266153095,-0.0749999994190225
0,0,9.998186111450195,0,0,0.009800000116229057,-0.08299999855663877,-0.07399999702553048,-0.0749999994190225
0,0,10.007762908935547,0,0,0.019600000232458115,-0.021999999295971403,0.1079999983629796,0.04600000004387353
0,0,9.998186111450195,0,0,0,0.09899999683187131,-0.07399999702553048,-0.01400000015835513
0,0,9.998186111450195,0,0,-0.009800000116229057,0.038000000906257256,0.046999999102312236,-0.0749999994190225
0,0,9.998186111450195,0,0,-0.009800000116229057,-0.021999999295971403,-0.07399999702553048,-0.0749999994190225
0,0,9.998186111450195,0,0,-0.009800000116229057,0.038000000906257256,-0.07399999702553048,0.04600000004387353
0,0,9.998186111450195,0,0,-0.009800000116229057,-0.08299999855663877,0.046999999102312236,0.04600000004387353
0,0,9.998186111450195,0,0,-0.009800000116229057,-0.08299999855663877,-0.07399999702553048,-0.01400000015835513
0,0,10.007762908935547,0,0,0,0.038000000906257256,0.046999999102312236,-0.01400000015835513
0,0,10.007762908935547,0,0,0,0.038000000906257256,-0.013000000266153095,0.1070000026395942
0,0,10.007762908935547,0,0,0,-0.08299999855663877,0.046999999102312236,-0.0749999994190225
0,0,10.007762908935547,0,0,0,-0.08299999855663877,-0.013000000266153095,-0.01400000015835513
0,0,9.998186111450195,0,0,0,-0.08299999855663877,0.1079999983629796,0.04600000004387353
0,0,9.998186111450195,0,0,-0.009800000116229057,-0.08299999855663877,-0.013000000266153095,0.1070000026395942
0,0,9.998186111450195,0,0,-0.009800000116229057,-0.08299999855663877,-0.013000000266153095,-0.0749999994190225
0,0,9.998186111450195,0,0,-0.009800000116229057,-0.08299999855663877,-0.013000000266153095,-0.01400000015835513
0,0,9.998186111450195,0,0,-0.009800000116229057,0.09899999683187131,-0.013000000266153095,0.04600000004387353
-0.009576806798577309,0,9.998186111450195,0,0,-0.009800000116229057,-0.021999999295971403,-0.013000000266153095,-0.01400000015835513
0,0,9.998186111450195,0,0,-0.009800000116229057,-0.08299999855663877,-0.013000000266153095,-0.01400000015835513
0,0,9.998186111450195,0,0,-0.009800000116229057,0.038000000906257256,0.046999999102312236,0.04600000004387353
0,0,9.998186111450195,0,0,-0.009800000116229057,0.038000000906257256,-0.07399999702553048,-0.0749999994190225
0,0,9.998186111450195,0,0,-0.009800000116229057,-0.14399999781730613,-0.013000000266153095,-0.01400000015835513
0,0,10.007762908935547,0,0,0,-0.021999999295971403,-0.013000000266153095,0.1070000026395942
0,0,10.007762908935547,0,0,0,0.09899999683187131,0.046999999102312236,0.04600000004387353
0,0,10.007762908935547,0,0,0,0.038000000906257256,-0.013000000266153095,0.04600000004387353
0,0,9.998186111450195,0,0,-0.009800000116229057,0.15999999609253868,0.046999999102312236,-0.01400000015835513
0,0,9.998186111450195,0,0,-0.009800000116229057,-0.08299999855663877,-0.07399999702553048,-0.01400000015835513
0,0,9.998186111450195,0,0,-0.009800000116229057,-0.021999999295971403,-0.07399999702553048,0.04600000004387353
0,0,10.007762908935547,0,0,0,-0.021999999295971403,0.1079999983629796,-0.0749999994190225
0,0,9.998186111450195,0,0,-0.009800000116229057,-0.021999999295971403,-0.013000000266153095,-0.01400000015835513
0,0,10.007762908935547,0,0,0,-0.08299999855663877,0.16899999762364695,0.04600000004387353
0,0,9.988609313964844,0,0,-0.019600000232458115,-0.021999999295971403,0.046999999102312236,0.04600000004387353
0,0,9.988609313964844,0,0,-0.019600000232458115,-0.021999999295971403,0.046999999102312236,0.1070000026395942
0,0,10.007762908935547,0,0,0,-0.08299999855663877,-0.013000000266153095,-0.0749999994190225
0,0,9.988609313964844,0,0,-0.009800000116229057,0.09899999683187131,0.1079999983629796,-0.01400000015835513
0,0,10.007762908935547,0,0,-0.009800000116229057,-0.08299999855663877,-0.013000000266153095,-0.0749999994190225
0,0,9.998186111450195,0,0,-0.009800000116229057,0.038000000906257256,-0.07399999702553048,-0.0749999994190225
0,0,9.998186111450195,0,0,0,-0.08299999855663877,-0.013000000266153095,-0.01400000015835513
0,0,10.007762908935547,0,0,-0.009800000116229057,-0.08299999855663877,-0.013000000266153095,-0.01400000015835513
0,0,10.007762908935547,0,0,0,-0.021999999295971403,-0.07399999702553048,-0.01400000015835513
0,0,10.007762908935547,0,0,0,-0.021999999295971403,-0.013000000266153095,-0.01400000015835513
0,0,10.007762908935547,0,0,0,0.038000000906257256,0.046999999102312236,-0.0749999994190225
0,0,10.007762908935547,0,0,0,-0.021999999295971403,-0.013000000266153095,-0.0749999994190225
0,0,10.007762908935547,0,0,0,-0.08299999855663877,-0.013000000266153095,-0.01400000015835513
0,0,10.007762908935547,0,0,0,-0.08299999855663877,0.1079999983629796,-0.0749999994190225
0,0,9.988609313964844,0,0,-0.019600000232458115,0.038000000906257256,0.046999999102312236,-0.01400000015835513
0,0,9.998186111450195,0,0,-0.009800000116229057,0.038000000906257256,0.046999999102312236,-0.0749999994190225
0,0,9.988609313964844,0,0,-0.019600000232458115,-0.021999999295971403,-0.07399999702553048,-0.0749999994190225
0,0,9.988609313964844,0,0,-0.019600000232458115,-0.021999999295971403,0.046999999102312236,-0.01400000015835513
0,0,9.998186111450195,0,0,-0.009800000116229057,-0.021999999295971403,0.1079999983629796,-0.13600000534979648
0,0,9.998186111450195,0,0,0,-0.14399999781730613,0.16899999762364695,-0.01400000015835513
0,0,9.998186111450195,0,0,0,0.038000000906257256,-0.013000000266153095,-0.01400000015835513
0,0,9.998186111450195,0,0,0,-0.021999999295971403,0.046999999102312236,0.04600000004387353
0,0,9.998186111450195,0,0,0.009800000116229057,0.038000000906257256,0.046999999102312236,-0.0749999994190225
0,0,9.998186111450195,0,0,0,-0.08299999855663877,-0.013000000266153095,-0.01400000015835513
0,0,9.998186111450195,0,0,0,0.038000000906257256,0.1079999983629796,-0.01400000015835513
0,0,9.998186111450195,0,0,0,-0.14399999781730613,-0.013000000266153095,-0.01400000015835513
0,0,9.998186111450195,0,0,0,0.038000000906257256,-0.013000000266153095,-0.0749999994190225
0,0,9.998186111450195,0,0,0,-0.08299999855663877,0.1079999983629796,-0.01400000015835513
0,0,9.998186111450195,0,0,0,0.038000000906257256,-0.013000000266153095,-0.0749999994190225
0,0,9.998186111450195,0,0,0,-0.08299999855663877,0.046999999102312236,-0.01400000015835513
0,0,9.998186111450195,0,0,0,-0.14399999781730613,0.046999999102312236,0.04600000004387353
0,0,10.007762908935547,0,0,0.009800000116229057,-0.2050000037480801,0.046999999102312236,0.04600000004387353
0,0,10.007762908935547,0,0,0.009800000116229057,-0.08299999855663877,0.046999999102312236,-0.01400000015835513
0,0,10.007762908935547,0,0,0.009800000116229057,-0.08299999855663877,-0.07399999702553048,-0.01400000015835513
0,0,10.007762908935547,0,0,0.009800000116229057,-0.08299999855663877,-0.07399999702553048,-0.01400000015835513
0,0,10.007762908935547,0,0,0.009800000116229057,0.15999999609253868,0.1079999983629796,-0.01400000015835513
0,0,10.007762908935547,0,0,0.009800000116229057,0.15999999609253868,0.1079999983629796,-0.01400000015835513
0,0,10.007762908935547,0,0,0,0.038000000906257256,-0.013000000266153095,-0.01400000015835513
0,0,9.998186111450195,0,0,0,0.038000000906257256,-0.013000000266153095,0.04600000004387353
0,0,9.998186111450195,0,0,0,-0.08299999855663877,0.046999999102312236,-0.13600000534979648
0,0,9.998186111450195,0,0,0,-0.021999999295971403,0.046999999102312236,0.04600000004387353
0,0,9.988609313964844,0,0,-0.009800000116229057,0.15999999609253868,0.046999999102312236,-0.01400000015835513
0,0,9.988609313964844,0,0,-0.009800000116229057,-0.021999999295971403,-0.013000000266153095,-0.0749999994190225
0,0,9.998186111450195,0,0,0,0.09899999683187131,0.046999999102312236,-0.0749999994190225
0,0,9.998186111450195,0,0,0,-0.08299999855663877,-0.13499999628619785,-0.01400000015835513
0,0,9.998186111450195,0,0,0,-0.021999999295971403,0.046999999102312236,0.04600000004387353
0,0,9.988609313964844,0,0,-0.009800000116229057,0.15999999609253868,0.046999999102312236,-0.01400000015835513
0,0,9.988609313964844,0,0,-0.009800000116229057,0.038000000906257256,-0.013000000266153095,0.04600000004387353
0,0,9.998186111450195,0,0,0,-0.021999999295971403,-0.013000000266153095,-0.01400000015835513
0,0,9.988609313964844,0,0,-0.009800000116229057,-0.32700000226941484,-0.07399999702553048,0.04600000004387353
0,0,9.988609313964844,0,0,-0.009800000116229057,-0.021999999295971403,-0.013000000266153095,-0.0749999994190225
0,0,9.998186111450195,0,0,-0.009800000116229057,0.038000000906257256,-0.013000000266153095,-0.01400000015835513
0,0,9.998186111450195,0,0,0,0.09899999683187131,0.046999999102312236,0.04600000004387353
0,0,9.998186111450195,0,0,0,0.038000000906257256,0.1079999983629796,-0.01400000015835513
0,0,9.998186111450195,0,0,0,0.038000000906257256,0.1079999983629796,-0.01400000015835513
0,0,10.007762908935547,0,0,0.009800000116229057,0.038000000906257256,-0.07399999702553048,-0.01400000015835513
0,0,10.007762908935547,0,0,0.009800000116229057,0.038000000906257256,-0.013000000266153095,-0.0749999994190225
0,0,10.007762908935547,0,0,0.009800000116229057,-0.021999999295971403,0.046999999102312236,0.04600000004387353
0,0,9.998186111450195,0,0,0,0.09899999683187131,-0.07399999702553048,-0.01400000015835513
0,0,9.988609313964844,0,0,-0.009800000116229057,-0.021999999295971403,0.046999999102312236,-0.01400000015835513
0,0,9.998186111450195,0,0,0,-0.08299999855663877,-0.013000000266153095,0.04600000004387353
0,0,10.007762908935547,0,0,0.009800000116229057,-0.08299999855663877,-0.013000000266153095,0.04600000004387353
0,0,9.998186111450195,0,0,0,-0.08299999855663877,0.046999999102312236,-0.01400000015835513
0,0,9.998186111450195,0,0,0,0.09899999683187131,0.046999999102312236,-0.01400000015835513
0,0,9.998186111450195,0,0,0,-0.08299999855663877,-0.013000000266153095,-0.01400000015835513
0,0,9.998186111450195,0,0,0,0.038000000906257256,-0.07399999702553048,-0.13600000534979648
0,0,9.988609313964844,0,0,-0.009800000116229057,0.04500000098543482,-0.0749999994190225,-0.07199999890865307
0,0,9.998186111450195,0,0,0,-0.014999999216793838,-0.01400000015835513,-0.010999999647985701
0,0,9.998186111450195,0,0,0,-0.13700000107318186,-0.01400000015835513,0.04900000055424296
0,0,9.998186111450195,0,0,0,0.04500000098543482,0.1070000026395942,-0.07199999890865307
0,0,10.007762908935547,0,0,0.009800000116229057,-0.07600000181251451,-0.0749999994190225,-0.07199999890865307
0,0,9.998186111450195,0,0,0,-0.014999999216793838,0.04600000004387353,0.04900000055424296
0,0,9.998186111450195,0,0,0,-0.014999999216793838,-0.01400000015835513,-0.07199999890865307
0,0,9.998186111450195,0,0,0,-0.07600000181251451,0.04600000004387353,-0.010999999647985701
0,0,9.998186111450195,0,0,0,-0.19799999366374263,-0.0749999994190225,0.04900000055424296
0,0,9.998186111450195,0,0,0,0.04500000098543482,0.04600000004387353,-0.010999999647985701
0,0,9.998186111450195,0,0,0,-0.07600000181251451,0.16800000190026157,0.04900000055424296
0,0,9.998186111450195,0,0,0,0.16699999283666295,-0.0749999994190225,-0.010999999647985701
0,0,9.998186111450195,0,0,0,0.04500000098543482,-0.01400000015835513,0.04900000055424296
0,0,9.998186111450195,0,0,0,-0.014999999216793838,0.04600000004387353,0.04900000055424296
0,0,9.998186111450195,0,0,0,-0.014999999216793838,-0.01400000015835513,-0.010999999647985701
-0.009576806798577309,0,9.998186111450195,0,0,0.009800000116229057,0.16699999283666295,-0.01400000015835513,-0.010999999647985701
0,0,10.007762908935547,0,0,0.009800000116229057,0.10600000024610218,-0.01400000015835513,0.04900000055424296
0,0,9.998186111450195,0,0,0,-0.07600000181251451,-0.01400000015835513,-0.010999999647985701
0,0,9.998186111450195,0,0,0,0.04500000098543482,-0.0749999994190225,-0.010999999647985701
0,0,9.998186111450195,0,0,0,0.04500000098543482,0.04600000004387353,0.04900000055424296
0,0,9.998186111450195,0,0,0,-0.014999999216793838,-0.0749999994190225,-0.010999999647985701
0,0,9.998186111450195,0,0,0,-0.014999999216793838,-0.01400000015835513,0.10999999647985702
0,0,9.998186111450195,0,0,0,-0.38100001145606455,-0.0749999994190225,-0.010999999647985701
0,0,9.998186111450195,0,0,0,-0.07600000181251451,-0.01400000015835513,-0.13300000483942703
-0.009576806798577309,0,9.998186111450195,0,0,0,-0.014999999216793838,0.04600000004387353,0.04900000055424296
0,0,9.998186111450195,0,0,0,0.04500000098543482,-0.01400000015835513,0.04900000055424296
0,0,9.998186111450195,0,0,0,-0.07600000181251451,0.1070000026395942,-0.010999999647985701
0,0,9.998186111450195,0,0,0,0.04500000098543482,0.04600000004387353,0.04900000055424296
0,0,9.998186111450195,0,0,0,0.10600000024610218,-0.01400000015835513,-0.010999999647985701
0,0,9.988609313964844,0,0,-0.009800000116229057,-0.014999999216793838,-0.01400000015835513,-0.010999999647985701
0,0,9.988609313964844,0,0,-0.009800000116229057,0.04500000098543482,0.1070000026395942,-0.010999999647985701
0,0,9.988609313964844,0,0,-0.009800000116229057,-0.014999999216793838,0.1070000026395942,0.04900000055424296
0,0,9.998186111450195,0,0,0,0.22800001210765014,-0.0749999994190225,-0.07199999890865307
0,0,9.998186111450195,0,0,0,0.10600000024610218,0.04600000004387353,-0.13300000483942703
0,0,9.998186111450195,0,0,0,-0.014999999216793838,-0.01400000015835513,-0.07199999890865307
0,0,9.998186111450195,0,0,0,-0.014999999216793838,-0.13600000534979648,-0.13300000483942703
0,0,9.988609313964844,0,0,-0.009800000116229057,0.04500000098543482,0.04600000004387353,-0.010999999647985701
0,0,9.998186111450195,0,0,0,-0.13700000107318186,-0.01400000015835513,-0.010999999647985701
0,0,9.998186111450195,0,0,0,0.10600000024610218,-0.13600000534979648,-0.07199999890865307
0,0,10.007762908935547,0,0,0.009800000116229057,0.04500000098543482,-0.01400000015835513,-0.010999999647985701
0,0,10.007762908935547,0,0,0.009800000116229057,0.04500000098543482,-0.01400000015835513,-0.010999999647985701
0,0,9.998186111450195,0,0,0,0.04500000098543482,-0.01400000015835513,0.04900000055424296
0,0,9.998186111450195,0,0,0,0.04500000098543482,-0.01400000015835513,-0.010999999647985701
0,0,9.998186111450195,0,0,0,-0.014999999216793838,-0.0749999994190225,0.10999999647985702
0,0,9.998186111450195,0,0,0,-0.014999999216793838,0.04600000004387353,0.10999999647985702
0,0,9.998186111450195,0,0,0,-0.014999999216793838,-0.01400000015835513,-0.010999999647985701
0,0,9.998186111450195,0,0,0,-0.014999999216793838,-0.01400000015835513,-0.010999999647985701
0,0,9.998186111450195,0,0,0,-0.014999999216793838,-0.01400000015835513,-0.010999999647985701
0,0,9.998186111450195,0,0,0,-0.014999999216793838,-0.01400000015835513,-0.010999999647985701
0,0,9.998186111450195,0,0,0,-0.014999999216793838,-0.01400000015835513,-0.010999999647985701
0,0,9.988609313964844,0,0,0,0.04500000098543482,-0.0749999994190225,-0.07199999890865307
0,0,9.988609313964844,0,0,-0.009800000116229057,-0.07600000181251451,-0.01400000015835513,-0.010999999647985701
0,0,9.988609313964844,0,0,-0.009800000116229057,-0.014999999216793838,0.04600000004387353,-0.07199999890865307
0,0,9.988609313964844,0,0,-0.009800000116229057,0.10600000024610218,-0.01400000015835513,-0.07199999890865307
0,0,9.998186111450195,0,0,0,0.04500000098543482,0.04600000004387353,-0.07199999890865307
0,0,9.998186111450195,0,0,0,0.04500000098543482,0.04600000004387353,-0.07199999890865307
0,0,9.998186111450195,0,0,0,-0.07600000181251451,0.1070000026395942,-0.010999999647985701
0,0,9.998186111450195,0,0,0,0.16699999283666295,-0.01400000015835513,-0.07199999890865307
0,0,9.998186111450195,0,0,0,-0.014999999216793838,0.04600000004387353,0.04900000055424296
0,0,9.998186111450195,0,0,0,-0.014999999216793838,-0.0749999994190225,-0.010999999647985701
0,0,9.998186111450195,0,0,0,0.10600000024610218,0.04600000004387353,-0.07199999890865307
0,0,9.988609313964844,0,0,-0.009800000116229057,0.04500000098543482,-0.0749999994190225,0.04900000055424296
0,0,9.988609313964844,0,0,-0.009800000116229057,0.04500000098543482,0.1070000026395942,-0.010999999647985701
0,0,10.007762908935547,0,0,0.009800000116229057,-0.19799999366374263,-0.01400000015835513,-0.010999999647985701
0,0,9.998186111450195,0,0,0,-0.07600000181251451,0.1070000026395942,-0.010999999647985701
0,0,9.998186111450195,0,0,0,-0.07600000181251451,0.1070000026395942,-0.010999999647985701
0,0,9.998186111450195,0,0,-0.009800000116229057,-0.07600000181251451,-0.01400000015835513,0.04900000055424296
0,0,9.988609313964844,0,0,0,-0.07600000181251451,-0.01400000015835513,0.04900000055424296
0,0,9.998186111450195,0,0,0,0.04500000098543482,-0.0749999994190225,-0.07199999890865307
-0.009576806798577309,0,10.007762908935547,0,0,0.009800000116229057,0.16699999283666295,0.04600000004387353,-0.07199999890865307
0,0,9.998186111450195,0,0,0,0.16699999283666295,0.04600000004387353,-0.07199999890865307
0,0,9.998186111450195,0,0,0,-0.07600000181251451,-0.0749999994190225,0.04900000055424296
0,0,9.998186111450195,0,0,0,0.04500000098543482,0.04600000004387353,0.10999999647985702
0,0,9.998186111450195,0,0,0,-0.07600000181251451,0.04600000004387353,0.04900000055424296
0,0,9.998186111450195,0,0,0,-0.07600000181251451,-0.01400000015835513,-0.010999999647985701
0,0,9.998186111450195,0,0,0,0.16699999283666295,0.04600000004387353,-0.010999999647985701
0,0,9.998186111450195,0,0,0,0.04500000098543482,-0.01400000015835513,-0.010999999647985701
0,0,9.998186111450195,0,0,0,0.04500000098543482,-0.01400000015835513,0.04900000055424296
0,0,9.998186111450195,0,0,0,-0.014999999216793838,-0.0749999994190225,-0.07199999890865307
0,0,9.988609313964844,0,0,0,-0.07600000181251451,-0.01400000015835513,0.04900000055424296
0,0,9.998186111450195,0,0,0,-0.07600000181251451,0.04600000004387353,-0.07199999890865307
0,0,9.998186111450195,0,0,0,-0.014999999216793838,-0.0749999994190225,0.04900000055424296
0,0,9.998186111450195,0,0,0,0.04500000098543482,-0.01400000015835513,-0.010999999647985701
0,0,9.998186111450195,0,0,0,-0.014999999216793838,-0.0749999994190225,0.04900000055424296
0,0,9.998186111450195,0,0,0,0.04500000098543482,-0.01400000015835513,-0.010999999647985701
0,0,9.998186111450195,0,0,0,-0.014999999216793838,-0.01400000015835513,-0.010999999647985701
0,0,9.998186111450195,0,0,0,-0.014999999216793838,-0.0749999994190225,-0.07199999890865307
0,0,9.988609313964844,0,0,-0.009800000116229057,-0.014999999216793838,0.04600000004387353,-0.010999999647985701
0,0,9.998186111450195,0,0,0,-0.07600000181251451,-0.01400000015835513,-0.010999999647985701
0,0,9.998186111450195,0,0,0,-0.07600000181251451,-0.01400000015835513,-0.010999999647985701
0,0,9.998186111450195,0,0,-0.019600000232458115,-0.07600000181251451,0.1070000026395942,-0.010999999647985701
0,0,9.988609313964844,0,0,-0.009800000116229057,0.2890000046982109,0.04600000004387353,-0.010999999647985701
0,0,9.979032516479492,0,0,-0.019600000232458115,0.04500000098543482,0.04600000004387353,0.04900000055424296
0,0,9.988609313964844,0,0,-0.009800000116229057,-0.014999999216793838,0.1070000026395942,0.04900000055424296
0,0,9.998186111450195,0,0,0,0.16699999283666295,0.04600000004387353,-0.010999999647985701
0,0,9.998186111450195,0,0,0,0.16699999283666295,0.04600000004387353,-0.010999999647985701
0,0,9.988609313964844,0,0,-0.009800000116229057,1.1430000343681936,0.2289999944908223,-0.1939999974299878
0,0,9.979032516479492,0,0,0,0.22800001210765014,0.04600000004387353,-0.07199999890865307
0,0,9.979032516479492,0,0,0,0.7159999795125626,0.1070000026395942,-0.07199999890865307
0,0,9.988609313964844,0,0,0.009800000116229057,0.04500000098543482,0.04600000004387353,-0.010999999647985701
0,0,9.998186111450195,0,0,0.019600000232458115,-0.014999999216793838,0.04600000004387353,0.04900000055424296
0,0,9.988609313964844,0,0,0.019600000232458115,-0.014999999216793838,-0.01400000015835513,0.04900000055424296
0,0,9.988609313964844,0,0,0.009800000116229057,-0.014999999216793838,-0.01400000015835513,-0.010999999647985701
0,0,9.988609313964844,0,0,0.009800000116229057,-0.07600000181251451,-0.01400000015835513,-0.010999999647985701
0,0,9.988609313964844,0,0,0.009800000116229057,0.22800001210765014,0.1070000026395942,-0.010999999647985701
0,0,9.988609313964844,0,0,0.009800000116229057,-0.38100001145606455,-0.0749999994190225,0.04900000055424296
0,0,9.988609313964844,0,0,0.009800000116229057,-0.5029999966371861,0.16800000190026157,0.04900000055424296
0,0,9.998186111450195,0,0,0.019600000232458115,-0.014999999216793838,0.04600000004387353,-0.010999999647985701
0,0,9.979032516479492,0,0,0,0.10600000024610218,-0.01400000015835513,-0.010999999647985701
0,0,9.979032516479492,0,0,0,-0.014999999216793838,-0.0749999994190225,-0.010999999647985701
0,0,9.979032516479492,0,0,0,0.10600000024610218,-0.01400000015835513,0.04900000055424296
0,0,9.988609313964844,0,0,0,-0.07600000181251451,-0.01400000015835513,0.04900000055424296
0,0,9.979032516479492,0,0,0.009800000116229057,0.04500000098543482,-0.0749999994190225,0.04900000055424296
0,0,9.988609313964844,0,0,0.009800000116229057,-0.19799999366374263,-0.01400000015835513,0.10999999647985702
0,0,9.988609313964844,0,0,0.009800000116229057,-0.2589999995945166,-0.0749999994190225,0.10999999647985702
0,0,9.988609313964844,0,0,0.009800000116229057,0.04500000098543482,-0.01400000015835513,0.04900000055424296
0,0,9.988609313964844,0,0,0.009800000116229057,0.04500000098543482,-0.01400000015835513,0.04900000055424296
0,0,9.988609313964844,0,0,0.009800000116229057,0.22800001210765014,-0.0749999994190225,-0.13300000483942703
0,0,9.988609313964844,0,0,0.009800000116229057,0.04500000098543482,0.04600000004387353,0.04900000055424296
0,0,9.988609313964844,0,0,0.009800000116229057,-0.07600000181251451,0.04600000004387353,-0.010999999647985701
0,0,10.007762908935547,0,0,0.029399998486042023,-0.014999999216793838,-0.01400000015835513,0.10999999647985702
0,0,10.007762908935547,0,0,0.009800000116229057,0.10600000024610218,0.04600000004387353,-0.07199999890865307
0,0,9.988609313964844,0,0,0.009800000116229057,-0.13700000107318186,-0.01400000015835513,-0.010999999647985701
0,0,9.979032516479492,0,0,0,0.16699999283666295,-0.0749999994190225,0.10999999647985702
0,0,9.979032516479492,0,0,0,0.10600000024610218,0.04600000004387353,0.04900000055424296
0,0,9.979032516479492,0,0,0,0.04500000098543482,-0.01400000015835513,0.04900000055424296
0,0,9.979032516479492,0,0,0,0.04500000098543482,-0.0749999994190225,-0.07199999890865307
0,0,9.979032516479492,0,0,0,-0.07600000181251451,-0.01400000015835513,0.04900000055424296
0,0,9.979032516479492,0,0,0,0.04500000098543482,0.04600000004387353,-0.010999999647985701
0,0,9.979032516479492,0,0,0,-0.014999999216793838,-0.01400000015835513,0.04900000055424296
0,0,9.979032516479492,0,0,0,-0.07600000181251451,-0.0749999994190225,0.04900000055424296
0,0,9.979032516479492,0,0,0,0.04500000098543482,0.04600000004387353,0.04900000055424296
0,0,9.988609313964844,0,0,0.009800000116229057,0.10600000024610218,-0.0749999994190225,-0.010999999647985701
0,0,9.979032516479492,0,0,0,0.2890000046982109,0.04600000004387353,-0.13300000483942703
0,0,9.979032516479492,0,0,0,0.04500000098543482,-0.0749999994190225,-0.07199999890865307
0,0,9.988609313964844,0,0,0.009800000116229057,-0.13700000107318186,0.04600000004387353,0.10999999647985702
0,0,9.988609313964844,0,0,0.009800000116229057,-0.13700000107318186,0.04600000004387353,0.10999999647985702
0,0,9.988609313964844,0,0,0.009800000116229057,0.04500000098543482,0.04600000004387353,-0.010999999647985701
0,0,9.979032516479492,0,0,0,0.10600000024610218,-0.13600000534979648,0.10999999647985702
0,0,9.988609313964844,0,0,0.009800000116229057,-0.014999999216793838,-0.01400000015835513,-0.010999999647985701
0,0,9.988609313964844,0,0,0.009800000116229057,-0.014999999216793838,0.04600000004387353,-0.010999999647985701
0,0,9.988609313964844,0,0,0.009800000116229057,-0.014999999216793838,-0.0749999994190225,-0.010999999647985701
0,0,9.979032516479492,0,0,0,0.10600000024610218,0.04600000004387353,-0.010999999647985701
0,0,9.979032516479492,0,0,0,0.04500000098543482,-0.01400000015835513,0.04900000055424296
0,0,9.979032516479492,0,0,0,0.04500000098543482,-0.01400000015835513,-0.010999999647985701
0,0,9.988609313964844,0,0,0,0.04500000098543482,-0.0749999994190225,-0.010999999647985701
0,0,9.988609313964844,0,0,0.009800000116229057,0.10600000024610218,-0.01400000015835513,-0.07199999890865307
0,0,9.988609313964844,0,0,0,-0.07600000181251451,-0.13600000534979648,-0.010999999647985701
0,0,9.979032516479492,0,0,0,0.16699999283666295,-0.01400000015835513,-0.07199999890865307
0,0,9.988609313964844,0,0,0,-0.07600000181251451,0.04600000004387353,-0.010999999647985701
0,0,9.988609313964844,0,0,0.009800000116229057,-0.014999999216793838,0.04600000004387353,-0.07199999890865307
0,0,9.988609313964844,0,0,0,0.04500000098543482,-0.01400000015835513,-0.010999999647985701
0,0,9.979032516479492,0,0,-0.009800000116229057,0.10600000024610218,0.04600000004387353,-0.07199999890865307
0,0,9.988609313964844,0,0,0,-0.07600000181251451,-0.01400000015835513,0.10999999647985702
0,0,9.988609313964844,0,0,0,-0.07600000181251451,-0.01400000015835513,0.10999999647985702
0,0,9.988609313964844,0,0,0,-0.014999999216793838,0.1070000026395942,-0.010999999647985701
0,0,9.988609313964844,0,0,0,-0.014999999216793838,-0.01400000015835513,0.04900000055424296
0,0,9.988609313964844,0,0,0,0.16699999283666295,-0.0749999994190225,-0.07199999890865307
0,0,9.988609313964844,0,0,0,-0.014999999216793838,-0.13600000534979648,-0.010999999647985701
0,0,9.988609313964844,0,0,0,-0.014999999216793838,-0.13600000534979648,-0.010999999647985701
0,0,9.979032516479492,0,0,0,0.16699999283666295,-0.01400000015835513,0.10999999647985702
0,0,9.988609313964844,0,0,-0.009800000116229057,0.04500000098543482,-0.01400000015835513,-0.010999999647985701
0,0,9.998186111450195,0,0,0.009800000116229057,-0.07600000181251451,0.04600000004387353,-0.010999999647985701
0,0,9.998186111450195,0,0,0.009800000116229057,-0.07600000181251451,0.04600000004387353,-0.010999999647985701
0,0,9.998186111450195,0,0,0.009800000116229057,-0.5029999966371861,-0.01400000015835513,0.04900000055424296
0,0,9.979032516479492,0,0,-0.009800000116229057,-0.5029999966371861,-0.01400000015835513,0.04900000055424296
0,0,9.979032516479492,0,0,-0.009800000116229057,0.10600000024610218,0.1070000026395942,-0.07199999890865307
0,0,9.979032516479492,0,0,-0.009800000116229057,0.10600000024610218,0.1070000026395942,-0.07199999890865307
0,0,9.979032516479492,0,0,-0.009800000116229057,-0.014999999216793838,-0.01400000015835513,-0.010999999647985701
0,0,9.979032516479492,0,0,-0.009800000116229057,0.04500000098543482,0.04600000004387353,-0.13300000483942703
0,0,9.979032516479492,0,0,-0.009800000116229057,-0.07600000181251451,-0.0749999994190225,0.04900000055424296
0,0,9.979032516479492,0,0,-0.009800000116229057,0.10600000024610218,0.04600000004387353,-0.07199999890865307
0,0,9.979032516479492,0,0,-0.009800000116229057,-0.014999999216793838,0.04600000004387353,-0.07199999890865307
0,0,9.998186111450195,0,0,-0.009800000116229057,-0.07600000181251451,-0.0749999994190225,0.04900000055424296
0,0,9.988609313964844,0,0,0,-0.014999999216793838,-0.13600000534979648,-0.010999999647985701
0,0,9.988609313964844,0,0,0,-0.07600000181251451,0.04600000004387353,-0.010999999647985701
0,0,9.988609313964844,0,0,0,-0.014999999216793838,-0.0749999994190225,-0.010999999647985701
0,0,9.988609313964844,0,0,0,0.04500000098543482,-0.01400000015835513,-0.010999999647985701
0,0,9.988609313964844,0,0,0,0.04500000098543482,-0.01400000015835513,-0.07199999890865307
0,0,9.988609313964844,0,0,0,-0.13700000107318186,0.04600000004387353,-0.010999999647985701
0,0,9.979032516479492,0,0,-0.009800000116229057,0.04500000098543482,-0.01400000015835513,-0.07199999890865307
0,0,9.988609313964844,0,0,0,-0.014999999216793838,-0.01400000015835513,-0.010999999647985701
0,0,9.988609313964844,0,0,0,-0.014999999216793838,-0.0749999994190225,-0.07199999890865307
0,0,9.988609313964844,0,0,0,-0.014999999216793838,0.04600000004387353,-0.07199999890865307
0,0,9.988609313964844,0,0,0,0.04500000098543482,0.1070000026395942,-0.010999999647985701
0,0,9.979032516479492,0,0,-0.009800000116229057,-0.014999999216793838,-0.01400000015835513,-0.010999999647985701
0,0,9.979032516479492,0,0,-0.009800000116229057,0.04500000098543482,-0.0749999994190225,-0.010999999647985701
0,0,9.979032516479492,0,0,-0.009800000116229057,0.16699999283666295,0.1070000026395942,-0.010999999647985701
0,0,9.988609313964844,0,0,0,0.04500000098543482,-0.01400000015835513,-0.010999999647985701
0,0,9.988609313964844,0,0,0,-0.07600000181251451,-0.01400000015835513,0.04900000055424296
0,0,9.988609313964844,0,0,0,-0.07600000181251451,-0.01400000015835513,0.04900000055424296
0,0,9.988609313964844,0,0,0,0.04500000098543482,-0.0749999994190225,0.04900000055424296
0,0,9.988609313964844,0,0,0,-0.07600000181251451,-0.0749999994190225,0.10999999647985702
0,0,9.988609313964844,0,0,0,-0.014999999216793838,-0.01400000015835513,0.04900000055424296
0,0,9.988609313964844,0,0,0,-0.014999999216793838,0.04600000004387353,-0.010999999647985701
0,0,9.988609313964844,0,0,0,-0.014999999216793838,-0.0749999994190225,0.04900000055424296
0,0,9.998186111450195,0,0,0.009800000116229057,-0.014999999216793838,0.04600000004387353,-0.010999999647985701
0,0,9.998186111450195,0,0,0.009800000116229057,-0.014999999216793838,0.04600000004387353,0.04900000055424296
0,0,9.998186111450195,0,0,0.009800000116229057,0.04500000098543482,-0.0749999994190225,0.04900000055424296
0,0,9.998186111450195,0,0,0.009800000116229057,-0.13700000107318186,-0.0749999994190225,-0.07199999890865307
0,0,9.998186111450195,0,0,0.009800000116229057,-0.014999999216793838,-0.01400000015835513,0.04900000055424296
0,0,9.998186111450195,0,0,0.009800000116229057,0.04500000098543482,0.1070000026395942,-0.010999999647985701
0,0,10.007762908935547,0,0,0.019600000232458115,0.10600000024610218,-0.0749999994190225,-0.010999999647985701
0,0,9.998186111450195,0,0,0.009800000116229057,-0.014999999216793838,-0.01400000015835513,-0.010999999647985701
-0.009576806798577309,0,9.998186111450195,0,0,0.009800000116229057,0.16699999283666295,-0.01400000015835513,-0.010999999647985701
0,0,9.998186111450195,0,0,0.009800000116229057,-0.014999999216793838,0.1070000026395942,0.10999999647985702
0,0,9.998186111450195,0,0,0.009800000116229057,-0.014999999216793838,0.04600000004387353,-0.010999999647985701
0,0,9.998186111450195,0,0,0.009800000116229057,-0.07600000181251451,0.04600000004387353,-0.07199999890865307
0,0,9.998186111450195,0,0,0.009800000116229057,0.04500000098543482,0.04600000004387353,-0.010999999647985701
0,0,9.998186111450195,0,0,0,-0.13700000107318186,-0.13600000534979648,-0.010999999647985701
0,0,9.988609313964844,0,0,0.019600000232458115,-0.014999999216793838,-0.01400000015835513,-0.010999999647985701
0,0,10.007762908935547,0,0,0.019600000232458115,-0.07600000181251451,-0.0749999994190225,0.10999999647985702
0,0,9.998186111450195,0,0,0.009800000116229057,-0.07600000181251451,0.04600000004387353,0.04900000055424296
0,0,9.998186111450195,0,0,0.009800000116229057,0.04500000098543482,-0.01400000015835513,-0.010999999647985701
0,0,9.998186111450195,0,0,0.009800000116229057,0.04500000098543482,0.04600000004387353,0.04900000055424296
0,0,9.998186111450195,0,0,0.009800000116229057,-0.014999999216793838,-0.0749999994190225,-0.07199999890865307
0,0,10.007762908935547,0,0,0.019600000232458115,-0.07600000181251451,0.04600000004387353,-0.010999999647985701
0,0,9.998186111450195,0,0,0.009800000116229057,-0.014999999216793838,-0.01400000015835513,-0.010999999647985701
0,0,9.998186111450195,0,0,0.009800000116229057,-0.014999999216793838,-0.0749999994190225,-0.010999999647985701
0,0,9.998186111450195,0,0,0.009800000116229057,-0.014999999216793838,-0.0749999994190225,-0.07199999890865307
0,0,9.998186111450195,0,0,0,-0.014999999216793838,0.04600000004387353,-0.010999999647985701
0,0,9.998186111450195,0,0,0.009800000116229057,0.10600000024610218,-0.01400000015835513,-0.010999999647985701
0,0,9.998186111450195,0,0,0.009800000116229057,-0.014999999216793838,-0.01400000015835513,-0.010999999647985701
0,0,10.007762908935547,0,0,0.019600000232458115,-0.014999999216793838,0.16800000190026157,0.10999999647985702
0,0,10.007762908935547,0,0,0.019600000232458115,-0.014999999216793838,0.04600000004387353,0.04900000055424296
0,0,10.007762908935547,0,0,0.019600000232458115,-0.014999999216793838,-0.0749999994190225,-0.07199999890865307
0,0,10.007762908935547,0,0,0.019600000232458115,0.04500000098543482,0.04600000004387353,0.04900000055424296
0,0,10.007762908935547,0,0,0.019600000232458115,-0.014999999216793838,-0.01400000015835513,-0.010999999647985701
0,0,10.007762908935547,0,0,0.019600000232458115,0.04500000098543482,0.04600000004387353,0.04900000055424296
0,0,10.007762908935547,0,0,0.019600000232458115,-0.014999999216793838,-0.01400000015835513,0.04900000055424296
0,0,10.007762908935547,0,0,0.019600000232458115,-0.07600000181251451,-0.01400000015835513,-0.010999999647985701
0,0,10.007762908935547,0,0,0.019600000232458115,-0.07600000181251451,0.04600000004387353,0.04900000055424296
0,0,10.007762908935547,0,0,0.019600000232458115,-0.07600000181251451,0.1070000026395942,-0.010999999647985701
0,0,10.007762908935547,0,0,0.019600000232458115,-0.07600000181251451,0.04600000004387353,0.04900000055424296
0,0,10.007762908935547,0,0,0.019600000232458115,-0.014999999216793838,0.04600000004387353,-0.010999999647985701
0,0,10.007762908935547,0,0,0.019600000232458115,-0.014999999216793838,0.04600000004387353,0.04900000055424296
0,0,10.007762908935547,0,0,0.019600000232458115,-0.014999999216793838,-0.01400000015835513,-0.07199999890865307
0,0,10.017339706420898,0,0,0.029399998486042023,0.04500000098543482,-0.13600000534979648,-0.010999999647985701
0,0,10.017339706420898,0,0,0.029399998486042023,-0.07600000181251451,0.1070000026395942,-0.07199999890865307
0,0,10.017339706420898,0,0,0.029399998486042023,-0.07600000181251451,0.1070000026395942,-0.07199999890865307
0,0,10.007762908935547,0,0,0.029399998486042023,0.10600000024610218,0.04600000004387353,-0.13300000483942703
0,0,10.007762908935547,0,0,0,0.10600000024610218,0.04600000004387353,-0.13300000483942703
0,0,10.007762908935547,0,0,0,0.04500000098543482,-0.0749999994190225,0.10999999647985702
0,0,10.007762908935547,0,0,0,0.04500000098543482,0.04600000004387353,0.04900000055424296
0,0,10.007762908935547,0,0,0,-0.07600000181251451,0.04600000004387353,-0.010999999647985701
0,0,10.007762908935547,0,0,0,-0.014999999216793838,-0.01400000015835513,-0.010999999647985701
0,0,10.007762908935547,0,0,0,0.04500000098543482,-0.01400000015835513,-0.010999999647985701
0,0,10.007762908935547,0,0,0,0.10600000024610218,-0.0749999994190225,-0.010999999647985701
0,0,10.007762908935547,0,0,0,0.10600000024610218,-0.0749999994190225,-0.010999999647985701
0,0,9.998186111450195,0,0,-0.009800000116229057,-0.014999999216793838,-0.13600000534979648,-0.07199999890865307
0,0,10.007762908935547,0,0,0,0.04500000098543482,0.04600000004387353,-0.010999999647985701
0,0,10.007762908935547,0,0,0,-0.014999999216793838,-0.01400000015835513,0.04900000055424296
0,0,10.007762908935547,0,0,0,0.04500000098543482,-0.0749999994190225,-0.010999999647985701
0,0,10.007762908935547,0,0,0,-0.014999999216793838,0.16800000190026157,-0.010999999647985701
0,0,10.007762908935547,0,0,0,0.10600000024610218,-0.0749999994190225,-0.010999999647985701
0,0,10.007762908935547,0,0,-0.009800000116229057,-0.014999999216793838,-0.0749999994190225,-0.010999999647985701
0,0,9.998186111450195,0,0,-0.009800000116229057,-0.014999999216793838,0.04600000004387353,-0.010999999647985701
0,0,9.998186111450195,0,0,-0.009800000116229057,-0.07600000181251451,0.1070000026395942,-0.010999999647985701
0,0,10.007762908935547,0,0,0,-0.07600000181251451,-0.0749999994190225,0.04900000055424296
0,0,9.988609313964844,0,0,0,0.04500000098543482,-0.0749999994190225,-0.010999999647985701
0,0,9.988609313964844,0,0,-0.019600000232458115,-0.07600000181251451,-0.01400000015835513,0.04900000055424296
0,0,9.998186111450195,0,0,-0.009800000116229057,0.04500000098543482,-0.01400000015835513,-0.010999999647985701
0,0,9.998186111450195,0,0,-0.009800000116229057,0.04500000098543482,-0.01400000015835513,-0.010999999647985701
0,0,9.998186111450195,0,0,-0.009800000116229057,-0.014999999216793838,-0.01400000015835513,0.04900000055424296
0,0,10.007762908935547,0,0,-0.009800000116229057,-0.014999999216793838,0.04600000004387353,-0.010999999647985701
0,0,10.007762908935547,0,0,0,-0.07600000181251451,0.04600000004387353,-0.07199999890865307
0,0,10.007762908935547,0,0,0,-0.014999999216793838,0.04600000004387353,-0.07199999890865307
0,0,10.007762908935547,0,0,-0.009800000116229057,0.04500000098543482,0.04600000004387353,-0.010999999647985701
0,0,9.998186111450195,0,0,-0.009800000116229057,-0.014999999216793838,-0.01400000015835513,0.04900000055424296
0,0,10.007762908935547,0,0,0,-0.014999999216793838,-0.01400000015835513,-0.010999999647985701
0,0,9.998186111450195,0,0,-0.009800000116229057,0.04500000098543482,-0.01400000015835513,-0.07199999890865307
0,0,9.998186111450195,0,0,-0.009800000116229057,0.04500000098543482,-0.0749999994190225,-0.07199999890865307
0,0,9.998186111450195,0,0,-0.009800000116229057,-0.014999999216793838,-0.0749999994190225,0.04900000055424296
0,0,9.998186111450195,0,0,-0.009800000116229057,0.04500000098543482,0.04600000004387353,-0.07199999890865307
0,0,9.998186111450195,0,0,-0.009800000116229057,-0.014999999216793838,0.04600000004387353,-0.010999999647985701
0,0,9.998186111450195,0,0,-0.009800000116229057,-0.014999999216793838,0.04600000004387353,-0.010999999647985701
0,0,9.998186111450195,0,0,-0.009800000116229057,0.10600000024610218,0.1070000026395942,0.10999999647985702
0,0,9.998186111450195,0,0,-0.009800000116229057,0.10600000024610218,-0.01400000015835513,-0.07199999890865307
0,0,9.998186111450195,0,0,-0.009800000116229057,-0.07600000181251451,-0.01400000015835513,0.04900000055424296
0,0,9.998186111450195,0,0,-0.009800000116229057,-0.07600000181251451,-0.01400000015835513,0.10999999647985702
0,0,10.007762908935547,0,0,0,0.04500000098543482,-0.01400000015835513,-0.07199999890865307
0,0,10.007762908935547,0,0,0,-0.014999999216793838,-0.0749999994190225,-0.010999999647985701
0,0,10.007762908935547,0,0,0,-0.014999999216793838,0.04600000004387353,-0.07199999890865307
0,0,9.988609313964844,0,0,-0.019600000232458115,-0.07600000181251451,0.1070000026395942,0.04900000055424296
0,0,9.988609313964844,0,0,-0.019600000232458115,0.04500000098543482,0.04600000004387353,0.04900000055424296
0,0,9.988609313964844,0,0,-0.019600000232458115,-0.014999999216793838,0.04600000004387353,-0.010999999647985701
0,0,9.988609313964844,0,0,-0.019600000232458115,-0.13700000107318186,0.04600000004387353,-0.010999999647985701
0,0,9.988609313964844,0,0,0,0.04500000098543482,0.1070000026395942,0.04900000055424296
0,0,9.998186111450195,0,0,0.009800000116229057,-0.07600000181251451,-0.01400000015835513,-0.010999999647985701
0,0,9.998186111450195,0,0,0.009800000116229057,0.04500000098543482,-0.0749999994190225,0.04900000055424296
0,0,9.988609313964844,0,0,0,-0.014999999216793838,-0.01400000015835513,0.04900000055424296
0,0,9.988609313964844,0,0,0,-0.13700000107318186,0.1070000026395942,-0.010999999647985701
0,0,9.988609313964844,0,0,0,-0.014999999216793838,0.1070000026395942,-0.010999999647985701
0,0,9.988609313964844,0,0,0,-0.13700000107318186,-0.0749999994190225,-0.07199999890865307
0,0,9.988609313964844,0,0,0,-0.07600000181251451,-0.0749999994190225,-0.010999999647985701
0,0,9.988609313964844,0,0,0,0.04500000098543482,-0.13600000534979648,-0.010999999647985701
0,0,9.998186111450195,0,0,0.009800000116229057,0.10600000024610218,0.1070000026395942,-0.010999999647985701
0,0,9.998186111450195,0,0,0.009800000116229057,0.10600000024610218,-0.01400000015835513,0.04900000055424296
0,0,9.998186111450195,0,0,0.009800000116229057,-0.13700000107318186,-0.01400000015835513,-0.010999999647985701
0,0,9.998186111450195,0,0,0.009800000116229057,0.04500000098543482,-0.0749999994190225,0.04900000055424296
0,0,9.998186111450195,0,0,0.009800000116229057,-0.014999999216793838,-0.01400000015835513,0.10999999647985702
0,0,9.998186111450195,0,0,0.009800000116229057,0.04500000098543482,-0.01400000015835513,0.04900000055424296
0,0,9.998186111450195,0,0,0.009800000116229057,0.10600000024610218,-0.0749999994190225,-0.010999999647985701
0,0,9.998186111450195,0,0,0.009800000116229057,-0.07600000181251451,0.04600000004387353,-0.010999999647985701
0,0,9.998186111450195,0,0,0.009800000116229057,-0.014999999216793838,0.04600000004387353,-0.010999999647985701
0,0,9.998186111450195,0,0,0.009800000116229057,0.04500000098543482,0.04600000004387353,0.04900000055424296
0,0,9.998186111450195,0,0,0.009800000116229057,0.22800001210765014,0.04600000004387353,-0.010999999647985701
0,0,9.998186111450195,0,0,0.009800000116229057,-0.014999999216793838,0.04600000004387353,0.04900000055424296
0,0,9.998186111450195,0,0,0.009800000116229057,0.04500000098543482,-0.01400000015835513,-0.010999999647985701
0,0,9.998186111450195,0,0,0.009800000116229057,0.04500000098543482,0.1070000026395942,0.04900000055424296
0,0,9.998186111450195,0,0,0.009800000116229057,-0.07600000181251451,0.04600000004387353,-0.010999999647985701
0,0,9.998186111450195,0,0,0.009800000116229057,-0.014999999216793838,-0.0749999994190225,-0.010999999647985701
0,0,9.998186111450195,0,0,0.009800000116229057,-0.014999999216793838,-0.0749999994190225,0.04900000055424296
0,0,9.998186111450195,0,0,0.009800000116229057,0.16699999283666295,0.04600000004387353,0.04900000055424296
0,0,9.998186111450195,0,0,0.009800000116229057,0.04500000098543482,0.16800000190026157,-0.07199999890865307
0,0,9.998186111450195,0,0,0.009800000116229057,0.04500000098543482,-0.0749999994190225,0.04900000055424296
0,0,9.998186111450195,0,0,0.009800000116229057,-0.07600000181251451,-0.01400000015835513,-0.010999999647985701
0,0,9.988609313964844,0,0,0,-0.07600000181251451,0.04600000004387353,0.04900000055424296
0,0,9.998186111450195,0,0,0.009800000116229057,0.22800001210765014,-0.0749999994190225,-0.010999999647985701
0,0,9.998186111450195,0,0,0.009800000116229057,0.04500000098543482,0.04600000004387353,0.04900000055424296
0,0,9.998186111450195,0,0,0.009800000116229057,0.10600000024610218,-0.13600000534979648,-0.010999999647985701
0,0,9.998186111450195,0,0,0.009800000116229057,0.04500000098543482,-0.0749999994190225,-0.010999999647985701
0,0,9.988609313964844,0,0,0,-0.07600000181251451,-0.01400000015835513,-0.010999999647985701
0,0,9.988609313964844,0,0,0,-0.014999999216793838,-0.01400000015835513,-0.010999999647985701
0,0,9.988609313964844,0,0,0,-0.07600000181251451,0.04600000004387353,0.04900000055424296
0,0,9.988609313964844,0,0,0,-0.014999999216793838,-0.01400000015835513,0.04900000055424296
0,0,9.979032516479492,0,0,-0.009800000116229057,0.04500000098543482,0.04600000004387353,0.04900000055424296
0,0,9.988609313964844,0,0,0,0.04500000098543482,-0.01400000015835513,-0.010999999647985701
0,0,9.998186111450195,0,0,0,0.10600000024610218,-0.0749999994190225,0.10999999647985702
0,0,9.988609313964844,0,0,0.009800000116229057,-0.014999999216793838,-0.0749999994190225,-0.010999999647985701
0,0,9.988609313964844,0,0,0,0.10600000024610218,-0.01400000015835513,0.04900000055424296
0,0,9.988609313964844,0,0,0,-0.014999999216793838,-0.01400000015835513,0.04900000055424296
0,0,9.998186111450195,0,0,0.009800000116229057,-0.014999999216793838,0.04600000004387353,-0.010999999647985701
0,0,10.007762908935547,0,0,0.019600000232458115,-0.014999999216793838,0.04600000004387353,-0.010999999647985701
0,0,10.007762908935547,0,0,0.009800000116229057,0.04500000098543482,0.16800000190026157,0.10999999647985702
0,0,9.998186111450195,0,0,0,-0.014999999216793838,-0.01400000015835513,0.10999999647985702
0,0,9.988609313964844,0,0,-0.009800000116229057,-0.014999999216793838,-0.01400000015835513,-0.010999999647985701
0,0,9.988609313964844,0,0,-0.009800000116229057,0.04500000098543482,-0.01400000015835513,-0.010999999647985701
0,0,9.998186111450195,0,0,0,0.04500000098543482,-0.01400000015835513,-0.010999999647985701
0,0,9.998186111450195,0,0,0,0.04500000098543482,-0.01400000015835513,0.04900000055424296
0,0,9.998186111450195,0,0,0,-0.07600000181251451,0.04600000004387353,0.04900000055424296
0,0,9.998186111450195,0,0,0,-0.014999999216793838,-0.01400000015835513,0.04900000055424296
0,0,10.007762908935547,0,0,0.009800000116229057,-0.014999999216793838,0.04600000004387353,0.04900000055424296
0,0,9.998186111450195,0,0,0,-0.07600000181251451,-0.01400000015835513,0.04900000055424296
0,0,9.998186111450195,0,0,0,0.04500000098543482,-0.01400000015835513,-0.010999999647985701
0,0,9.998186111450195,0,0,0,-0.014999999216793838,-0.01400000015835513,-0.010999999647985701
0,0,10.007762908935547,0,0,0.009800000116229057,-0.13700000107318186,0.1070000026395942,-0.010999999647985701
0,0,9.998186111450195,0,0,0,0.04500000098543482,-0.01400000015835513,0.04900000055424296
0,0,9.998186111450195,0,0,0,-0.014999999216793838,-0.01400000015835513,-0.010999999647985701
0,0,9.998186111450195,0,0,0,0.04500000098543482,-0.0749999994190225,0.04900000055424296
0,0,9.998186111450195,0,0,0,0.10600000024610218,-0.01400000015835513,-0.010999999647985701
0,0,9.998186111450195,0,0,0,-0.014999999216793838,0.1070000026395942,0.10999999647985702
0,0,10.007762908935547,0,0,0.009800000116229057,-0.07600000181251451,0.04600000004387353,0.10999999647985702
0,0,9.988609313964844,0,0,-0.009800000116229057,-0.07600000181251451,-0.0749999994190225,0.04900000055424296
0,0,9.988609313964844,0,0,-0.009800000116229057,-0.014999999216793838,0.04600000004387353,-0.010999999647985701
0,0,10.007762908935547,0,0,0.009800000116229057,0.10600000024610218,-0.0749999994190225,0.04900000055424296
0,0,9.998186111450195,0,0,0,0.10600000024610218,-0.0749999994190225,0.04900000055424296
0,0,9.998186111450195,0,0,0,0.04500000098543482,0.04600000004387353,-0.010999999647985701
0,0,9.998186111450195,0,0,0,-0.07600000181251451,0.04600000004387353,0.04900000055424296
0,0,9.998186111450195,0,0,0,0.04500000098543482,-0.0749999994190225,-0.010999999647985701
0,0,9.998186111450195,0,0,0,-0.014999999216793838,-0.01400000015835513,-0.010999999647985701
0,0,9.998186111450195,0,0,0,0.04500000098543482,-0.01400000015835513,-0.010999999647985701
0,0,9.998186111450195,0,0,0,-0.13700000107318186,-0.0749999994190225,0.04900000055424296
0,0,9.998186111450195,0,0,0,0.04500000098543482,0.1070000026395942,0.10999999647985702
0,0,9.988609313964844,0,0,-0.009800000116229057,-0.014999999216793838,0.04600000004387353,-0.07199999890865307
0,0,9.998186111450195,0,0,0,0.04500000098543482,0.04600000004387353,-0.010999999647985701
0,0,9.998186111450195,0,0,0,-0.014999999216793838,0.04600000004387353,-0.010999999647985701
0,0,9.998186111450195,0,0,0,-0.014999999216793838,-0.0749999994190225,-0.010999999647985701
0,0,9.998186111450195,0,0,0,-0.014999999216793838,0.04600000004387353,-0.010999999647985701
0,0,9.988609313964844,0,0,0.009800000116229057,0.04500000098543482,0.04600000004387353,0.10999999647985702
0,0,9.998186111450195,0,0,0,-0.07600000181251451,0.04600000004387353,0.04900000055424296
0,0,9.998186111450195,0,0,0,-0.07600000181251451,-0.0749999994190225,-0.07199999890865307
0,0,9.998186111450195,0,0,0,-0.014999999216793838,-0.01400000015835513,0.04900000055424296
0,0,9.998186111450195,0,0,0,-0.014999999216793838,0.04600000004387353,0.04900000055424296
0,0,9.998186111450195,0,0,0,-0.07600000181251451,-0.0749999994190225,0.10999999647985702
0,0,9.998186111450195,0,0,0,-0.07600000181251451,0.04600000004387353,-0.13300000483942703
0,0,9.998186111450195,0,0,0.009800000116229057,-0.07600000181251451,-0.0749999994190225,0.04900000055424296
0,0,10.007762908935547,0,0,0,0.04500000098543482,-0.0749999994190225,-0.010999999647985701
0,0,9.998186111450195,0,0,0,-0.07600000181251451,0.04600000004387353,0.04900000055424296
0,0,9.988609313964844,0,0,-0.009800000116229057,-0.07600000181251451,0.1070000026395942,-0.07199999890865307
0,0,9.988609313964844,0,0,-0.009800000116229057,-0.014999999216793838,-0.01400000015835513,0.04900000055424296
0,0,9.988609313964844,0,0,-0.009800000116229057,0.04500000098543482,-0.01400000015835513,-0.010999999647985701
0,0,9.998186111450195,0,0,0,-0.01700000066872456,-0.07600000181251451,-0.1400000015835513
0,0,9.998186111450195,0,0,0,0.0429999995335041,-0.014999999216793838,-0.017999999727163266
0,0,9.998186111450195,0,0,0,-0.01700000066872456,-0.014999999216793838,-0.017999999727163266
0,0,9.998186111450195,0,0,0,0.0429999995335041,-0.014999999216793838,-0.017999999727163266
0,0,9.998186111450195,0,0,0,-0.07799999992939192,-0.07600000181251451,0.10299999973573276
0,0,9.998186111450195,0,0,0,-0.01700000066872456,0.04500000098543482,0.04200000047506539
0,0,9.998186111450195,0,0,0,-0.07799999992939192,0.04500000098543482,-0.07900000232288394
0,0,9.998186111450195,0,0,0,0.0429999995335041,-0.014999999216793838,-0.07900000232288394
0,0,9.998186111450195,0,0,0,0.10400000212922476,-0.07600000181251451,-0.017999999727163266
0,0,9.998186111450195,0,0,0,-0.01700000066872456,-0.07600000181251451,0.04200000047506539
0,0,9.998186111450195,0,0,0,-0.01700000066872456,-0.014999999216793838,-0.07900000232288394
0,0,9.998186111450195,0,0,0,0.0429999995335041,-0.014999999216793838,-0.07900000232288394
0,0,9.998186111450195,0,0,0,-0.1390000058601659,0.04500000098543482,-0.017999999727163266
0,0,9.998186111450195,0,0,0,0.10400000212922476,-0.014999999216793838,-0.017999999727163266
0,0,9.988609313964844,0,0,-0.009800000116229057,0.10400000212922476,0.04500000098543482,-0.07900000232288394
0,0,9.998186111450195,0,0,0,-0.01700000066872456,-0.07600000181251451,-0.017999999727163266
0,0,9.998186111450195,0,0,0,-0.07799999992939192,-0.014999999216793838,0.04200000047506539
0,0,9.988609313964844,0,0,-0.009800000116229057,0.0429999995335041,-0.07600000181251451,-0.017999999727163266
0,0,9.988609313964844,0,0,-0.009800000116229057,0.0429999995335041,-0.07600000181251451,-0.07900000232288394
0,0,9.988609313964844,0,0,-0.009800000116229057,0.10400000212922476,-0.014999999216793838,-0.017999999727163266
0,0,9.988609313964844,0,0,0,-0.1390000058601659,-0.014999999216793838,0.04200000047506539
0,0,9.998186111450195,0,0,0,0.0429999995335041,-0.014999999216793838,-0.07900000232288394
0,0,9.988609313964844,0,0,-0.009800000116229057,-0.1390000058601659,0.04500000098543482,-0.017999999727163266
0,0,9.988609313964844,0,0,-0.009800000116229057,-0.07799999992939192,-0.014999999216793838,-0.07900000232288394
0,0,9.988609313964844,0,0,-0.009800000116229057,-0.01700000066872456,-0.014999999216793838,-0.07900000232288394
0,0,9.979032516479492,0,0,-0.019600000232458115,0.0429999995335041,-0.07600000181251451,-0.1400000015835513
0,0,9.988609313964844,0,0,-0.009800000116229057,0.0429999995335041,-0.014999999216793838,0.04200000047506539
0,0,9.988609313964844,0,0,-0.009800000116229057,-0.01700000066872456,-0.07600000181251451,-0.017999999727163266
0,0,9.988609313964844,0,0,-0.009800000116229057,0.0429999995335041,-0.014999999216793838,-0.1400000015835513
0,0,9.998186111450195,0,0,0,0.0429999995335041,0.04500000098543482,-0.1400000015835513
0,0,9.988609313964844,0,0,-0.009800000116229057,-0.07799999992939192,0.04500000098543482,-0.017999999727163266
0,0,9.988609313964844,0,0,-0.009800000116229057,0.0429999995335041,-0.07600000181251451,-0.017999999727163266
0,0,9.988609313964844,0,0,-0.009800000116229057,-0.19999999845072666,0.04500000098543482,0.10299999973573276
0,0,9.988609313964844,0,0,-0.009800000116229057,-0.01700000066872456,-0.014999999216793838,-0.017999999727163266
0,0,9.988609313964844,0,0,-0.009800000116229057,-0.01700000066872456,-0.014999999216793838,0.04200000047506539
0,0,9.998186111450195,0,0,0,-0.01700000066872456,0.04500000098543482,0.04200000047506539
0,0,9.998186111450195,0,0,0,-0.07799999992939192,0.10600000024610218,-0.017999999727163266
0,0,9.998186111450195,0,0,0,-0.01700000066872456,0.04500000098543482,-0.017999999727163266
0,0,9.988609313964844,0,0,-0.009800000116229057,-0.01700000066872456,-0.014999999216793838,-0.017999999727163266
0,0,9.988609313964844,0,0,-0.009800000116229057,0.0429999995335041,0.04500000098543482,-0.017999999727163266
0,0,9.988609313964844,0,0,-0.009800000116229057,0.0429999995335041,0.10600000024610218,0.04200000047506539
0,0,9.998186111450195,0,0,0,-0.01700000066872456,0.04500000098543482,-0.017999999727163266
0,0,9.979032516479492,0,0,-0.019600000232458115,0.10400000212922476,-0.13700000107318186,-0.017999999727163266
0,0,9.988609313964844,0,0,-0.009800000116229057,0.10400000212922476,-0.07600000181251451,-0.017999999727163266
0,0,9.998186111450195,0,0,0,-0.07799999992939192,-0.07600000181251451,-0.07900000232288394
0,0,9.988609313964844,0,0,-0.009800000116229057,0.0429999995335041,-0.014999999216793838,-0.017999999727163266
0,0,9.988609313964844,0,0,0,0.10400000212922476,0.04500000098543482,-0.07900000232288394
0,0,9.988609313964844,0,0,-0.009800000116229057,-0.07799999992939192,0.16699999283666295,-0.017999999727163266
0,0,9.988609313964844,0,0,-0.009800000116229057,0.0429999995335041,-0.014999999216793838,-0.017999999727163266
0,0,9.998186111450195,0,0,0,0.10400000212922476,-0.07600000181251451,0.04200000047506539
0,0,9.998186111450195,0,0,0,0.16500000138989213,-0.014999999216793838,-0.07900000232288394
0,0,9.998186111450195,0,0,0,0.0429999995335041,-0.13700000107318186,-0.017999999727163266
0,0,9.998186111450195,0,0,0,-0.07799999992939192,0.10600000024610218,-0.017999999727163266
0,0,9.998186111450195,0,0,0,-0.07799999992939192,-0.014999999216793838,0.04200000047506539
0,0,9.998186111450195,0,0,0,-0.01700000066872456,-0.014999999216793838,-0.017999999727163266
0,0,9.998186111450195,0,0,0,0.0429999995335041,0.04500000098543482,0.04200000047506539
0,0,9.998186111450195,0,0,-0.009800000116229057,0.0429999995335041,0.10600000024610218,-0.017999999727163266
0,0,9.988609313964844,0,0,0,-0.07799999992939192,-0.014999999216793838,0.04200000047506539
0,0,9.998186111450195,0,0,0,-0.01700000066872456,0.04500000098543482,-0.017999999727163266
0,0,9.998186111450195,0,0,0,0.0429999995335041,-0.014999999216793838,-0.017999999727163266
0,0,9.998186111450195,0,0,0,-0.01700000066872456,-0.014999999216793838,0.04200000047506539
0,0,9.998186111450195,0,0,0,-0.01700000066872456,-0.014999999216793838,0.04200000047506539
0,0,9.998186111450195,0,0,0,-0.07799999992939192,-0.014999999216793838,-0.017999999727163266
0,0,10.007762908935547,0,0,0.009800000116229057,-0.01700000066872456,-0.014999999216793838,0.04200000047506539
0,0,10.007762908935547,0,0,0.009800000116229057,-0.01700000066872456,-0.014999999216793838,0.04200000047506539
0,0,9.998186111450195,0,0,0,-0.07799999992939192,0.04500000098543482,0.04200000047506539
0,0,9.998186111450195,0,0,0,-0.07799999992939192,-0.07600000181251451,0.10299999973573276
0,0,9.998186111450195,0,0,0,-0.01700000066872456,-0.014999999216793838,-0.017999999727163266
0,0,9.998186111450195,0,0,0,0.0429999995335041,-0.07600000181251451,-0.017999999727163266
0,0,9.998186111450195,0,0,0,0.16500000138989213,-0.014999999216793838,-0.07900000232288394
0,0,9.998186111450195,0,0,0,0.0429999995335041,0.04500000098543482,-0.017999999727163266
0,0,9.998186111450195,0,0,0,-0.1390000058601659,-0.014999999216793838,0.10299999973573276
0,0,9.998186111450195,0,0,0,-0.07799999992939192,-0.07600000181251451,0.04200000047506539
0,0,9.998186111450195,0,0,0,-0.01700000066872456,-0.014999999216793838,-0.017999999727163266
0,0,9.988609313964844,0,0,0,0.10400000212922476,0.04500000098543482,0.04200000047506539
0,0,9.988609313964844,0,0,-0.009800000116229057,0.10400000212922476,-0.07600000181251451,-0.07900000232288394
0,0,9.988609313964844,0,0,0,0.0429999995335041,0.04500000098543482,-0.017999999727163266
0,0,9.998186111450195,0,0,0,0.0429999995335041,-0.014999999216793838,0.04200000047506539
0,0,9.998186111450195,0,0,0,0.0429999995335041,-0.014999999216793838,0.04200000047506539
0,0,9.998186111450195,0,0,0,0.0429999995335041,-0.014999999216793838,-0.017999999727163266
0,0,9.988609313964844,0,0,-0.009800000116229057,0.0429999995335041,-0.014999999216793838,-0.017999999727163266
0,0,9.988609313964844,0,0,-0.009800000116229057,-0.01700000066872456,-0.07600000181251451,0.04200000047506539
0,0,9.998186111450195,0,0,0,-0.01700000066872456,0.04500000098543482,-0.017999999727163266
0,0,9.998186111450195,0,0,0,-0.01700000066872456,0.04500000098543482,-0.017999999727163266
0,0,9.998186111450195,0,0,0,0.0429999995335041,0.04500000098543482,-0.1400000015835513
0,0,9.998186111450195,0,0,0,-0.07799999992939192,0.04500000098543482,-0.017999999727163266
0,0,9.998186111450195,0,0,0,0.0429999995335041,0.04500000098543482,0.04200000047506539
0,0,9.998186111450195,0,0,0,-0.01700000066872456,-0.014999999216793838,-0.017999999727163266
0,0,9.998186111450195,0,0,0,-0.01700000066872456,-0.07600000181251451,-0.07900000232288394
0,0,9.998186111450195,0,0,0,-0.01700000066872456,0.04500000098543482,-0.017999999727163266
0,0,9.988609313964844,0,0,-0.009800000116229057,0.0429999995335041,0.10600000024610218,0.04200000047506539
0,0,9.988609313964844,0,0,-0.009800000116229057,-0.07799999992939192,-0.014999999216793838,-0.07900000232288394
0,0,9.998186111450195,0,0,-0.009800000116229057,-0.5050000147643833,-0.2589999995945166,0.10299999973573276
0,0,9.998186111450195,0,0,0,0.0429999995335041,-0.07600000181251451,0.04200000047506539
0,0,9.998186111450195,0,0,0,0.0429999995335041,0.04500000098543482,-0.017999999727163266
0,0,9.998186111450195,0,0,0,-0.01700000066872456,-0.014999999216793838,-0.07900000232288394
0,0,9.988609313964844,0,0,0,-0.1390000058601659,-0.07600000181251451,-0.017999999727163266
0,0,9.988609313964844,0,0,0,0.0429999995335041,0.04500000098543482,0.04200000047506539
0,0,9.988609313964844,0,0,0,-0.1390000058601659,-0.014999999216793838,-0.07900000232288394
0,0,9.998186111450195,0,0,0.009800000116229057,0.0429999995335041,0.10600000024610218,0.10299999973573276
0,0,9.988609313964844,0,0,0,-0.07799999992939192,0.04500000098543482,-0.017999999727163266
0,0,9.998186111450195,0,0,0.009800000116229057,0.0429999995335041,0.10600000024610218,-0.017999999727163266
0,0,9.998186111450195,0,0,0.009800000116229057,0.10400000212922476,0.10600000024610218,-0.07900000232288394
0,0,9.988609313964844,0,0,0,0.0429999995335041,-0.014999999216793838,0.04200000047506539
0,0,9.988609313964844,0,0,0,0.0429999995335041,-0.014999999216793838,-0.017999999727163266
0,0,9.988609313964844,0,0,0,0.0429999995335041,-0.07600000181251451,-0.07900000232288394
0,0,9.988609313964844,0,0,0,0.10400000212922476,0.04500000098543482,-0.07900000232288394
0,0,9.988609313964844,0,0,0,0.0429999995335041,-0.07600000181251451,-0.017999999727163266
0,0,9.988609313964844,0,0,0,0.0429999995335041,-0.014999999216793838,-0.07900000232288394
0,0,9.988609313964844,0,0,0,0.10400000212922476,0.04500000098543482,0.10299999973573276
0,0,9.988609313964844,0,0,0,-0.07799999992939192,0.04500000098543482,0.04200000047506539
0,0,9.988609313964844,0,0,0,0.16500000138989213,-0.014999999216793838,-0.017999999727163266
0,0,9.988609313964844,0,0,0,-0.01700000066872456,0.04500000098543482,-0.017999999727163266
0,0,9.988609313964844,0,0,0,-0.01700000066872456,-0.014999999216793838,-0.07900000232288394
0,0,9.988609313964844,0,0,0,-0.07799999992939192,-0.014999999216793838,0.04200000047506539
0,0,9.988609313964844,0,0,0,-0.01700000066872456,-0.014999999216793838,-0.017999999727163266
0,0,9.988609313964844,0,0,0,0.0429999995335041,-0.014999999216793838,-0.017999999727163266
0,0,9.979032516479492,0,0,-0.009800000116229057,-0.01700000066872456,-0.014999999216793838,-0.017999999727163266
0,0,9.979032516479492,0,0,-0.009800000116229057,0.0429999995335041,-0.014999999216793838,-0.017999999727163266
0,0,9.979032516479492,0,0,-0.009800000116229057,0.0429999995335041,0.04500000098543482,0.04200000047506539
0,0,9.979032516479492,0,0,-0.009800000116229057,-0.01700000066872456,-0.07600000181251451,-0.017999999727163266
0,0,9.979032516479492,0,0,-0.009800000116229057,0.28699998657101367,0.04500000098543482,-0.1400000015835513
0,0,9.979032516479492,0,0,-0.009800000116229057,0.0429999995335041,0.10600000024610218,-0.07900000232288394
0,0,9.979032516479492,0,0,-0.009800000116229057,-0.1390000058601659,-0.014999999216793838,-0.017999999727163266
0,0,9.988609313964844,0,0,0,-0.01700000066872456,0.04500000098543482,-0.017999999727163266
0,0,9.979032516479492,0,0,-0.009800000116229057,0.0429999995335041,0.04500000098543482,-0.017999999727163266
0,0,9.979032516479492,0,0,-0.009800000116229057,0.0429999995335041,0.04500000098543482,-0.017999999727163266
0,0,9.979032516479492,0,0,-0.009800000116229057,0.10400000212922476,0.04500000098543482,-0.07900000232288394
0,0,9.998186111450195,0,0,-0.009800000116229057,-0.07799999992939192,0.04500000098543482,-0.07900000232288394
0,0,9.998186111450195,0,0,0.009800000116229057,-0.07799999992939192,0.04500000098543482,0.04200000047506539
-0.009576806798577309,0,9.988609313964844,0,0,0,0.10400000212922476,0.04500000098543482,-0.07900000232288394
-0.009576806798577309,0,9.988609313964844,0,0,0,-0.2609999910412874,0.04500000098543482,0.04200000047506539
0,0,9.988609313964844,0,0,0,0.0429999995335041,0.04500000098543482,-0.017999999727163266
0,0,9.96945571899414,0,0,-0.009800000116229057,-0.01700000066872456,0.10600000024610218,-0.017999999727163266
0,0,9.979032516479492,0,0,-0.009800000116229057,-0.01700000066872456,0.04500000098543482,-0.017999999727163266
0,0,9.988609313964844,0,0,0,-0.07799999992939192,0.04500000098543482,-0.07900000232288394
0,0,9.988609313964844,0,0,0,-0.07799999992939192,-0.014999999216793838,0.04200000047506539
0,0,9.988609313964844,0,0,0,-0.07799999992939192,-0.07600000181251451,-0.017999999727163266
0,0,9.988609313964844,0,0,0,-0.01700000066872456,-0.13700000107318186,-0.017999999727163266
0,0,9.988609313964844,0,0,0,-0.01700000066872456,-0.014999999216793838,-0.017999999727163266
0,0,9.979032516479492,0,0,-0.009800000116229057,-0.07799999992939192,0.04500000098543482,-0.017999999727163266
0,0,9.979032516479492,0,0,-0.009800000116229057,0.0429999995335041,-0.014999999216793838,-0.017999999727163266
0,0,9.979032516479492,0,0,-0.009800000116229057,-0.01700000066872456,0.04500000098543482,-0.017999999727163266
0,0,9.979032516479492,0,0,-0.009800000116229057,0.10400000212922476,-0.014999999216793838,-0.017999999727163266
0,0,9.979032516479492,0,0,-0.009800000116229057,0.10400000212922476,-0.014999999216793838,0.04200000047506539
0,0,9.979032516479492,0,0,0,-0.01700000066872456,-0.07600000181251451,-0.017999999727163266
0,0,9.988609313964844,0,0,0.009800000116229057,-0.01700000066872456,0.04500000098543482,0.04200000047506539
0,0,9.988609313964844,0,0,0.009800000116229057,-0.01700000066872456,-0.07600000181251451,0.10299999973573276
0,0,9.988609313964844,0,0,0.009800000116229057,0.0429999995335041,0.04500000098543482,-0.017999999727163266
0,0,9.988609313964844,0,0,0.009800000116229057,-0.07799999992939192,-0.014999999216793838,0.04200000047506539
0,0,9.988609313964844,0,0,0.009800000116229057,0.0429999995335041,-0.014999999216793838,-0.017999999727163266
0,0,9.988609313964844,0,0,0.009800000116229057,0.0429999995335041,-0.07600000181251451,-0.017999999727163266
0,0,9.988609313964844,0,0,0.009800000116229057,0.10400000212922476,0.04500000098543482,-0.07900000232288394
0,0,9.988609313964844,0,0,0.009800000116229057,-0.1390000058601659,-0.014999999216793838,0.04200000047506539
0,0,9.988609313964844,0,0,0.009800000116229057,0.0429999995335041,0.10600000024610218,-0.1400000015835513
0,0,9.988609313964844,0,0,0.009800000116229057,0.10400000212922476,0.10600000024610218,-0.017999999727163266
0,0,9.988609313964844,0,0,0.009800000116229057,-0.07799999992939192,-0.07600000181251451,-0.017999999727163266
0,0,9.988609313964844,0,0,0.009800000116229057,-0.07799999992939192,0.04500000098543482,0.04200000047506539
0,0,9.988609313964844,0,0,0.009800000116229057,0.10400000212922476,-0.07600000181251451,0.04200000047506539
0,0,9.979032516479492,0,0,0,-0.07799999992939192,0.10600000024610218,-0.07900000232288394
0,0,9.988609313964844,0,0,0.009800000116229057,-0.07799999992939192,-0.014999999216793838,0.04200000047506539
0,0,9.988609313964844,0,0,0.009800000116229057,0.16500000138989213,0.04500000098543482,-0.017999999727163266
0,0,9.979032516479492,0,0,0.009800000116229057,-0.01700000066872456,0.04500000098543482,0.04200000047506539
0,0,9.979032516479492,0,0,0,-0.07799999992939192,-0.014999999216793838,-0.017999999727163266
0,0,9.979032516479492,0,0,0,-0.01700000066872456,0.04500000098543482,-0.07900000232288394
0,0,9.979032516479492,0,0,0,-0.01700000066872456,0.10600000024610218,0.04200000047506539
0,0,9.979032516479492,0,0,0,0.0429999995335041,-0.014999999216793838,0.04200000047506539
0,0,9.979032516479492,0,0,0,0.0429999995335041,0.04500000098543482,0.04200000047506539
0,0,9.979032516479492,0,0,0,-0.01700000066872456,-0.014999999216793838,-0.017999999727163266
0,0,9.979032516479492,0,0,0,-0.01700000066872456,-0.19799999366374263,0.04200000047506539
0,0,9.998186111450195,0,0,0.019600000232458115,-0.07799999992939192,0.04500000098543482,-0.017999999727163266
0,0,9.988609313964844,0,0,0.009800000116229057,-0.01700000066872456,0.04500000098543482,-0.07900000232288394
0,0,9.979032516479492,0,0,0,0.0429999995335041,0.16699999283666295,0.04200000047506539
0,0,9.96945571899414,0,0,0,0.0429999995335041,-0.014999999216793838,-0.017999999727163266
0,0,9.988609313964844,0,0,0,-0.07799999992939192,0.04500000098543482,0.10299999973573276
0,0,9.979032516479492,0,0,0,-0.07799999992939192,0.10600000024610218,-0.017999999727163266
0,0,9.979032516479492,0,0,0,0.0429999995335041,0.04500000098543482,0.04200000047506539
0,0,9.988609313964844,0,0,0.009800000116229057,0.10400000212922476,0.04500000098543482,-0.017999999727163266
0,0,9.988609313964844,0,0,0.009800000116229057,-0.01700000066872456,0.04500000098543482,-0.07900000232288394
0,0,9.988609313964844,0,0,0.009800000116229057,-0.01700000066872456,-0.014999999216793838,-0.07900000232288394
0,0,9.988609313964844,0,0,0.009800000116229057,-0.01700000066872456,-0.07600000181251451,-0.07900000232288394
0,0,9.988609313964844,0,0,0.009800000116229057,-0.01700000066872456,0.04500000098543482,0.04200000047506539
-0.009576806798577309,0,9.988609313964844,0,0,0.009800000116229057,-0.07799999992939192,-0.07600000181251451,-0.017999999727163266
-0.009576806798577309,0,9.988609313964844,0,0,0.009800000116229057,-0.07799999992939192,-0.07600000181251451,-0.017999999727163266
0,0,9.979032516479492,0,0,0,-0.01700000066872456,-0.07600000181251451,-0.017999999727163266
0,0,9.988609313964844,0,0,0.009800000116229057,-0.01700000066872456,-0.07600000181251451,0.04200000047506539
0,0,9.988609313964844,0,0,0,-0.01700000066872456,-0.07600000181251451,0.04200000047506539
0,0,9.979032516479492,0,0,0,0.0429999995335041,0.04500000098543482,-0.017999999727163266
0,0,9.988609313964844,0,0,0.009800000116229057,0.0429999995335041,-0.014999999216793838,0.04200000047506539
0,0,9.988609313964844,0,0,0.009800000116229057,0.0429999995335041,0.04500000098543482,0.04200000047506539
0,0,9.988609313964844,0,0,0.009800000116229057,-0.2609999910412874,-0.014999999216793838,0.04200000047506539
0,0,9.988609313964844,0,0,0.009800000116229057,-0.1390000058601659,-0.07600000181251451,0.04200000047506539
0,0,9.988609313964844,0,0,0,0.0429999995335041,-0.07600000181251451,0.04200000047506539
0,0,9.988609313964844,0,0,0,0.0429999995335041,0.04500000098543482,-0.017999999727163266
0,0,9.988609313964844,0,0,0,-0.01700000066872456,-0.07600000181251451,0.04200000047506539
0,0,9.988609313964844,0,0,0,-0.01700000066872456,-0.014999999216793838,0.04200000047506539
0,0,9.988609313964844,0,0,0,0.10400000212922476,0.04500000098543482,-0.017999999727163266
0,0,9.979032516479492,0,0,-0.019600000232458115,-0.01700000066872456,0.04500000098543482,0.04200000047506539
0,0,9.988609313964844,0,0,0,0.0429999995335041,-0.014999999216793838,-0.017999999727163266
-0.009576806798577309,0,9.998186111450195,0,0,0.009800000116229057,0.0429999995335041,-0.014999999216793838,-0.07900000232288394
0,0,9.998186111450195,0,0,0.009800000116229057,-0.1390000058601659,-0.13700000107318186,-0.017999999727163266
0,0,9.998186111450195,0,0,0.009800000116229057,-0.1390000058601659,-0.13700000107318186,0.10299999973573276
0,0,9.998186111450195,0,0,0.009800000116229057,0.10400000212922476,-0.13700000107318186,-0.017999999727163266
0,0,9.998186111450195,0,0,0.009800000116229057,-0.01700000066872456,-0.07600000181251451,-0.07900000232288394
0,0,9.998186111450195,0,0,0.009800000116229057,-0.07799999992939192,0.04500000098543482,-0.017999999727163266
0,0,9.988609313964844,0,0,0,0.0429999995335041,0.10600000024610218,-0.017999999727163266
0,0,9.988609313964844,0,0,0,0.10400000212922476,0.16699999283666295,-0.017999999727163266
0,0,9.998186111450195,0,0,0.009800000116229057,0.0429999995335041,0.04500000098543482,-0.07900000232288394
0,0,9.988609313964844,0,0,0,0.0429999995335041,0.04500000098543482,0.04200000047506539
0,0,9.988609313964844,0,0,0.009800000116229057,0.0429999995335041,0.04500000098543482,0.04200000047506539
0,0,9.988609313964844,0,0,0,-0.01700000066872456,-0.014999999216793838,0.04200000047506539
0,0,9.998186111450195,0,0,0.009800000116229057,-0.07799999992939192,-0.014999999216793838,-0.017999999727163266
0,0,9.998186111450195,0,0,0.009800000116229057,-0.07799999992939192,-0.014999999216793838,-0.017999999727163266
0,0,9.998186111450195,0,0,0.009800000116229057,0.0429999995335041,0.04500000098543482,-0.017999999727163266
0,0,9.998186111450195,0,0,0.009800000116229057,-0.01700000066872456,0.04500000098543482,0.04200000047506539
0,0,9.998186111450195,0,0,0.009800000116229057,-0.01700000066872456,0.04500000098543482,0.04200000047506539
0,0,9.998186111450195,0,0,0.009800000116229057,-0.01700000066872456,0.04500000098543482,-0.07900000232288394
0,0,9.988609313964844,0,0,0,-0.01700000066872456,0.04500000098543482,0.10299999973573276
0,0,9.998186111450195,0,0,0,-0.07799999992939192,-0.014999999216793838,-0.017999999727163266
0,0,9.988609313964844,0,0,0,-0.01700000066872456,-0.014999999216793838,-0.017999999727163266
0,0,9.988609313964844,0,0,0,-0.01700000066872456,-0.014999999216793838,-0.07900000232288394
0,0,9.988609313964844,0,0,0,-0.01700000066872456,-0.014999999216793838,0.04200000047506539
0,0,9.988609313964844,0,0,0,0.0429999995335041,0.16699999283666295,0.04200000047506539
0,0,9.988609313964844,0,0,0,-0.01700000066872456,0.04500000098543482,0.10299999973573276
0,0,9.998186111450195,0,0,0.009800000116229057,-0.01700000066872456,0.04500000098543482,0.04200000047506539
0,0,9.988609313964844,0,0,0,-0.07799999992939192,-0.014999999216793838,-0.017999999727163266
0,0,9.988609313964844,0,0,0,-0.01700000066872456,-0.07600000181251451,0.04200000047506539
0,0,9.998186111450195,0,0,0.009800000116229057,-0.01700000066872456,0.04500000098543482,0.10299999973573276
0,0,9.998186111450195,0,0,0.009800000116229057,0.0429999995335041,-0.07600000181251451,-0.017999999727163266
0,0,9.988609313964844,0,0,0,-0.01700000066872456,-0.014999999216793838,-0.07900000232288394
0,0,9.988609313964844,0,0,0,-0.07799999992939192,-0.014999999216793838,-0.017999999727163266
0,0,9.988609313964844,0,0,0,-0.01700000066872456,0.04500000098543482,-0.017999999727163266
