Accelerometer_Gx,Accelerometer_Gy,Accelerometer_Gz,Accelerometer_X,Accelerometer_Y,Accelerometer_Z,Gyroscope_Z,Gyroscope_X,Gyroscope_Y
0,0,10.007762908935547,0.003000000026077032,0.002899999963119626,-0.03920000046491623,0.08799999718388561,-0.0009999999964224499,0.10100000161885533
0,0,10.007762908935547,-0.00009999999747378752,-0.00039999998989515007,-0.04899999871850014,-0.2159999967259592,-0.06200000165415938,0.10100000161885533
0,0,10.017339706420898,-0.00029999998514540493,0.00009999999747378752,-0.04899999871850014,-0.09399999820462447,-0.12299999424472013,-0.019999999511567335
0,0,10.017339706420898,-0.0005999999702908099,0,-0.03920000046491623,0.08799999718388561,-0.0009999999964224499,-0.019999999511567335
0,0,10.007762908935547,-0.0005999999702908099,-0.00019999999494757503,-0.04899999871850014,0.14900000311465958,-0.12299999424472013,-0.019999999511567335
0,0,10.007762908935547,-0.0005999999702908099,-0.00019999999494757503,-0.04899999871850014,0.14900000311465958,-0.12299999424472013,-0.019999999511567335
0,0,10.007762908935547,-0.0008999999845400453,-0.0004999999655410647,-0.04899999871850014,0.14900000311465958,-0.0009999999964224499,-0.019999999511567335
0,0,10.007762908935547,-0.0008999999845400453,-0.0009999999310821295,-0.04899999871850014,0.0269999995907449,-0.0009999999964224499,-0.019999999511567335
-0.009576806798577309,0,10.007762908935547,-0.0007999999797903001,-0.0008999999845400453,-0.04899999871850014,0.08799999718388561,0.05900000114378995,-0.019999999511567335
0,0,9.998186111450195,-0.0004999999655410647,-0.0010999999940395355,-0.058799996972084045,-0.0329999989439571,-0.06200000165415938,-0.019999999511567335
0,0,9.998186111450195,-0.000699999975040555,-0.0009999999310821295,-0.058799996972084045,-0.0329999989439571,0.05900000114378995,0.03999999902313467
0,0,9.998186111450195,-0.0004999999655410647,-0.0007999999797903001,-0.058799996972084045,0.14900000311465958,-0.0009999999964224499,-0.019999999511567335
0,0,10.007762908935547,-0.0004999999655410647,-0.0011999999405816197,-0.04899999871850014,0.14900000311465958,0.05900000114378995,0.03999999902313467
0,0,10.007762908935547,-0.00039999998989515007,-0.001500000013038516,0,0.0269999995907449,-0.0009999999964224499,-0.019999999511567335
0,0,9.998186111450195,-0.00039999998989515007,-0.001500000013038516,-0.009800000116229057,-0.09399999820462447,0.05900000114378995,-0.019999999511567335
0,0,9.998186111450195,-0.00019999999494757503,-0.0010999999940395355,-0.009800000116229057,0.0269999995907449,0.05900000114378995,0.03999999902313467
0,0,9.998186111450195,-0.00009999999747378752,-0.0011999999405816197,-0.009800000116229057,0.08799999718388561,-0.0009999999964224499,0.03999999902313467
0,0,9.998186111450195,-0.00009999999747378752,-0.0013000000035390258,-0.009800000116229057,0.08799999718388561,-0.0009999999964224499,0.03999999902313467
0,0,9.998186111450195,-0.00009999999747378752,-0.001500000013038516,-0.009800000116229057,-0.0329999989439571,0.05900000114378995,-0.08100000043976135
0,0,9.988609313964844,0,-0.0013000000035390258,-0.019600000232458115,0.08799999718388561,0.05900000114378995,0.03999999902313467
0,0,9.988609313964844,0.00009999999747378752,-0.001500000013038516,-0.019600000232458115,0.0269999995907449,-0.06200000165415938,-0.08100000043976135
0,0,9.988609313964844,0,-0.001500000013038516,-0.019600000232458115,0.0269999995907449,-0.12299999424472013,-0.019999999511567335
0,0,9.988609313964844,-0.00039999998989515007,-0.001500000013038516,-0.019600000232458115,0.0269999995907449,0.05900000114378995,-0.019999999511567335
0,0,9.988609313964844,-0.00019999999494757503,-0.001500000013038516,-0.019600000232458115,0.08799999718388561,0.1199999937343507,-0.08100000043976135
0,0,9.988609313964844,0,-0.0016999999061226845,-0.019600000232458115,0.14900000311465958,-0.0009999999964224499,-0.019999999511567335
0,0,9.988609313964844,0,-0.0018999999156221747,-0.019600000232458115,0.0269999995907449,-0.0009999999964224499,-0.019999999511567335
0,0,9.988609313964844,0,-0.001999999862164259,-0.019600000232458115,0.0269999995907449,0.1199999937343507,0.03999999902313467
0,0,9.988609313964844,0.00019999999494757503,-0.0018999999156221747,-0.019600000232458115,0.14900000311465958,0.05900000114378995,-0.08100000043976135
0,0,9.988609313964844,0.00029999998514540493,-0.002300000051036477,-0.019600000232458115,-0.15500000413539844,-0.06200000165415938,-0.019999999511567335
0,0,9.998186111450195,0.00009999999747378752,-0.0016999999061226845,-0.019600000232458115,-0.0329999989439571,-0.0009999999964224499,0.03999999902313467
0,0,9.998186111450195,0.00009999999747378752,-0.0015999999595806003,-0.009800000116229057,-0.0329999989439571,-0.06200000165415938,-0.019999999511567335
0,0,9.979032516479492,0,-0.0015999999595806003,-0.03920000046491623,0.08799999718388561,-0.0009999999964224499,-0.08100000043976135
0,0,9.979032516479492,0.00019999999494757503,-0.0013000000035390258,-0.029399998486042023,-0.0329999989439571,0.18099999966512467,0.03999999902313467
-0.009576806798577309,0,9.979032516479492,0.0005999999702908099,-0.0011999999405816197,-0.029399998486042023,-0.09399999820462447,0.05900000114378995,-0.08100000043976135
0,0,9.998186111450195,0.000699999975040555,-0.0007999999797903001,-0.029399998486042023,0.08799999718388561,-0.06200000165415938,-0.019999999511567335
0,0,9.979032516479492,0.0004999999655410647,-0.0010999999940395355,-0.029399998486042023,0.08799999718388561,0.05900000114378995,0.03999999902313467
0,0,9.979032516479492,0.0005999999702908099,-0.0011999999405816197,-0.029399998486042023,0.20999999570522035,-0.06200000165415938,-0.08100000043976135
0,0,9.979032516479492,0.00039999998989515007,-0.0017999999690800905,-0.029399998486042023,-0.15500000413539844,-0.0009999999964224499,0.03999999902313467
0,0,10.036493301391602,0.00029999998514540493,-0.0011999999405816197,-0.03920000046491623,0.20999999570522035,-0.3669999912873896,-0.019999999511567335
0,0,9.988609313964844,-0.0005999999702908099,-0.0017999999690800905,-0.019600000232458115,-0.0329999989439571,-0.3669999912873896,0.03999999902313467
0,0,9.988609313964844,-0.001500000013038516,-0.0015999999595806003,-0.019600000232458115,-0.09399999820462447,0.18099999966512467,0.03999999902313467
0,0,9.988609313964844,-0.0010999999940395355,-0.0013000000035390258,-0.019600000232458115,-0.09399999820462447,0.1199999937343507,-0.08100000043976135
0,0,9.988609313964844,-0.000699999975040555,-0.0008999999845400453,-0.019600000232458115,0.0269999995907449,0.05900000114378995,-0.019999999511567335
0,0,9.988609313964844,-0.0005999999702908099,-0.0009999999310821295,-0.019600000232458115,-0.09399999820462447,-0.06200000165415938,-0.08100000043976135
0,0,9.988609313964844,-0.000699999975040555,-0.000699999975040555,-0.019600000232458115,0.0269999995907449,-0.0009999999964224499,0.1620000008795227
0,0,9.988609313964844,-0.000699999975040555,-0.000699999975040555,-0.019600000232458115,0.08799999718388561,-0.06200000165415938,0.03999999902313467
0,0,9.998186111450195,-0.0008999999845400453,-0.0008999999845400453,-0.009800000116229057,0.0269999995907449,-0.06200000165415938,-0.08100000043976135
0,0,9.988609313964844,-0.0010999999940395355,-0.0009999999310821295,-0.019600000232458115,0.14900000311465958,-0.06200000165415938,-0.08100000043976135
-0.009576806798577309,0,9.988609313964844,-0.0011999999405816197,-0.0013000000035390258,-0.019600000232458115,-0.0329999989439571,0.05900000114378995,-0.019999999511567335
-0.009576806798577309,0,9.988609313964844,-0.0009999999310821295,-0.0011999999405816197,-0.019600000232458115,-0.09399999820462447,-0.0009999999964224499,-0.019999999511567335
0,0,9.998186111450195,-0.0009999999310821295,-0.0011999999405816197,-0.019600000232458115,-0.09399999820462447,-0.0009999999964224499,-0.019999999511567335
0,0,9.979032516479492,-0.0007999999797903001,-0.00029999998514540493,-0.029399998486042023,-0.2159999967259592,0.1199999937343507,-0.019999999511567335
0,0,9.988609313964844,-0.0007999999797903001,-0.00029999998514540493,-0.029399998486042023,-0.2159999967259592,0.1199999937343507,-0.019999999511567335
0,0,9.988609313964844,-0.0004999999655410647,0.00029999998514540493,-0.019600000232458115,-0.09399999820462447,0.1199999937343507,0.03999999902313467
0,0,9.988609313964844,0,0.0005999999702908099,-0.019600000232458115,0.20999999570522035,0.18099999966512467,-0.1419999930303221
0,0,9.988609313964844,0.0004999999655410647,0,-0.019600000232458115,-0.15500000413539844,-0.0009999999964224499,0.03999999902313467
0,0,9.979032516479492,0.00039999998989515007,0.0004999999655410647,-0.019600000232458115,0.20999999570522035,0.18099999966512467,-0.019999999511567335
0,0,9.988609313964844,0.0007999999797903001,0,-0.019600000232458115,-0.0329999989439571,-0.0009999999964224499,-0.019999999511567335
0,0,9.998186111450195,0.0007999999797903001,0,-0.009800000116229057,0.08799999718388561,-0.0009999999964224499,-0.08100000043976135
0,0,9.988609313964844,0.0004999999655410647,-0.00019999999494757503,-0.029399998486042023,0.0269999995907449,-0.0009999999964224499,0.03999999902313467
0,0,9.988609313964844,0.0004999999655410647,-0.00019999999494757503,0,-0.0329999989439571,-0.18400000017549412,-0.08100000043976135
0,0,9.988609313964844,0.00039999998989515007,-0.00019999999494757503,-0.009800000116229057,0.08799999718388561,0.05900000114378995,0.03999999902313467
0,0,9.988609313964844,0.00039999998989515007,-0.00019999999494757503,-0.009800000116229057,0.08799999718388561,0.05900000114378995,0.03999999902313467
0,0,9.988609313964844,0.00039999998989515007,-0.00019999999494757503,-0.009800000116229057,0.0269999995907449,0.05900000114378995,0.03999999902313467
0,0,9.988609313964844,0.00039999998989515007,-0.00019999999494757503,-0.009800000116229057,0.08799999718388561,0.18099999966512467,-0.019999999511567335
0,0,9.988609313964844,0.00039999998989515007,-0.00019999999494757503,0,-0.09399999820462447,0.05900000114378995,-0.08100000043976135
0,0,9.988609313964844,0.00039999998989515007,-0.00009999999747378752,0,0.0269999995907449,0.05900000114378995,0.03999999902313467
0,0,9.988609313964844,0.00039999998989515007,-0.00009999999747378752,-0.009800000116229057,-0.15500000413539844,-0.0009999999964224499,0.03999999902313467
0,0,9.988609313964844,0.00039999998989515007,-0.00009999999747378752,-0.009800000116229057,0.0269999995907449,0.05900000114378995,-0.019999999511567335
0,0,9.998186111450195,0.00029999998514540493,-0.00009999999747378752,-0.009800000116229057,0.08799999718388561,-0.06200000165415938,-0.019999999511567335
0,0,9.998186111450195,0.00029999998514540493,-0.00009999999747378752,-0.009800000116229057,-0.09399999820462447,-0.0009999999964224499,0.03999999902313467
0,0,9.988609313964844,0.00029999998514540493,-0.00009999999747378752,-0.009800000116229057,-0.09399999820462447,-0.0009999999964224499,0.03999999902313467
0,0,9.988609313964844,0.00029999998514540493,-0.00009999999747378752,0,-0.09399999820462447,-0.06200000165415938,0.03999999902313467
0,0,9.988609313964844,0.00019999999494757503,-0.00009999999747378752,-0.009800000116229057,0.08799999718388561,-0.0009999999964224499,-0.019999999511567335
0,0,9.998186111450195,0.00019999999494757503,-0.00009999999747378752,-0.009800000116229057,0.08799999718388561,-0.0009999999964224499,-0.019999999511567335
0,0,9.979032516479492,0.00019999999494757503,0,-0.019600000232458115,-0.09399999820462447,-0.0009999999964224499,0.03999999902313467
0,0,9.988609313964844,0.00019999999494757503,0,-0.009800000116229057,-0.09399999820462447,-0.0009999999964224499,0.03999999902313467
0,0,9.988609313964844,0.00019999999494757503,0,-0.009800000116229057,0.0269999995907449,0.1199999937343507,0.03999999902313467
0,0,9.988609313964844,0.00019999999494757503,0,-0.009800000116229057,-0.0329999989439571,-0.12299999424472013,-0.08100000043976135
0,0,9.988609313964844,0.00019999999494757503,0,-0.009800000116229057,0.0269999995907449,0.05900000114378995,-0.019999999511567335
0,0,9.988609313964844,0.00019999999494757503,0,-0.009800000116229057,0.0269999995907449,-0.06200000165415938,-0.019999999511567335
0,0,9.988609313964844,0.00019999999494757503,0,-0.009800000116229057,-0.0329999989439571,-0.0009999999964224499,-0.08100000043976135
0,0,9.998186111450195,0.00019999999494757503,0,-0.009800000116229057,0.14900000311465958,-0.0009999999964224499,-0.08100000043976135
0,0,9.988609313964844,0.00019999999494757503,0,-0.009800000116229057,0.0269999995907449,-0.06200000165415938,-0.019999999511567335
0,0,9.979032516479492,0.00019999999494757503,0,-0.009800000116229057,0.0269999995907449,0.1199999937343507,-0.019999999511567335
0,0,9.979032516479492,0.00009999999747378752,0,-0.019600000232458115,0.0269999995907449,0.05900000114378995,0.03999999902313467
0,0,9.988609313964844,0.00009999999747378752,0,-0.019600000232458115,-0.0329999989439571,-0.0009999999964224499,-0.019999999511567335
0,0,9.979032516479492,0.00009999999747378752,0,-0.019600000232458115,-0.0329999989439571,-0.0009999999964224499,-0.019999999511567335
0,0,9.979032516479492,0.00009999999747378752,0,-0.019600000232458115,0.0269999995907449,-0.0009999999964224499,-0.019999999511567335
0,0,9.979032516479492,0.00009999999747378752,0,-0.019600000232458115,0.0269999995907449,0.05900000114378995,0.03999999902313467
0,0,9.979032516479492,0.00009999999747378752,0,-0.019600000232458115,0.0269999995907449,0.05900000114378995,0.03999999902313467
0,0,9.979032516479492,0.00009999999747378752,0,-0.019600000232458115,0.0269999995907449,-0.0009999999964224499,-0.019999999511567335
0,0,9.988609313964844,0.00009999999747378752,0,-0.009800000116229057,0.0269999995907449,0.05900000114378995,0.03999999902313467
0,0,9.979032516479492,0.00009999999747378752,0,-0.009800000116229057,-0.09399999820462447,-0.12299999424472013,-0.019999999511567335
0,0,9.988609313964844,0.00009999999747378752,0,-0.009800000116229057,-0.0329999989439571,-0.0009999999964224499,-0.019999999511567335
0,0,9.988609313964844,0.00009999999747378752,0,-0.019600000232458115,-0.09399999820462447,-0.0009999999964224499,0.10100000161885533
0,0,9.979032516479492,0.00009999999747378752,0,-0.019600000232458115,0.0269999995907449,0.05900000114378995,-0.08100000043976135
0,0,9.979032516479492,0.00009999999747378752,0,-0.019600000232458115,-0.0329999989439571,0.1199999937343507,-0.08100000043976135
0,0,9.988609313964844,0.00009999999747378752,0,-0.019600000232458115,-0.0329999989439571,-0.06200000165415938,-0.1419999930303221
0,0,9.979032516479492,0.00009999999747378752,0,-0.019600000232458115,-0.0329999989439571,-0.06200000165415938,0.03999999902313467
0,0,9.979032516479492,0.00009999999747378752,0,-0.019600000232458115,-0.09399999820462447,-0.18400000017549412,-0.019999999511567335
0,0,9.979032516479492,0.00009999999747378752,0,-0.019600000232458115,0.14900000311465958,0.05900000114378995,-0.019999999511567335
0,0,9.979032516479492,0,0,-0.019600000232458115,0.0269999995907449,0.05900000114378995,0.03999999902313467
0,0,9.979032516479492,0,0,-0.019600000232458115,-0.09399999820462447,-0.12299999424472013,0.03999999902313467
0,0,9.979032516479492,0,0,-0.019600000232458115,-0.0329999989439571,-0.0009999999964224499,0.10100000161885533
0,0,9.979032516479492,0,0,-0.019600000232458115,-0.0329999989439571,-0.0009999999964224499,-0.019999999511567335
0,0,9.979032516479492,0,0,0,-0.0329999989439571,0.1199999937343507,0.03999999902313467
0,0,9.979032516479492,0,0,0,0.0269999995907449,-0.0009999999964224499,-0.019999999511567335
0,0,9.979032516479492,0,0,0,-0.09399999820462447,-0.06200000165415938,-0.019999999511567335
0,0,9.979032516479492,0,0,0.009800000116229057,0.08799999718388561,-0.9159999779632892,0.03999999902313467
0,0,9.96945571899414,0,0,0,0.08799999718388561,-0.06200000165415938,-0.019999999511567335
0,0,9.988609313964844,0,0,0.009800000116229057,0.08799999718388561,-0.18400000017549412,-0.019999999511567335
0,0,9.979032516479492,0,0,-0.009800000116229057,-0.09399999820462447,-0.0009999999964224499,0.10100000161885533
0,0,9.979032516479492,0,0,-0.009800000116229057,-0.09399999820462447,-0.0009999999964224499,0.10100000161885533
0,0,9.979032516479492,0,0,0,-0.0329999989439571,-0.0009999999964224499,-0.1419999930303221
0,0,9.979032516479492,0,0,0,-0.0329999989439571,-0.06200000165415938,-0.1419999930303221
0,0,9.979032516479492,0,0,0,0.08799999718388561,-0.0009999999964224499,-0.019999999511567335
0,0,9.979032516479492,0,0,0,0.08799999718388561,-0.0009999999964224499,-0.019999999511567335
0,0,9.979032516479492,0,0,0,0.0269999995907449,-0.06200000165415938,-0.019999999511567335
0,0,9.979032516479492,0,0,0,-0.0329999989439571,0.05900000114378995,0.10100000161885533
0,0,9.979032516479492,0,0,0,-0.09399999820462447,-0.06200000165415938,0.10100000161885533
0,0,9.979032516479492,0,0,0,-0.09399999820462447,-0.06200000165415938,0.10100000161885533
0,0,9.979032516479492,0,0,0,0.08799999718388561,0.1199999937343507,-0.08100000043976135
0,0,9.988609313964844,0,0,0,-0.0329999989439571,-0.0009999999964224499,-0.019999999511567335
0,0,9.979032516479492,0,0,0,-0.15500000413539844,0.05900000114378995,-0.019999999511567335
0,0,9.96945571899414,0,0,-0.009800000116229057,0.0269999995907449,-0.0009999999964224499,0.03999999902313467
0,0,9.979032516479492,0,0,0,0.08799999718388561,-0.0009999999964224499,-0.019999999511567335
0,0,9.979032516479492,0,0,0,-0.0329999989439571,0.05900000114378995,-0.019999999511567335
0,0,9.979032516479492,0,0,-0.009800000116229057,-0.0329999989439571,0.05900000114378995,0.03999999902313467
0,0,9.96945571899414,0,0,-0.009800000116229057,-0.15500000413539844,-0.06200000165415938,-0.019999999511567335
0,0,9.979032516479492,0,0,0,0.08799999718388561,-0.0009999999964224499,-0.019999999511567335
0,0,9.979032516479492,0,0,0.009800000116229057,0.2710000016359943,-0.0009999999964224499,-0.08100000043976135
0,0,9.988609313964844,0,0,0.009800000116229057,-0.15500000413539844,-0.0009999999964224499,-0.019999999511567335
0,0,9.988609313964844,0,0,0.009800000116229057,0.0269999995907449,0.1199999937343507,0.03999999902313467
0,0,9.988609313964844,0,0,0.009800000116229057,0.0269999995907449,0.05900000114378995,0.03999999902313467
0,0,9.988609313964844,0,0,0,0.0269999995907449,-0.06200000165415938,0.03999999902313467
0,0,9.979032516479492,0,0,0,-0.0329999989439571,-0.06200000165415938,-0.019999999511567335
0,0,9.979032516479492,0,0,0,-0.2159999967259592,-0.06200000165415938,-0.019999999511567335
0,0,9.979032516479492,0,0,0,-0.15500000413539844,-0.06200000165415938,-0.019999999511567335
0,0,9.979032516479492,0,0,0,-0.0329999989439571,-0.0009999999964224499,-0.019999999511567335
0,0,9.979032516479492,0,0,0,-0.0329999989439571,-0.0009999999964224499,-0.019999999511567335
0,0,9.979032516479492,0,0,0,0.2710000016359943,-0.06200000165415938,-0.1419999930303221
0,0,9.979032516479492,0,0,0,-0.0329999989439571,-0.0009999999964224499,-0.019999999511567335
0,0,9.979032516479492,0,0,0,0.0269999995907449,0.1199999937343507,-0.08100000043976135
0,0,9.998186111450195,0,0,0,0.0269999995907449,0.1199999937343507,-0.08100000043976135
0,0,9.988609313964844,0,0,0.009800000116229057,0.0269999995907449,0.05900000114378995,-0.019999999511567335
0,0,9.988609313964844,0,0,0.009800000116229057,0.0269999995907449,0.05900000114378995,-0.019999999511567335
0,0,9.988609313964844,0,0,0.009800000116229057,0.0269999995907449,-0.12299999424472013,0.03999999902313467
0,0,9.988609313964844,0,0,0.009800000116229057,0.0269999995907449,0.1199999937343507,0.03999999902313467
0,0,9.979032516479492,0,0,0,0.2710000016359943,0.05900000114378995,-0.08100000043976135
0,0,9.979032516479492,0,0,-0.009800000116229057,-0.15500000413539844,-0.12299999424472013,-0.08100000043976135
0,0,9.96945571899414,0,0,0,-0.15500000413539844,0.05900000114378995,-0.019999999511567335
0,0,9.96945571899414,0,0,-0.009800000116229057,0.0269999995907449,0.18099999966512467,-0.019999999511567335
0,0,9.96945571899414,0,0,0,0.08799999718388561,0.05900000114378995,-0.019999999511567335
0,0,9.988609313964844,0,0,0,-0.09399999820462447,0.05900000114378995,-0.019999999511567335
0,0,9.979032516479492,0,0,-0.009800000116229057,-0.0329999989439571,0.05900000114378995,-0.019999999511567335
0,0,9.979032516479492,0,0,-0.009800000116229057,-0.09399999820462447,-0.0009999999964224499,0.10100000161885533
0,0,9.979032516479492,0,0,-0.009800000116229057,-0.0329999989439571,-0.06200000165415938,-0.019999999511567335
0,0,9.979032516479492,0,0,-0.009800000116229057,0.08799999718388561,-0.0009999999964224499,-0.019999999511567335
0,0,9.988609313964844,0,0,0,0.3319999942265551,0.1199999937343507,-0.08100000043976135
0,0,9.988609313964844,0,0,0,-0.0329999989439571,0.05900000114378995,-0.019999999511567335
0,0,9.979032516479492,0,0,-0.009800000116229057,0.0269999995907449,-0.06200000165415938,0.03999999902313467
0,0,9.979032516479492,0,0,-0.009800000116229057,0.0269999995907449,-0.0009999999964224499,-0.08100000043976135
0,0,9.979032516479492,0,0,-0.009800000116229057,-0.0329999989439571,-0.0009999999964224499,0.03999999902313467
0,0,9.979032516479492,0,0,-0.009800000116229057,0.08799999718388561,-0.0009999999964224499,-0.019999999511567335
0,0,9.988609313964844,0,0,0.009800000116229057,0.08799999718388561,-0.0009999999964224499,-0.08100000043976135
0,0,9.979032516479492,0,0,0,0.0269999995907449,0.05900000114378995,-0.019999999511567335
0,0,9.979032516479492,0,0,-0.009800000116229057,0.08799999718388561,0.05900000114378995,-0.08100000043976135
0,0,9.988609313964844,0,0,0,-0.09399999820462447,0.05900000114378995,-0.019999999511567335
0,0,9.988609313964844,0,0,0,0.0269999995907449,-0.0009999999964224499,-0.019999999511567335
0,0,9.988609313964844,0,0,0,-0.15500000413539844,0.05900000114378995,0.03999999902313467
0,0,9.988609313964844,0,0,0,-0.15500000413539844,0.05900000114378995,0.03999999902313467
0,0,9.979032516479492,0,0,-0.009800000116229057,-0.15500000413539844,-0.0009999999964224499,0.03999999902313467
0,0,9.979032516479492,0,0,-0.009800000116229057,-0.0329999989439571,-0.12299999424472013,-0.1419999930303221
0,0,9.979032516479492,0,0,-0.009800000116229057,0.0269999995907449,-0.0009999999964224499,-0.019999999511567335
0,0,9.96945571899414,0,0,-0.009800000116229057,0.0269999995907449,-0.0009999999964224499,-0.019999999511567335
0,0,9.979032516479492,0,0,-0.009800000116229057,-0.0329999989439571,0.1199999937343507,0.03999999902313467
0,0,9.979032516479492,0,0,-0.009800000116229057,-0.5209999996994026,-0.12299999424472013,0.03999999902313467
0,0,9.979032516479492,0,0,-0.009800000116229057,0.08799999718388561,-0.0009999999964224499,-0.019999999511567335
0,0,9.979032516479492,0,0,-0.009800000116229057,0.0269999995907449,0.05900000114378995,-0.08100000043976135
0,0,9.979032516479492,0,0,-0.009800000116229057,-0.15500000413539844,-0.0009999999964224499,0.03999999902313467
0,0,9.979032516479492,0,0,-0.009800000116229057,-0.0329999989439571,-0.06200000165415938,-0.019999999511567335
0,0,9.96945571899414,0,0,-0.019600000232458115,-0.0329999989439571,0.1199999937343507,-0.019999999511567335
0,0,9.96945571899414,0,0,-0.019600000232458115,-0.0329999989439571,0.1199999937343507,-0.019999999511567335
0,0,9.96945571899414,0,0,-0.019600000232458115,-0.0329999989439571,0.1199999937343507,0.03999999902313467
0,0,9.988609313964844,0,0,0,-0.0329999989439571,-0.06200000165415938,-0.019999999511567335
0,0,9.979032516479492,0,0,-0.009800000116229057,-0.2770000026567332,0.05900000114378995,0.10100000161885533
0,0,9.979032516479492,0,0,-0.009800000116229057,-0.0329999989439571,-0.0009999999964224499,-0.019999999511567335
0,0,9.96945571899414,0,0,-0.009800000116229057,0.08799999718388561,0.24200000559589865,-0.019999999511567335
0,0,9.979032516479492,0,0,-0.009800000116229057,-0.09399999820462447,0.05900000114378995,-0.08100000043976135
0,0,9.979032516479492,0,0,-0.009800000116229057,0.0269999995907449,-0.0009999999964224499,0.03999999902313467
0,0,9.979032516479492,0,0,-0.009800000116229057,0.14900000311465958,0.05900000114378995,0.10100000161885533
0,0,9.979032516479492,0,0,-0.009800000116229057,-0.09399999820462447,-0.06200000165415938,-0.019999999511567335
0,0,9.96945571899414,0,0,-0.019600000232458115,-0.09399999820462447,-0.0009999999964224499,0.03999999902313467
0,0,9.979032516479492,0,0,-0.009800000116229057,-0.0329999989439571,0.05900000114378995,-0.019999999511567335
0,0,9.979032516479492,0,0,-0.009800000116229057,-0.09399999820462447,-0.06200000165415938,-0.08100000043976135
0,0,9.979032516479492,0,0,-0.009800000116229057,0.0269999995907449,-0.06200000165415938,-0.08100000043976135
0,0,9.979032516479492,0,0,-0.009800000116229057,-0.09399999820462447,-0.0009999999964224499,0.03999999902313467
0,0,9.979032516479492,0,0,-0.009800000116229057,-0.0329999989439571,-0.0009999999964224499,-0.019999999511567335
0,0,9.979032516479492,0,0,-0.009800000116229057,-0.0329999989439571,-0.0009999999964224499,-0.019999999511567335
0,0,9.979032516479492,0,0,-0.009800000116229057,-0.0329999989439571,-0.0009999999964224499,-0.019999999511567335
0,0,9.979032516479492,0,0,0,0.0269999995907449,0.05900000114378995,-0.019999999511567335
0,0,9.979032516479492,0,0,0,-0.0329999989439571,-0.0009999999964224499,-0.019999999511567335
0,0,9.979032516479492,0,0,0,-0.0329999989439571,-0.0009999999964224499,-0.019999999511567335
0,0,9.979032516479492,0,0,0,-0.09399999820462447,-0.06200000165415938,-0.019999999511567335
0,0,9.979032516479492,0,0,0,0.0269999995907449,-0.0009999999964224499,0.03999999902313467
0,0,9.96945571899414,0,0,0,0.0269999995907449,-0.0009999999964224499,0.03999999902313467
0,0,9.979032516479492,0,0,0.009800000116229057,-0.09399999820462447,-0.0009999999964224499,0.03999999902313467
0,0,9.988609313964844,0,0,0.009800000116229057,-0.09399999820462447,-0.0009999999964224499,0.03999999902313467
0,0,9.979032516479492,0,0,0,0.0269999995907449,0.05900000114378995,0.03999999902313467
0,0,9.979032516479492,0,0,0,0.0269999995907449,0.05900000114378995,0.03999999902313467
0,0,9.979032516479492,0,0,0,-0.09399999820462447,-0.0009999999964224499,-0.019999999511567335
0,0,9.979032516479492,0,0,0,-0.15500000413539844,-0.06200000165415938,-0.019999999511567335
0,0,9.979032516479492,0,0,0,0.08799999718388561,-0.0009999999964224499,-0.019999999511567335
0,0,9.96945571899414,0,0,-0.009800000116229057,-0.09399999820462447,-0.06200000165415938,-0.019999999511567335
0,0,9.96945571899414,0,0,-0.009800000116229057,0.0269999995907449,-0.12299999424472013,-0.019999999511567335
0,0,9.96945571899414,0,0,-0.009800000116229057,0.14900000311465958,-0.0009999999964224499,0.03999999902313467
0,0,9.96945571899414,0,0,-0.009800000116229057,0.14900000311465958,-0.0009999999964224499,0.03999999902313467
0,0,9.979032516479492,0,0,-0.009800000116229057,-0.0329999989439571,0.05900000114378995,0.03999999902313467
0,0,9.96945571899414,0,0,0,-0.0329999989439571,0.05900000114378995,-0.08100000043976135
0,0,9.988609313964844,0,0,0.009800000116229057,0.0269999995907449,-0.0009999999964224499,-0.019999999511567335
0,0,9.988609313964844,0,0,0.009800000116229057,-0.0329999989439571,0.05900000114378995,-0.019999999511567335
0,0,9.988609313964844,0,0,0.009800000116229057,0.20999999570522035,0.05900000114378995,0.03999999902313467
0,0,9.988609313964844,0,0,0.009800000116229057,0.0269999995907449,-0.0009999999964224499,-0.019999999511567335
0,0,9.988609313964844,0,0,0.009800000116229057,0.0269999995907449,0.24200000559589865,-0.019999999511567335
0,0,9.988609313964844,0,0,0.009800000116229057,0.0269999995907449,-0.06200000165415938,0.03999999902313467
0,0,9.988609313964844,0,0,0.009800000116229057,-0.0329999989439571,-0.0009999999964224499,-0.019999999511567335
0,0,9.988609313964844,0,0,0.009800000116229057,-0.09399999820462447,-0.0009999999964224499,-0.019999999511567335
0,0,9.979032516479492,0,0,0,-0.0329999989439571,0.05900000114378995,-0.019999999511567335
0,0,9.979032516479492,0,0,0,0.08799999718388561,0.1199999937343507,-0.1419999930303221
0,0,9.979032516479492,0,0,0,0.08799999718388561,0.1199999937343507,-0.1419999930303221
0,0,9.979032516479492,0,0,0,0.08799999718388561,0.05900000114378995,-0.08100000043976135
0,0,9.979032516479492,0,0,0,0.14900000311465958,-0.0009999999964224499,-0.1419999930303221
0,0,9.979032516479492,0,0,0,-0.0329999989439571,0.05900000114378995,-0.019999999511567335
0,0,9.979032516479492,0,0,0,-0.0329999989439571,-0.06200000165415938,-0.019999999511567335
0,0,9.979032516479492,0,0,0,-0.2159999967259592,-0.12299999424472013,0.10100000161885533
0,0,9.988609313964844,0,0,0.009800000116229057,0.14900000311465958,0.05900000114378995,-0.08100000043976135
0,0,9.988609313964844,0,0,0.009800000116229057,-0.09399999820462447,-0.0009999999964224499,0.10100000161885533
0,0,9.979032516479492,0,0,0.009800000116229057,-0.15500000413539844,-0.06200000165415938,-0.019999999511567335
0,0,9.979032516479492,0,0,0,0.0269999995907449,-0.0009999999964224499,-0.019999999511567335
0,0,9.988609313964844,0,0,0.009800000116229057,0.08799999718388561,0.05900000114378995,-0.019999999511567335
0,0,9.979032516479492,0,0,0.009800000116229057,-0.0329999989439571,-0.0009999999964224499,-0.08100000043976135
0,0,9.979032516479492,0,0,0,-0.2159999967259592,-0.0009999999964224499,-0.08100000043976135
0,0,9.96945571899414,0,0,0,-0.0329999989439571,-0.0009999999964224499,0.10100000161885533
0,0,9.979032516479492,0,0,0.009800000116229057,0.0269999995907449,-0.0009999999964224499,-0.019999999511567335
0,0,9.988609313964844,0,0,0.009800000116229057,-0.0329999989439571,-0.06200000165415938,0.03999999902313467
0,0,9.988609313964844,0,0,0.009800000116229057,0.0269999995907449,-0.0009999999964224499,-0.019999999511567335
0,0,9.988609313964844,0,0,0.009800000116229057,-0.0329999989439571,-0.06200000165415938,0.03999999902313467
0,0,9.988609313964844,0,0,0,0.14900000311465958,0.05900000114378995,-0.08100000043976135
0,0,9.988609313964844,0,0,0,0.14900000311465958,0.05900000114378995,-0.08100000043976135
0,0,9.988609313964844,0,0,0,0.03699999851276524,-0.12799999954207358,-0.009999999755783667
0,0,9.988609313964844,0,0,0,-0.023000000021936765,0.0539999991814898,0.049999999612681666
0,0,9.979032516479492,0,0,-0.009800000116229057,-0.023000000021936765,-0.006000000186975531,-0.009999999755783667
0,0,9.979032516479492,0,0,-0.009800000116229057,-0.023000000021936765,-0.06700000028140622,0.049999999612681666
0,0,9.979032516479492,0,0,-0.009800000116229057,-0.023000000021936765,-0.006000000186975531,-0.009999999755783667
0,0,9.979032516479492,0,0,-0.009800000116229057,0.09800000110848592,0.0539999991814898,0.049999999612681666
0,0,9.979032516479492,0,0,-0.009800000116229057,-0.14499999354069154,-0.06700000028140622,-0.009999999755783667
0,0,9.979032516479492,0,0,-0.009800000116229057,-0.08400000095013078,0.0539999991814898,0.049999999612681666
0,0,9.979032516479492,0,0,-0.009800000116229057,0.03699999851276524,-0.006000000186975531,-0.009999999755783667
0,0,9.979032516479492,0,0,-0.009800000116229057,0.03699999851276524,-0.006000000186975531,0.11099999887334903
0,0,9.979032516479492,0,0,-0.009800000116229057,-0.023000000021936765,0.0539999991814898,0.049999999612681666
0,0,9.979032516479492,0,0,-0.009800000116229057,-0.023000000021936765,-0.006000000186975531,-0.1319999957758284
0,0,9.979032516479492,0,0,-0.009800000116229057,0.03699999851276524,-0.06700000028140622,-0.07099999651516105
0,0,9.979032516479492,0,0,0,-0.023000000021936765,-0.06700000028140622,-0.009999999755783667
0,0,9.979032516479492,0,0,-0.009800000116229057,0.03699999851276524,-0.006000000186975531,-0.009999999755783667
0,0,9.979032516479492,0,0,-0.009800000116229057,-0.14499999354069154,0.0539999991814898,0.049999999612681666
0,0,9.979032516479492,0,0,-0.009800000116229057,-0.023000000021936765,0.11500000177721047,-0.009999999755783667
0,0,9.979032516479492,0,0,-0.009800000116229057,0.09800000110848592,-0.006000000186975531,-0.07099999651516105
0,0,9.979032516479492,0,0,-0.009800000116229057,-0.023000000021936765,-0.006000000186975531,0.049999999612681666
0,0,9.979032516479492,0,0,-0.009800000116229057,-0.023000000021936765,-0.006000000186975531,0.049999999612681666
0,0,9.988609313964844,0,0,-0.019600000232458115,-0.023000000021936765,-0.06700000028140622,-0.07099999651516105
0,0,9.988609313964844,0,0,-0.009800000116229057,-0.08400000095013078,0.17599999436777122,0.049999999612681666
0,0,9.979032516479492,0,0,-0.009800000116229057,0.09800000110848592,0.11500000177721047,-0.009999999755783667
0,0,9.979032516479492,0,0,-0.009800000116229057,0.15900000036915327,0.11500000177721047,-0.009999999755783667
0,0,9.988609313964844,0,0,-0.009800000116229057,0.21999999295971404,0.0539999991814898,-0.07099999651516105
0,0,9.979032516479492,0,0,0,-0.14499999354069154,-0.006000000186975531,-0.07099999651516105
0,0,9.979032516479492,0,0,0,-0.023000000021936765,-0.06700000028140622,-0.009999999755783667
0,0,9.988609313964844,0,0,0,0.09800000110848592,-0.006000000186975531,-0.009999999755783667
0,0,9.988609313964844,0,0,-0.019600000232458115,-0.023000000021936765,-0.006000000186975531,-0.009999999755783667
0,0,9.979032516479492,0,0,-0.009800000116229057,-0.08400000095013078,-0.06700000028140622,0.049999999612681666
0,0,9.979032516479492,0,0,-0.009800000116229057,0.15900000036915327,-0.12799999954207358,-0.009999999755783667
0,0,9.979032516479492,0,0,-0.009800000116229057,0.15900000036915327,-0.12799999954207358,-0.009999999755783667
0,0,9.979032516479492,0,0,-0.009800000116229057,-0.023000000021936765,0.0539999991814898,-0.009999999755783667
0,0,9.979032516479492,0,0,-0.009800000116229057,0.03699999851276524,-0.06700000028140622,-0.07099999651516105
0,0,9.979032516479492,0,0,-0.009800000116229057,-0.023000000021936765,-0.006000000186975531,0.049999999612681666
0,0,9.979032516479492,0,0,-0.009800000116229057,-0.08400000095013078,-0.12799999954207358,0.049999999612681666
0,0,9.979032516479492,0,0,-0.009800000116229057,0.03699999851276524,0.0539999991814898,-0.009999999755783667
0,0,9.979032516479492,0,0,-0.009800000116229057,-0.023000000021936765,-0.006000000186975531,0.049999999612681666
0,0,9.988609313964844,0,0,-0.019600000232458115,0.03699999851276524,-0.006000000186975531,-0.07099999651516105
0,0,9.96945571899414,0,0,-0.019600000232458115,0.03699999851276524,-0.06700000028140622,0.11099999887334903
0,0,9.96945571899414,0,0,-0.019600000232458115,-0.023000000021936765,-0.006000000186975531,-0.009999999755783667
0,0,9.96945571899414,0,0,-0.009800000116229057,0.09800000110848592,-0.006000000186975531,0.049999999612681666
0,0,9.979032516479492,0,0,-0.009800000116229057,0.03699999851276524,0.23699998695833197,-0.009999999755783667
0,0,9.979032516479492,0,0,-0.009800000116229057,0.2810000122307012,-0.06700000028140622,-0.07099999651516105
0,0,9.979032516479492,0,0,-0.009800000116229057,-0.023000000021936765,-0.006000000186975531,0.049999999612681666
0,0,9.979032516479492,0,0,-0.009800000116229057,-0.023000000021936765,-0.006000000186975531,-0.009999999755783667
0,0,9.979032516479492,0,0,0,0.03699999851276524,-0.006000000186975531,-0.07099999651516105
0,0,9.979032516479492,0,0,0,-0.023000000021936765,-0.12799999954207358,0.11099999887334903
0,0,9.979032516479492,0,0,0,-0.023000000021936765,-0.006000000186975531,0.049999999612681666
0,0,9.979032516479492,0,0,0,-0.023000000021936765,-0.006000000186975531,-0.07099999651516105
0,0,9.979032516479492,0,0,0,0.03699999851276524,0.0539999991814898,0.049999999612681666
0,0,9.979032516479492,0,0,0,0.03699999851276524,-0.006000000186975531,-0.009999999755783667
0,0,9.979032516479492,0,0,0,0.03699999851276524,-0.006000000186975531,0.049999999612681666
0,0,9.979032516479492,0,0,0,0.03699999851276524,-0.12799999954207358,0.049999999612681666
0,0,9.988609313964844,0,0,0,-0.20599999947146552,-0.006000000186975531,0.049999999612681666
0,0,9.979032516479492,0,0,0,0.03699999851276524,-0.06700000028140622,-0.07099999651516105
0,0,9.979032516479492,0,0,0,-0.023000000021936765,-0.06700000028140622,-0.009999999755783667
-0.009576806798577309,0,9.979032516479492,0,0,0,-0.023000000021936765,-0.06700000028140622,-0.009999999755783667
0,0,9.979032516479492,0,0,0,0.15900000036915327,-0.006000000186975531,-0.009999999755783667
0,0,9.96945571899414,0,0,0.009800000116229057,0.15900000036915327,0.0539999991814898,-0.009999999755783667
0,0,9.988609313964844,0,0,0.009800000116229057,0.03699999851276524,0.0539999991814898,-0.07099999651516105
0,0,9.988609313964844,0,0,0.009800000116229057,-0.08400000095013078,-0.006000000186975531,-0.07099999651516105
0,0,9.979032516479492,0,0,0,-0.08400000095013078,-0.006000000186975531,0.049999999612681666
0,0,9.979032516479492,0,0,0,0.09800000110848592,-0.006000000186975531,-0.07099999651516105
0,0,9.979032516479492,0,0,0,-0.023000000021936765,-0.12799999954207358,-0.07099999651516105
0,0,9.979032516479492,0,0,0,-0.023000000021936765,-0.12799999954207358,-0.07099999651516105
0,0,9.979032516479492,0,0,0,0.03699999851276524,-0.006000000186975531,-0.009999999755783667
0,0,9.979032516479492,0,0,0,0.03699999851276524,-0.06700000028140622,-0.009999999755783667
0,0,9.979032516479492,0,0,0,0.09800000110848592,-0.06700000028140622,0.049999999612681666
0,0,9.988609313964844,0,0,0.009800000116229057,-0.023000000021936765,0.0539999991814898,0.049999999612681666
0,0,9.988609313964844,0,0,0.009800000116229057,0.03699999851276524,0.0539999991814898,0.11099999887334903
0,0,9.988609313964844,0,0,0.009800000116229057,-0.023000000021936765,-0.06700000028140622,-0.009999999755783667
0,0,9.988609313964844,0,0,0.009800000116229057,-0.023000000021936765,0.0539999991814898,0.1719999981340164
0,0,9.988609313964844,0,0,0.009800000116229057,0.09800000110848592,-0.06700000028140622,0.049999999612681666
0,0,9.979032516479492,0,0,0,-0.023000000021936765,0.0539999991814898,0.049999999612681666
0,0,9.979032516479492,0,0,0,-0.023000000021936765,0.11500000177721047,0.049999999612681666
0,0,9.979032516479492,0,0,0.009800000116229057,-0.08400000095013078,0.0539999991814898,-0.009999999755783667
0,0,9.988609313964844,0,0,0.009800000116229057,-0.023000000021936765,-0.006000000186975531,-0.009999999755783667
0,0,9.988609313964844,0,0,0.009800000116229057,0.03699999851276524,0.0539999991814898,0.049999999612681666
0,0,9.988609313964844,0,0,0.009800000116229057,0.03699999851276524,-0.06700000028140622,-0.07099999651516105
0,0,9.988609313964844,0,0,0.009800000116229057,-0.20599999947146552,-0.006000000186975531,0.049999999612681666
0,0,9.988609313964844,0,0,0.009800000116229057,0.09800000110848592,-0.06700000028140622,-0.009999999755783667
0,0,9.988609313964844,0,0,0.009800000116229057,-0.08400000095013078,-0.006000000186975531,-0.009999999755783667
0,0,9.988609313964844,0,0,0.009800000116229057,0.03699999851276524,0.0539999991814898,-0.009999999755783667
0,0,9.988609313964844,0,0,0.009800000116229057,-0.023000000021936765,0.0539999991814898,-0.1319999957758284
0,0,9.988609313964844,0,0,0.009800000116229057,0.03699999851276524,-0.06700000028140622,0.049999999612681666
0,0,9.988609313964844,0,0,0.009800000116229057,0.03699999851276524,-0.006000000186975531,0.049999999612681666
0,0,9.988609313964844,0,0,0.009800000116229057,0.03699999851276524,-0.006000000186975531,-0.009999999755783667
0,0,9.979032516479492,0,0,0,-0.023000000021936765,0.0539999991814898,-0.009999999755783667
0,0,9.988609313964844,0,0,0.009800000116229057,0.09800000110848592,-0.06700000028140622,0.049999999612681666
0,0,9.988609313964844,0,0,0.019600000232458115,-0.023000000021936765,-0.006000000186975531,0.049999999612681666
0,0,9.998186111450195,0,0,0.019600000232458115,0.09800000110848592,0.0539999991814898,-0.07099999651516105
0,0,9.979032516479492,0,0,0.009800000116229057,-0.023000000021936765,-0.006000000186975531,0.049999999612681666
0,0,9.988609313964844,0,0,0,0.03699999851276524,0.0539999991814898,0.049999999612681666
0,0,9.979032516479492,0,0,0,-0.023000000021936765,0.0539999991814898,-0.009999999755783667
0,0,9.988609313964844,0,0,-0.009800000116229057,0.09800000110848592,-0.006000000186975531,-0.07099999651516105
0,0,9.988609313964844,0,0,-0.009800000116229057,-0.14499999354069154,-0.006000000186975531,-0.07099999651516105
0,0,9.988609313964844,0,0,-0.009800000116229057,-0.20599999947146552,-0.006000000186975531,0.11099999887334903
0,0,9.988609313964844,0,0,-0.009800000116229057,0.03699999851276524,0.0539999991814898,-0.009999999755783667
0,0,9.988609313964844,0,0,-0.009800000116229057,-0.023000000021936765,0.0539999991814898,-0.07099999651516105
0,0,9.988609313964844,0,0,-0.009800000116229057,0.03699999851276524,-0.006000000186975531,-0.009999999755783667
0,0,9.988609313964844,0,0,-0.009800000116229057,-0.3890000039235742,-0.12799999954207358,0.049999999612681666
0,0,9.988609313964844,0,0,-0.009800000116229057,0.15900000036915327,-0.006000000186975531,0.049999999612681666
0,0,9.988609313964844,0,0,-0.009800000116229057,0.03699999851276524,-0.006000000186975531,0.049999999612681666
0,0,9.988609313964844,0,0,-0.009800000116229057,-0.023000000021936765,-0.006000000186975531,-0.009999999755783667
0,0,9.988609313964844,0,0,-0.009800000116229057,0.03699999851276524,-0.006000000186975531,0.049999999612681666
0,0,9.988609313964844,0,0,-0.009800000116229057,0.09800000110848592,-0.006000000186975531,0.049999999612681666
0,0,9.988609313964844,0,0,-0.009800000116229057,-0.023000000021936765,-0.006000000186975531,0.049999999612681666
0,0,9.988609313964844,0,0,-0.009800000116229057,0.03699999851276524,-0.006000000186975531,0.049999999612681666
0,0,9.96945571899414,0,0,-0.009800000116229057,-0.023000000021936765,-0.006000000186975531,0.049999999612681666
0,0,9.988609313964844,0,0,-0.029399998486042023,0.03699999851276524,-0.006000000186975531,-0.009999999755783667
0,0,9.988609313964844,0,0,-0.009800000116229057,0.03699999851276524,0.0539999991814898,-0.009999999755783667
0,0,9.979032516479492,0,0,-0.019600000232458115,0.03699999851276524,-0.006000000186975531,-0.009999999755783667
0,0,9.979032516479492,0,0,-0.019600000232458115,0.03699999851276524,-0.006000000186975531,0.049999999612681666
0,0,9.998186111450195,0,0,-0.009800000116229057,-0.20599999947146552,0.0539999991814898,-0.009999999755783667
0,0,9.979032516479492,0,0,-0.019600000232458115,-0.023000000021936765,-0.006000000186975531,-0.07099999651516105
0,0,9.988609313964844,0,0,-0.009800000116229057,0.03699999851276524,-0.006000000186975531,0.11099999887334903
0,0,9.988609313964844,0,0,-0.009800000116229057,0.03699999851276524,-0.06700000028140622,-0.07099999651516105
0,0,9.988609313964844,0,0,-0.009800000116229057,-0.023000000021936765,0.17599999436777122,-0.07099999651516105
0,0,9.988609313964844,0,0,-0.009800000116229057,0.03699999851276524,-0.006000000186975531,-0.009999999755783667
0,0,9.988609313964844,0,0,-0.009800000116229057,0.09800000110848592,0.0539999991814898,0.049999999612681666
0,0,9.988609313964844,0,0,-0.009800000116229057,-0.08400000095013078,-0.006000000186975531,0.049999999612681666
0,0,9.998186111450195,0,0,0,-0.023000000021936765,0.0539999991814898,-0.07099999651516105
0,0,9.998186111450195,0,0,0,-0.023000000021936765,-0.006000000186975531,-0.009999999755783667
0,0,9.998186111450195,0,0,0,-0.08400000095013078,-0.006000000186975531,-0.009999999755783667
0,0,9.988609313964844,0,0,0,-0.08400000095013078,-0.06700000028140622,-0.07099999651516105
0,0,9.998186111450195,0,0,-0.009800000116229057,0.09800000110848592,0.0539999991814898,-0.07099999651516105
0,0,9.988609313964844,0,0,0,-0.08400000095013078,-0.006000000186975531,0.049999999612681666
0,0,9.998186111450195,0,0,0,-0.023000000021936765,0.0539999991814898,-0.07099999651516105
0,0,9.998186111450195,0,0,0,-0.3280000113330135,-0.12799999954207358,-0.009999999755783667
0,0,9.988609313964844,0,0,-0.009800000116229057,-0.023000000021936765,-0.06700000028140622,-0.009999999755783667
0,0,9.979032516479492,0,0,-0.009800000116229057,-0.023000000021936765,-0.06700000028140622,-0.009999999755783667
0,0,9.988609313964844,0,0,-0.009800000116229057,-0.023000000021936765,-0.006000000186975531,0.049999999612681666
0,0,9.988609313964844,0,0,-0.009800000116229057,-0.023000000021936765,-0.006000000186975531,-0.009999999755783667
0,0,9.988609313964844,0,0,-0.009800000116229057,-0.08400000095013078,-0.006000000186975531,0.049999999612681666
0,0,9.988609313964844,0,0,-0.009800000116229057,0.03699999851276524,-0.006000000186975531,-0.07099999651516105
0,0,9.988609313964844,0,0,-0.009800000116229057,0.03699999851276524,-0.006000000186975531,-0.07099999651516105
0,0,9.998186111450195,0,0,0,-0.14499999354069154,0.11500000177721047,-0.07099999651516105
0,0,9.998186111450195,0,0,0,-0.023000000021936765,-0.006000000186975531,0.049999999612681666
0,0,9.998186111450195,0,0,0,0.15900000036915327,0.11500000177721047,-0.009999999755783667
0,0,9.988609313964844,0,0,-0.009800000116229057,-0.08400000095013078,0.0539999991814898,-0.07099999651516105
0,0,9.988609313964844,0,0,0,0.09800000110848592,0.0539999991814898,-0.07099999651516105
0,0,9.998186111450195,0,0,0,-0.023000000021936765,-0.006000000186975531,-0.009999999755783667
0,0,9.998186111450195,0,0,0.009800000116229057,0.03699999851276524,-0.006000000186975531,0.049999999612681666
0,0,9.998186111450195,0,0,0.009800000116229057,-0.023000000021936765,-0.06700000028140622,-0.1319999957758284
0,0,9.998186111450195,0,0,0.009800000116229057,-0.023000000021936765,-0.006000000186975531,-0.07099999651516105
0,0,9.998186111450195,0,0,0.009800000116229057,-0.08400000095013078,-0.006000000186975531,-0.009999999755783667
0,0,9.998186111450195,0,0,0.009800000116229057,-0.08400000095013078,-0.006000000186975531,0.049999999612681666
0,0,9.998186111450195,0,0,0.009800000116229057,0.09800000110848592,-0.06700000028140622,-0.009999999755783667
0,0,9.998186111450195,0,0,0.009800000116229057,-0.023000000021936765,-0.006000000186975531,-0.009999999755783667
0,0,9.998186111450195,0,0,0.009800000116229057,-0.023000000021936765,0.0539999991814898,-0.009999999755783667
0,0,9.998186111450195,0,0,0.009800000116229057,-0.08400000095013078,-0.006000000186975531,0.049999999612681666
0,0,9.998186111450195,0,0,0.009800000116229057,-0.08400000095013078,-0.006000000186975531,0.11099999887334903
0,0,9.988609313964844,0,0,0,-0.023000000021936765,0.0539999991814898,0.049999999612681666
0,0,9.988609313964844,0,0,0,0.03699999851276524,-0.006000000186975531,-0.009999999755783667
0,0,9.988609313964844,0,0,0,-0.14499999354069154,-0.006000000186975531,-0.009999999755783667
0,0,9.988609313964844,0,0,0,-0.023000000021936765,-0.006000000186975531,0.049999999612681666
0,0,9.988609313964844,0,0,0.019600000232458115,-0.08400000095013078,-0.06700000028140622,0.049999999612681666
0,0,9.998186111450195,0,0,0.009800000116229057,0.03699999851276524,0.11500000177721047,-0.009999999755783667
0,0,9.988609313964844,0,0,0.009800000116229057,0.03699999851276524,0.11500000177721047,-0.009999999755783667
0,0,9.988609313964844,0,0,0,-0.08400000095013078,-0.006000000186975531,0.049999999612681666
0,0,9.998186111450195,0,0,0.009800000116229057,-0.08400000095013078,-0.06700000028140622,-0.009999999755783667
0,0,9.998186111450195,0,0,0.009800000116229057,-0.08400000095013078,0.11500000177721047,-0.009999999755783667
0,0,9.998186111450195,0,0,0.009800000116229057,0.03699999851276524,0.0539999991814898,0.049999999612681666
0,0,9.998186111450195,0,0,0.009800000116229057,0.03699999851276524,-0.06700000028140622,-0.07099999651516105
0,0,9.998186111450195,0,0,0.009800000116229057,-0.023000000021936765,-0.006000000186975531,0.049999999612681666
0,0,9.998186111450195,0,0,0,-0.08400000095013078,-0.006000000186975531,0.11099999887334903
0,0,9.988609313964844,0,0,0,-0.023000000021936765,-0.006000000186975531,0.11099999887334903
0,0,9.988609313964844,0,0,0,0.09800000110848592,0.0539999991814898,-0.07099999651516105
0,0,9.988609313964844,0,0,0,0.09800000110848592,0.0539999991814898,0.049999999612681666
0,0,9.988609313964844,0,0,0,0.03699999851276524,0.11500000177721047,-0.07099999651516105
0,0,10.007762908935547,0,0,0.019600000232458115,0.03699999851276524,-0.006000000186975531,0.049999999612681666
0,0,9.988609313964844,0,0,0,0.03699999851276524,0.0539999991814898,-0.009999999755783667
0,0,9.988609313964844,0,0,0,-0.08400000095013078,-0.006000000186975531,-0.07099999651516105
0,0,9.988609313964844,0,0,-0.009800000116229057,0.09800000110848592,-0.006000000186975531,-0.07099999651516105
0,0,9.998186111450195,0,0,0.009800000116229057,0.03699999851276524,-0.006000000186975531,-0.07099999651516105
0,0,9.998186111450195,0,0,0.009800000116229057,0.03699999851276524,-0.12799999954207358,-0.07099999651516105
0,0,9.998186111450195,0,0,0.009800000116229057,-0.08400000095013078,-0.006000000186975531,0.049999999612681666
0,0,9.998186111450195,0,0,0.009800000116229057,0.03699999851276524,-0.006000000186975531,-0.009999999755783667
0,0,9.979032516479492,0,0,0,-0.08400000095013078,-0.006000000186975531,-0.009999999755783667
0,0,9.988609313964844,0,0,0,-0.08400000095013078,-0.006000000186975531,-0.009999999755783667
0,0,9.988609313964844,0,0,0,-0.14499999354069154,-0.06700000028140622,-0.009999999755783667
0,0,9.998186111450195,0,0,0,0.09800000110848592,-0.06700000028140622,-0.009999999755783667
0,0,9.998186111450195,0,0,0.009800000116229057,0.03699999851276524,0.0539999991814898,0.049999999612681666
0,0,9.998186111450195,0,0,0.019600000232458115,0.2810000122307012,0.0539999991814898,-0.1319999957758284
0,0,9.998186111450195,0,0,0.009800000116229057,-0.08400000095013078,-0.12799999954207358,-0.07099999651516105
0,0,9.998186111450195,0,0,0.009800000116229057,-0.023000000021936765,-0.06700000028140622,-0.009999999755783667
0,0,9.998186111450195,0,0,0.009800000116229057,0.03699999851276524,0.0539999991814898,0.049999999612681666
0,0,9.998186111450195,0,0,0.009800000116229057,-0.023000000021936765,0.0539999991814898,0.049999999612681666
0,0,9.979032516479492,0,0,0.019600000232458115,0.03699999851276524,-0.006000000186975531,-0.009999999755783667
0,0,10.007762908935547,0,0,0,0.03699999851276524,-0.006000000186975531,-0.009999999755783667
0,0,9.998186111450195,0,0,0,0.03699999851276524,-0.006000000186975531,0.049999999612681666
0,0,9.998186111450195,0,0,0,-0.14499999354069154,-0.006000000186975531,0.11099999887334903
0,0,9.998186111450195,0,0,0,-0.08400000095013078,-0.06700000028140622,0.049999999612681666
0,0,9.998186111450195,0,0,0,0.03699999851276524,0.0539999991814898,-0.07099999651516105
0,0,9.988609313964844,0,0,-0.009800000116229057,-0.023000000021936765,0.17599999436777122,0.11099999887334903
0,0,9.988609313964844,0,0,-0.009800000116229057,-0.08400000095013078,-0.06700000028140622,0.049999999612681666
0,0,9.988609313964844,0,0,-0.009800000116229057,-0.023000000021936765,0.0539999991814898,0.049999999612681666
0,0,9.998186111450195,0,0,0,-0.14499999354069154,0.11500000177721047,0.11099999887334903
0,0,9.998186111450195,0,0,0,0.03699999851276524,0.0539999991814898,0.11099999887334903
0,0,9.998186111450195,0,0,0,0.09800000110848592,0.0539999991814898,-0.009999999755783667
0,0,9.998186111450195,0,0,0,-0.14499999354069154,0.0539999991814898,0.049999999612681666
0,0,9.998186111450195,0,0,0,-0.023000000021936765,0.0539999991814898,-0.009999999755783667
0,0,9.998186111450195,0,0,0,0.03699999851276524,-0.006000000186975531,-0.07099999651516105
0,0,9.998186111450195,0,0,0,-0.023000000021936765,-0.06700000028140622,-0.009999999755783667
0,0,9.998186111450195,0,0,0,-0.023000000021936765,-0.006000000186975531,-0.009999999755783667
0,0,9.998186111450195,0,0,0,-0.08400000095013078,-0.006000000186975531,-0.009999999755783667
0,0,9.998186111450195,0,0,0,-0.023000000021936765,0.0539999991814898,-0.009999999755783667
0,0,10.007762908935547,0,0,0,-0.023000000021936765,-0.006000000186975531,-0.009999999755783667
0,0,10.007762908935547,0,0,0.009800000116229057,0.09800000110848592,-0.006000000186975531,0.049999999612681666
0,0,9.998186111450195,0,0,0,-0.023000000021936765,-0.006000000186975531,-0.009999999755783667
0,0,10.007762908935547,0,0,0.009800000116229057,-0.08400000095013078,-0.06700000028140622,0.049999999612681666
0,0,9.998186111450195,0,0,0,-0.023000000021936765,-0.006000000186975531,-0.009999999755783667
0,0,9.998186111450195,0,0,0,-0.023000000021936765,-0.006000000186975531,-0.009999999755783667
0,0,10.007762908935547,0,0,0.009800000116229057,0.03699999851276524,-0.006000000186975531,0.049999999612681666
0,0,10.007762908935547,0,0,0.009800000116229057,-0.023000000021936765,-0.12799999954207358,-0.009999999755783667
0,0,10.007762908935547,0,0,0.009800000116229057,0.03699999851276524,-0.006000000186975531,-0.07099999651516105
0,0,10.017339706420898,0,0,0.009800000116229057,-0.023000000021936765,-0.006000000186975531,-0.009999999755783667
0,0,10.017339706420898,0,0,0.009800000116229057,-0.023000000021936765,-0.006000000186975531,-0.009999999755783667
0,0,10.017339706420898,0,0,0.019600000232458115,0.03699999851276524,0.0539999991814898,-0.009999999755783667
0,0,10.017339706420898,0,0,0.019600000232458115,-0.14499999354069154,0.0539999991814898,0.049999999612681666
0,0,10.017339706420898,0,0,0.019600000232458115,0.03699999851276524,-0.06700000028140622,-0.009999999755783667
0,0,10.017339706420898,0,0,0.019600000232458115,-0.08400000095013078,0.0539999991814898,-0.07099999651516105
0,0,10.017339706420898,0,0,0.019600000232458115,-0.14499999354069154,-0.006000000186975531,-0.009999999755783667
0,0,9.998186111450195,0,0,0.009800000116229057,-0.023000000021936765,-0.006000000186975531,-0.07099999651516105
0,0,10.017339706420898,0,0,0.009800000116229057,-0.023000000021936765,-0.006000000186975531,-0.009999999755783667
0,0,10.017339706420898,0,0,0.019600000232458115,-0.023000000021936765,0.11500000177721047,-0.1319999957758284
0,0,10.017339706420898,0,0,0.019600000232458115,0.15900000036915327,0.0539999991814898,-0.009999999755783667
0,0,10.017339706420898,0,0,0.019600000232458115,0.03699999851276524,-0.006000000186975531,0.049999999612681666
0,0,10.017339706420898,0,0,0.019600000232458115,-0.08400000095013078,-0.006000000186975531,0.049999999612681666
0,0,10.017339706420898,0,0,0.019600000232458115,-0.08400000095013078,-0.06700000028140622,-0.07099999651516105
0,0,10.017339706420898,0,0,0.019600000232458115,-0.023000000021936765,-0.006000000186975531,-0.07099999651516105
-0.009576806798577309,0,10.017339706420898,0,0,0.019600000232458115,0.09800000110848592,-0.006000000186975531,0.049999999612681666
0,0,10.017339706420898,0,0,0.019600000232458115,-0.023000000021936765,0.0539999991814898,0.049999999612681666
0,0,10.017339706420898,0,0,0.019600000232458115,0.03699999851276524,0.0539999991814898,-0.009999999755783667
0,0,10.017339706420898,0,0,0.019600000232458115,-0.08400000095013078,0.0539999991814898,0.049999999612681666
0,0,10.02691650390625,0,0,0.019600000232458115,-0.14499999354069154,-0.06700000028140622,0.049999999612681666
0,0,10.017339706420898,0,0,0,-0.14499999354069154,0.0539999991814898,-0.1319999957758284
0,0,10.017339706420898,0,0,0,-0.08400000095013078,0.0539999991814898,-0.07099999651516105
0,0,10.017339706420898,0,0,0,-0.08400000095013078,-0.006000000186975531,-0.009999999755783667
0,0,10.017339706420898,0,0,0,-0.08400000095013078,-0.06700000028140622,-0.009999999755783667
0,0,10.017339706420898,0,0,0,-0.14499999354069154,0.11500000177721047,-0.009999999755783667
0,0,10.017339706420898,0,0,0,-0.023000000021936765,-0.06700000028140622,-0.009999999755783667
0,0,10.017339706420898,0,0,0,-0.08400000095013078,0.0539999991814898,-0.009999999755783667
0,0,10.017339706420898,0,0,0,-0.08400000095013078,-0.06700000028140622,-0.009999999755783667
0,0,10.007762908935547,0,0,0,0.03699999851276524,-0.06700000028140622,-0.07099999651516105
0,0,10.007762908935547,0,0,-0.009800000116229057,-0.023000000021936765,-0.006000000186975531,0.049999999612681666
0,0,10.007762908935547,0,0,-0.009800000116229057,0.09800000110848592,-0.06700000028140622,0.049999999612681666
0,0,10.007762908935547,0,0,-0.009800000116229057,0.03699999851276524,-0.006000000186975531,-0.009999999755783667
0,0,10.017339706420898,0,0,0,0.03699999851276524,-0.06700000028140622,0.049999999612681666
0,0,10.017339706420898,0,0,0,-0.14499999354069154,-0.12799999954207358,-0.009999999755783667
0,0,10.017339706420898,0,0,0,-0.08400000095013078,-0.006000000186975531,-0.009999999755783667
0,0,10.017339706420898,0,0,-0.009800000116229057,-0.023000000021936765,-0.06700000028140622,0.049999999612681666
0,0,10.007762908935547,0,0,-0.009800000116229057,0.03699999851276524,0.0539999991814898,-0.009999999755783667
0,0,10.007762908935547,0,0,-0.009800000116229057,0.03699999851276524,-0.12799999954207358,0.049999999612681666
0,0,10.007762908935547,0,0,-0.009800000116229057,0.03699999851276524,-0.06700000028140622,-0.07099999651516105
0,0,10.007762908935547,0,0,-0.009800000116229057,-0.08400000095013078,-0.06700000028140622,0.049999999612681666
0,0,10.017339706420898,0,0,0,0.03699999851276524,-0.006000000186975531,-0.009999999755783667
0,0,10.017339706420898,0,0,0,-0.08400000095013078,0.0539999991814898,-0.1319999957758284
0,0,10.017339706420898,0,0,0,-0.08400000095013078,-0.006000000186975531,-0.009999999755783667
0,0,10.017339706420898,0,0,0,-0.08400000095013078,-0.006000000186975531,-0.009999999755783667
0,0,10.017339706420898,0,0,0,0.03699999851276524,-0.06700000028140622,-0.07099999651516105
0,0,10.017339706420898,0,0,0,0.03699999851276524,-0.006000000186975531,-0.009999999755783667
0,0,10.017339706420898,0,0,0,0.03699999851276524,0.0539999991814898,-0.009999999755783667
0,0,10.017339706420898,0,0,0,-0.023000000021936765,-0.06700000028140622,-0.07099999651516105
0,0,10.017339706420898,0,0,0,-0.023000000021936765,0.0539999991814898,0.049999999612681666
0,0,10.007762908935547,0,0,0,-0.08400000095013078,-0.006000000186975531,-0.009999999755783667
0,0,10.007762908935547,0,0,-0.009800000116229057,-0.08400000095013078,0.0539999991814898,-0.009999999755783667
0,0,10.007762908935547,0,0,-0.009800000116229057,0.03699999851276524,-0.006000000186975531,0.049999999612681666
0,0,10.007762908935547,0,0,-0.009800000116229057,-0.023000000021936765,-0.006000000186975531,-0.07099999651516105
0,0,10.007762908935547,0,0,0,-0.023000000021936765,-0.006000000186975531,-0.009999999755783667
0,0,10.017339706420898,0,0,0,-0.023000000021936765,-0.006000000186975531,-0.009999999755783667
0,0,10.007762908935547,0,0,-0.009800000116229057,0.03699999851276524,-0.006000000186975531,-0.009999999755783667
0,0,10.007762908935547,0,0,-0.009800000116229057,-0.023000000021936765,-0.06700000028140622,0.049999999612681666
0,0,10.007762908935547,0,0,-0.009800000116229057,0.03699999851276524,-0.006000000186975531,0.11099999887334903
0,0,10.007762908935547,0,0,-0.009800000116229057,0.03699999851276524,0.0539999991814898,-0.009999999755783667
0,0,10.007762908935547,0,0,-0.009800000116229057,-0.14499999354069154,-0.006000000186975531,-0.07099999651516105
0,0,10.007762908935547,0,0,-0.009800000116229057,-0.08400000095013078,-0.006000000186975531,-0.07099999651516105
0,0,10.007762908935547,0,0,-0.009800000116229057,0.03699999851276524,0.11500000177721047,0.049999999612681666
0,0,10.007762908935547,0,0,-0.009800000116229057,0.09800000110848592,-0.006000000186975531,-0.009999999755783667
0,0,10.007762908935547,0,0,-0.009800000116229057,-0.023000000021936765,-0.06700000028140622,0.049999999612681666
0,0,10.007762908935547,0,0,-0.009800000116229057,-0.08400000095013078,-0.006000000186975531,0.049999999612681666
0,0,10.007762908935547,0,0,-0.009800000116229057,-0.023000000021936765,-0.06700000028140622,-0.009999999755783667
0,0,9.998186111450195,0,0,-0.019600000232458115,0.09800000110848592,-0.06700000028140622,-0.07099999651516105
0,0,9.998186111450195,0,0,-0.009800000116229057,-0.08400000095013078,-0.006000000186975531,-0.07099999651516105
0,0,10.007762908935547,0,0,0,-0.14499999354069154,-0.06700000028140622,-0.07099999651516105
0,0,10.007762908935547,0,0,0,-0.07300000130214508,0.11500000177721047,-0.009999999755783667
0,0,10.007762908935547,0,0,0,-0.07300000130214508,-0.06700000028140622,0.049999999612681666
0,0,10.007762908935547,0,0,0,-0.19499999315337319,-0.006000000186975531,-0.009999999755783667
0,0,10.007762908935547,0,0,0,-0.07300000130214508,-0.006000000186975531,-0.009999999755783667
0,0,10.007762908935547,0,0,0,-0.07300000130214508,-0.006000000186975531,-0.009999999755783667
0,0,10.007762908935547,0,0,0,0.16999999334703236,0.0539999991814898,-0.009999999755783667
0,0,10.007762908935547,0,0,0,-0.07300000130214508,-0.006000000186975531,-0.009999999755783667
0,0,9.998186111450195,0,0,0.009800000116229057,-0.012000000373951061,-0.006000000186975531,-0.009999999755783667
0,0,10.007762908935547,0,0,0,-0.012000000373951061,0.11500000177721047,-0.009999999755783667
0,0,10.007762908935547,0,0,0,-0.07300000130214508,0.0539999991814898,0.049999999612681666
0,0,10.007762908935547,0,0,0,-0.012000000373951061,0.11500000177721047,-0.07099999651516105
0,0,10.007762908935547,0,0,0,-0.012000000373951061,-0.006000000186975531,0.049999999612681666
0,0,10.007762908935547,0,0,0,0.048000001495804245,-0.006000000186975531,-0.009999999755783667
0,0,10.007762908935547,0,0,0,-0.012000000373951061,0.0539999991814898,0.11099999887334903
0,0,10.007762908935547,0,0,0,-0.012000000373951061,-0.006000000186975531,-0.07099999651516105
0,0,10.007762908935547,0,0,0,-0.012000000373951061,-0.006000000186975531,-0.009999999755783667
0,0,10.007762908935547,0,0,0,-0.012000000373951061,-0.006000000186975531,0.049999999612681666
0,0,10.007762908935547,0,0,0,-0.07300000130214508,-0.06700000028140622,-0.1319999957758284
0,0,10.007762908935547,0,0,-0.009800000116229057,-0.012000000373951061,0.0539999991814898,0.11099999887334903
0,0,10.007762908935547,0,0,0,0.048000001495804245,-0.006000000186975531,-0.009999999755783667
0,0,10.007762908935547,0,0,0,-0.07300000130214508,-0.006000000186975531,0.049999999612681666
0,0,10.007762908935547,0,0,0,-0.07300000130214508,-0.006000000186975531,-0.009999999755783667
0,0,10.007762908935547,0,0,0,-0.012000000373951061,-0.06700000028140622,-0.07099999651516105
0,0,10.007762908935547,0,0,0,-0.012000000373951061,-0.12799999954207358,0.049999999612681666
0,0,10.007762908935547,0,0,0,-0.012000000373951061,-0.06700000028140622,-0.009999999755783667
0,0,10.007762908935547,0,0,0,-0.13400000056281244,0.11500000177721047,-0.009999999755783667
0,0,10.007762908935547,0,0,0,0.048000001495804245,-0.06700000028140622,0.049999999612681666
0,0,9.998186111450195,0,0,-0.009800000116229057,-0.012000000373951061,-0.006000000186975531,-0.009999999755783667
0,0,9.998186111450195,0,0,-0.009800000116229057,-0.13400000056281244,0.0539999991814898,0.049999999612681666
0,0,9.998186111450195,0,0,-0.009800000116229057,-0.13400000056281244,-0.006000000186975531,-0.07099999651516105
0,0,9.998186111450195,0,0,-0.009800000116229057,-0.012000000373951061,-0.006000000186975531,-0.07099999651516105
0,0,9.998186111450195,0,0,-0.009800000116229057,-0.07300000130214508,-0.06700000028140622,-0.009999999755783667
0,0,9.998186111450195,0,0,-0.009800000116229057,-0.012000000373951061,-0.006000000186975531,-0.009999999755783667
0,0,9.998186111450195,0,0,-0.009800000116229057,0.16999999334703236,-0.006000000186975531,-0.1319999957758284
0,0,10.007762908935547,0,0,0,-0.13400000056281244,-0.006000000186975531,-0.009999999755783667
0,0,10.007762908935547,0,0,0,-0.012000000373951061,-0.06700000028140622,-0.009999999755783667
0,0,9.998186111450195,0,0,0,-0.012000000373951061,-0.006000000186975531,-0.009999999755783667
0,0,9.998186111450195,0,0,0,-0.012000000373951061,-0.006000000186975531,-0.07099999651516105
0,0,10.007762908935547,0,0,-0.009800000116229057,-0.07300000130214508,-0.06700000028140622,0.049999999612681666
0,0,9.998186111450195,0,0,-0.009800000116229057,-0.07300000130214508,-0.006000000186975531,-0.009999999755783667
0,0,9.998186111450195,0,0,-0.009800000116229057,0.048000001495804245,-0.06700000028140622,0.049999999612681666
0,0,9.998186111450195,0,0,-0.009800000116229057,-0.012000000373951061,-0.06700000028140622,0.049999999612681666
0,0,9.998186111450195,0,0,-0.009800000116229057,0.048000001495804245,0.0539999991814898,0.049999999612681666
0,0,9.988609313964844,0,0,-0.009800000116229057,-0.07300000130214508,-0.006000000186975531,-0.07099999651516105
0,0,9.998186111450195,0,0,-0.009800000116229057,0.048000001495804245,-0.006000000186975531,-0.009999999755783667
0,0,9.998186111450195,0,0,-0.019600000232458115,0.10900000075647161,-0.06700000028140622,-0.07099999651516105
0,0,9.988609313964844,0,0,-0.019600000232458115,0.10900000075647161,0.11500000177721047,0.049999999612681666
0,0,9.998186111450195,0,0,0,-0.07300000130214508,-0.06700000028140622,-0.1319999957758284
0,0,9.998186111450195,0,0,0.009800000116229057,-0.13400000056281244,-0.006000000186975531,-0.009999999755783667
0,0,9.998186111450195,0,0,0.009800000116229057,-0.012000000373951061,-0.006000000186975531,0.049999999612681666
0,0,9.998186111450195,0,0,0.009800000116229057,-0.07300000130214508,0.0539999991814898,0.049999999612681666
0,0,9.998186111450195,0,0,0.009800000116229057,0.048000001495804245,0.11500000177721047,-0.07099999651516105
0,0,9.998186111450195,0,0,0.009800000116229057,-0.012000000373951061,-0.06700000028140622,-0.009999999755783667
0,0,9.998186111450195,0,0,0.009800000116229057,-0.012000000373951061,0.11500000177721047,-0.07099999651516105
0,0,9.998186111450195,0,0,0.009800000116229057,0.10900000075647161,0.0539999991814898,-0.009999999755783667
0,0,9.998186111450195,0,0,0.009800000116229057,0.10900000075647161,-0.006000000186975531,0.11099999887334903
0,0,9.998186111450195,0,0,0.009800000116229057,-0.07300000130214508,0.11500000177721047,-0.009999999755783667
0,0,9.998186111450195,0,0,0,0.10900000075647161,-0.006000000186975531,0.049999999612681666
0,0,9.988609313964844,0,0,0,-0.012000000373951061,0.0539999991814898,0.049999999612681666
0,0,9.988609313964844,0,0,0,-0.012000000373951061,0.0539999991814898,0.049999999612681666
0,0,9.998186111450195,0,0,0.009800000116229057,0.048000001495804245,-0.006000000186975531,-0.009999999755783667
0,0,9.998186111450195,0,0,0.009800000116229057,-0.07300000130214508,-0.06700000028140622,-0.07099999651516105
0,0,9.998186111450195,0,0,0,0.5969999948418105,0.17599999436777122,-0.1319999957758284
0,0,9.998186111450195,0,0,0.009800000116229057,-0.012000000373951061,0.0539999991814898,-0.009999999755783667
0,0,9.998186111450195,0,0,0.009800000116229057,-0.012000000373951061,0.0539999991814898,-0.009999999755783667
0,0,9.998186111450195,0,0,0.009800000116229057,0.10900000075647161,-0.12799999954207358,-0.1319999957758284
0,0,9.998186111450195,0,0,0.009800000116229057,-0.6829999738984989,-0.31099999065396905,0.1719999981340164
0,0,9.998186111450195,0,0,0.009800000116229057,-0.07300000130214508,0.0539999991814898,-0.009999999755783667
0,0,9.998186111450195,0,0,0.009800000116229057,-0.13400000056281244,-0.006000000186975531,-0.009999999755783667
0,0,9.998186111450195,0,0,0.009800000116229057,0.048000001495804245,0.0539999991814898,0.049999999612681666
0,0,9.998186111450195,0,0,0,-0.012000000373951061,-0.06700000028140622,-0.009999999755783667
0,0,9.988609313964844,0,0,0.009800000116229057,0.4139999903897018,0.17599999436777122,-0.1319999957758284
0,0,9.998186111450195,0,0,0.009800000116229057,0.23099998593759313,-0.006000000186975531,-0.07099999651516105
0,0,9.988609313964844,0,0,0.009800000116229057,-0.012000000373951061,0.11500000177721047,-0.009999999755783667
0,0,9.988609313964844,0,0,0,-0.012000000373951061,-0.18900000547284757,-0.009999999755783667
0,0,9.998186111450195,0,0,0.009800000116229057,0.3529999977991411,0.11500000177721047,-0.1319999957758284
0,0,9.998186111450195,0,0,0.009800000116229057,0.5360000022512498,0.17599999436777122,-0.07099999651516105
0,0,9.998186111450195,0,0,0,0.10900000075647161,-0.006000000186975531,-0.07099999651516105
0,0,9.988609313964844,0,0,0,0.048000001495804245,0.0539999991814898,-0.07099999651516105
0,0,9.998186111450195,0,0,0,-0.19499999315337319,-0.006000000186975531,-0.009999999755783667
0,0,9.998186111450195,0,0,0.009800000116229057,0.048000001495804245,-0.18900000547284757,-0.07099999651516105
0,0,9.979032516479492,0,0,0.009800000116229057,-0.012000000373951061,-0.006000000186975531,0.049999999612681666
-0.009576806798577309,0,9.988609313964844,0,0,0,0.048000001495804245,0.0539999991814898,-0.009999999755783667
0,0,9.988609313964844,0,0,0,-0.012000000373951061,-0.006000000186975531,-0.009999999755783667
0,0,9.998186111450195,0,0,0,-0.012000000373951061,0.0539999991814898,-0.009999999755783667
0,0,9.998186111450195,0,0,0.009800000116229057,0.16999999334703236,0.0539999991814898,0.049999999612681666
0,0,9.998186111450195,0,0,0.009800000116229057,-0.07300000130214508,-0.006000000186975531,-0.009999999755783667
0,0,9.998186111450195,0,0,0.009800000116229057,-0.13400000056281244,-0.006000000186975531,-0.009999999755783667
0,0,9.998186111450195,0,0,0.009800000116229057,-0.012000000373951061,-0.006000000186975531,-0.07099999651516105
0,0,9.988609313964844,0,0,0,-0.07300000130214508,-0.006000000186975531,-0.009999999755783667
0,0,9.988609313964844,0,0,0,-0.31699999167470794,-0.12799999954207358,0.049999999612681666
0,0,9.979032516479492,0,0,-0.009800000116229057,0.048000001495804245,0.11500000177721047,-0.009999999755783667
0,0,9.979032516479492,0,0,-0.009800000116229057,0.048000001495804245,-0.06700000028140622,-0.07099999651516105
0,0,9.988609313964844,0,0,0,0.048000001495804245,0.0539999991814898,-0.07099999651516105
0,0,9.988609313964844,0,0,0,0.9020000111554672,0.29800000622931916,-0.1930000017066024
0,0,9.988609313964844,0,0,0,0.23099998593759313,0.0539999991814898,-0.1319999957758284
0,0,9.988609313964844,0,0,0,-0.37800001094569513,-0.2499999980634083,0.11099999887334903
0,0,9.988609313964844,0,0,0,0.10900000075647161,-0.006000000186975531,-0.07099999651516105
0,0,9.988609313964844,0,0,0,-0.012000000373951061,-0.006000000186975531,-0.07099999651516105
0,0,9.988609313964844,0,0,0,-0.012000000373951061,-0.006000000186975531,-0.009999999755783667
0,0,9.998186111450195,0,0,0.009800000116229057,-0.012000000373951061,-0.006000000186975531,-0.009999999755783667
0,0,9.998186111450195,0,0,0,0.10900000075647161,-0.06700000028140622,0.049999999612681666
0,0,9.988609313964844,0,0,0,-0.07300000130214508,-0.006000000186975531,-0.1319999957758284
0,0,9.988609313964844,0,0,0,0.048000001495804245,-0.006000000186975531,0.049999999612681666
0,0,9.988609313964844,0,0,0,-0.012000000373951061,0.11500000177721047,0.049999999612681666
0,0,9.988609313964844,0,0,0,-0.07300000130214508,0.0539999991814898,-0.009999999755783667
0,0,9.988609313964844,0,0,0,0.10900000075647161,-0.06700000028140622,0.049999999612681666
0,0,9.988609313964844,0,0,0,0.048000001495804245,0.11500000177721047,-0.009999999755783667
0,0,9.998186111450195,0,0,0.009800000116229057,-0.07300000130214508,-0.06700000028140622,-0.07099999651516105
0,0,9.988609313964844,0,0,0.009800000116229057,-0.07300000130214508,-0.006000000186975531,-0.07099999651516105
0,0,9.998186111450195,0,0,0.009800000116229057,-0.012000000373951061,-0.006000000186975531,-0.009999999755783667
0,0,9.998186111450195,0,0,0.009800000116229057,-0.012000000373951061,-0.006000000186975531,-0.009999999755783667
0,0,9.988609313964844,0,0,0,-0.07300000130214508,0.0539999991814898,0.049999999612681666
0,0,9.988609313964844,0,0,0,0.048000001495804245,-0.006000000186975531,-0.009999999755783667
0,0,9.988609313964844,0,0,0,0.048000001495804245,-0.006000000186975531,-0.009999999755783667
0,0,9.988609313964844,0,0,0,-0.012000000373951061,-0.006000000186975531,-0.009999999755783667
0,0,9.988609313964844,0,0,0,-0.13400000056281244,-0.006000000186975531,0.049999999612681666
0,0,9.988609313964844,0,0,0,-0.012000000373951061,-0.006000000186975531,-0.07099999651516105
0,0,9.998186111450195,0,0,0.009800000116229057,0.048000001495804245,0.0539999991814898,-0.009999999755783667
0,0,9.988609313964844,0,0,0,0.048000001495804245,-0.006000000186975531,-0.009999999755783667
0,0,9.979032516479492,0,0,-0.009800000116229057,-0.012000000373951061,-0.006000000186975531,-0.009999999755783667
0,0,9.998186111450195,0,0,0.009800000116229057,-0.07300000130214508,-0.006000000186975531,-0.07099999651516105
0,0,9.998186111450195,0,0,0.009800000116229057,0.048000001495804245,-0.006000000186975531,-0.009999999755783667
0,0,9.988609313964844,0,0,-0.009800000116229057,0.048000001495804245,0.0539999991814898,0.049999999612681666
0,0,9.979032516479492,0,0,0,-0.012000000373951061,-0.06700000028140622,0.11099999887334903
0,0,9.998186111450195,0,0,0.009800000116229057,-0.25599999908414717,-0.06700000028140622,0.049999999612681666
0,0,9.998186111450195,0,0,0.009800000116229057,-0.012000000373951061,0.11500000177721047,-0.009999999755783667
0,0,9.998186111450195,0,0,0.009800000116229057,0.048000001495804245,0.17599999436777122,0.049999999612681666
0,0,9.988609313964844,0,0,0,-0.012000000373951061,-0.06700000028140622,-0.07099999651516105
0,0,9.988609313964844,0,0,0,-0.012000000373951061,-0.006000000186975531,-0.009999999755783667
0,0,9.988609313964844,0,0,0,0.10900000075647161,0.11500000177721047,-0.009999999755783667
0,0,9.998186111450195,0,0,0,-0.012000000373951061,-0.06700000028140622,-0.009999999755783667
0,0,9.988609313964844,0,0,0,-0.012000000373951061,0.0539999991814898,-0.07099999651516105
0,0,9.988609313964844,0,0,0,-0.07300000130214508,0.0539999991814898,0.049999999612681666
0,0,9.988609313964844,0,0,0,0.10900000075647161,-0.06700000028140622,-0.009999999755783667
0,0,9.988609313964844,0,0,0,0.10900000075647161,-0.06700000028140622,-0.009999999755783667
0,0,9.988609313964844,0,0,0,0.10900000075647161,-0.006000000186975531,-0.009999999755783667
0,0,9.988609313964844,0,0,0,-0.012000000373951061,-0.006000000186975531,-0.009999999755783667
0,0,9.979032516479492,0,0,-0.009800000116229057,-0.07300000130214508,-0.06700000028140622,0.049999999612681666
0,0,9.988609313964844,0,0,0,-0.13400000056281244,0.0539999991814898,-0.07099999651516105
0,0,9.988609313964844,0,0,0,-0.012000000373951061,-0.006000000186975531,-0.07099999651516105
0,0,9.988609313964844,0,0,0,-0.012000000373951061,-0.006000000186975531,-0.07099999651516105
0,0,9.988609313964844,0,0,0,0.048000001495804245,-0.006000000186975531,-0.07099999651516105
0,0,9.988609313964844,0,0,0,-0.07300000130214508,-0.006000000186975531,0.049999999612681666
0,0,9.998186111450195,0,0,0,0.10900000075647161,0.0539999991814898,-0.009999999755783667
0,0,9.988609313964844,0,0,0,0.048000001495804245,-0.006000000186975531,-0.1319999957758284
0,0,9.988609313964844,0,0,0,0.10900000075647161,0.0539999991814898,-0.1319999957758284
0,0,9.988609313964844,0,0,0,0.23099998593759313,0.0539999991814898,-0.009999999755783667
0,0,9.988609313964844,0,0,0,0.048000001495804245,-0.006000000186975531,-0.009999999755783667
0,0,9.988609313964844,0,0,0,0.10900000075647161,0.0539999991814898,-0.009999999755783667
0,0,9.988609313964844,0,0,0,-0.012000000373951061,0.17599999436777122,0.11099999887334903
0,0,9.988609313964844,0,0,0,-0.012000000373951061,-0.06700000028140622,-0.009999999755783667
0,0,9.979032516479492,0,0,-0.009800000116229057,0.048000001495804245,0.0539999991814898,-0.009999999755783667
0,0,9.988609313964844,0,0,0,0.048000001495804245,-0.06700000028140622,0.049999999612681666
0,0,9.988609313964844,0,0,0,0.048000001495804245,-0.06700000028140622,-0.009999999755783667
0,0,9.988609313964844,0,0,0,0.048000001495804245,-0.06700000028140622,-0.009999999755783667
0,0,9.988609313964844,0,0,0,-0.012000000373951061,-0.06700000028140622,-0.009999999755783667
0,0,9.988609313964844,0,0,0,-0.012000000373951061,0.0539999991814898,-0.07099999651516105
0,0,9.988609313964844,0,0,0,0.10900000075647161,0.0539999991814898,-0.009999999755783667
0,0,9.988609313964844,0,0,0,0.048000001495804245,-0.006000000186975531,-0.07099999651516105
0,0,9.988609313964844,0,0,0,-0.07300000130214508,-0.06700000028140622,0.049999999612681666
0,0,9.988609313964844,0,0,0,0.10900000075647161,-0.06700000028140622,0.049999999612681666
0,0,9.988609313964844,0,0,0,0.10900000075647161,-0.06700000028140622,0.049999999612681666
0,0,9.988609313964844,0,0,0,-0.012000000373951061,-0.006000000186975531,-0.07099999651516105
0,0,9.988609313964844,0,0,0,0.048000001495804245,0.11500000177721047,-0.009999999755783667
0,0,9.988609313964844,0,0,0,-0.012000000373951061,-0.006000000186975531,-0.009999999755783667
0,0,9.988609313964844,0,0,0,-0.25599999908414717,-0.06700000028140622,0.049999999612681666
0,0,9.988609313964844,0,0,0,0.048000001495804245,0.0539999991814898,-0.009999999755783667
0,0,9.979032516479492,0,0,0,-0.012000000373951061,-0.12799999954207358,-0.009999999755783667
0,0,9.979032516479492,0,0,-0.009800000116229057,-0.012000000373951061,0.0539999991814898,-0.07099999651516105
0,0,9.979032516479492,0,0,-0.009800000116229057,0.16999999334703236,0.0539999991814898,-0.009999999755783667
0,0,9.988609313964844,0,0,0,0.048000001495804245,-0.006000000186975531,-0.009999999755783667
0,0,9.988609313964844,0,0,0,0.10900000075647161,0.0539999991814898,0.049999999612681666
0,0,9.979032516479492,0,0,0,0.16999999334703236,-0.06700000028140622,0.049999999612681666
0,0,9.979032516479492,0,0,-0.009800000116229057,0.16999999334703236,0.0539999991814898,-0.07099999651516105
0,0,9.988609313964844,0,0,0,0.048000001495804245,-0.006000000186975531,0.049999999612681666
0,0,9.988609313964844,0,0,0,0.048000001495804245,0.0539999991814898,-0.07099999651516105
0,0,9.988609313964844,0,0,0,0.048000001495804245,-0.006000000186975531,0.049999999612681666
0,0,9.979032516479492,0,0,0,0.10900000075647161,-0.006000000186975531,-0.009999999755783667
0,0,9.988609313964844,0,0,-0.009800000116229057,0.10900000075647161,-0.06700000028140622,-0.1319999957758284
-0.009576806798577309,0,9.988609313964844,0,0,0,-0.19499999315337319,-0.06700000028140622,-0.009999999755783667
0,0,9.988609313964844,0,0,0,0.10900000075647161,-0.006000000186975531,-0.009999999755783667
0,0,9.988609313964844,0,0,0,0.048000001495804245,-0.006000000186975531,-0.07099999651516105
0,0,9.988609313964844,0,0,0,-0.25599999908414717,-0.06700000028140622,-0.009999999755783667
0,0,9.988609313964844,0,0,0,-0.012000000373951061,0.0539999991814898,-0.009999999755783667
0,0,9.988609313964844,0,0,0,-0.012000000373951061,0.0539999991814898,-0.009999999755783667
0,0,9.988609313964844,0,0,0,-0.07300000130214508,-0.006000000186975531,-0.07099999651516105
0,0,9.988609313964844,0,0,-0.009800000116229057,0.10900000075647161,0.0539999991814898,-0.009999999755783667
0,0,9.979032516479492,0,0,0,-0.012000000373951061,-0.006000000186975531,-0.009999999755783667
0,0,9.988609313964844,0,0,-0.009800000116229057,-0.25599999908414717,-0.06700000028140622,-0.009999999755783667
0,0,9.979032516479492,0,0,0.009800000116229057,-0.012000000373951061,-0.006000000186975531,0.049999999612681666
0,0,9.998186111450195,0,0,0,-0.012000000373951061,-0.06700000028140622,0.049999999612681666
0,0,9.988609313964844,0,0,0,0.10900000075647161,-0.06700000028140622,-0.009999999755783667
0,0,9.988609313964844,0,0,0,0.048000001495804245,0.0539999991814898,-0.07099999651516105
0,0,9.988609313964844,0,0,0,-0.07300000130214508,-0.12799999954207358,0.049999999612681666
0,0,9.988609313964844,0,0,0,-0.012000000373951061,-0.06700000028140622,-0.009999999755783667
0,0,9.988609313964844,0,0,0,-0.012000000373951061,0.0539999991814898,0.049999999612681666
0,0,9.988609313964844,0,0,0,0.10900000075647161,-0.006000000186975531,-0.07099999651516105
0,0,9.988609313964844,0,0,0,-0.012000000373951061,0.0539999991814898,-0.009999999755783667
0,0,9.988609313964844,0,0,0,0.048000001495804245,0.11500000177721047,0.049999999612681666
0,0,9.979032516479492,0,0,-0.009800000116229057,0.048000001495804245,-0.06700000028140622,-0.009999999755783667
0,0,9.979032516479492,0,0,-0.009800000116229057,0.048000001495804245,0.11500000177721047,-0.009999999755783667
0,0,9.979032516479492,0,0,-0.009800000116229057,-0.13400000056281244,-0.06700000028140622,-0.009999999755783667
0,0,9.979032516479492,0,0,-0.009800000116229057,-0.13400000056281244,-0.06700000028140622,-0.07099999651516105
0,0,9.979032516479492,0,0,-0.009800000116229057,-0.012000000373951061,-0.006000000186975531,-0.07099999651516105
0,0,9.988609313964844,0,0,0,-0.012000000373951061,0.0539999991814898,-0.009999999755783667
0,0,9.988609313964844,0,0,0,-0.13400000056281244,0.0539999991814898,-0.07099999651516105
0,0,9.988609313964844,0,0,0,-0.012000000373951061,-0.006000000186975531,-0.07099999651516105
0,0,9.979032516479492,0,0,0,-0.07300000130214508,-0.006000000186975531,-0.07099999651516105
0,0,9.979032516479492,0,0,-0.009800000116229057,0.048000001495804245,-0.006000000186975531,0.049999999612681666
0,0,9.979032516479492,0,0,0,-0.13400000056281244,0.0539999991814898,-0.009999999755783667
0,0,9.988609313964844,0,0,0,-0.012000000373951061,-0.006000000186975531,0.049999999612681666
0,0,9.988609313964844,0,0,-0.009800000116229057,0.048000001495804245,-0.006000000186975531,0.049999999612681666
0,0,9.979032516479492,0,0,0,-0.012000000373951061,-0.06700000028140622,-0.009999999755783667
0,0,9.988609313964844,0,0,0,-0.07300000130214508,-0.006000000186975531,-0.07099999651516105
0,0,9.988609313964844,0,0,0,-0.012000000373951061,0.11500000177721047,-0.009999999755783667
0,0,9.988609313964844,0,0,-0.009800000116229057,-0.13400000056281244,0.0539999991814898,-0.009999999755783667
0,0,9.979032516479492,0,0,-0.009800000116229057,0.048000001495804245,0.0539999991814898,-0.009999999755783667
0,0,9.988609313964844,0,0,0,0.048000001495804245,0.0539999991814898,-0.07099999651516105
0,0,9.979032516479492,0,0,-0.009800000116229057,-0.012000000373951061,-0.06700000028140622,-0.009999999755783667
0,0,9.979032516479492,0,0,-0.009800000116229057,0.048000001495804245,-0.006000000186975531,0.049999999612681666
0,0,9.979032516479492,0,0,0,-0.07300000130214508,-0.006000000186975531,-0.1319999957758284
0,0,9.988609313964844,0,0,0,0.048000001495804245,-0.06700000028140622,-0.009999999755783667
0,0,9.988609313964844,0,0,0,0.10900000075647161,-0.006000000186975531,0.11099999887334903
0,0,9.988609313964844,0,0,0,0.048000001495804245,0.0539999991814898,-0.07099999651516105
0,0,9.988609313964844,0,0,0,-0.07300000130214508,-0.006000000186975531,-0.009999999755783667
0,0,9.988609313964844,0,0,0,-0.07300000130214508,0.0539999991814898,0.11099999887334903
0,0,9.988609313964844,0,0,0,-0.012000000373951061,-0.06700000028140622,-0.009999999755783667
0,0,9.988609313964844,0,0,0,0.048000001495804245,-0.06700000028140622,-0.009999999755783667
0,0,9.988609313964844,0,0,0,-0.012000000373951061,-0.006000000186975531,0.049999999612681666
0,0,9.988609313964844,0,0,0,0.048000001495804245,-0.006000000186975531,0.049999999612681666
0,0,9.979032516479492,0,0,-0.009800000116229057,-0.07300000130214508,0.0539999991814898,-0.009999999755783667
0,0,9.979032516479492,0,0,-0.009800000116229057,-0.012000000373951061,-0.12799999954207358,0.049999999612681666
0,0,9.96945571899414,0,0,-0.019600000232458115,0.048000001495804245,-0.06700000028140622,-0.1319999957758284
0,0,9.96945571899414,0,0,-0.009800000116229057,-0.07300000130214508,-0.06700000028140622,-0.07099999651516105
0,0,9.988609313964844,0,0,0,0.10900000075647161,0.0539999991814898,-0.009999999755783667
0,0,9.988609313964844,0,0,0,-0.012000000373951061,-0.06700000028140622,-0.07099999651516105
0,0,9.988609313964844,0,0,0,-0.07300000130214508,0.11500000177721047,-0.009999999755783667
0,0,9.979032516479492,0,0,-0.009800000116229057,0.048000001495804245,-0.006000000186975531,-0.009999999755783667
0,0,9.979032516479492,0,0,0,0.048000001495804245,-0.06700000028140622,0.11099999887334903
0,0,9.988609313964844,0,0,0,-0.012000000373951061,0.17599999436777122,0.049999999612681666
0,0,9.988609313964844,0,0,0,-0.012000000373951061,0.11500000177721047,0.049999999612681666
0,0,9.988609313964844,0,0,0,-0.012000000373951061,-0.18900000547284757,0.049999999612681666
0,0,9.979032516479492,0,0,0,-0.13400000056281244,-0.006000000186975531,-0.009999999755783667
0,0,9.988609313964844,0,0,-0.009800000116229057,-0.012000000373951061,-0.06700000028140622,-0.009999999755783667
0,0,9.988609313964844,0,0,0,0.048000001495804245,0.11500000177721047,-0.1319999957758284
0,0,9.988609313964844,0,0,0,0.048000001495804245,-0.006000000186975531,0.049999999612681666
0,0,9.988609313964844,0,0,0,-0.012000000373951061,0.0539999991814898,-0.009999999755783667
0,0,9.988609313964844,0,0,0,-0.07300000130214508,-0.06700000028140622,-0.009999999755783667
0,0,9.988609313964844,0,0,0,0.10900000075647161,-0.006000000186975531,-0.009999999755783667
0,0,9.988609313964844,0,0,0,-0.07300000130214508,-0.006000000186975531,-0.07099999651516105
0,0,9.979032516479492,0,0,-0.009800000116229057,-0.07300000130214508,-0.006000000186975531,-0.07099999651516105
0,0,9.979032516479492,0,0,0,-0.012000000373951061,0.0539999991814898,-0.009999999755783667
0,0,9.988609313964844,0,0,0,-0.012000000373951061,-0.006000000186975531,-0.009999999755783667
0,0,9.988609313964844,0,0,0,-0.07300000130214508,-0.006000000186975531,-0.009999999755783667
0,0,9.988609313964844,0,0,0,0.10900000075647161,-0.006000000186975531,-0.009999999755783667
0,0,9.988609313964844,0,0,0,0.048000001495804245,-0.006000000186975531,0.049999999612681666
0,0,9.96945571899414,0,0,-0.009800000116229057,-0.012000000373951061,0.0539999991814898,0.049999999612681666
0,0,9.979032516479492,0,0,-0.009800000116229057,0.10900000075647161,-0.006000000186975531,-0.009999999755783667
0,0,9.979032516479492,0,0,-0.009800000116229057,-0.012000000373951061,-0.006000000186975531,-0.07099999651516105
0,0,9.988609313964844,0,0,-0.009800000116229057,-0.012000000373951061,-0.06700000028140622,-0.009999999755783667
0,0,9.988609313964844,0,0,0,0.048000001495804245,-0.06700000028140622,-0.009999999755783667
0,0,9.988609313964844,0,0,-0.009800000116229057,-0.07300000130214508,0.0539999991814898,0.049999999612681666
0,0,9.988609313964844,0,0,0,0.048000001495804245,-0.006000000186975531,-0.07099999651516105
0,0,9.988609313964844,0,0,0,-0.012000000373951061,-0.06700000028140622,0.049999999612681666
0,0,9.979032516479492,0,0,0,0.048000001495804245,-0.006000000186975531,-0.009999999755783667
0,0,9.979032516479492,0,0,-0.009800000116229057,-0.012000000373951061,0.0539999991814898,-0.07099999651516105
0,0,9.979032516479492,0,0,-0.009800000116229057,-0.012000000373951061,0.0539999991814898,-0.07099999651516105
0,0,9.988609313964844,0,0,-0.009800000116229057,0.048000001495804245,-0.006000000186975531,-0.009999999755783667
0,0,9.998186111450195,0,0,0,-0.012000000373951061,0.0539999991814898,-0.009999999755783667
0,0,9.988609313964844,0,0,0.009800000116229057,-0.25599999908414717,-0.006000000186975531,0.049999999612681666
0,0,9.988609313964844,0,0,-0.009800000116229057,-0.012000000373951061,-0.06700000028140622,-0.009999999755783667
0,0,9.979032516479492,0,0,-0.009800000116229057,-0.012000000373951061,-0.06700000028140622,-0.07099999651516105
0,0,9.979032516479492,0,0,-0.009800000116229057,0.10900000075647161,-0.006000000186975531,-0.009999999755783667
0,0,9.988609313964844,0,0,-0.009800000116229057,0.10900000075647161,-0.006000000186975531,-0.009999999755783667
0,0,9.988609313964844,0,0,0,0.10900000075647161,0.0539999991814898,-0.009999999755783667
0,0,9.988609313964844,0,0,0,-0.07300000130214508,0.0539999991814898,-0.009999999755783667
0,0,9.988609313964844,0,0,0,0.048000001495804245,-0.06700000028140622,-0.009999999755783667
0,0,9.988609313964844,0,0,0,0.048000001495804245,-0.06700000028140622,-0.009999999755783667
0,0,9.988609313964844,0,0,0,0.048000001495804245,0.11500000177721047,-0.009999999755783667
0,0,9.988609313964844,0,0,0,0.16999999334703236,-0.06700000028140622,-0.07099999651516105
0,0,9.988609313964844,0,0,0,-0.012000000373951061,-0.006000000186975531,-0.07099999651516105
0,0,9.988609313964844,0,0,0,-0.07300000130214508,0.0539999991814898,-0.1319999957758284
0,0,9.998186111450195,0,0,0.009800000116229057,0.048000001495804245,-0.06700000028140622,-0.009999999755783667
0,0,9.998186111450195,0,0,0.009800000116229057,-0.012000000373951061,-0.006000000186975531,-0.009999999755783667
0,0,9.998186111450195,0,0,0.009800000116229057,-0.012000000373951061,-0.06700000028140622,-0.009999999755783667
0,0,9.988609313964844,0,0,0,-0.012000000373951061,-0.006000000186975531,-0.07099999651516105
0,0,9.988609313964844,0,0,0,0.10900000075647161,-0.12799999954207358,-0.1319999957758284
0,0,9.988609313964844,0,0,0,-0.012000000373951061,-0.006000000186975531,-0.009999999755783667
0,0,9.988609313964844,0,0,-0.009800000116229057,-0.07300000130214508,-0.006000000186975531,-0.009999999755783667
0,0,9.998186111450195,0,0,0.009800000116229057,-0.012000000373951061,0.0539999991814898,0.049999999612681666
0,0,9.988609313964844,0,0,0,-0.012000000373951061,-0.18900000547284757,0.049999999612681666
0,0,9.988609313964844,0,0,0,0.048000001495804245,-0.12799999954207358,0.049999999612681666
0,0,9.979032516479492,0,0,-0.009800000116229057,-0.012000000373951061,-0.006000000186975531,-0.009999999755783667
0,0,9.979032516479492,0,0,-0.009800000116229057,-0.012000000373951061,0.0539999991814898,-0.009999999755783667
0,0,9.988609313964844,0,0,0.009800000116229057,-0.07300000130214508,0.0539999991814898,0.049999999612681666
0,0,9.998186111450195,0,0,0,-0.012000000373951061,0.0539999991814898,-0.009999999755783667
0,0,9.998186111450195,0,0,0.009800000116229057,0.10900000075647161,-0.06700000028140622,-0.009999999755783667
0,0,9.988609313964844,0,0,0,0.048000001495804245,0.0539999991814898,-0.009999999755783667
0,0,9.988609313964844,0,0,0,-0.13400000056281244,-0.006000000186975531,-0.1319999957758284
0,0,9.988609313964844,0,0,0,0.048000001495804245,-0.06700000028140622,-0.009999999755783667
0,0,9.988609313964844,0,0,0,-0.012000000373951061,-0.006000000186975531,-0.009999999755783667
0,0,9.988609313964844,0,0,0,-0.012000000373951061,0.11500000177721047,0.049999999612681666
0,0,9.988609313964844,0,0,0,-0.012000000373951061,-0.06700000028140622,-0.009999999755783667
0,0,9.988609313964844,0,0,0,0.10900000075647161,-0.006000000186975531,-0.07099999651516105
0,0,9.979032516479492,0,0,0,-0.07300000130214508,-0.006000000186975531,-0.009999999755783667
0,0,9.979032516479492,0,0,-0.009800000116229057,-0.012000000373951061,0.0539999991814898,0.049999999612681666
0,0,9.979032516479492,0,0,-0.009800000116229057,-0.012000000373951061,0.0539999991814898,-0.1319999957758284
0,0,9.979032516479492,0,0,-0.009800000116229057,0.048000001495804245,-0.006000000186975531,0.049999999612681666
0,0,9.979032516479492,0,0,-0.009800000116229057,0.10900000075647161,0.0539999991814898,-0.009999999755783667
0,0,9.979032516479492,0,0,0,-0.012000000373951061,0.0539999991814898,0.049999999612681666
0,0,9.988609313964844,0,0,0,-0.07300000130214508,0.0539999991814898,-0.009999999755783667
0,0,9.988609313964844,0,0,0,-0.07300000130214508,0.0539999991814898,-0.009999999755783667
0,0,9.988609313964844,0,0,0,0.048000001495804245,-0.006000000186975531,-0.009999999755783667
0,0,9.988609313964844,0,0,0,0.048000001495804245,-0.006000000186975531,-0.009999999755783667
0,0,9.988609313964844,0,0,-0.009800000116229057,0.048000001495804245,-0.06700000028140622,-0.07099999651516105
0,0,9.979032516479492,0,0,-0.009800000116229057,-0.012000000373951061,-0.06700000028140622,0.049999999612681666
0,0,9.988609313964844,0,0,0,-0.07300000130214508,-0.06700000028140622,0.049999999612681666
0,0,9.988609313964844,0,0,0,0.16999999334703236,0.0539999991814898,0.049999999612681666
0,0,9.988609313964844,0,0,0,-0.012000000373951061,-0.006000000186975531,-0.009999999755783667
0,0,9.979032516479492,0,0,0.009800000116229057,-0.07300000130214508,-0.06700000028140622,-0.009999999755783667
0,0,9.979032516479492,0,0,-0.009800000116229057,-0.012000000373951061,-0.006000000186975531,-0.009999999755783667
0,0,9.979032516479492,0,0,-0.009800000116229057,0.10900000075647161,-0.006000000186975531,0.049999999612681666
0,0,9.988609313964844,0,0,0,-0.012000000373951061,-0.06700000028140622,-0.009999999755783667
0,0,9.998186111450195,0,0,0.009800000116229057,-0.07300000130214508,-0.006000000186975531,-0.009999999755783667
0,0,9.998186111450195,0,0,0.009800000116229057,0.048000001495804245,-0.006000000186975531,-0.1319999957758284
0,0,9.988609313964844,0,0,0,-0.012000000373951061,-0.06700000028140622,-0.009999999755783667
0,0,9.988609313964844,0,0,0,-0.13400000056281244,-0.006000000186975531,-0.009999999755783667
0,0,9.988609313964844,0,0,0,0.10900000075647161,-0.12799999954207358,-0.07099999651516105
0,0,9.988609313964844,0,0,-0.009800000116229057,0.048000001495804245,-0.006000000186975531,-0.009999999755783667
0,0,9.979032516479492,0,0,-0.009800000116229057,-0.012000000373951061,0.0539999991814898,0.049999999612681666
0,0,9.979032516479492,0,0,-0.009800000116229057,0.048000001495804245,-0.006000000186975531,0.11099999887334903
0,0,9.979032516479492,0,0,-0.009800000116229057,-0.012000000373951061,-0.06700000028140622,-0.009999999755783667
0,0,9.979032516479492,0,0,-0.009800000116229057,-0.012000000373951061,-0.006000000186975531,0.049999999612681666
0,0,9.988609313964844,0,0,0,0.048000001495804245,-0.006000000186975531,-0.009999999755783667
0,0,9.988609313964844,0,0,0,0.048000001495804245,-0.006000000186975531,-0.009999999755783667
0,0,9.988609313964844,0,0,0,0.10900000075647161,-0.06700000028140622,-0.009999999755783667
0,0,9.988609313964844,0,0,0.009800000116229057,-0.012000000373951061,0.0539999991814898,0.11099999887334903
0,0,9.979032516479492,0,0,-0.009800000116229057,0.048000001495804245,-0.006000000186975531,-0.009999999755783667
0,0,9.979032516479492,0,0,0,-0.012000000373951061,-0.006000000186975531,-0.07099999651516105
0,0,9.979032516479492,0,0,-0.009800000116229057,-0.07300000130214508,0.0539999991814898,-0.009999999755783667
0,0,9.96945571899414,0,0,-0.009800000116229057,-0.07300000130214508,0.0539999991814898,-0.009999999755783667
0,0,9.979032516479492,0,0,-0.009800000116229057,-0.012000000373951061,0.0539999991814898,-0.1319999957758284
0,0,9.979032516479492,0,0,-0.009800000116229057,-0.012000000373951061,0.11500000177721047,-0.009999999755783667
0,0,9.979032516479492,0,0,-0.009800000116229057,-0.012000000373951061,0.0539999991814898,0.049999999612681666
0,0,9.979032516479492,0,0,-0.009800000116229057,-0.012000000373951061,-0.006000000186975531,-0.009999999755783667
0,0,9.979032516479492,0,0,-0.009800000116229057,-0.012000000373951061,0.17599999436777122,-0.009999999755783667
0,0,9.979032516479492,0,0,-0.009800000116229057,-0.012000000373951061,0.0539999991814898,-0.009999999755783667
0,0,9.979032516479492,0,0,-0.009800000116229057,-0.012000000373951061,-0.006000000186975531,-0.07099999651516105
0,0,9.998186111450195,0,0,-0.009800000116229057,-0.012000000373951061,0.0539999991814898,-0.009999999755783667
0,0,9.988609313964844,0,0,0,0.10900000075647161,-0.06700000028140622,-0.07099999651516105
0,0,9.988609313964844,0,0,0,-0.012000000373951061,-0.006000000186975531,-0.07099999651516105
0,0,9.988609313964844,0,0,0,-0.012000000373951061,-0.006000000186975531,-0.1319999957758284
0,0,9.988609313964844,0,0,0,0.048000001495804245,-0.006000000186975531,-0.009999999755783667
0,0,9.988609313964844,0,0,0,-0.13400000056281244,-0.006000000186975531,0.049999999612681666
0,0,9.979032516479492,0,0,-0.009800000116229057,0.048000001495804245,-0.006000000186975531,-0.009999999755783667
0,0,9.988609313964844,0,0,0,0.048000001495804245,0.0539999991814898,-0.009999999755783667
0,0,9.998186111450195,0,0,0.009800000116229057,-0.012000000373951061,0.0539999991814898,-0.009999999755783667
0,0,9.988609313964844,0,0,0,0.10900000075647161,-0.006000000186975531,-0.009999999755783667
0,0,9.988609313964844,0,0,0,0.048000001495804245,-0.006000000186975531,-0.07099999651516105
0,0,9.988609313964844,0,0,-0.009800000116229057,-0.012000000373951061,-0.006000000186975531,-0.07099999651516105
0,0,9.988609313964844,0,0,-0.009800000116229057,0.048000001495804245,-0.006000000186975531,-0.009999999755783667
0,0,9.979032516479492,0,0,-0.009800000116229057,-0.13400000056281244,-0.06700000028140622,-0.07099999651516105
0,0,9.988609313964844,0,0,0.009800000116229057,-0.012000000373951061,-0.06700000028140622,-0.009999999755783667
0,0,9.988609313964844,0,0,0,-0.012000000373951061,-0.006000000186975531,0.049999999612681666
0,0,9.979032516479492,0,0,0,0.048000001495804245,-0.006000000186975531,0.049999999612681666
0,0,9.988609313964844,0,0,0,0.048000001495804245,-0.006000000186975531,0.049999999612681666
0,0,9.988609313964844,0,0,0,-0.012000000373951061,0.11500000177721047,0.049999999612681666
0,0,9.988609313964844,0,0,0,-0.012000000373951061,0.11500000177721047,0.049999999612681666
0,0,9.988609313964844,0,0,0,-0.07300000130214508,0.0539999991814898,-0.07099999651516105
0,0,9.988609313964844,0,0,0,-0.012000000373951061,-0.006000000186975531,-0.07099999651516105
0,0,9.988609313964844,0,0,0,0.048000001495804245,-0.06700000028140622,0.049999999612681666
0,0,9.988609313964844,0,0,-0.009800000116229057,0.048000001495804245,0.0539999991814898,-0.009999999755783667
0,0,9.988609313964844,0,0,0,-0.012000000373951061,0.0539999991814898,-0.009999999755783667
0,0,9.988609313964844,0,0,0,-0.012000000373951061,-0.006000000186975531,-0.07099999651516105
0,0,9.988609313964844,0,0,0,-0.012000000373951061,-0.12799999954207358,-0.1319999957758284
0,0,9.988609313964844,0,0,0,0.048000001495804245,-0.006000000186975531,-0.07099999651516105
0,0,9.988609313964844,0,0,0,0.048000001495804245,-0.006000000186975531,-0.07099999651516105
0,0,9.988609313964844,0,0,-0.009800000116229057,-0.012000000373951061,0.11500000177721047,-0.1319999957758284
0,0,9.979032516479492,0,0,-0.009800000116229057,0.048000001495804245,0.0539999991814898,-0.009999999755783667
0,0,9.96945571899414,0,0,0,-0.012000000373951061,-0.18900000547284757,-0.07099999651516105
0,0,9.988609313964844,0,0,0,-0.012000000373951061,-0.006000000186975531,-0.009999999755783667
0,0,9.979032516479492,0,0,0,0.0429999995335041,0.05499999823992851,-0.05799999875029794
0,0,9.988609313964844,0,0,0,-0.07799999992939192,0.05499999823992851,-0.05799999875029794
0,0,9.988609313964844,0,0,-0.009800000116229057,-0.01700000066872456,-0.004999999877891834,0.0019999999928448997
0,0,9.998186111450195,0,0,0,-0.01700000066872456,-0.004999999877891834,0.0019999999928448997
0,0,9.988609313964844,0,0,0.009800000116229057,-0.01700000066872456,-0.004999999877891834,0.0019999999928448997
0,0,9.998186111450195,0,0,0.009800000116229057,-0.01700000066872456,-0.12700000381868817,0.06299999737754478
0,0,9.988609313964844,0,0,0,-0.07799999992939192,-0.18799999640924894,0.06299999737754478
0,0,9.988609313964844,0,0,0,-0.01700000066872456,0.05499999823992851,0.0019999999928448997
0,0,9.988609313964844,0,0,0,-0.07799999992939192,-0.004999999877891834,0.06299999737754478
0,0,9.988609313964844,0,0,0,0.2259999939804529,-0.0659999978879142,-0.05799999875029794
0,0,9.988609313964844,0,0,0,-0.01700000066872456,0.05499999823992851,-0.05799999875029794
0,0,9.988609313964844,0,0,0,-0.01700000066872456,-0.004999999877891834,-0.05799999875029794
0,0,9.988609313964844,0,0,0,0.16500000138989213,0.05499999823992851,-0.05799999875029794
0,0,9.988609313964844,0,0,0,-0.07799999992939192,-0.0659999978879142,0.12400000330831876
0,0,9.988609313964844,0,0,0,0.2259999939804529,0.05499999823992851,0.0019999999928448997
0,0,9.988609313964844,0,0,0,-0.07799999992939192,-0.0659999978879142,-0.05799999875029794
0,0,9.988609313964844,0,0,0,-0.01700000066872456,0.05499999823992851,-0.05799999875029794
0,0,9.988609313964844,0,0,0,0.10400000212922476,0.05499999823992851,0.06299999737754478
0,0,9.988609313964844,0,0,0,-0.01700000066872456,-0.0659999978879142,0.0019999999928448997
0,0,9.988609313964844,0,0,0,-0.07799999992939192,0.05499999823992851,0.06299999737754478
0,0,9.988609313964844,0,0,0,-0.01700000066872456,-0.004999999877891834,0.0019999999928448997
0,0,9.988609313964844,0,0,0,-0.01700000066872456,-0.004999999877891834,0.0019999999928448997
0,0,9.988609313964844,0,0,0,0.0429999995335041,0.05499999823992851,0.0019999999928448997
0,0,9.988609313964844,0,0,0,-0.07799999992939192,0.11599999750059588,0.0019999999928448997
0,0,9.988609313964844,0,0,0,0.0429999995335041,-0.004999999877891834,0.06299999737754478
0,0,9.988609313964844,0,0,0,-0.01700000066872456,-0.0659999978879142,0.0019999999928448997
0,0,9.988609313964844,0,0,0,0.0429999995335041,-0.0659999978879142,0.0019999999928448997
0,0,9.988609313964844,0,0,0,-0.01700000066872456,-0.004999999877891834,0.06299999737754478
0,0,9.988609313964844,0,0,0,-0.07799999992939192,-0.004999999877891834,0.06299999737754478
0,0,9.988609313964844,0,0,0,-0.07799999992939192,-0.004999999877891834,-0.05799999875029794
0,0,9.988609313964844,0,0,0,-0.07799999992939192,0.11599999750059588,-0.05799999875029794
0,0,9.988609313964844,0,0,0,-0.1390000058601659,0.05499999823992851,0.0019999999928448997
0,0,9.988609313964844,0,0,0,-0.07799999992939192,0.11599999750059588,0.06299999737754478
0,0,9.988609313964844,0,0,0,0.0429999995335041,-0.0659999978879142,0.0019999999928448997
0,0,9.988609313964844,0,0,0,-0.01700000066872456,-0.004999999877891834,-0.05799999875029794
0,0,9.988609313964844,0,0,0,0.16500000138989213,-0.004999999877891834,0.06299999737754478
0,0,9.988609313964844,0,0,0,0.0429999995335041,-0.12700000381868817,-0.05799999875029794
0,0,9.988609313964844,0,0,0,0.0429999995335041,-0.0659999978879142,0.0019999999928448997
0,0,9.979032516479492,0,0,0,-0.01700000066872456,0.05499999823992851,0.0019999999928448997
0,0,9.979032516479492,0,0,-0.009800000116229057,0.0429999995335041,-0.004999999877891834,-0.1189999980109653
0,0,9.979032516479492,0,0,-0.009800000116229057,-0.01700000066872456,0.05499999823992851,0.06299999737754478
0,0,9.979032516479492,0,0,-0.009800000116229057,-0.01700000066872456,0.05499999823992851,0.06299999737754478
0,0,9.988609313964844,0,0,0.009800000116229057,-0.07799999992939192,-0.0659999978879142,0.0019999999928448997
0,0,9.998186111450195,0,0,0.009800000116229057,0.0429999995335041,-0.004999999877891834,0.0019999999928448997
0,0,9.998186111450195,0,0,0.009800000116229057,-0.07799999992939192,0.05499999823992851,-0.1189999980109653
0,0,9.998186111450195,0,0,0,-0.07799999992939192,0.05499999823992851,0.12400000330831876
0,0,9.988609313964844,0,0,0.009800000116229057,-0.01700000066872456,-0.004999999877891834,0.06299999737754478
0,0,9.998186111450195,0,0,0.009800000116229057,-0.01700000066872456,-0.0659999978879142,0.0019999999928448997
0,0,9.998186111450195,0,0,0.009800000116229057,0.0429999995335041,-0.0659999978879142,0.06299999737754478
0,0,9.998186111450195,0,0,0,-0.01700000066872456,-0.004999999877891834,0.06299999737754478
0,0,9.998186111450195,0,0,0,-0.07799999992939192,0.05499999823992851,0.12400000330831876
0,0,9.998186111450195,0,0,0,0.16500000138989213,0.05499999823992851,0.0019999999928448997
0,0,9.998186111450195,0,0,-0.009800000116229057,-0.07799999992939192,0.05499999823992851,0.06299999737754478
0,0,9.988609313964844,0,0,-0.009800000116229057,-0.1390000058601659,-0.004999999877891834,-0.05799999875029794
0,0,9.988609313964844,0,0,-0.009800000116229057,-0.07799999992939192,0.05499999823992851,-0.05799999875029794
0,0,9.988609313964844,0,0,-0.009800000116229057,0.10400000212922476,-0.12700000381868817,0.0019999999928448997
0,0,9.988609313964844,0,0,-0.009800000116229057,-0.01700000066872456,-0.004999999877891834,0.06299999737754478
-0.009576806798577309,0,9.988609313964844,0,0,-0.009800000116229057,0.0429999995335041,-0.004999999877891834,0.0019999999928448997
0,0,9.988609313964844,0,0,-0.009800000116229057,-0.01700000066872456,0.05499999823992851,0.06299999737754478
0,0,9.979032516479492,0,0,-0.009800000116229057,-0.07799999992939192,-0.0659999978879142,-0.05799999875029794
0,0,9.979032516479492,0,0,-0.019600000232458115,-0.01700000066872456,0.05499999823992851,0.0019999999928448997
0,0,9.979032516479492,0,0,-0.019600000232458115,-0.01700000066872456,0.05499999823992851,0.06299999737754478
0,0,9.988609313964844,0,0,-0.009800000116229057,-0.01700000066872456,-0.0659999978879142,-0.05799999875029794
0,0,9.988609313964844,0,0,-0.009800000116229057,0.16500000138989213,0.11599999750059588,0.06299999737754478
0,0,9.988609313964844,0,0,-0.009800000116229057,-0.01700000066872456,0.05499999823992851,0.06299999737754478
0,0,9.988609313964844,0,0,-0.009800000116229057,0.10400000212922476,0.05499999823992851,0.0019999999928448997
0,0,9.988609313964844,0,0,-0.009800000116229057,-0.01700000066872456,-0.004999999877891834,0.06299999737754478
0,0,9.988609313964844,0,0,-0.009800000116229057,-0.01700000066872456,-0.004999999877891834,0.06299999737754478
0,0,9.988609313964844,0,0,-0.009800000116229057,0.2259999939804529,0.05499999823992851,-0.1189999980109653
0,0,9.988609313964844,0,0,-0.009800000116229057,0.10400000212922476,0.05499999823992851,-0.1189999980109653
0,0,9.988609313964844,0,0,-0.009800000116229057,0.0429999995335041,0.05499999823992851,0.0019999999928448997
0,0,9.988609313964844,0,0,0,-0.07799999992939192,0.05499999823992851,0.06299999737754478
0,0,9.998186111450195,0,0,-0.009800000116229057,0.0429999995335041,0.05499999823992851,0.0019999999928448997
0,0,9.988609313964844,0,0,-0.009800000116229057,-0.01700000066872456,-0.004999999877891834,-0.1189999980109653
0,0,9.988609313964844,0,0,-0.009800000116229057,-0.07799999992939192,-0.004999999877891834,-0.05799999875029794
0,0,9.988609313964844,0,0,-0.009800000116229057,0.10400000212922476,-0.12700000381868817,0.06299999737754478
0,0,9.988609313964844,0,0,-0.009800000116229057,-0.01700000066872456,-0.0659999978879142,0.0019999999928448997
0,0,9.988609313964844,0,0,-0.009800000116229057,0.0429999995335041,0.05499999823992851,0.0019999999928448997
0,0,9.988609313964844,0,0,-0.009800000116229057,-0.01700000066872456,-0.004999999877891834,-0.05799999875029794
0,0,9.988609313964844,0,0,-0.009800000116229057,0.0429999995335041,0.05499999823992851,-0.05799999875029794
0,0,9.988609313964844,0,0,-0.019600000232458115,0.0429999995335041,-0.004999999877891834,-0.05799999875029794
0,0,9.988609313964844,0,0,-0.009800000116229057,-0.01700000066872456,-0.004999999877891834,0.06299999737754478
0,0,9.988609313964844,0,0,-0.009800000116229057,0.0429999995335041,-0.004999999877891834,0.06299999737754478
0,0,9.988609313964844,0,0,-0.009800000116229057,-0.07799999992939192,-0.004999999877891834,-0.05799999875029794
0,0,9.988609313964844,0,0,-0.009800000116229057,-0.07799999992939192,-0.004999999877891834,-0.05799999875029794
0,0,9.988609313964844,0,0,-0.009800000116229057,-0.01700000066872456,-0.004999999877891834,0.06299999737754478
0,0,9.988609313964844,0,0,-0.009800000116229057,-0.01700000066872456,0.05499999823992851,0.06299999737754478
0,0,9.988609313964844,0,0,-0.009800000116229057,0.0429999995335041,-0.004999999877891834,0.0019999999928448997
0,0,9.988609313964844,0,0,-0.009800000116229057,0.0429999995335041,-0.004999999877891834,0.0019999999928448997
0,0,9.988609313964844,0,0,-0.009800000116229057,0.0429999995335041,-0.004999999877891834,0.0019999999928448997
0,0,9.988609313964844,0,0,-0.009800000116229057,0.0429999995335041,-0.004999999877891834,0.0019999999928448997
0,0,9.988609313964844,0,0,-0.009800000116229057,0.10400000212922476,0.05499999823992851,0.0019999999928448997
0,0,9.988609313964844,0,0,-0.009800000116229057,0.10400000212922476,0.05499999823992851,0.0019999999928448997
0,0,9.988609313964844,0,0,-0.009800000116229057,-0.1390000058601659,-0.0659999978879142,0.06299999737754478
0,0,9.988609313964844,0,0,-0.009800000116229057,0.0429999995335041,-0.0659999978879142,0.0019999999928448997
0,0,9.988609313964844,0,0,0,-0.07799999992939192,-0.004999999877891834,0.0019999999928448997
0,0,9.988609313964844,0,0,-0.009800000116229057,-0.01700000066872456,-0.004999999877891834,0.06299999737754478
0,0,9.988609313964844,0,0,0,-0.01700000066872456,-0.004999999877891834,0.0019999999928448997
0,0,9.988609313964844,0,0,0,-0.1390000058601659,0.05499999823992851,0.06299999737754478
0,0,9.988609313964844,0,0,0,0.0429999995335041,0.05499999823992851,0.0019999999928448997
0,0,9.988609313964844,0,0,0,-0.01700000066872456,-0.0659999978879142,-0.05799999875029794
0,0,9.988609313964844,0,0,0,-0.01700000066872456,-0.0659999978879142,0.06299999737754478
0,0,9.988609313964844,0,0,0.009800000116229057,-0.07799999992939192,0.05499999823992851,0.06299999737754478
0,0,9.988609313964844,0,0,0,0.10400000212922476,-0.004999999877891834,0.0019999999928448997
0,0,9.979032516479492,0,0,0,-0.01700000066872456,0.05499999823992851,-0.05799999875029794
0,0,9.979032516479492,0,0,-0.009800000116229057,0.0429999995335041,0.05499999823992851,0.0019999999928448997
0,0,9.988609313964844,0,0,0,-0.07799999992939192,-0.004999999877891834,0.06299999737754478
0,0,9.988609313964844,0,0,0,0.0429999995335041,-0.004999999877891834,-0.1189999980109653
0,0,9.988609313964844,0,0,0,-0.1390000058601659,0.05499999823992851,0.06299999737754478
0,0,9.988609313964844,0,0,0,0.0429999995335041,-0.004999999877891834,0.06299999737754478
0,0,9.979032516479492,0,0,0,-0.01700000066872456,-0.0659999978879142,-0.05799999875029794
0,0,9.988609313964844,0,0,-0.009800000116229057,0.0429999995335041,-0.004999999877891834,0.0019999999928448997
0,0,9.988609313964844,0,0,0,0.0429999995335041,-0.004999999877891834,0.0019999999928448997
0,0,9.988609313964844,0,0,0,-0.19999999845072666,0.05499999823992851,-0.1189999980109653
0,0,9.988609313964844,0,0,0,-0.07799999992939192,0.05499999823992851,0.06299999737754478
0,0,9.979032516479492,0,0,-0.009800000116229057,0.0429999995335041,-0.12700000381868817,0.06299999737754478
0,0,9.979032516479492,0,0,-0.009800000116229057,0.10400000212922476,0.05499999823992851,0.0019999999928448997
0,0,9.979032516479492,0,0,-0.009800000116229057,0.0429999995335041,-0.004999999877891834,0.0019999999928448997
0,0,9.979032516479492,0,0,-0.009800000116229057,-0.01700000066872456,0.05499999823992851,0.0019999999928448997
0,0,9.979032516479492,0,0,0,0.0429999995335041,0.05499999823992851,0.06299999737754478
0,0,9.988609313964844,0,0,0,0.0429999995335041,0.05499999823992851,-0.1189999980109653
0,0,9.988609313964844,0,0,0,-0.1390000058601659,-0.0659999978879142,0.12400000330831876
0,0,9.988609313964844,0,0,0,0.0429999995335041,-0.004999999877891834,0.0019999999928448997
0,0,9.988609313964844,0,0,0,-0.01700000066872456,-0.0659999978879142,-0.05799999875029794
0,0,9.988609313964844,0,0,0,-0.01700000066872456,-0.0659999978879142,-0.05799999875029794
0,0,9.988609313964844,0,0,0,-0.1390000058601659,0.05499999823992851,0.06299999737754478
0,0,9.988609313964844,0,0,0,0.16500000138989213,-0.004999999877891834,-0.05799999875029794
0,0,9.988609313964844,0,0,0,0.10400000212922476,-0.004999999877891834,-0.05799999875029794
0,0,9.979032516479492,0,0,0,-0.07799999992939192,-0.004999999877891834,0.0019999999928448997
0,0,9.979032516479492,0,0,-0.009800000116229057,-0.01700000066872456,-0.004999999877891834,0.0019999999928448997
0,0,9.979032516479492,0,0,-0.009800000116229057,-0.01700000066872456,-0.004999999877891834,-0.05799999875029794
0,0,9.979032516479492,0,0,-0.009800000116229057,-0.01700000066872456,-0.004999999877891834,-0.05799999875029794
0,0,9.979032516479492,0,0,-0.009800000116229057,-0.07799999992939192,-0.004999999877891834,0.06299999737754478
0,0,9.988609313964844,0,0,-0.009800000116229057,-0.01700000066872456,-0.004999999877891834,-0.05799999875029794
0,0,9.979032516479492,0,0,0,0.0429999995335041,0.05499999823992851,-0.05799999875029794
0,0,9.979032516479492,0,0,-0.009800000116229057,-0.01700000066872456,-0.004999999877891834,0.06299999737754478
0,0,9.988609313964844,0,0,0,-0.01700000066872456,-0.004999999877891834,-0.05799999875029794
-0.009576806798577309,0,9.988609313964844,0,0,0,-0.1390000058601659,-0.004999999877891834,0.06299999737754478
0,0,9.988609313964844,0,0,0,-0.01700000066872456,-0.004999999877891834,-0.05799999875029794
0,0,9.988609313964844,0,0,0,0.0429999995335041,-0.004999999877891834,0.0019999999928448997
0,0,9.988609313964844,0,0,0,0.10400000212922476,-0.004999999877891834,-0.05799999875029794
0,0,9.988609313964844,0,0,0,-0.01700000066872456,-0.004999999877891834,0.0019999999928448997
0,0,9.979032516479492,0,0,0,0.0429999995335041,-0.004999999877891834,-0.05799999875029794
0,0,9.979032516479492,0,0,0,0.10400000212922476,-0.0659999978879142,0.0019999999928448997
0,0,9.979032516479492,0,0,0,-0.1390000058601659,-0.004999999877891834,0.0019999999928448997
0,0,9.979032516479492,0,0,0,-0.1390000058601659,-0.12700000381868817,0.0019999999928448997
0,0,9.979032516479492,0,0,0,0.10400000212922476,0.05499999823992851,0.06299999737754478
0,0,9.979032516479492,0,0,0,0.0429999995335041,0.11599999750059588,-0.1189999980109653
0,0,9.979032516479492,0,0,-0.009800000116229057,0.16500000138989213,0.05499999823992851,0.0019999999928448997
0,0,9.979032516479492,0,0,0,-0.07799999992939192,-0.0659999978879142,-0.05799999875029794
0,0,9.988609313964844,0,0,0,-0.07799999992939192,0.05499999823992851,0.06299999737754478
0,0,9.988609313964844,0,0,0.009800000116229057,0.0429999995335041,-0.0659999978879142,0.0019999999928448997
0,0,9.988609313964844,0,0,0.009800000116229057,0.10400000212922476,0.05499999823992851,0.0019999999928448997
0,0,9.979032516479492,0,0,0,-0.01700000066872456,0.05499999823992851,-0.05799999875029794
0,0,9.979032516479492,0,0,0,-0.01700000066872456,-0.12700000381868817,0.0019999999928448997
0,0,9.979032516479492,0,0,0,-0.01700000066872456,-0.0659999978879142,0.0019999999928448997
0,0,9.979032516479492,0,0,0,0.0429999995335041,-0.004999999877891834,0.0019999999928448997
0,0,9.979032516479492,0,0,0.009800000116229057,-0.01700000066872456,-0.0659999978879142,0.0019999999928448997
0,0,9.988609313964844,0,0,0.009800000116229057,-0.01700000066872456,-0.004999999877891834,-0.1189999980109653
0,0,9.988609313964844,0,0,0.009800000116229057,-0.1390000058601659,-0.004999999877891834,-0.05799999875029794
0,0,9.988609313964844,0,0,0.009800000116229057,-0.07799999992939192,-0.004999999877891834,0.06299999737754478
0,0,9.988609313964844,0,0,0.009800000116229057,0.10400000212922476,0.05499999823992851,0.0019999999928448997
0,0,9.979032516479492,0,0,0,-0.1390000058601659,-0.004999999877891834,0.12400000330831876
0,0,9.979032516479492,0,0,0.009800000116229057,-0.01700000066872456,-0.004999999877891834,0.06299999737754478
0,0,9.988609313964844,0,0,0.009800000116229057,-0.01700000066872456,0.11599999750059588,0.12400000330831876
0,0,9.988609313964844,0,0,0,0.0429999995335041,-0.18799999640924894,-0.05799999875029794
0,0,9.96945571899414,0,0,0,-0.01700000066872456,0.05499999823992851,-0.05799999875029794
0,0,9.979032516479492,0,0,0.009800000116229057,-0.01700000066872456,-0.004999999877891834,0.0019999999928448997
0,0,9.979032516479492,0,0,0,-0.07799999992939192,-0.004999999877891834,0.12400000330831876
0,0,9.979032516479492,0,0,0,0.10400000212922476,0.11599999750059588,0.06299999737754478
0,0,9.979032516479492,0,0,0,-0.01700000066872456,-0.004999999877891834,0.06299999737754478
0,0,9.979032516479492,0,0,0,0.0429999995335041,-0.004999999877891834,0.06299999737754478
0,0,9.979032516479492,0,0,0,-0.01700000066872456,-0.004999999877891834,-0.05799999875029794
0,0,9.988609313964844,0,0,0,0.0429999995335041,-0.004999999877891834,0.0019999999928448997
0,0,9.988609313964844,0,0,0.009800000116229057,0.16500000138989213,-0.0659999978879142,-0.05799999875029794
0,0,9.988609313964844,0,0,0.019600000232458115,-0.07799999992939192,-0.0659999978879142,0.06299999737754478
0,0,9.988609313964844,0,0,0.009800000116229057,-0.07799999992939192,0.11599999750059588,0.0019999999928448997
0,0,9.988609313964844,0,0,0.009800000116229057,-0.07799999992939192,-0.004999999877891834,-0.05799999875029794
0,0,9.988609313964844,0,0,0.009800000116229057,0.0429999995335041,-0.0659999978879142,-0.1189999980109653
0,0,9.988609313964844,0,0,0.009800000116229057,0.0429999995335041,-0.0659999978879142,-0.05799999875029794
0,0,9.988609313964844,0,0,0,0.0429999995335041,-0.0659999978879142,-0.05799999875029794
0,0,9.998186111450195,0,0,0.019600000232458115,0.0429999995335041,-0.004999999877891834,-0.05799999875029794
0,0,9.998186111450195,0,0,0.019600000232458115,-0.07799999992939192,-0.0659999978879142,-0.05799999875029794
0,0,9.998186111450195,0,0,0.019600000232458115,-0.01700000066872456,-0.004999999877891834,0.0019999999928448997
0,0,9.979032516479492,0,0,0.009800000116229057,-0.07799999992939192,0.05499999823992851,0.06299999737754478
0,0,9.988609313964844,0,0,0.009800000116229057,-0.07799999992939192,-0.0659999978879142,0.0019999999928448997
0,0,9.979032516479492,0,0,0,0.0429999995335041,0.05499999823992851,-0.05799999875029794
0,0,9.988609313964844,0,0,0.009800000116229057,0.0429999995335041,0.05499999823992851,0.0019999999928448997
0,0,9.988609313964844,0,0,0.009800000116229057,-0.07799999992939192,-0.004999999877891834,-0.05799999875029794
0,0,9.988609313964844,0,0,0.009800000116229057,0.2259999939804529,0.05499999823992851,0.06299999737754478
0,0,9.988609313964844,0,0,0.009800000116229057,0.2259999939804529,0.05499999823992851,0.06299999737754478
0,0,9.988609313964844,0,0,0,0.0429999995335041,0.05499999823992851,0.12400000330831876
0,0,9.988609313964844,0,0,0,0.0429999995335041,-0.12700000381868817,-0.05799999875029794
0,0,9.988609313964844,0,0,0,-0.07799999992939192,-0.004999999877891834,0.06299999737754478
0,0,9.988609313964844,0,0,0,-0.07799999992939192,0.05499999823992851,-0.05799999875029794
0,0,9.988609313964844,0,0,0,0.0429999995335041,-0.004999999877891834,-0.05799999875029794
0,0,9.988609313964844,0,0,0,-0.07799999992939192,-0.004999999877891834,0.0019999999928448997
0,0,9.988609313964844,0,0,0,-0.19999999845072666,-0.0659999978879142,0.06299999737754478
0,0,9.988609313964844,0,0,0,-0.07799999992939192,0.05499999823992851,0.0019999999928448997
0,0,9.988609313964844,0,0,0,0.10400000212922476,-0.004999999877891834,0.0019999999928448997
0,0,9.988609313964844,0,0,0,-0.01700000066872456,-0.004999999877891834,-0.05799999875029794
0,0,9.998186111450195,0,0,0,0.0429999995335041,-0.004999999877891834,0.06299999737754478
0,0,9.988609313964844,0,0,0,-0.07799999992939192,0.05499999823992851,0.0019999999928448997
0,0,9.988609313964844,0,0,0,0.0429999995335041,-0.0659999978879142,0.0019999999928448997
0,0,9.988609313964844,0,0,0,0.0429999995335041,-0.0659999978879142,-0.05799999875029794
0,0,9.979032516479492,0,0,-0.009800000116229057,-0.01700000066872456,-0.0659999978879142,0.12400000330831876
0,0,9.979032516479492,0,0,-0.009800000116229057,-0.01700000066872456,-0.0659999978879142,0.12400000330831876
0,0,9.979032516479492,0,0,0.009800000116229057,0.16500000138989213,0.05499999823992851,-0.1189999980109653
0,0,9.998186111450195,0,0,0,0.0429999995335041,-0.004999999877891834,0.0019999999928448997
0,0,9.988609313964844,0,0,0,0.10400000212922476,-0.0659999978879142,0.0019999999928448997
0,0,9.988609313964844,0,0,0,0.10400000212922476,-0.0659999978879142,0.06299999737754478
0,0,9.988609313964844,0,0,0,0.0429999995335041,-0.004999999877891834,0.0019999999928448997
0,0,9.988609313964844,0,0,0,0.10400000212922476,-0.004999999877891834,0.06299999737754478
0,0,9.988609313964844,0,0,0,0.0429999995335041,-0.004999999877891834,0.0019999999928448997
0,0,9.988609313964844,0,0,0,0.10400000212922476,0.05499999823992851,0.12400000330831876
0,0,9.988609313964844,0,0,0,-0.01700000066872456,0.05499999823992851,0.0019999999928448997
0,0,9.988609313964844,0,0,0,0.0429999995335041,0.11599999750059588,0.0019999999928448997
0,0,9.988609313964844,0,0,0,-0.01700000066872456,-0.004999999877891834,0.0019999999928448997
0,0,9.988609313964844,0,0,0,-0.01700000066872456,-0.004999999877891834,0.06299999737754478
0,0,9.96945571899414,0,0,-0.019600000232458115,0.0429999995335041,-0.004999999877891834,-0.05799999875029794
0,0,9.988609313964844,0,0,0,0.0429999995335041,-0.0659999978879142,-0.05799999875029794
0,0,9.988609313964844,0,0,0,-0.01700000066872456,-0.004999999877891834,0.0019999999928448997
0,0,9.988609313964844,0,0,0,0.0429999995335041,-0.0659999978879142,0.06299999737754478
0,0,9.988609313964844,0,0,0,-0.07799999992939192,-0.0659999978879142,0.0019999999928448997
0,0,9.988609313964844,0,0,0,0.10400000212922476,-0.004999999877891834,-0.1189999980109653
0,0,9.998186111450195,0,0,0.009800000116229057,-0.07799999992939192,-0.004999999877891834,-0.05799999875029794
0,0,9.998186111450195,0,0,0.009800000116229057,-0.1390000058601659,-0.0659999978879142,0.06299999737754478
