Accelerometer_Gx,Accelerometer_Gy,Accelerometer_Gz,Accelerometer_X,Accelerometer_Y,Accelerometer_Z,Gyroscope_Z,Gyroscope_X,Gyroscope_Y
-0.04858314245939255,0.06469132751226425,9.70801830291748,-0.00559999980032444,-0.006599999964237213,-0.09779999405145645,-0.0039999999856897995,-0.0009999999964224499,-0.007999999971379599
-0.044062890112400055,0.05566997826099396,9.732583045959473,0.010199999436736107,-0.011599999852478504,-0.07819999754428864,-0.010999999647985701,0.006000000186975531,0.04600000004387353
-0.061885327100753784,0.055631671100854874,9.727287292480469,-0.007199999876320362,-0.009200000204145908,-0.08799999952316284,-0.010999999647985701,0.006000000186975531,-0.01400000015835513
-0.05616797134280205,0.05588066950440407,9.73019790649414,0.001999999862164259,-0.007199999876320362,-0.07819999754428864,-0.010999999647985701,0.06700000028140622,-0.01400000015835513
-0.05152321979403496,0.06038176640868187,9.723380088806152,0.0017999999690800905,0.0018999999156221747,-0.08799999952316284,-0.012000000373951061,0.006000000186975531,-0.01400000015835513
-0.05543055757880211,0.06674076616764069,9.713890075683594,0.001500000013038516,0.001500000013038516,-0.09779999405145645,-0.07199999890865307,0.004999999877891834,0.04600000004387353
-0.06592673808336258,0.054683566093444824,9.730246543884277,-0.006199999712407589,-0.006300000008195639,-0.07819999754428864,0.04900000055424296,0.0659999978879142,-0.0749999994190225
-0.05360138788819313,0.054587800055742264,9.731988906860352,0.002899999963119626,-0.004999999888241291,-0.07819999754428864,-0.010999999647985701,0.004999999877891834,0.04600000004387353
-0.04677312448620796,0.06512228399515152,9.73397159576416,0.009999999776482582,0.003599999938160181,-0.07819999754428864,-0.010999999647985701,0.004999999877891834,-0.01400000015835513
-0.056675542145967484,0.06339845806360245,9.72900104522705,0.00019999999494757503,0.003599999938160181,-0.08799999952316284,-0.010999999647985701,0.0659999978879142,-0.01400000015835513
-0.04955997318029404,0.06045838072896004,9.743855476379395,0.00039999998989515007,0.003599999938160181,-0.06839999556541443,0.04900000055424296,-0.05499999823992851,0.04600000004387353
-0.06284300982952118,0.06356126815080643,9.746756553649902,-0.009499999694526196,0.003499999875202775,-0.06839999556541443,-0.010999999647985701,-0.05499999823992851,-0.01400000015835513
-0.052030790597200394,0.07064810395240784,9.735637664794922,0.00009999999747378752,0.013299999758601189,-0.07819999754428864,-0.07199999890865307,0.004999999877891834,-0.01400000015835513
-0.04758715257048607,0.0667024627327919,9.735925674438477,0.00989999994635582,0.003700000001117587,-0.07819999754428864,-0.010999999647985701,0.004999999877891834,-0.01400000015835513
-0.06402094662189484,0.06324522942304611,9.751487731933594,-0.009599999524652958,0.003700000001117587,-0.05859999731183052,0.04900000055424296,-0.05499999823992851,-0.0749999994190225
-0.07234320044517517,0.05286397039890289,9.742274284362793,-0.019500000402331352,-0.006099999882280827,-0.06839999556541443,-0.07199999890865307,0.004999999877891834,0.04600000004387353
-0.06205770745873451,0.05348646640777588,9.744304656982422,-0.00969999935477972,-0.0058999997563660145,-0.06839999556541443,-0.010999999647985701,0.004999999877891834,-0.01400000015835513
-0.05825571343302727,0.05421430245041847,9.758966445922852,-0.00969999935477972,-0.0058999997563660145,-0.04879999905824661,0.04900000055424296,0.0659999978879142,-0.01400000015835513
-0.05103480443358421,0.06519889831542969,9.744640350341797,0.00019999999494757503,0.003700000001117587,-0.06839999556541443,0.04900000055424296,0.004999999877891834,-0.01400000015835513
-0.054185573011636734,0.06462428718805313,9.732640266418457,0.00019999999494757503,0.003599999938160181,-0.07819999754428864,-0.010999999647985701,0.0659999978879142,-0.01400000015835513
-0.05748957023024559,0.05422388017177582,9.745607376098633,-0.00930000003427267,-0.006099999882280827,-0.06839999556541443,0.04900000055424296,0.004999999877891834,-0.01400000015835513
-0.0536780022084713,0.06320692598819733,9.750885009765625,0.00039999998989515007,0.003499999875202775,-0.05859999731183052,-0.07199999890865307,0.004999999877891834,-0.01400000015835513
-0.06083187833428383,0.07728482782840729,9.75223445892334,-0.009200000204145908,0.02319999970495701,-0.05859999731183052,0.04900000055424296,0.0659999978879142,0.046999999102312236
-0.05675215646624565,0.06334099918603897,9.739679336547852,0.000699999975040555,0.003399999812245369,-0.06839999556541443,-0.010999999647985701,0.004999999877891834,-0.013000000266153095
-0.060487110167741776,0.06534255295991898,9.743185043334961,-0.018799999728798866,0.003499999875202775,-0.07819999754428864,0.04900000055424296,0.0659999978879142,0.04600000004387353
-0.04630386084318161,0.0692020058631897,9.76064395904541,-0.008799999952316284,0.0032999999821186066,-0.06839999556541443,0.04900000055424296,0.004999999877891834,0.04600000004387353
-0.06021896004676819,0.06294835358858109,9.756065368652344,0.010900000110268593,0.013100000098347664,-0.04879999905824661,-0.010999999647985701,0.004999999877891834,-0.01400000015835513
-0.053802501410245895,0.06607038527727127,9.756832122802734,0.0010999999940395355,0.0031999999191612005,-0.05859999731183052,-0.010999999647985701,0.004999999877891834,-0.01400000015835513
-0.0554497092962265,0.0592421256005764,9.758966445922852,0.0010999999940395355,0.0031999999191612005,-0.04879999905824661,-0.010999999647985701,0.0659999978879142,-0.0749999994190225
-0.0618470199406147,0.06626192480325699,9.754475593566895,-0.00839999970048666,0.0031999999191612005,-0.05859999731183052,0.04900000055424296,0.004999999877891834,-0.013000000266153095
-0.054108958691358566,0.06551493704319,9.767346382141113,0.0013000000035390258,0.0030999998562037945,-0.04879999905824661,0.04900000055424296,0.004999999877891834,-0.013000000266153095
-0.06236416473984718,0.06533297896385193,9.761811256408691,-0.008299999870359898,0.002899999963119626,-0.04879999905824661,0.04900000055424296,0.0659999978879142,0.046999999102312236
-0.057451263070106506,0.06475836783647537,9.763592720031738,0.0015999999595806003,0.00279999990016222,-0.04879999905824661,-0.010999999647985701,0.004999999877891834,-0.07399999702553048
-0.05397488549351692,0.06914454698562622,9.756065368652344,0.0015999999595806003,0.012600000016391277,-0.05859999731183052,-0.010999999647985701,-0.05499999823992851,-0.01400000015835513
-0.05575616657733917,0.05197333171963692,9.762251853942871,0.00139999995008111,-0.006899999920278788,-0.04879999905824661,0.04900000055424296,0.0659999978879142,-0.013000000266153095
-0.06711426377296448,0.0623258575797081,9.760767936706543,-0.017799999564886093,0.002699999837204814,-0.04879999905824661,-0.010999999647985701,0.004999999877891834,-0.013000000266153095
-0.06571605056524277,0.0725155770778656,9.752636909484863,-0.007999999448657036,0.012399999424815178,-0.05859999731183052,-0.010999999647985701,0.004999999877891834,-0.013000000266153095
-0.05516240745782852,0.07948749512434006,9.763468742370605,0.0016999999061226845,0.022199999541044235,-0.04879999905824661,0.04900000055424296,0.0659999978879142,-0.013000000266153095
-0.054894257336854935,0.06848374009132385,9.762136459350586,0.0018999999156221747,0.012199999764561653,-0.04879999905824661,0.04900000055424296,0.0659999978879142,-0.013000000266153095
-0.04617936164140701,0.08262868970632553,9.749831199645996,0.011899999342858791,0.021699998527765274,-0.05859999731183052,-0.010999999647985701,0.004999999877891834,-0.013000000266153095
-0.052547939121723175,0.058782439678907394,9.773754119873047,0.002099999925121665,0.002099999925121665,-0.039000000804662704,0.04900000055424296,0.0659999978879142,-0.013000000266153095
-0.055507171899080276,0.06002742424607277,9.757128715515137,0.002199999988079071,0.001999999862164259,-0.05859999731183052,-0.010999999647985701,0.0659999978879142,-0.013000000266153095
-0.06488286703824997,0.05796841159462929,9.77900218963623,-0.007199999876320362,0.001999999862164259,-0.029199998825788498,-0.010999999647985701,0.004999999877891834,-0.013000000266153095
-0.05956773832440376,0.06223009154200554,9.766905784606934,-0.007199999876320362,0.001999999862164259,-0.04879999905824661,-0.010999999647985701,0.0659999978879142,-0.013000000266153095
-0.05960604548454285,0.0529693178832531,9.762893676757812,0.002699999837204814,-0.017400000244379044,-0.04879999905824661,-0.010999999647985701,0.004999999877891834,-0.013000000266153095
-0.06070737913250923,0.05932832136750221,9.761754035949707,-0.00699999975040555,-0.007499999832361937,-0.04879999905824661,-0.010999999647985701,0.004999999877891834,-0.013000000266153095
-0.06273765861988068,0.05305550992488861,9.770622253417969,-0.006899999920278788,0.002199999988079071,-0.04879999905824661,-0.010999999647985701,0.004999999877891834,0.04600000004387353
-0.05538267642259598,0.05822698771953583,9.758928298950195,-0.0064999996684491634,-0.007400000002235174,-0.039000000804662704,-0.010999999647985701,0.004999999877891834,-0.07399999702553048
-0.057211846113204956,0.06152140721678734,9.771225929260254,0.0031999999191612005,0.002300000051036477,-0.04879999905824661,-0.010999999647985701,0.004999999877891834,0.046999999102312236
-0.06479667872190475,0.05149449035525322,9.756467819213867,-0.0064999996684491634,-0.0072999997064471245,-0.05859999731183052,-0.010999999647985701,0.0659999978879142,-0.013000000266153095
-0.05573701485991478,0.058610059320926666,9.771742820739746,0.003399999812245369,0.0023999998811632395,-0.039000000804662704,-0.010999999647985701,0.004999999877891834,-0.013000000266153095
-0.05637866258621216,0.05851428955793381,9.772709846496582,0.003399999812245369,0.0023999998811632395,-0.039000000804662704,0.04900000055424296,0.004999999877891834,-0.013000000266153095
-0.060697801411151886,0.07748594880104065,9.760872840881348,-0.006300000008195639,0.021800000220537186,-0.04879999905824661,-0.07199999890865307,0.0659999978879142,-0.013000000266153095
-0.05661807954311371,0.06035303324460983,9.768515586853027,0.003599999938160181,0.002300000051036477,-0.039000000804662704,0.04900000055424296,0.0659999978879142,0.046999999102312236
-0.0640975683927536,0.0591176301240921,9.777833938598633,-0.0058999997563660145,0.002199999988079071,-0.039000000804662704,-0.010999999647985701,0.004999999877891834,-0.013000000266153095
-0.05292143300175667,0.0697861909866333,9.774721145629883,0.0037999998312443495,0.011899999342858791,-0.039000000804662704,-0.010999999647985701,0.0659999978879142,-0.013000000266153095
-0.05725972726941109,0.0712227076292038,9.790446281433105,0.0038999998942017555,0.011799999512732029,-0.01939999870955944,-0.010999999647985701,0.0659999978879142,-0.013000000266153095
-0.07220911979675293,0.06772717833518982,9.772096633911133,-0.01529999915510416,0.011699999682605267,-0.039000000804662704,0.04900000055424296,0.0659999978879142,-0.013000000266153095
-0.061952363699674606,0.06381026655435562,9.775918006896973,-0.005200000014156103,0.0016999999061226845,-0.039000000804662704,-0.07199999890865307,0.004999999877891834,-0.013000000266153095
-0.06401137262582779,0.05761406943202019,9.777336120605469,-0.005200000014156103,0.0018999999156221747,-0.039000000804662704,-0.010999999647985701,0.004999999877891834,-0.013000000266153095
-0.05502833053469658,0.05517198517918587,9.779892921447754,0.0044999998062849045,-0.007699999958276749,-0.029199998825788498,-0.010999999647985701,0.004999999877891834,-0.013000000266153095
-0.05127422511577606,0.054798487573862076,9.764569282531738,0.0044999998062849045,-0.007599999662488699,-0.04879999905824661,0.04900000055424296,0.004999999877891834,-0.013000000266153095
-0.06443275511264801,0.059941235929727554,9.76912784576416,-0.005200000014156103,0.001999999862164259,-0.039000000804662704,0.04900000055424296,-0.05499999823992851,0.046999999102312236
-0.05384080857038498,0.06404010951519012,9.766005516052246,0.004399999976158142,0.0017999999690800905,-0.04879999905824661,-0.010999999647985701,0.004999999877891834,-0.013000000266153095
-0.053256623446941376,0.04876509681344032,9.760183334350586,0.004299999680370092,-0.007799999788403511,-0.04879999905824661,-0.010999999647985701,-0.05499999823992851,0.046999999102312236
-0.054300494492053986,0.056455276906490326,9.77175235748291,0.004100000020116568,-0.007699999958276749,-0.039000000804662704,-0.010999999647985701,0.004999999877891834,-0.013000000266153095
-0.058284446597099304,0.06254612654447556,9.777900695800781,-0.005499999970197678,0.001999999862164259,-0.039000000804662704,0.04900000055424296,0.004999999877891834,-0.07399999702553048
-0.053448159247636795,0.05867709219455719,9.783637046813965,0.00419999985024333,0.0017999999690800905,-0.029199998825788498,0.04900000055424296,0.0659999978879142,-0.013000000266153095
-0.06584054231643677,0.05815994739532471,9.774759292602539,-0.0052999998442828655,0.011399999260902405,-0.039000000804662704,0.04900000055424296,0.004999999877891834,-0.013000000266153095
-0.057336341589689255,0.06276638805866241,9.775372505187988,-0.005200000014156103,0.00139999995008111,-0.039000000804662704,-0.010999999647985701,0.004999999877891834,-0.013000000266153095
-0.07052360475063324,0.062498241662979126,9.785055160522461,-0.014800000004470348,0.0013000000035390258,-0.029199998825788498,-0.010999999647985701,0.004999999877891834,0.046999999102312236
-0.06540001928806305,0.051858410239219666,9.780658721923828,-0.004900000058114529,-0.008299999870359898,-0.029199998825788498,-0.010999999647985701,0.004999999877891834,-0.07399999702553048
-0.051006071269512177,0.060985106974840164,9.761343002319336,0.004699999932199717,0.00139999995008111,-0.04879999905824661,0.04900000055424296,0.004999999877891834,-0.013000000266153095
-0.05920381844043732,0.0646817535161972,9.773820877075195,0.004699999932199717,0.00139999995008111,-0.04879999905824661,-0.010999999647985701,-0.05499999823992851,-0.013000000266153095
-0.05337154492735863,0.06042007356882095,9.777200698852539,-0.004900000058114529,0.0013000000035390258,-0.039000000804662704,-0.010999999647985701,0.004999999877891834,-0.013000000266153095
-0.0569915771484375,0.045317452400922775,9.779231071472168,0.004600000102072954,-0.017899999395012856,-0.029199998825788498,0.04900000055424296,-0.05499999823992851,-0.013000000266153095
-0.056244585663080215,0.057882219552993774,9.785867691040039,0.004299999680370092,0.00139999995008111,-0.029199998825788498,0.04900000055424296,0.004999999877891834,-0.013000000266153095
-0.07419151812791824,0.066721610724926,9.773159980773926,-0.014999999664723873,0.0013000000035390258,-0.039000000804662704,-0.010999999647985701,-0.05499999823992851,-0.013000000266153095
-0.05167644843459129,0.06311115622520447,9.787190437316895,0.004299999680370092,0.0013000000035390258,-0.029199998825788498,-0.010999999647985701,0.004999999877891834,-0.013000000266153095
-0.05632119998335838,0.06116706505417824,9.766493797302246,0.004299999680370092,0.0013000000035390258,-0.04879999905824661,0.04900000055424296,0.004999999877891834,-0.07399999702553048
-0.04625597596168518,0.06398265063762665,9.782296180725098,0.013899999670684338,0.0011999999405816197,-0.029199998825788498,-0.010999999647985701,0.0659999978879142,-0.013000000266153095
-0.050939034670591354,0.06336015462875366,9.777460098266602,0.00419999985024333,0.0011999999405816197,-0.039000000804662704,-0.07199999890865307,0.004999999877891834,-0.013000000266153095
-0.05860047787427902,0.05957731604576111,9.778571128845215,-0.005399999674409628,0.0013000000035390258,-0.029199998825788498,-0.010999999647985701,0.004999999877891834,-0.07399999702553048
-0.04996220022439957,0.06256527453660965,9.774970054626465,0.004299999680370092,0.00139999995008111,-0.039000000804662704,-0.010999999647985701,0.0659999978879142,-0.013000000266153095
-0.06469132751226425,0.05359181389212608,9.76989459991455,-0.005200000014156103,-0.008200000040233135,-0.039000000804662704,-0.010999999647985701,0.004999999877891834,0.046999999102312236
-0.06404968351125717,0.05992208048701286,9.772144317626953,-0.0050999997183680534,0.001500000013038516,-0.039000000804662704,0.04900000055424296,0.004999999877891834,-0.013000000266153095
-0.04783615097403526,0.06701849400997162,9.779165267944336,0.0142000000923872,0.0013000000035390258,-0.029199998825788498,-0.009999999755783667,0.004999999877891834,-0.013000000266153095
-0.05694369599223137,0.07232404500246048,9.787726402282715,0.004299999680370092,0.010900000110268593,-0.019299998879432678,-0.010999999647985701,0.004999999877891834,-0.013000000266153095
-0.06426995247602463,0.07173028588294983,9.78761100769043,-0.005200000014156103,0.0010999999940395355,-0.019299998879432678,-0.010999999647985701,0.0659999978879142,-0.07399999702553048
-0.06254612654447556,0.06855078041553497,9.783943176269531,-0.004999999888241291,0.010900000110268593,-0.019299998879432678,0.04900000055424296,0.004999999877891834,-0.07399999702553048
-0.055267754942178726,0.06271850317716599,9.787898063659668,-0.004699999932199717,0.010799999348819256,-0.029199998825788498,-0.010999999647985701,0.004999999877891834,-0.07399999702553048
-0.043612778186798096,0.05428134277462959,9.785820007324219,0.004900000058114529,0.0007999999797903001,-0.019299998879432678,0.04900000055424296,0.004999999877891834,-0.07399999702553048
-0.043612778186798096,0.05428134277462959,9.785820007324219,0.014499999582767487,-0.008700000122189522,-0.029199998825788498,0.04900000055424296,0.004999999877891834,-0.07399999702553048
-0.06312073767185211,0.07051403075456619,9.77600383758545,-0.004900000058114529,0.0007999999797903001,-0.029199998825788498,-0.010999999647985701,0.0659999978879142,-0.013000000266153095
-0.06312073767185211,0.07051403075456619,9.77600383758545,-0.004799999762326479,0.010499999858438969,-0.039000000804662704,-0.010999999647985701,0.0659999978879142,-0.013000000266153095
-0.0449056476354599,0.06856035441160202,9.776876449584961,0.014499999582767487,0.010499999858438969,-0.039000000804662704,0.04900000055424296,0.004999999877891834,-0.013000000266153095
-0.0449056476354599,0.06856035441160202,9.776876449584961,0.014499999582767487,0.010499999858438969,-0.039000000804662704,0.04900000055424296,0.004999999877891834,-0.013000000266153095
-0.06692273169755936,0.0709928646683693,9.778886795043945,-0.004799999762326479,0.009800000116229057,-0.029099998995661736,0.10999999647985702,0.0659999978879142,-0.013000000266153095
-0.06135860085487366,0.06789956241846085,9.775056838989258,-0.004799999762326479,0.009800000116229057,-0.029099998995661736,0.10999999647985702,0.0659999978879142,-0.013000000266153095
-0.055890243500471115,0.06425079703330994,9.77094841003418,-0.004600000102072954,0.009399999864399433,-0.039000000804662704,-0.010999999647985701,0.004999999877891834,-0.013000000266153095
-0.059586890041828156,0.06551493704319,9.766342163085938,0.0050999997183680534,-0.00029999998514540493,-0.039000000804662704,0.04900000055424296,0.004999999877891834,-0.013000000266153095
-0.048142608255147934,0.07446924597024918,9.754179000854492,-0.004399999976158142,-0.00019999999494757503,-0.04879999905824661,0.04900000055424296,0.004999999877891834,-0.013000000266153095
-0.05860047787427902,0.06852205097675323,9.749524116516113,-0.004399999976158142,0.008999999612569809,-0.05859999731183052,0.04900000055424296,0.004999999877891834,-0.013000000266153095
-0.058801595121622086,0.06227797269821167,9.734987258911133,-0.004299999680370092,-0.0007999999797903001,-0.07819999754428864,-0.010999999647985701,0.004999999877891834,0.046999999102312236
-0.05047934874892235,0.062172628939151764,9.720381736755371,0.005399999674409628,-0.0007999999797903001,-0.09779999405145645,-0.010999999647985701,0.004999999877891834,-0.07399999702553048
-0.059088896960020065,0.05893566831946373,9.714128494262695,-0.004299999680370092,-0.000699999975040555,-0.09779999405145645,0.04900000055424296,0.004999999877891834,-0.013000000266153095
-0.05340985208749771,0.062239665538072586,9.739171981811523,0.005399999674409628,-0.0008999999845400453,-0.07819999754428864,-0.07199999890865307,-0.05499999823992851,-0.013000000266153095
-0.054137688130140305,0.06515101343393326,9.765843391418457,0.005200000014156103,-0.000699999975040555,-0.04879999905824661,-0.07199999890865307,0.0659999978879142,-0.013000000266153095
-0.07821378111839294,0.06364745646715164,9.77561092376709,-0.02369999885559082,-0.0004999999655410647,-0.03889999911189079,0.04900000055424296,0.0659999978879142,-0.013000000266153095
-0.060247693210840225,0.04950251430273056,9.801986694335938,-0.0037999998312443495,-0.010199999436736107,-0.009499999694526196,-0.010999999647985701,0.004999999877891834,0.046999999102312236
-0.0714525505900383,0.0595964714884758,9.7860689163208,-0.013399999588727951,-0.00029999998514540493,-0.029099998995661736,-0.010999999647985701,-0.05499999823992851,-0.013000000266153095
-0.05083369091153145,0.06080314517021179,9.774998664855957,0.0058999997563660145,-0.00029999998514540493,-0.03889999911189079,0.04900000055424296,0.004999999877891834,0.046999999102312236
-0.06155013665556908,0.06903920322656631,9.775965690612793,-0.0037999998312443495,0.009200000204145908,-0.03889999911189079,-0.010999999647985701,-0.05499999823992851,-0.07399999702553048
-0.05525817349553108,0.058638785034418106,9.778206825256348,0.005699999630451202,-0.0004999999655410647,-0.029099998995661736,-0.010999999647985701,0.004999999877891834,-0.013000000266153095
-0.05641696974635124,0.05895482376217842,9.778532028198242,0.00559999980032444,-0.0004999999655410647,-0.029099998995661736,-0.010999999647985701,0.004999999877891834,-0.013000000266153095
-0.05326620116829872,0.05680004134774208,9.778647422790527,0.00559999980032444,-0.010099999606609344,-0.029099998995661736,0.04900000055424296,-0.05499999823992851,-0.013000000266153095
-0.060937222093343735,0.060985106974840164,9.765584945678711,-0.00419999985024333,-0.00039999998989515007,-0.04879999905824661,0.04900000055424296,0.004999999877891834,-0.013000000266153095
-0.06333142518997192,0.07435432076454163,9.774759292602539,-0.00419999985024333,0.008999999612569809,-0.03889999911189079,-0.010999999647985701,0.0659999978879142,-0.013000000266153095
-0.05978800728917122,0.0667024627327919,9.774328231811523,-0.0038999998942017555,-0.0005999999702908099,-0.03889999911189079,-0.010999999647985701,0.004999999877891834,-0.013000000266153095
-0.05028781294822693,0.06561069935560226,9.776549339294434,0.005699999630451202,-0.0005999999702908099,-0.03889999911189079,0.04900000055424296,0.12700000381868817,-0.013000000266153095
-0.06584054231643677,0.06336972862482071,9.770344734191895,-0.003599999938160181,-0.010400000028312206,-0.029099998995661736,-0.009999999755783667,0.004999999877891834,-0.013000000266153095
-0.0735786035656929,0.06260358542203903,9.784153938293457,-0.003499999875202775,-0.0005999999702908099,-0.03889999911189079,-0.010999999647985701,-0.05499999823992851,0.046999999102312236
-0.06841670721769333,0.06325481086969376,9.766264915466309,-0.013299999758601189,-0.0004999999655410647,-0.029099998995661736,0.04900000055424296,0.0659999978879142,-0.07399999702553048
-0.06095637381076813,0.05407065153121948,9.767366409301758,-0.012999999336898327,-0.0005999999702908099,-0.04879999905824661,-0.010999999647985701,0.004999999877891834,0.046999999102312236
-0.05253836140036583,0.05948155000805855,9.762654304504395,0.0066999997943639755,-0.0005999999702908099,-0.0486999973654747,0.04900000055424296,0.004999999877891834,-0.013000000266153095
-0.06225882098078728,0.06290046870708466,9.780495643615723,0.0066999997943639755,-0.0005999999702908099,-0.0486999973654747,-0.010999999647985701,0.004999999877891834,0.046999999102312236
-0.04498226195573807,0.05680961534380913,9.767605781555176,0.01640000008046627,-0.010400000028312206,-0.0486999973654747,-0.009999999755783667,0.0659999978879142,0.046999999102312236
-0.061387334018945694,0.07542693614959717,9.782841682434082,-0.002899999963119626,0.008999999612569809,-0.029099998995661736,-0.010999999647985701,0.004999999877891834,-0.013000000266153095
-0.056484006345272064,0.056886233389377594,9.76917552947998,0.006799999624490738,-0.010400000028312206,-0.03889999911189079,-0.010999999647985701,0.0659999978879142,-0.013000000266153095
-0.056790463626384735,0.05747999623417854,9.768218994140625,0.006899999920278788,-0.0005999999702908099,-0.0486999973654747,0.04900000055424296,0.004999999877891834,0.046999999102312236
-0.058523863554000854,0.05521029233932495,9.766016006469727,-0.00279999990016222,-0.010400000028312206,-0.0486999973654747,0.04900000055424296,-0.05499999823992851,-0.013000000266153095
-0.05466441437602043,0.06000826880335808,9.773859024047852,0.0066999997943639755,-0.000699999975040555,-0.03889999911189079,0.049999999612681666,0.004999999877891834,0.046999999102312236
-0.0550953708589077,0.05143703147768974,9.765632629394531,0.006599999964237213,-0.010599999688565731,-0.0486999973654747,-0.010999999647985701,0.0659999978879142,-0.013000000266153095
-0.04861186817288399,0.05870582535862923,9.756726264953613,0.006799999624490738,-0.000699999975040555,-0.05859999731183052,-0.010999999647985701,-0.05499999823992851,0.046999999102312236
-0.056436121463775635,0.06298665702342987,9.776138305664062,0.0064999996684491634,-0.000699999975040555,-0.03889999911189079,0.04900000055424296,0.004999999877891834,-0.013000000266153095
-0.052452173084020615,0.07248684763908386,9.766082763671875,0.0064999996684491634,0.008799999952316284,-0.0486999973654747,0.04900000055424296,-0.05499999823992851,-0.07399999702553048
-0.05758533999323845,0.056407392024993896,9.763525009155273,-0.0032999999821186066,-0.010699999518692493,-0.0486999973654747,-0.009999999755783667,0.0039999999856897995,-0.07399999702553048
-0.057690683752298355,0.07568550109863281,9.773706436157227,-0.0032999999821186066,0.008700000122189522,-0.03889999911189079,-0.009999999755783667,0.0039999999856897995,-0.013000000266153095
-0.05241386592388153,0.055679552257061005,9.77180004119873,0.006399999838322401,-0.010699999518692493,-0.03889999911189079,-0.009999999755783667,0.0659999978879142,0.046999999102312236
-0.05604347214102745,0.05988377332687378,9.768716812133789,0.0064999996684491634,-0.0007999999797903001,-0.03889999911189079,0.049999999612681666,0.0659999978879142,0.046999999102312236
-0.05246174708008766,0.05976885184645653,9.764349937438965,0.006599999964237213,-0.0009999999310821295,-0.0486999973654747,-0.010999999647985701,0.004999999877891834,0.046999999102312236
-0.053639695048332214,0.06814856082201004,9.752531051635742,0.0064999996684491634,0.008700000122189522,-0.05859999731183052,0.10999999647985702,0.004999999877891834,-0.07399999702553048
-0.05477933585643768,0.054424989968538284,9.763554573059082,0.0064999996684491634,-0.010999999940395355,-0.0486999973654747,0.04900000055424296,0.004999999877891834,0.046999999102312236
-0.06282385438680649,0.0733296126127243,9.767826080322266,-0.0031999999191612005,0.008299999870359898,-0.0486999973654747,0.04900000055424296,0.004999999877891834,-0.013000000266153095
-0.0639922246336937,0.05133168399333954,9.767021179199219,0.0064999996684491634,-0.01119999960064888,-0.0486999973654747,-0.009999999755783667,0.004999999877891834,-0.013000000266153095
-0.055890243500471115,0.05787264183163643,9.753786087036133,0.0064999996684491634,-0.00139999995008111,-0.05859999731183052,-0.010999999647985701,0.004999999877891834,-0.013000000266153095
-0.057451263070106506,0.056148819625377655,9.765584945678711,0.0064999996684491634,-0.00139999995008111,-0.05859999731183052,0.04900000055424296,0.004999999877891834,-0.013000000266153095
-0.04729027301073074,0.054089806973934174,9.756361961364746,0.006399999838322401,-0.011099999770522118,-0.0486999973654747,-0.009999999755783667,0.004999999877891834,0.046999999102312236
-0.06838797777891159,0.05760449171066284,9.754839897155762,-0.013100000098347664,-0.0013000000035390258,-0.05859999731183052,-0.009999999755783667,-0.05600000063342052,-0.013000000266153095
-0.06182786449790001,0.06562028080224991,9.759378433227539,-0.013100000098347664,-0.0013000000035390258,-0.05859999731183052,-0.009999999755783667,0.0039999999856897995,0.046999999102312236
-0.06281428039073944,0.062096014618873596,9.748682022094727,-0.003399999812245369,-0.0011999999405816197,-0.06839999556541443,-0.009999999755783667,0.0039999999856897995,-0.013000000266153095
-0.06266104429960251,0.05872498080134392,9.755385398864746,-0.0032999999821186066,-0.0010999999940395355,-0.05859999731183052,-0.009999999755783667,0.0659999978879142,0.046999999102312236
-0.056742578744888306,0.06115749105811119,9.760978698730469,0.0064999996684491634,-0.0010999999940395355,-0.0486999973654747,-0.009999999755783667,0.0039999999856897995,-0.013000000266153095
-0.07043741643428802,0.05348646640777588,9.754111289978027,-0.012899999506771564,-0.010799999348819256,-0.05859999731183052,0.049999999612681666,0.06500000216452881,-0.013000000266153095
-0.04842991381883621,0.06242162734270096,9.76668643951416,0.006799999624490738,-0.0010999999940395355,-0.0486999973654747,0.049999999612681666,0.0039999999856897995,-0.013000000266153095
-0.0645764097571373,0.06558196991682053,9.765297889709473,-0.002899999963119626,-0.0011999999405816197,-0.0486999973654747,0.049999999612681666,0.0039999999856897995,0.046999999102312236
-0.06080314517021179,0.06411672383546829,9.76486587524414,-0.002899999963119626,-0.0013000000035390258,-0.0486999973654747,0.049999999612681666,-0.05600000063342052,-0.013000000266153095
-0.05760449171066284,0.05751830339431763,9.759292602539062,-0.003000000026077032,-0.001500000013038516,-0.0486999973654747,-0.009999999755783667,0.0039999999856897995,-0.07399999702553048
-0.05844724923372269,0.05481764301657677,9.772432327270508,-0.002899999963119626,-0.011099999770522118,-0.03889999911189079,-0.009999999755783667,0.0039999999856897995,-0.013000000266153095
-0.06111918389797211,0.058638785034418106,9.755212783813477,-0.002899999963119626,-0.0011999999405816197,-0.05859999731183052,0.049999999612681666,0.0039999999856897995,-0.013000000266153095
-0.06189490109682083,0.05748957023024559,9.753718376159668,-0.00279999990016222,-0.0013000000035390258,-0.05859999731183052,-0.07099999651516105,0.0039999999856897995,0.046999999102312236
-0.05824613943696022,0.056953269988298416,9.745942115783691,-0.00279999990016222,-0.010900000110268593,-0.06839999556541443,-0.009999999755783667,0.0039999999856897995,0.046999999102312236
-0.05723099783062935,0.07164409011602402,9.749926567077637,0.006899999920278788,0.008599999360740185,-0.05859999731183052,-0.009999999755783667,0.0039999999856897995,-0.013000000266153095
-0.05315127968788147,0.06365703791379929,9.75615119934082,0.006799999624490738,-0.0010999999940395355,-0.05859999731183052,-0.009999999755783667,0.06500000216452881,-0.013000000266153095
-0.06378152966499329,0.07041826099157333,9.763411521911621,-0.002699999837204814,0.008499999530613422,-0.0486999973654747,0.049999999612681666,0.0039999999856897995,-0.013000000266153095
-0.07130890339612961,0.06556282192468643,9.765451431274414,0.00699999975040555,-0.0013000000035390258,-0.05859999731183052,0.049999999612681666,0.06500000216452881,-0.07399999702553048
-0.058686673641204834,0.052787356078624725,9.757655143737793,-0.0023999998811632395,-0.01119999960064888,-0.05849999934434891,-0.009999999755783667,0.0039999999856897995,-0.07399999702553048
-0.05999869480729103,0.053304508328437805,9.763851165771484,-0.002300000051036477,-0.011099999770522118,-0.0486999973654747,-0.009999999755783667,0.0039999999856897995,-0.013000000266153095
-0.05326620116829872,0.0617225207388401,9.761917114257812,0.0072999997064471245,-0.0011999999405816197,-0.0486999973654747,-0.07099999651516105,0.0039999999856897995,-0.013000000266153095
-0.05706819146871567,0.056953269988298416,9.757128715515137,0.007199999876320362,-0.010699999518692493,-0.05859999731183052,0.049999999612681666,0.0039999999856897995,-0.013000000266153095
-0.04964616894721985,0.0523659773170948,9.7526273727417,0.007199999876320362,-0.010699999518692493,-0.05859999731183052,-0.009999999755783667,0.0039999999856897995,-0.07399999702553048
-0.06354211270809174,0.053515199571847916,9.76695442199707,-0.0024999999441206455,-0.010599999688565731,-0.0486999973654747,-0.009999999755783667,0.0039999999856897995,-0.07399999702553048
-0.058973975479602814,0.06127241253852844,9.759542465209961,-0.0023999998811632395,-0.000699999975040555,-0.0486999973654747,-0.009999999755783667,0.0039999999856897995,-0.013000000266153095
-0.07093541324138641,0.06251739710569382,9.761821746826172,-0.01209999993443489,-0.000699999975040555,-0.0486999973654747,-0.009999999755783667,-0.05600000063342052,-0.013000000266153095
-0.06313031166791916,0.058523863554000854,9.750980377197266,-0.0023999998811632395,-0.000699999975040555,-0.05859999731183052,0.049999999612681666,-0.05600000063342052,-0.013000000266153095
-0.04826710373163223,0.04910028725862503,9.752474784851074,0.0071000000461936,-0.010499999858438969,-0.05859999731183052,-0.009999999755783667,-0.05600000063342052,-0.013000000266153095
-0.06549578160047531,0.054108958691358566,9.76499080657959,-0.002699999837204814,-0.010300000198185444,-0.0486999973654747,0.049999999612681666,-0.05600000063342052,-0.013000000266153095
-0.062335435301065445,0.058543018996715546,9.749591827392578,-0.00279999990016222,-0.000699999975040555,-0.05859999731183052,-0.07099999651516105,0.0039999999856897995,-0.013000000266153095
-0.059280432760715485,0.058590903878211975,9.756036758422852,-0.00279999990016222,-0.0004999999655410647,-0.05859999731183052,-0.009999999755783667,0.06500000216452881,-0.013000000266153095
-0.06418376415967941,0.05611051246523857,9.775535583496094,-0.0026000000070780516,-0.010099999606609344,-0.03889999911189079,0.049999999612681666,0.0039999999856897995,-0.013000000266153095
-0.06418376415967941,0.05611051246523857,9.775535583496094,-0.0026000000070780516,-0.010099999606609344,-0.03889999911189079,0.049999999612681666,0.0039999999856897995,-0.013000000266153095
-0.04977066442370415,0.09483911842107773,9.682055473327637,0.006799999624490738,0.026999998837709427,-0.13699999451637268,0.09999999922536333,-0.18799999640924894,0.05499999823992851
-0.052164867520332336,0.12840582430362701,9.31932544708252,0.0058999997563660145,0.05859999731183052,-0.4899999797344208,-0.3259999932058162,0.23699998695833197,-0.004999999877891834
-0.060372188687324524,0.12385684251785278,9.096558570861816,0.0066999997943639755,0.05159999802708626,-0.7057999968528748,-0.08200000283325337,0.11500000177721047,-0.004999999877891834
-0.060372188687324524,0.12385684251785278,9.096558570861816,-0.00139999995008111,0.05350000038743019,-0.7253999710083008,-0.08200000283325337,0.11500000177721047,-0.004999999877891834
-0.053994037210941315,0.09571061283349991,9.283679962158203,0.008200000040233135,0.022599998861551285,-0.5291999578475952,0.283000003677472,-0.3100000082707969,-0.004999999877891834
-0.0530746653676033,0.025292346253991127,9.949450492858887,0.007599999662488699,-0.016300000250339508,-0.24479998648166656,0.7709999710823845,-0.8600000040102952,-0.004999999877891834
-0.0553252138197422,-0.007412448525428772,10.265695571899414,0.00559999980032444,-0.04699999839067459,0.12770000100135803,0.46600000812958076,-0.7380000188291737,-0.004999999877891834
-0.06092764809727669,-0.018061857670545578,10.410199165344238,0.0032999999821186066,-0.05829999968409538,0.4414999783039093,0.1610000051561373,-0.4930000127229056,-0.004999999877891834
-0.059893347322940826,0.007872135378420353,10.350775718688965,-0.009499999694526196,-0.05889999866485596,0.5297999978065491,-0.14300000209392072,0.0539999991814898,0.05499999823992851
-0.05416642129421234,0.02905603125691414,10.150313377380371,0.00019999999494757503,-0.03610000014305115,0.3335999846458435,-0.5089999976579249,0.4199999914104407,0.05499999823992851
-0.0634942278265953,0.07503427565097809,9.818449020385742,0.00019999999494757503,-0.03610000014305115,0.3335999846458435,-0.26500000061525547,0.23699998695833197,-0.004999999877891834
-0.05931873992085457,0.06811024993658066,9.708832740783691,-0.007400000002235174,0.005399999674409628,-0.10759999603033066,-0.08200000283325337,0.17599999436777122,-0.004999999877891834
-0.06279512494802475,0.06619488447904587,9.717949867248535,-0.006099999882280827,-0.003700000001117587,-0.09779999405145645,-0.021000000237532696,0.0539999991814898,-0.0659999978879142
-0.06213432177901268,0.07647079974412918,9.696219444274902,-0.005200000014156103,0.0052999998442828655,-0.11739999800920486,-0.08200000283325337,0.11500000177721047,-0.004999999877891834
-0.05478890985250473,0.06948930770158768,9.714674949645996,0.00419999985024333,0.004799999762326479,-0.09779999405145645,-0.021000000237532696,-0.006000000186975531,0.05499999823992851
-0.05405149981379509,0.06314946711063385,9.725621223449707,0.003700000001117587,-0.004299999680370092,-0.08799999952316284,-0.021000000237532696,0.0539999991814898,0.05499999823992851
-0.06004657596349716,0.06827305257320404,9.73513126373291,-0.004999999888241291,0.004699999932199717,-0.07819999754428864,0.03899999996469596,-0.006000000186975531,-0.0659999978879142
-0.060132771730422974,0.06596504151821136,9.74526309967041,-0.004399999976158142,-0.0044999998062849045,-0.06830000132322311,-0.021000000237532696,-0.06700000028140622,0.05499999823992851
-0.06366661190986633,0.06075526028871536,9.758143424987793,-0.0038999998942017555,-0.0038999998942017555,-0.05849999934434891,0.03899999996469596,-0.06700000028140622,-0.004999999877891834
-0.06177997961640358,0.05308423936367035,9.754744529724121,-0.003499999875202775,-0.012000000104308128,-0.05859999731183052,0.03899999996469596,-0.006000000186975531,-0.004999999877891834
-0.041151538491249084,0.056292470544576645,9.764924049377441,0.013899999670684338,-0.010499999858438969,-0.04879999905824661,-0.021000000237532696,-0.006000000186975531,-0.0659999978879142
-0.05078580603003502,0.049751508980989456,9.755989074707031,0.003499999875202775,-0.009099999442696571,-0.05859999731183052,0.03899999996469596,-0.006000000186975531,0.05499999823992851
-0.0516572967171669,0.06577350944280624,9.758498191833496,0.003499999875202775,0.0004999999655410647,-0.05859999731183052,0.03899999996469596,-0.006000000186975531,-0.004999999877891834
-0.058303602039813995,0.0714334025979042,9.759753227233887,-0.006199999712407589,0.010199999436736107,-0.04879999905824661,0.03899999996469596,0.0539999991814898,-0.004999999877891834
-0.049847278743982315,0.06740156561136246,9.751880645751953,0.003599999938160181,0.010099999606609344,-0.05859999731183052,0.03899999996469596,-0.06700000028140622,-0.0659999978879142
-0.07468951493501663,0.06060203164815903,9.751574516296387,-0.016099998727440834,0.00019999999494757503,-0.05859999731183052,-0.08100000043976135,-0.006000000186975531,0.05499999823992851
-0.061971515417099,0.0561583936214447,9.761094093322754,-0.006300000008195639,0.00039999998989515007,-0.05859999731183052,-0.021000000237532696,0.0539999991814898,-0.0659999978879142
-0.058897361159324646,0.0614926740527153,9.768257141113281,-0.006300000008195639,-0.00930000003427267,-0.04879999905824661,-0.08200000283325337,-0.006000000186975531,-0.004999999877891834
-0.06809109449386597,0.0766623392701149,9.520696640014648,-0.006099999882280827,0.0004999999655410647,-0.04879999905824661,-0.08200000283325337,0.35899999881987993,-0.004999999877891834
-0.06004657596349716,0.11076535284519196,9.228766441345215,-0.01589999906718731,0.02029999904334545,-0.2938999831676483,-0.1419999930303221,0.29800000622931916,-0.004999999877891834
-0.05846640467643738,0.11895351111888885,9.157553672790527,-0.004299999680370092,0.05849999934434891,-0.6567999720573425,0.1610000051561373,0.0539999991814898,-0.004999999877891834
-0.05012500658631325,0.07984183728694916,9.370685577392578,0.005200000014156103,0.016999999061226845,-0.44099998474121094,0.5270000007201415,-0.4939999951060778,-0.004999999877891834
-0.05364927276968956,0.03908294811844826,9.704724311828613,0.0038999998942017555,-0.023799998685717583,-0.10759999603033066,0.648999985901263,-0.7990000114197344,-0.004999999877891834
-0.05581362918019295,0.006157887168228626,10.075901985168457,0.0017999999690800905,-0.05509999766945839,0.26499998569488525,0.5889999756938744,-0.920999996600856,-0.004999999877891834
-0.0571160763502121,0.00007661445124540478,10.347280502319336,-0.0005999999702908099,-0.056699998676776886,0.529699981212616,0.46600000812958076,-0.67699997287776,-0.004999999877891834
-0.0720367431640625,-0.00803494080901146,10.41542911529541,-0.022099999710917473,-0.057999998331069946,0.5983999967575073,0.10100000161885533,-0.31099999065396905,-0.0659999978879142
-0.07066725939512253,0.010907982476055622,10.301138877868652,-0.02290000021457672,-0.05829999968409538,0.48069998621940613,-0.325000010822644,0.11500000177721047,-0.004999999877891834
-0.06106172129511833,0.037521932274103165,10.045055389404297,-0.01269999984651804,-0.037699997425079346,0.2256999909877777,-0.6300000004558742,0.6029999958625494,0.05499999823992851
-0.06721002608537674,0.08571241796016693,9.679326057434082,-0.020800000056624413,0.012999999336898327,-0.13699999451637268,-0.690999993046435,0.8470000195856453,-0.004999999877891834
-0.06653965264558792,0.11154107004404068,9.346043586730957,-0.008700000122189522,0.04429999738931656,-0.47039997577667236,-0.6309999828390465,0.8470000195856453,-0.004999999877891834
-0.07362648844718933,0.120275117456913,9.161230087280273,-0.016099998727440834,0.055799998342990875,-0.6567999720573425,-0.3860000034132048,0.6029999958625494,-0.0659999978879142
-0.05090072751045227,0.07862558960914612,9.612576484680176,0.0050999997183680534,0.01759999990463257,-0.20569999516010284,-0.019999999511567335,-0.006000000186975531,0.05499999823992851
-0.05620627850294113,0.07704541087150574,9.699122428894043,0.004600000102072954,0.015799999237060547,-0.11739999800920486,0.03999999902313467,-0.006000000186975531,0.05499999823992851
-0.06821559369564056,0.04906198009848595,9.714645385742188,-0.013299999758601189,-0.012199999764561653,-0.09779999405145645,0.10100000161885533,-0.06700000028140622,-0.0659999978879142
-0.04932055622339249,0.06608954817056656,9.728599548339844,0.005399999674409628,-0.0024999999441206455,-0.08799999952316284,0.03999999902313467,-0.06700000028140622,0.05499999823992851
-0.04879382997751236,0.06415502727031708,9.759081840515137,0.004600000102072954,-0.002300000051036477,-0.04879999905824661,0.03999999902313467,-0.006000000186975531,-0.004999999877891834
-0.0612628310918808,0.0668078064918518,9.762855529785156,-0.0044999998062849045,-0.002199999988079071,-0.0486999973654747,0.03999999902313467,-0.06700000028140622,-0.004999999877891834
-0.05886863172054291,0.049138594418764114,9.773150444030762,-0.004100000020116568,-0.001999999862164259,-0.03889999911189079,-0.019999999511567335,-0.006000000186975531,0.05499999823992851
-0.05575616657733917,0.05866751819849014,9.76516342163086,-0.003700000001117587,-0.010499999858438969,-0.03889999911189079,-0.019999999511567335,-0.006000000186975531,-0.004999999877891834
-0.0617225207388401,0.05026865750551224,9.762473106384277,0.0052999998442828655,-0.0005999999702908099,-0.04879999905824661,-0.019999999511567335,-0.006000000186975531,-0.004999999877891834
-0.07856812328100204,0.0600753091275692,9.752578735351562,-0.020600000396370888,0.0004999999655410647,-0.05859999731183052,-0.019999999511567335,-0.006000000186975531,0.05499999823992851
-0.0695371925830841,0.05382165685296059,9.748758316040039,-0.010799999348819256,-0.009099999442696571,-0.06839999556541443,0.03999999902313467,-0.006000000186975531,0.05499999823992851
-0.0597209669649601,0.05881116911768913,9.752540588378906,-0.0009999999310821295,0.0004999999655410647,-0.05859999731183052,-0.019999999511567335,-0.006000000186975531,-0.004999999877891834
-0.04729027301073074,0.06520847976207733,9.750837326049805,0.01850000023841858,0.0004999999655410647,-0.05859999731183052,-0.019999999511567335,0.0539999991814898,-0.004999999877891834
-0.06350380927324295,0.06837840378284454,9.74960994720459,-0.0008999999845400453,0.010400000028312206,-0.05859999731183052,0.10100000161885533,-0.006000000186975531,-0.004999999877891834
-0.053352389484643936,0.06908708065748215,9.74317455291748,0.008799999952316284,0.010099999606609344,-0.06839999556541443,0.03999999902313467,-0.006000000186975531,-0.004999999877891834
-0.05870582535862923,0.05941450968384743,9.749831199645996,-0.0008999999845400453,0.00019999999494757503,-0.05859999731183052,-0.019999999511567335,-0.006000000186975531,-0.004999999877891834
-0.0643465667963028,0.06411672383546829,9.757214546203613,-0.0008999999845400453,0.00029999998514540493,-0.05859999731183052,-0.019999999511567335,-0.006000000186975531,-0.004999999877891834
-0.056148819625377655,0.07175900787115097,9.759140014648438,0.008700000122189522,0.010099999606609344,-0.0486999973654747,-0.08100000043976135,0.0539999991814898,-0.004999999877891834
-0.05298847332596779,0.05765237659215927,9.750338554382324,0.008899999782443047,0.0004999999655410647,-0.05859999731183052,0.03999999902313467,-0.006000000186975531,-0.004999999877891834
-0.052883125841617584,0.0738084465265274,9.755577087402344,0.008899999782443047,0.0004999999655410647,-0.05859999731183052,0.03999999902313467,-0.006000000186975531,-0.004999999877891834
-0.055392250418663025,0.05681919306516647,9.741288185119629,0.008899999782443047,0.010199999436736107,-0.05859999731183052,0.03999999902313467,-0.006000000186975531,0.05499999823992851
-0.06177040562033653,0.0661182701587677,9.748165130615234,-0.0008999999845400453,0.00039999998989515007,-0.06839999556541443,-0.019999999511567335,-0.006000000186975531,-0.004999999877891834
-0.05327577516436577,0.059989117085933685,9.747407913208008,0.008799999952316284,0.0004999999655410647,-0.06839999556541443,-0.019999999511567335,-0.006000000186975531,-0.004999999877891834
-0.062479086220264435,0.05848555639386177,9.7521390914917,-0.0008999999845400453,0.0004999999655410647,-0.05859999731183052,-0.019999999511567335,-0.06700000028140622,-0.004999999877891834
-0.0494067445397377,0.04793192073702812,9.755107879638672,0.008599999360740185,-0.009099999442696571,-0.05859999731183052,-0.019999999511567335,0.0539999991814898,-0.004999999877891834
-0.05122634023427963,0.06056372448801994,9.755970001220703,0.008799999952316284,0.0005999999702908099,-0.05859999731183052,-0.019999999511567335,-0.06700000028140622,-0.004999999877891834
-0.06354211270809174,0.06839755177497864,9.748710632324219,-0.0010999999940395355,0.010499999858438969,-0.06839999556541443,0.03999999902313467,0.0539999991814898,-0.004999999877891834
-0.06025726720690727,0.05215528979897499,9.75037670135498,-0.0009999999310821295,-0.009099999442696571,-0.05859999731183052,0.03999999902313467,0.0539999991814898,0.05499999823992851
-0.07028418779373169,0.0502399280667305,9.763343811035156,-0.010599999688565731,-0.009200000204145908,-0.0486999973654747,-0.019999999511567335,-0.006000000186975531,0.05499999823992851
-0.05247132480144501,0.06654923409223557,9.752004623413086,0.008899999782443047,0.0004999999655410647,-0.05859999731183052,0.03999999902313467,0.0539999991814898,-0.004999999877891834
-0.06192363426089287,0.06533297896385193,9.753106117248535,-0.000699999975040555,0.00039999998989515007,-0.05859999731183052,0.03999999902313467,0.05300000012305109,-0.004999999877891834
-0.0505942702293396,0.07244853675365448,9.757396697998047,0.009099999442696571,0.010099999606609344,-0.05849999934434891,0.03999999902313467,-0.006000000186975531,-0.004999999877891834
-0.049722783267498016,0.06359957158565521,9.769367218017578,0.009099999442696571,0.00019999999494757503,-0.03889999911189079,-0.08100000043976135,-0.06700000028140622,-0.004999999877891834
-0.05099649727344513,0.0657447800040245,9.756956100463867,0.008899999782443047,0.00039999998989515007,-0.05859999731183052,0.10100000161885533,0.0539999991814898,0.05499999823992851
-0.05313212424516678,0.06485413014888763,9.751727104187012,0.009099999442696571,0.00009999999747378752,-0.05849999934434891,0.03999999902313467,-0.006000000186975531,-0.004999999877891834
-0.05946239456534386,0.0622013583779335,9.756122589111328,-0.000699999975040555,0,-0.05849999934434891,0.03999999902313467,-0.006000000186975531,-0.004999999877891834
-0.056129664182662964,0.058073755353689194,9.75792407989502,0.008999999612569809,0,-0.05849999934434891,0.03999999902313467,-0.006000000186975531,-0.004999999877891834
-0.0565127357840538,0.06877104938030243,9.763822555541992,0.008999999612569809,0.009599999524652958,-0.0486999973654747,-0.019999999511567335,-0.006000000186975531,0.05499999823992851
-0.05626374110579491,0.07371268421411514,9.758890151977539,0.008999999612569809,0.009599999524652958,-0.0486999973654747,0.03999999902313467,-0.006000000186975531,-0.004999999877891834
-0.060841452330350876,0.05900270864367485,9.761170387268066,-0.0007999999797903001,-0.00019999999494757503,-0.0486999973654747,-0.019999999511567335,0.0539999991814898,-0.004999999877891834
-0.053093817085027695,0.06229712814092636,9.765996932983398,0.009099999442696571,-0.00009999999747378752,-0.0486999973654747,-0.019999999511567335,0.0539999991814898,-0.0659999978879142
-0.05837063491344452,0.06019023060798645,9.767721176147461,-0.0004999999655410647,-0.00009999999747378752,-0.0486999973654747,-0.019999999511567335,-0.006000000186975531,-0.004999999877891834
-0.06761226058006287,0.058428097516298294,9.768083572387695,-0.010300000198185444,0,-0.0486999973654747,0.03999999902313467,-0.006000000186975531,-0.004999999877891834
-0.05834190919995308,0.06933607906103134,9.76357364654541,0.009200000204145908,-0.00989999994635582,-0.05849999934434891,-0.019999999511567335,-0.006000000186975531,-0.0659999978879142
-0.059347473084926605,0.06710468232631683,9.767404556274414,-0.00039999998989515007,0.009599999524652958,-0.0486999973654747,-0.019999999511567335,-0.006000000186975531,0.05499999823992851
-0.053515199571847916,0.05535394325852394,9.761381149291992,-0.00039999998989515007,0.00969999935477972,-0.0486999973654747,-0.019999999511567335,-0.006000000186975531,-0.004999999877891834
-0.07398083806037903,0.07581958174705505,9.76903247833252,-0.010199999436736107,0.009800000116229057,-0.03889999911189079,-0.08100000043976135,-0.007000000079177565,-0.0039999999856897995
-0.05827486887574196,0.07316680252552032,9.761945724487305,-0.010199999436736107,0.009800000116229057,-0.03889999911189079,-0.019999999511567335,-0.006000000186975531,-0.004999999877891834
-0.050632577389478683,0.07170155644416809,9.756400108337402,0.009200000204145908,0.00989999994635582,-0.05849999934434891,-0.08100000043976135,-0.007000000079177565,0.05499999823992851
-0.07010222971439362,0.05553590506315231,9.769645690917969,-0.010199999436736107,-0.00930000003427267,-0.03889999911189079,0.03999999902313467,-0.006000000186975531,-0.0659999978879142
-0.05980715900659561,0.06828263401985168,9.7680082321167,-0.00039999998989515007,0.009999999776482582,-0.0486999973654747,0.03999999902313467,0.0539999991814898,0.11599999750059588
-0.05339069664478302,0.06502652168273926,9.770066261291504,0.009399999864399433,0.00009999999747378752,-0.03889999911189079,0.03999999902313467,-0.007000000079177565,-0.004999999877891834
-0.04344997555017471,0.06592673808336258,9.754427909851074,0.01899999938905239,0,-0.05849999934434891,-0.019999999511567335,-0.007000000079177565,-0.06500000216452881
-0.053946152329444885,0.0560338981449604,9.769214630126953,0.009099999442696571,-0.009599999524652958,-0.03889999911189079,0.03999999902313467,-0.007000000079177565,-0.0039999999856897995
-0.05775772035121918,0.07063852995634079,9.766762733459473,-0.0005999999702908099,0.009800000116229057,-0.0486999973654747,-0.019999999511567335,-0.007000000079177565,-0.004999999877891834
-0.04392881318926811,0.06667372584342957,9.776090621948242,0.018699999898672104,0,-0.03889999911189079,0.03999999902313467,-0.007000000079177565,-0.004999999877891834
-0.05961562320590019,0.06716214865446091,9.770181655883789,-0.0007999999797903001,0.009599999524652958,-0.03889999911189079,0.03999999902313467,-0.006000000186975531,-0.004999999877891834
-0.04966532066464424,0.05902186036109924,9.767394065856934,0.008799999952316284,-0.00019999999494757503,-0.0486999973654747,-0.019999999511567335,-0.006000000186975531,-0.004999999877891834
-0.052595820277929306,0.06881893426179886,9.775314331054688,0.008700000122189522,0.009399999864399433,-0.03889999911189079,0.03999999902313467,0.0539999991814898,-0.004999999877891834
-0.05855259671807289,0.054511185735464096,9.770564079284668,-0.0008999999845400453,-0.010099999606609344,-0.03889999911189079,-0.019999999511567335,-0.007000000079177565,0.05499999823992851
-0.05481764301657677,0.06562028080224991,9.7652587890625,0.008700000122189522,-0.00019999999494757503,-0.0486999973654747,-0.019999999511567335,-0.007000000079177565,-0.004999999877891834
-0.049799397587776184,0.056129664182662964,9.760757446289062,0.008599999360740185,-0.00989999994635582,-0.0486999973654747,-0.08100000043976135,0.05300000012305109,0.05600000063342052
-0.06241204962134361,0.06522762775421143,9.776512145996094,-0.0008999999845400453,0,-0.03889999911189079,0.03999999902313467,-0.128999995265459,0.05499999823992851
-0.04911944270133972,0.060247693210840225,9.770689010620117,0.008299999870359898,0,-0.03889999911189079,-0.08100000043976135,-0.006000000186975531,-0.0659999978879142
-0.05670427158474922,0.07102160155773163,9.77120590209961,0.008200000040233135,0.009800000116229057,-0.03889999911189079,-0.019999999511567335,-0.006000000186975531,-0.0659999978879142
-0.07129932194948196,0.06080314517021179,9.77938461303711,-0.011099999770522118,0.00009999999747378752,-0.029099998995661736,-0.08100000043976135,-0.06800000267489824,0.05499999823992851
-0.06314946711063385,0.07215166836977005,9.769721984863281,-0.001500000013038516,0.00029999998514540493,-0.0486999973654747,0.03999999902313467,-0.006000000186975531,-0.0659999978879142
-0.05906016752123833,0.0618470199406147,9.770325660705566,-0.001500000013038516,0.00989999994635582,-0.03889999911189079,-0.019999999511567335,-0.007000000079177565,-0.004999999877891834
-0.059376202523708344,0.06336972862482071,9.780869483947754,-0.0013000000035390258,0,-0.03889999911189079,0.03999999902313467,-0.007000000079177565,-0.004999999877891834
-0.047788266092538834,0.0584089420735836,9.76876449584961,-0.0013000000035390258,0,-0.029099998995661736,0.03999999902313467,-0.007000000079177565,0.05600000063342052
-0.06321649998426437,0.05678088590502739,9.765852928161621,0.017999999225139618,0,-0.03889999911189079,0.03999999902313467,-0.06800000267489824,-0.004999999877891834
-0.058897361159324646,0.0661182701587677,9.77672290802002,-0.0015999999595806003,-0.009800000116229057,-0.0486999973654747,-0.019999999511567335,0.0539999991814898,-0.004999999877891834
-0.048257529735565186,0.05435795709490776,9.76793098449707,0.008100000210106373,-0.009800000116229057,-0.0486999973654747,0.03999999902313467,-0.06800000267489824,-0.0659999978879142
-0.07035122066736221,0.06973830610513687,9.76264476776123,-0.011500000022351742,0.009499999694526196,-0.0486999973654747,0.03999999902313467,-0.007000000079177565,0.05499999823992851
-0.05697242170572281,0.07619307935237885,9.763717651367188,0.007899999618530273,0.00930000003427267,-0.0486999973654747,-0.019999999511567335,-0.007000000079177565,0.05499999823992851
-0.07116525620222092,0.05661807954311371,9.762357711791992,-0.011500000022351742,-0.009999999776482582,-0.0486999973654747,-0.019999999511567335,-0.007000000079177565,-0.0659999978879142
-0.05388868972659111,0.058332327753305435,9.764473915100098,0.007899999618530273,-0.00019999999494757503,-0.0486999973654747,-0.019999999511567335,-0.006000000186975531,-0.004999999877891834
-0.051743488758802414,0.06304412335157394,9.770450592041016,0.007799999788403511,-0.00009999999747378752,-0.03889999911189079,-0.08100000043976135,-0.007000000079177565,-0.004999999877891834
-0.05760449171066284,0.06922116130590439,9.771302223205566,-0.0018999999156221747,0.00969999935477972,-0.03889999911189079,-0.019999999511567335,-0.06800000267489824,-0.0039999999856897995
-0.058092910796403885,0.05030696466565132,9.768476486206055,-0.002099999925121665,-0.00969999935477972,-0.03889999911189079,-0.019999999511567335,-0.06700000028140622,-0.004999999877891834
-0.06352295726537704,0.06913497298955917,9.7677583694458,-0.002199999988079071,0.009800000116229057,-0.0486999973654747,0.03999999902313467,-0.006000000186975531,-0.004999999877891834
-0.06902004778385162,0.0573459193110466,9.770977020263672,-0.011899999342858791,-0.00969999935477972,-0.03889999911189079,-0.019999999511567335,-0.007000000079177565,-0.004999999877891834
-0.04642836004495621,0.05671384930610657,9.776895523071289,0.01719999872148037,-0.009499999694526196,-0.03889999911189079,-0.019999999511567335,-0.006000000186975531,-0.004999999877891834
-0.058399368077516556,0.05525817349553108,9.774280548095703,-0.002300000051036477,-0.00930000003427267,-0.03889999911189079,0.03999999902313467,-0.006000000186975531,-0.004999999877891834
-0.05083369091153145,0.06146394833922386,9.773218154907227,0.0072999997064471245,0.00029999998514540493,-0.03889999911189079,-0.019999999511567335,0.0539999991814898,-0.004999999877891834
-0.06498821079730988,0.061416059732437134,9.777756690979004,-0.002199999988079071,0.00029999998514540493,-0.03889999911189079,0.03999999902313467,-0.007000000079177565,0.05600000063342052
-0.05916551128029823,0.056292470544576645,9.76793098449707,-0.002199999988079071,-0.009399999864399433,-0.04879999905824661,-0.08100000043976135,-0.06700000028140622,-0.004999999877891834
-0.04741477221250534,0.06809109449386597,9.766475677490234,0.016899999231100082,0.010199999436736107,-0.04879999905824661,-0.019999999511567335,0.0539999991814898,0.05499999823992851
-0.05000050738453865,0.067181296646595,9.76935863494873,-0.0023999998811632395,0.00039999998989515007,-0.03889999911189079,-0.019999999511567335,-0.006000000186975531,0.05499999823992851
-0.06316861510276794,0.061837442219257355,9.778820037841797,0.007199999876320362,0.010199999436736107,-0.03889999911189079,-0.08100000043976135,0.05300000012305109,0.05600000063342052
-0.0631590411067009,0.06320692598819733,9.770373344421387,-0.0024999999441206455,0.00039999998989515007,-0.029099998995661736,-0.019999999511567335,0.05300000012305109,0.05499999823992851
-0.06206728518009186,0.06665457040071487,9.773811340332031,-0.002300000051036477,0.0005999999702908099,-0.03889999911189079,-0.08100000043976135,-0.007000000079177565,-0.004999999877891834
-0.06251739710569382,0.06120537221431732,9.757808685302734,-0.002099999925121665,0.0008999999845400453,-0.05859999731183052,-0.019999999511567335,-0.007000000079177565,-0.06500000216452881
-0.0685986652970314,0.0803494080901146,9.766331672668457,-0.011799999512732029,0.02029999904334545,-0.04879999905824661,-0.019999999511567335,-0.06700000028140622,-0.004999999877891834
-0.058303602039813995,0.07563761621713638,9.77206802368164,-0.002199999988079071,0.010400000028312206,-0.03889999911189079,-0.019999999511567335,0.05300000012305109,-0.004999999877891834
-0.05523902177810669,0.06488286703824997,9.782986640930176,0.007599999662488699,0.0005999999702908099,-0.029099998995661736,-0.019999999511567335,0.05300000012305109,-0.004999999877891834
-0.05405149981379509,0.05787264183163643,9.787553787231445,0.007499999832361937,0.000699999975040555,-0.019299998879432678,-0.019999999511567335,-0.006000000186975531,-0.004999999877891834
-0.06137775257229805,0.05874413251876831,9.779480934143066,-0.002199999988079071,0.000699999975040555,-0.029099998995661736,-0.019999999511567335,-0.007000000079177565,-0.004999999877891834
-0.052806511521339417,0.06840712577104568,9.782258033752441,0.007400000002235174,0.010400000028312206,-0.029099998995661736,-0.019999999511567335,-0.007000000079177565,-0.06500000216452881
-0.06683653593063354,0.06415502727031708,9.77055549621582,-0.002300000051036477,0.0005999999702908099,-0.03889999911189079,-0.019999999511567335,-0.006000000186975531,-0.004999999877891834
-0.0679091364145279,0.06771759688854218,9.775199890136719,-0.012000000104308128,0.010400000028312206,-0.03889999911189079,-0.019999999511567335,-0.007000000079177565,0.05600000063342052
-0.1266341209411621,0.08101020753383636,9.7489595413208,-0.07019999623298645,0.020099999383091927,-0.06839999556541443,-0.08100000043976135,0.5410000208888165,0.29899998861249133
-0.07452671229839325,0.06630980968475342,9.778523445129395,-0.012399999424815178,-0.000699999975040555,-0.029099998995661736,-0.08100000043976135,-0.06700000028140622,0.11599999750059588
-0.044512998312711716,0.049109868705272675,9.78222942352295,0.0066999997943639755,-0.004100000020116568,-0.029199998825788498,0.03999999902313467,-0.006000000186975531,0.11599999750059588
-0.057192690670490265,0.05587109178304672,9.770574569702148,-0.0017999999690800905,-0.002699999837204814,-0.039000000804662704,-0.019999999511567335,-0.06800000267489824,0.11599999750059588
-0.06050626188516617,0.06699934601783752,9.770143508911133,-0.007899999618530273,0.004699999932199717,-0.039000000804662704,-0.019999999511567335,-0.12799999954207358,0.05499999823992851
-0.05308423936367035,0.046763546764850616,9.763649940490723,0.0010999999940395355,-0.010900000110268593,-0.04879999905824661,0.03999999902313467,-0.128999995265459,-0.004999999877891834
-0.06912539154291153,0.06827305257320404,9.772738456726074,-0.012899999506771564,0.01269999984651804,-0.039000000804662704,0.03999999902313467,-0.06700000028140622,-0.004999999877891834
-0.04897578805685043,0.06258442997932434,9.779701232910156,0.00419999985024333,0.0016999999061226845,-0.029199998825788498,0.03999999902313467,-0.12799999954207358,-0.0659999978879142
-0.057527877390384674,0.0636187270283699,9.778848648071289,0.00279999990016222,0.0010999999940395355,-0.039000000804662704,-0.019999999511567335,-0.128999995265459,-0.004999999877891834
-0.057527877390384674,0.0636187270283699,9.778848648071289,-0.004699999932199717,0.0004999999655410647,-0.029099998995661736,-0.019999999511567335,-0.128999995265459,-0.004999999877891834
-0.05151364579796791,0.06811024993658066,9.777048110961914,0.003399999812245369,0.007400000002235174,-0.03889999911189079,-0.019999999511567335,-0.06800000267489824,-0.004999999877891834
-0.058590903878211975,0.0628046989440918,9.774624824523926,-0.004600000102072954,-0.0015999999595806003,-0.03889999911189079,-0.019999999511567335,-0.006000000186975531,-0.0659999978879142
-0.04853525385260582,0.05836106091737747,9.771943092346191,0.0050999997183680534,-0.0015999999595806003,-0.03889999911189079,0.03999999902313467,0.11500000177721047,-0.0659999978879142
-0.0537833496928215,0.06666415184736252,9.76467514038086,0.0050999997183680534,-0.001500000013038516,-0.03889999911189079,0.03999999902313467,0.1749999986443858,-0.0039999999856897995
-0.07727525383234024,0.06621403992176056,9.778762817382812,-0.023399999365210533,-0.0016999999061226845,-0.029099998995661736,0.03999999902313467,0.11400000605382507,-0.0659999978879142
-0.0633888840675354,0.05864836648106575,9.766819953918457,-0.003499999875202775,-0.0018999999156221747,-0.0486999973654747,0.03999999902313467,0.05300000012305109,-0.0659999978879142
-0.0580546036362648,0.06450936943292618,9.771397590637207,-0.0032999999821186066,-0.001999999862164259,-0.03889999911189079,-0.019999999511567335,-0.006000000186975531,-0.004999999877891834
-0.05414726585149765,0.05206909775733948,9.776350021362305,0.006399999838322401,-0.011699999682605267,-0.03889999911189079,0.03999999902313467,0.05300000012305109,0.05600000063342052
-0.04517379775643349,0.06216305121779442,9.768898010253906,0.016300000250339508,-0.001999999862164259,-0.03889999911189079,-0.019999999511567335,-0.007000000079177565,-0.004999999877891834
-0.06330269575119019,0.05632119998335838,9.76318073272705,-0.0032999999821186066,-0.011699999682605267,-0.0486999973654747,0.03999999902313467,-0.006000000186975531,-0.004999999877891834
-0.07822335511445999,0.054137688130140305,9.771522521972656,-0.02279999852180481,-0.011799999512732029,-0.03889999911189079,0.03999999902313467,-0.007000000079177565,-0.004999999877891834
-0.06494033336639404,0.06504566967487335,9.780831336975098,-0.0031999999191612005,-0.002099999925121665,-0.029099998995661736,0.03999999902313467,-0.007000000079177565,-0.004999999877891834
-0.07505343854427338,0.06934566050767899,9.778982162475586,-0.012999999336898327,0.007499999832361937,-0.029099998995661736,0.03999999902313467,-0.007000000079177565,0.05499999823992851
-0.05992208048701286,0.05864836648106575,9.777440071105957,-0.0031999999191612005,-0.002300000051036477,-0.03889999911189079,-0.08100000043976135,0.05300000012305109,0.05600000063342052
-0.0636187270283699,0.0664534643292427,9.770468711853027,-0.003000000026077032,-0.002099999925121665,-0.03889999911189079,-0.019999999511567335,-0.007000000079177565,-0.004999999877891834
-0.06427952647209167,0.05916551128029823,9.757368087768555,-0.0030999998562037945,-0.002099999925121665,-0.05849999934434891,-0.08100000043976135,-0.006000000186975531,-0.004999999877891834
-0.056551042944192886,0.0675356462597847,9.763947486877441,0.006599999964237213,0.007799999788403511,-0.0486999973654747,-0.019999999511567335,0.0539999991814898,-0.004999999877891834
-0.05498044937849045,0.0640975683927536,9.767624855041504,0.0066999997943639755,-0.0017999999690800905,-0.0486999973654747,-0.019999999511567335,-0.007000000079177565,-0.0039999999856897995
-0.0658884271979332,0.06713341176509857,9.764857292175293,-0.002899999963119626,0.007999999448657036,-0.0486999973654747,-0.019999999511567335,-0.006000000186975531,-0.004999999877891834
-0.04427357763051987,0.0584089420735836,9.7801513671875,0.016499999910593033,-0.0015999999595806003,-0.029099998995661736,-0.019999999511567335,-0.006000000186975531,-0.004999999877891834
-0.05358223244547844,0.05446329712867737,9.77318000793457,0.0064999996684491634,-0.011500000022351742,-0.03889999911189079,-0.019999999511567335,-0.007000000079177565,0.05499999823992851
-0.05551674962043762,0.053112972527742386,9.769290924072266,0.0064999996684491634,-0.011500000022351742,-0.03889999911189079,-0.08100000043976135,0.0539999991814898,0.05499999823992851
-0.04888959974050522,0.05187756195664406,9.77094841003418,0.006599999964237213,-0.011099999770522118,-0.03889999911189079,0.03999999902313467,0.0539999991814898,-0.004999999877891834
-0.04872678965330124,0.06423164159059525,9.770737648010254,0.0066999997943639755,-0.00139999995008111,-0.03889999911189079,-0.019999999511567335,-0.06800000267489824,-0.0039999999856897995
-0.05673300102353096,0.05602432042360306,9.775382041931152,0.0064999996684491634,-0.011099999770522118,-0.03889999911189079,0.03999999902313467,0.05300000012305109,-0.004999999877891834
-0.049732357263565063,0.06404968351125717,9.76930046081543,0.006599999964237213,-0.00139999995008111,-0.03889999911189079,0.03999999902313467,-0.007000000079177565,-0.0039999999856897995
-0.06051584333181381,0.0610138364136219,9.77125358581543,-0.0030999998562037945,-0.001500000013038516,-0.03889999911189079,-0.019999999511567335,-0.007000000079177565,-0.0039999999856897995
-0.052097827196121216,0.07491935789585114,9.767155647277832,0.006599999964237213,0.008200000040233135,-0.0486999973654747,0.03999999902313467,0.05300000012305109,-0.004999999877891834
-0.04966532066464424,0.07290823012590408,9.776435852050781,0.0066999997943639755,0.008100000210106373,-0.03889999911189079,-0.08100000043976135,-0.007000000079177565,-0.0659999978879142
-0.06151182949542999,0.0573459193110466,9.75801944732666,-0.003000000026077032,-0.01119999960064888,-0.05859999731183052,0.03999999902313467,-0.007000000079177565,-0.0659999978879142
-0.06236416473984718,0.06301538646221161,9.767049789428711,-0.003000000026077032,-0.001500000013038516,-0.0486999973654747,0.03999999902313467,-0.007000000079177565,-0.06500000216452881
-0.06050626188516617,0.05883990228176117,9.761064529418945,-0.003000000026077032,-0.0015999999595806003,-0.0486999973654747,-0.019999999511567335,-0.06800000267489824,-0.004999999877891834
-0.050651729106903076,0.06295792758464813,9.757081031799316,0.0064999996684491634,-0.001500000013038516,-0.05859999731183052,-0.019999999511567335,-0.006000000186975531,-0.0659999978879142
-0.0501154288649559,0.054798487573862076,9.75676441192627,0.006399999838322401,-0.01119999960064888,-0.05859999731183052,-0.08100000043976135,-0.007000000079177565,0.05600000063342052
-0.049588706344366074,0.06554366648197174,9.765728950500488,0.006599999964237213,-0.0010999999940395355,-0.0486999973654747,0.03999999902313467,-0.007000000079177565,-0.004999999877891834
-0.056934114545583725,0.0528448186814785,9.764415740966797,0.006599999964237213,-0.0010999999940395355,-0.0486999973654747,0.03999999902313467,-0.007000000079177565,-0.004999999877891834
-0.046600744128227234,0.05301720276474953,9.779854774475098,0.016200000420212746,-0.010799999348819256,-0.029099998995661736,-0.019999999511567335,-0.007000000079177565,0.05600000063342052
-0.055085793137550354,0.05844724923372269,9.777881622314453,0.016200000420212746,-0.010799999348819256,-0.029099998995661736,-0.019999999511567335,-0.007000000079177565,0.05600000063342052
-0.05644569918513298,0.051245495676994324,9.758344650268555,0.006199999712407589,-0.010599999688565731,-0.05859999731183052,-0.019999999511567335,-0.007000000079177565,0.05499999823992851
-0.056886233389377594,0.06514143943786621,9.75671672821045,0.006199999712407589,-0.0007999999797903001,-0.05859999731183052,0.03999999902313467,-0.007000000079177565,-0.004999999877891834
-0.057211846113204956,0.06498821079730988,9.768936157226562,0.006199999712407589,-0.0007999999797903001,-0.05859999731183052,0.03999999902313467,-0.06800000267489824,-0.0039999999856897995
-0.059395354241132736,0.06160759553313255,9.760519027709961,-0.003700000001117587,-0.0009999999310821295,-0.04879999905824661,-0.019999999511567335,-0.007000000079177565,0.05600000063342052
-0.06118621677160263,0.051551952958106995,9.757980346679688,-0.003700000001117587,-0.010699999518692493,-0.05859999731183052,0.10100000161885533,-0.007000000079177565,-0.0039999999856897995
-0.057834334671497345,0.04980897158384323,9.755854606628418,-0.003700000001117587,-0.010900000110268593,-0.05859999731183052,-0.019999999511567335,-0.007000000079177565,0.05499999823992851
-0.06478710472583771,0.06128198653459549,9.753345489501953,-0.003700000001117587,-0.0009999999310821295,-0.05859999731183052,0.03999999902313467,0.05300000012305109,-0.004999999877891834
-0.06466259807348251,0.056838348507881165,9.75158405303955,-0.003499999875202775,-0.010900000110268593,-0.05859999731183052,0.03999999902313467,0.0539999991814898,-0.0659999978879142
-0.05037400498986244,0.06860824674367905,9.763497352600098,0.006300000008195639,0.008499999530613422,-0.0486999973654747,-0.019999999511567335,-0.007000000079177565,0.05600000063342052
-0.05037400498986244,0.06860824674367905,9.763497352600098,0.006300000008195639,0.008499999530613422,-0.0486999973654747,-0.019999999511567335,-0.007000000079177565,0.05600000063342052
-0.059730544686317444,0.06560112535953522,9.764551162719727,-0.0032999999821186066,-0.0010999999940395355,-0.0486999973654747,-0.019999999511567335,-0.007000000079177565,-0.0039999999856897995
-0.05589982122182846,0.060429647564888,9.770000457763672,0.006300000008195639,-0.0009999999310821295,-0.03889999911189079,-0.019999999511567335,0.05300000012305109,0.05600000063342052
-0.05589982122182846,0.060429647564888,9.770000457763672,0.006300000008195639,-0.0009999999310821295,-0.03889999911189079,-0.019999999511567335,0.05300000012305109,0.05600000063342052
-0.07170155644416809,0.06941269338130951,9.77938461303711,-0.012899999506771564,0.008799999952316284,-0.029099998995661736,0.03999999902313467,-0.007000000079177565,-0.0039999999856897995
-0.0606594942510128,0.04711788892745972,9.7652587890625,-0.0030999998562037945,-0.020399998873472214,-0.0486999973654747,-0.019999999511567335,-0.007000000079177565,-0.0039999999856897995
-0.05302678048610687,0.057709839195013046,9.767768859863281,0.006599999964237213,-0.0007999999797903001,-0.0486999973654747,0.03999999902313467,-0.007000000079177565,-0.0039999999856897995
-0.0482192225754261,0.06350380927324295,9.761419296264648,0.0064999996684491634,-0.0008999999845400453,-0.0486999973654747,-0.019999999511567335,-0.007000000079177565,0.05600000063342052
-0.04504929855465889,0.06858909130096436,9.760279655456543,0.016099998727440834,0.008799999952316284,-0.0486999973654747,-0.019999999511567335,0.05300000012305109,0.05600000063342052
-0.0513029545545578,0.0542621873319149,9.768553733825684,0.006399999838322401,-0.010499999858438969,-0.03889999911189079,0.03999999902313467,-0.007000000079177565,0.05600000063342052
-0.05435795709490776,0.0633888840675354,9.764463424682617,0.01599999889731407,-0.0007999999797903001,-0.04879999905824661,0.03999999902313467,-0.06800000267489824,-0.004999999877891834
-0.05435795709490776,0.0633888840675354,9.764463424682617,0.006000000052154064,-0.0008999999845400453,-0.04879999905824661,-0.019999999511567335,0.05300000012305109,-0.0039999999856897995
-0.06548620760440826,0.05416642129421234,9.769205093383789,0.015799999237060547,-0.0008999999845400453,-0.03889999911189079,-0.019999999511567335,-0.007000000079177565,0.11699999322398127
-0.055583786219358444,0.06305369734764099,9.765546798706055,0.0058999997563660145,-0.0005999999702908099,-0.04879999905824661,-0.08100000043976135,-0.007000000079177565,0.05600000063342052
-0.050986919552087784,0.0606594942510128,9.757176399230957,0.0058999997563660145,-0.00039999998989515007,-0.05859999731183052,-0.019999999511567335,0.05300000012305109,-0.0039999999856897995
-0.050986919552087784,0.0606594942510128,9.757176399230957,0.0058999997563660145,-0.00039999998989515007,-0.05859999731183052,-0.019999999511567335,0.05300000012305109,-0.0039999999856897995
-0.053553506731987,0.06706637889146805,9.762223243713379,0.006000000052154064,0.009200000204145908,-0.04879999905824661,-0.019999999511567335,0.05300000012305109,-0.0039999999856897995
-0.05210740491747856,0.06658753752708435,9.778244972229004,0.015799999237060547,-0.00039999998989515007,-0.04879999905824661,-0.019999999511567335,0.05300000012305109,-0.0039999999856897995
-0.05421430245041847,0.046524129807949066,9.766120910644531,0.0058999997563660145,-0.019899999722838402,-0.04879999905824661,-0.019999999511567335,-0.007000000079177565,0.05600000063342052
-0.06926904618740082,0.05289270356297493,9.769501686096191,-0.013499999418854713,-0.00989999994635582,-0.03889999911189079,-0.019999999511567335,-0.06800000267489824,-0.0039999999856897995
-0.06926904618740082,0.05289270356297493,9.769501686096191,-0.013499999418854713,-0.00989999994635582,-0.03889999911189079,-0.019999999511567335,-0.06800000267489824,-0.0039999999856897995
-0.07270711660385132,0.05761406943202019,9.768160820007324,-0.013499999418854713,-0.00009999999747378752,-0.04879999905824661,-0.019999999511567335,-0.06800000267489824,-0.0039999999856897995
-0.050555963069200516,0.07137593626976013,9.760058403015137,0.006199999712407589,0.00969999935477972,-0.04879999905824661,0.03999999902313467,-0.007000000079177565,0.05600000063342052
-0.050555963069200516,0.07137593626976013,9.760058403015137,0.006199999712407589,0.00969999935477972,-0.04879999905824661,0.03999999902313467,-0.007000000079177565,0.05600000063342052
-0.044177811592817307,0.06596504151821136,9.76749038696289,0.015799999237060547,-0.00009999999747378752,-0.04879999905824661,-0.019999999511567335,0.05300000012305109,-0.0039999999856897995
-0.05622543394565582,0.06379111111164093,9.764023780822754,0.006099999882280827,-0.00009999999747378752,-0.04879999905824661,-0.07999999804626934,-0.06800000267489824,0.05600000063342052
-0.05014416202902794,0.06164590269327164,9.765230178833008,0.005799999926239252,0,-0.04879999905824661,-0.019999999511567335,0.05300000012305109,-0.06500000216452881
-0.05014416202902794,0.06164590269327164,9.765230178833008,0.0058999997563660145,0.00009999999747378752,-0.04879999905824661,0.03999999902313467,-0.007000000079177565,-0.004999999877891834
-0.058236561715602875,0.052385132759809494,9.771703720092773,-0.0037999998312443495,0.00969999935477972,-0.04879999905824661,-0.019999999511567335,-0.007000000079177565,-0.0039999999856897995
-0.06395391374826431,0.06120537221431732,9.772451400756836,-0.0038999998942017555,0,-0.039000000804662704,-0.019999999511567335,-0.007000000079177565,-0.0039999999856897995
-0.05517198517918587,0.05926128104329109,9.764320373535156,0.005799999926239252,0,-0.04879999905824661,0.03999999902313467,-0.007000000079177565,-0.0039999999856897995
-0.0588877871632576,0.07130890339612961,9.77405071258545,-0.0038999998942017555,0.009599999524652958,-0.03889999911189079,-0.019999999511567335,-0.007000000079177565,0.05499999823992851
-0.05758533999323845,0.06798575073480606,9.772040367126465,-0.0038999998942017555,0.009599999524652958,-0.03889999911189079,-0.019999999511567335,0.05300000012305109,0.05600000063342052
-0.04767334461212158,0.054204728454351425,9.76500129699707,0.015599999576807022,-0.00989999994635582,-0.04879999905824661,-0.019999999511567335,-0.06800000267489824,-0.0039999999856897995
-0.058801595121622086,0.06873274594545364,9.765326499938965,-0.004100000020116568,0.009599999524652958,-0.04879999905824661,-0.019999999511567335,-0.007000000079177565,-0.0039999999856897995
-0.05318000912666321,0.05687665566802025,9.779777526855469,0.005499999970197678,-0.00969999935477972,-0.029099998995661736,-0.019000000453128628,-0.007000000079177565,0.05600000063342052
-0.05199248343706131,0.06348465383052826,9.771590232849121,0.005499999970197678,0,-0.039000000804662704,-0.019999999511567335,-0.007000000079177565,-0.0039999999856897995
-0.060295574367046356,0.05135083943605423,9.768553733825684,-0.00419999985024333,-0.009499999694526196,-0.039000000804662704,0.10100000161885533,-0.007000000079177565,0.05600000063342052
-0.05173391103744507,0.0709928646683693,9.758545875549316,0.005399999674409628,0.00969999935477972,-0.05859999731183052,-0.019999999511567335,-0.007000000079177565,-0.0039999999856897995
-0.05938578024506569,0.07245812565088272,9.771081924438477,-0.00419999985024333,0.009599999524652958,-0.039000000804662704,-0.019999999511567335,-0.007000000079177565,-0.0039999999856897995
-0.05815037339925766,0.06411672383546829,9.763172149658203,-0.00419999985024333,0,-0.04879999905824661,-0.019000000453128628,0.05300000012305109,-0.0039999999856897995
-0.05414726585149765,0.061598021537065506,9.776617050170898,0.00559999980032444,0,-0.039000000804662704,-0.08100000043976135,-0.007000000079177565,-0.0039999999856897995
-0.054731450974941254,0.06471048295497894,9.775755882263184,0.005499999970197678,0.00019999999494757503,-0.039000000804662704,0.03999999902313467,-0.007000000079177565,-0.0039999999856897995
-0.058734554797410965,0.07087794691324234,9.770612716674805,-0.00419999985024333,0.00969999935477972,-0.039000000804662704,-0.019999999511567335,0.05300000012305109,-0.0039999999856897995
-0.06097552925348282,0.06109045073390007,9.758794784545898,-0.003999999724328518,0,-0.04879999905824661,-0.019999999511567335,-0.007000000079177565,0.05600000063342052
-0.06759310513734818,0.06258442997932434,9.77180004119873,-0.013599999248981476,0,-0.039000000804662704,-0.019999999511567335,-0.007000000079177565,-0.0039999999856897995
-0.0647009015083313,0.04663905128836632,9.775899887084961,-0.0037999998312443495,-0.019199999049305916,-0.039000000804662704,0.03999999902313467,0.05300000012305109,-0.0039999999856897995
-0.055296480655670166,0.06792829185724258,9.774290084838867,0.006000000052154064,0.00989999994635582,-0.039000000804662704,0.03999999902313467,-0.007000000079177565,-0.0039999999856897995
-0.051954176276922226,0.0693265050649643,9.771081924438477,0.0058999997563660145,0.00969999935477972,-0.03889999911189079,-0.019999999511567335,-0.007000000079177565,-0.0039999999856897995
-0.04765418916940689,0.05654146522283554,9.783454895019531,0.015399999916553497,-0.009599999524652958,-0.029099998995661736,-0.019999999511567335,-0.007000000079177565,-0.0039999999856897995
-0.06095637381076813,0.06627149879932404,9.772757530212402,0.005499999970197678,0.009800000116229057,-0.04879999905824661,-0.019999999511567335,0.05300000012305109,-0.0039999999856897995
-0.06095637381076813,0.06627149879932404,9.772757530212402,-0.003999999724328518,0.00009999999747378752,-0.039000000804662704,-0.019999999511567335,-0.007000000079177565,-0.0039999999856897995
-0.06293877214193344,0.060295574367046356,9.771235466003418,-0.0038999998942017555,0.009800000116229057,-0.039000000804662704,-0.019999999511567335,-0.007000000079177565,-0.0039999999856897995
-0.050910305231809616,0.05231809616088867,9.776061058044434,-0.0038999998942017555,0,-0.039000000804662704,-0.019999999511567335,-0.06800000267489824,-0.0039999999856897995
-0.06283342838287354,0.06358042359352112,9.774941444396973,-0.004100000020116568,0.00009999999747378752,-0.039000000804662704,-0.019999999511567335,-0.007000000079177565,0.05600000063342052
-0.059969961643218994,0.05095818638801575,9.760700225830078,-0.004100000020116568,-0.009399999864399433,-0.04879999905824661,-0.07999999804626934,-0.007000000079177565,-0.0039999999856897995
-0.054846372455358505,0.06582139432430267,9.772384643554688,-0.004100000020116568,-0.009399999864399433,-0.04879999905824661,-0.08100000043976135,-0.007000000079177565,-0.0039999999856897995
-0.06444232910871506,0.0514274537563324,9.764264106750488,-0.004100000020116568,-0.008899999782443047,-0.04879999905824661,-0.019999999511567335,-0.007000000079177565,-0.0039999999856897995
-0.06057330220937729,0.0700160339474678,9.773447036743164,-0.004100000020116568,0.010499999858438969,-0.039000000804662704,-0.019999999511567335,-0.007000000079177565,-0.0039999999856897995
-0.06419333815574646,0.06658753752708435,9.783588409423828,-0.003999999724328518,0.0007999999797903001,-0.029099998995661736,-0.08100000043976135,-0.007000000079177565,0.05600000063342052
-0.05975927412509918,0.06656838208436966,9.77414608001709,-0.003999999724328518,0.0009999999310821295,-0.039000000804662704,-0.019999999511567335,-0.007000000079177565,-0.0039999999856897995
-0.056771308183670044,0.06449022144079208,9.774319648742676,0.00559999980032444,0.0009999999310821295,-0.039000000804662704,-0.019999999511567335,-0.06800000267489824,-0.0039999999856897995
-0.044369347393512726,0.05104437842965126,9.778206825256348,0.014999999664723873,-0.008499999530613422,-0.029199998825788498,0.03999999902313467,-0.007000000079177565,-0.0039999999856897995
-0.05639781430363655,0.06843586266040802,9.783416748046875,0.0050999997183680534,0.010699999518692493,-0.029199998825788498,-0.019999999511567335,-0.007000000079177565,-0.0039999999856897995
-0.05540182814002037,0.07218039035797119,9.772470474243164,0.004999999888241291,0.010599999688565731,-0.039000000804662704,-0.019999999511567335,-0.007000000079177565,0.05600000063342052
-0.05459737405180931,0.05657019838690758,9.76646614074707,0.004900000058114529,-0.008799999952316284,-0.04879999905824661,-0.019999999511567335,-0.06800000267489824,-0.0039999999856897995
-0.05777687579393387,0.062383320182561874,9.775995254516602,-0.004999999888241291,0.0009999999310821295,-0.039000000804662704,-0.019999999511567335,-0.007000000079177565,-0.06500000216452881
-0.05511452630162239,0.059443242847919464,9.784652709960938,0.004699999932199717,0.0009999999310821295,-0.029199998825788498,-0.019999999511567335,0.05300000012305109,-0.0039999999856897995
-0.06001785025000572,0.05848555639386177,9.778886795043945,-0.004799999762326479,0.0010999999940395355,-0.029199998825788498,-0.019000000453128628,-0.007000000079177565,0.05600000063342052
-0.05810248479247093,0.06536170840263367,9.778091430664062,-0.004699999932199717,0.0010999999940395355,-0.029199998825788498,-0.019999999511567335,-0.007000000079177565,-0.0039999999856897995
-0.04826710373163223,0.07479485869407654,9.779078483581543,-0.004699999932199717,0.0010999999940395355,-0.039000000804662704,-0.019999999511567335,-0.007000000079177565,0.05600000063342052
-0.057240575551986694,0.06521805375814438,9.787649154663086,0.004999999888241291,0.0011999999405816197,-0.019299998879432678,0.03999999902313467,-0.007000000079177565,-0.06500000216452881
-0.057240575551986694,0.06521805375814438,9.787649154663086,0.004999999888241291,0.0011999999405816197,-0.019299998879432678,0.03999999902313467,-0.007000000079177565,-0.06500000216452881
-0.06889554858207703,0.06237374246120453,9.767834663391113,-0.014399999752640724,0.0010999999940395355,-0.04879999905824661,0.03999999902313467,-0.007000000079177565,0.05600000063342052
-0.06372407078742981,0.06108087673783302,9.777737617492676,-0.004600000102072954,0.0008999999845400453,-0.039000000804662704,0.03999999902313467,-0.007000000079177565,-0.0039999999856897995
-0.05583278089761734,0.06191405653953552,9.783426284790039,0.004999999888241291,0.0007999999797903001,-0.029199998825788498,0.03999999902313467,-0.007000000079177565,0.05600000063342052
-0.050086699426174164,0.057355497032403946,9.78156852722168,0.004900000058114529,0.000699999975040555,-0.039000000804662704,-0.019999999511567335,0.05300000012305109,-0.0039999999856897995
-0.04921520873904228,0.07336792349815369,9.782267570495605,0.0050999997183680534,0.010499999858438969,-0.029199998825788498,-0.019999999511567335,-0.007000000079177565,-0.0039999999856897995
-0.06010403856635094,0.05841852352023125,9.774118423461914,-0.004600000102072954,0.0007999999797903001,-0.039000000804662704,-0.019999999511567335,-0.007000000079177565,0.05600000063342052
-0.06566816568374634,0.06912539154291153,9.771990776062012,-0.004600000102072954,0.010499999858438969,-0.039000000804662704,0.03999999902313467,-0.007000000079177565,-0.0039999999856897995
-0.05270116776227951,0.07011180371046066,9.779519081115723,-0.004600000102072954,0.010499999858438969,-0.039000000804662704,-0.019999999511567335,-0.007000000079177565,-0.0039999999856897995
-0.0655340850353241,0.05350561812520027,9.769865036010742,-0.004600000102072954,-0.009099999442696571,-0.039000000804662704,0.03999999902313467,-0.06800000267489824,-0.0039999999856897995
-0.05386953800916672,0.06748775392770767,9.773408889770508,0.004799999762326479,0.010099999606609344,-0.039000000804662704,-0.019999999511567335,0.05300000012305109,-0.06500000216452881
-0.05069003626704216,0.054444145411252975,9.773082733154297,0.004900000058114529,-0.009200000204145908,-0.039000000804662704,-0.019999999511567335,-0.06800000267489824,-0.0039999999856897995
-0.05829402059316635,0.06544789671897888,9.782660484313965,-0.004900000058114529,0.0004999999655410647,-0.029199998825788498,0.03999999902313467,-0.007000000079177565,-0.0039999999856897995
-0.06575435400009155,0.06471048295497894,9.774807929992676,-0.004799999762326479,0.00039999998989515007,-0.039000000804662704,0.03999999902313467,0.05300000012305109,-0.06500000216452881
-0.07096414268016815,0.05883990228176117,9.774213790893555,-0.014299999922513962,0.00029999998514540493,-0.039000000804662704,-0.019999999511567335,0.05300000012305109,-0.0039999999856897995
-0.058428097516298294,0.058801595121622086,9.776205062866211,-0.004299999680370092,0.00029999998514540493,-0.039000000804662704,-0.019999999511567335,-0.007000000079177565,-0.0039999999856897995
-0.06375280022621155,0.061176642775535583,9.764694213867188,-0.00419999985024333,0.00039999998989515007,-0.04879999905824661,-0.019999999511567335,0.05300000012305109,-0.0039999999856897995
-0.050536807626485825,0.061310719698667526,9.779644012451172,0.005499999970197678,0.00039999998989515007,-0.029099998995661736,0.03999999902313467,-0.007000000079177565,-0.06500000216452881
-0.052500054240226746,0.058590903878211975,9.768113136291504,0.005399999674409628,0.00029999998514540493,-0.04879999905824661,-0.07999999804626934,-0.007000000079177565,-0.0039999999856897995
-0.057336341589689255,0.05906974524259567,9.776176452636719,0.0052999998442828655,0.0004999999655410647,-0.039000000804662704,-0.019000000453128628,-0.007000000079177565,-0.06500000216452881
-0.059586890041828156,0.05917508900165558,9.809322357177734,-0.004100000020116568,0.0004999999655410647,0.00019999999494757503,-0.019999999511567335,-0.06800000267489824,-0.0039999999856897995
-0.05974011868238449,0.062191784381866455,9.777632713317871,-0.00419999985024333,0.0004999999655410647,-0.039000000804662704,-0.019999999511567335,-0.007000000079177565,0.05600000063342052
-0.06186617165803909,0.04691677540540695,9.785293579101562,-0.00419999985024333,-0.01860000006854534,-0.029099998995661736,-0.08100000043976135,-0.007000000079177565,-0.0039999999856897995
-0.05672342702746391,0.06837840378284454,9.731701850891113,0.005499999970197678,0.010900000110268593,-0.07819999754428864,0.03999999902313467,-0.007000000079177565,-0.0039999999856897995
-0.05701073259115219,0.07138551771640778,9.770747184753418,0.005399999674409628,0.010599999688565731,-0.039000000804662704,-0.019999999511567335,0.05300000012305109,-0.0039999999856897995
-0.0494067445397377,0.06900089234113693,9.859810829162598,0.005499999970197678,0.010599999688565731,0.039400000125169754,0.03999999902313467,-0.007000000079177565,-0.0039999999856897995
-0.05892609432339668,0.056905388832092285,9.754935264587402,-0.00419999985024333,-0.01860000006854534,-0.039000000804662704,-0.019999999511567335,0.05300000012305109,-0.0039999999856897995
-0.04322013258934021,0.06983407586812973,9.761351585388184,-0.003999999724328518,-0.008700000122189522,-0.05859999731183052,-0.019999999511567335,0.05300000012305109,0.05499999823992851
-0.056436121463775635,0.07592492550611496,9.778379440307617,0.00559999980032444,0.010499999858438969,-0.029099998995661736,-0.019999999511567335,-0.007000000079177565,-0.06500000216452881
-0.05114014819264412,0.0686178207397461,9.79787826538086,0.005399999674409628,0.010300000198185444,-0.009499999694526196,-0.019999999511567335,-0.007000000079177565,-0.0039999999856897995
-0.06038176640868187,0.044493842869997025,9.789019584655762,-0.00419999985024333,-0.018699999898672104,-0.019299998879432678,-0.019999999511567335,-0.007000000079177565,-0.06500000216452881
-0.05464525893330574,0.07012137770652771,9.767721176147461,0.005399999674409628,0.010599999688565731,-0.04879999905824661,-0.019999999511567335,-0.007000000079177565,-0.0039999999856897995
-0.05531563609838486,0.07029376178979874,9.774596214294434,0.0052999998442828655,0.010499999858438969,-0.039000000804662704,-0.019999999511567335,-0.007000000079177565,0.05499999823992851
-0.05017289146780968,0.06571605056524277,9.771541595458984,0.0052999998442828655,0.0007999999797903001,-0.039000000804662704,-0.019999999511567335,0.05300000012305109,-0.0039999999856897995
-0.07029376178979874,0.06601293385028839,9.783330917358398,-0.013899999670684338,0.0007999999797903001,-0.029099998995661736,-0.019999999511567335,0.05300000012305109,-0.0039999999856897995
-0.0658692792057991,0.06800490617752075,9.78490161895752,-0.0038999998942017555,0.010499999858438969,-0.029099998995661736,-0.019999999511567335,-0.007000000079177565,-0.0039999999856897995
-0.05002924054861069,0.06125325709581375,9.765277862548828,0.005699999630451202,0.0007999999797903001,-0.04879999905824661,0.03999999902313467,0.05300000012305109,-0.06500000216452881
-0.06246950849890709,0.07148128747940063,9.761600494384766,-0.0037999998312443495,0.010300000198185444,-0.04879999905824661,-0.08100000043976135,-0.007000000079177565,0.05600000063342052
-0.05856217071413994,0.06331226974725723,9.77845573425293,-0.003700000001117587,0.000699999975040555,-0.029099998995661736,0.03999999902313467,-0.06800000267489824,-0.0039999999856897995
-0.04571009799838066,0.07159620523452759,9.778043746948242,0.015399999916553497,0.010300000198185444,-0.029099998995661736,-0.019999999511567335,-0.007000000079177565,0.05600000063342052
-0.0571160763502121,0.059184666723012924,9.775296211242676,0.005499999970197678,0.0004999999655410647,-0.039000000804662704,-0.019999999511567335,-0.007000000079177565,-0.06500000216452881
-0.05122634023427963,0.07115567475557327,9.78378963470459,0.005399999674409628,0.010199999436736107,-0.029099998995661736,-0.019999999511567335,-0.06800000267489824,-0.0039999999856897995
-0.05298847332596779,0.06291962414979935,9.774941444396973,0.0050999997183680534,0.0004999999655410647,-0.039000000804662704,-0.019999999511567335,-0.007000000079177565,-0.0039999999856897995
-0.05661807954311371,0.05905058979988098,9.781012535095215,0.004999999888241291,0.0004999999655410647,-0.029099998995661736,-0.019999999511567335,-0.06800000267489824,-0.06500000216452881
-0.05527732893824577,0.054137688130140305,9.78374195098877,0.004799999762326479,-0.008999999612569809,-0.029199998825788498,0.03999999902313467,-0.06800000267489824,0.05600000063342052
-0.05337154492735863,0.06575435400009155,9.769492149353027,0.0142000000923872,0.010199999436736107,-0.029199998825788498,-0.019999999511567335,-0.007000000079177565,0.05600000063342052
-0.04847779497504234,0.06954676657915115,9.766992568969727,0.004299999680370092,0.0004999999655410647,-0.039000000804662704,0.03999999902313467,-0.06800000267489824,-0.06500000216452881
-0.05211698263883591,0.06295792758464813,9.780888557434082,0.003999999724328518,0.00009999999747378752,-0.029199998825788498,-0.019999999511567335,-0.007000000079177565,-0.0039999999856897995
-0.0625748559832573,0.05630204826593399,9.780113220214844,-0.00559999980032444,-0.009399999864399433,-0.029199998825788498,0.03999999902313467,-0.007000000079177565,-0.0039999999856897995
-0.06014234572649002,0.06941269338130951,9.773150444030762,-0.00559999980032444,0.00989999994635582,-0.039000000804662704,-0.019999999511567335,-0.007000000079177565,-0.0039999999856897995
-0.06076483801007271,0.04871721565723419,9.77895450592041,-0.005499999970197678,-0.009399999864399433,-0.029199998825788498,-0.019999999511567335,-0.007000000079177565,-0.06500000216452881
-0.06253654509782791,0.07075344771146774,9.767155647277832,-0.005499999970197678,0.010099999606609344,-0.04879999905824661,-0.019999999511567335,-0.007000000079177565,0.05600000063342052
-0.04502056911587715,0.061741672456264496,9.768926620483398,0.013799999840557575,0.00029999998514540493,-0.039000000804662704,0.03999999902313467,0.05300000012305109,0.05600000063342052
-0.061741672456264496,0.0614926740527153,9.785792350769043,-0.005399999674409628,0.00019999999494757503,-0.029199998825788498,-0.019999999511567335,0.05300000012305109,-0.06500000216452881
-0.06710468232631683,0.06610869616270065,9.784594535827637,-0.01489999983459711,0.00019999999494757503,-0.029199998825788498,-0.019999999511567335,-0.007000000079177565,0.05600000063342052
-0.06312073767185211,0.05571785941720009,9.769655227661133,-0.004999999888241291,-0.00930000003427267,-0.039000000804662704,-0.019999999511567335,-0.06800000267489824,-0.06500000216452881
-0.04707958176732063,0.0656585842370987,9.778130531311035,0.014099999330937862,0.00039999998989515007,-0.029199998825788498,-0.019999999511567335,0.05300000012305109,-0.0039999999856897995
-0.05736507475376129,0.05838979035615921,9.770009994506836,0.004299999680370092,0.0004999999655410647,-0.039000000804662704,-0.019999999511567335,-0.007000000079177565,-0.0039999999856897995
-0.04571967571973801,0.0498855859041214,9.776962280273438,0.0139999995008111,-0.009099999442696571,-0.039000000804662704,-0.019999999511567335,-0.007000000079177565,-0.0039999999856897995
-0.06017107889056206,0.06739199161529541,9.762970924377441,-0.005499999970197678,0.010400000028312206,-0.04879999905824661,-0.019999999511567335,-0.007000000079177565,-0.0039999999856897995
-0.05184883251786232,0.05784391239285469,9.779192924499512,0.004100000020116568,0.0005999999702908099,-0.029199998825788498,-0.019999999511567335,-0.007000000079177565,-0.0039999999856897995
-0.06236416473984718,0.06962338089942932,9.761198043823242,-0.00559999980032444,0.010400000028312206,-0.04879999905824661,-0.019999999511567335,-0.007000000079177565,-0.0039999999856897995
-0.054444145411252975,0.06398265063762665,9.764838218688965,0.004100000020116568,0.0005999999702908099,-0.04879999905824661,-0.019999999511567335,-0.007000000079177565,0.05600000063342052
-0.05459737405180931,0.052145712077617645,9.76707935333252,0.003999999724328518,-0.008899999782443047,-0.04879999905824661,-0.019999999511567335,-0.007000000079177565,-0.0039999999856897995
-0.045815445482730865,0.06784210354089737,9.775296211242676,0.003999999724328518,0.0007999999797903001,-0.039000000804662704,-0.019999999511567335,-0.007000000079177565,-0.0039999999856897995
-0.045815445482730865,0.06784210354089737,9.775296211242676,0.013599999248981476,0.010499999858438969,-0.039000000804662704,-0.019999999511567335,-0.007000000079177565,-0.0039999999856897995
-0.06056372448801994,0.05954858288168907,9.764483451843262,-0.0058999997563660145,0.0007999999797903001,-0.04879999905824661,-0.08100000043976135,-0.06800000267489824,-0.0039999999856897995
-0.05533478781580925,0.067181296646595,9.759215354919434,0.003599999938160181,0.010699999518692493,-0.04879999905824661,-0.019999999511567335,-0.007000000079177565,-0.0039999999856897995
-0.044302307069301605,0.07408617436885834,9.77082347869873,0.013199999928474426,0.010599999688565731,-0.039000000804662704,-0.019999999511567335,-0.007000000079177565,0.05600000063342052
-0.049828123301267624,0.06286215782165527,9.763755798339844,0.003399999812245369,0.010499999858438969,-0.039000000804662704,-0.019999999511567335,-0.06800000267489824,0.05600000063342052
-0.05756618455052376,0.06248866394162178,9.771129608154297,0.0032999999821186066,0.000699999975040555,-0.04879999905824661,0.03999999902313467,0.05300000012305109,0.11699999322398127
-0.06967127323150635,0.061416059732437134,9.758862495422363,-0.01599999889731407,0.000699999975040555,-0.04879999905824661,0.03999999902313467,-0.06800000267489824,-0.0039999999856897995
-0.07043741643428802,0.055373094975948334,9.769262313842773,-0.01599999889731407,-0.008999999612569809,-0.039000000804662704,-0.019999999511567335,-0.007000000079177565,-0.0039999999856897995
-0.052241481840610504,0.06319735199213028,9.763323783874512,0.003499999875202775,0.000699999975040555,-0.04879999905824661,-0.019999999511567335,-0.06800000267489824,-0.0039999999856897995
-0.06661626696586609,0.05243301764130592,9.746172904968262,-0.006300000008195639,-0.008799999952316284,-0.06839999556541443,0.03999999902313467,-0.007000000079177565,-0.0039999999856897995
-0.06370491534471512,0.05869624763727188,9.758593559265137,-0.006300000008195639,0.000699999975040555,-0.05859999731183052,-0.019999999511567335,0.05300000012305109,-0.06500000216452881
-0.0505942702293396,0.05860047787427902,9.767040252685547,0.003499999875202775,0.0007999999797903001,-0.04879999905824661,-0.019999999511567335,0.05300000012305109,-0.0039999999856897995
-0.06137775257229805,0.05358223244547844,9.764578819274902,-0.006000000052154064,-0.008799999952316284,-0.04879999905824661,-0.019999999511567335,-0.007000000079177565,-0.0039999999856897995
-0.05336196720600128,0.06603208184242249,9.773283958435059,0.003599999938160181,0.0009999999310821295,-0.039000000804662704,0.03999999902313467,-0.007000000079177565,-0.0039999999856897995
-0.04731900244951248,0.06320692598819733,9.754312515258789,0.013299999758601189,0.0007999999797903001,-0.05859999731183052,0.03999999902313467,-0.007000000079177565,0.05600000063342052
-0.05517198517918587,0.05999869480729103,9.769444465637207,0.003399999812245369,0.000699999975040555,-0.039000000804662704,-0.019999999511567335,0.05300000012305109,-0.06500000216452881
-0.06570647656917572,0.05903143808245659,9.756573677062988,-0.006099999882280827,0.000699999975040555,-0.05859999731183052,0.03999999902313467,0.05300000012305109,-0.06500000216452881
-0.054942142218351364,0.04622724652290344,9.764664649963379,0.003700000001117587,-0.018699999898672104,-0.04879999905824661,-0.019999999511567335,-0.007000000079177565,-0.0039999999856897995
-0.06381026655435562,0.055200714617967606,9.764166831970215,-0.0058999997563660145,-0.008700000122189522,-0.04879999905824661,0.041000001416626686,-0.007000000079177565,-0.0039999999856897995
-0.046323012560606,0.05761406943202019,9.757041931152344,0.013399999588727951,0.0008999999845400453,-0.05859999731183052,0.03999999902313467,-0.007000000079177565,-0.0039999999856897995
-0.06336015462875366,0.07375099509954453,9.757913589477539,-0.006000000052154064,0.010499999858438969,-0.05859999731183052,-0.019999999511567335,-0.007000000079177565,-0.0039999999856897995
-0.06548620760440826,0.05779602751135826,9.74853801727295,-0.006000000052154064,0.000699999975040555,-0.06839999556541443,-0.019999999511567335,-0.007000000079177565,-0.0039999999856897995
-0.037119701504707336,0.05234682559967041,9.766925811767578,0.023000000044703484,-0.008899999782443047,-0.04879999905824661,-0.07999999804626934,-0.007000000079177565,-0.0039999999856897995
-0.05434837564826012,0.055200714617967606,9.761695861816406,0.0032999999821186066,-0.008499999530613422,-0.04879999905824661,-0.019999999511567335,0.05300000012305109,-0.0039999999856897995
-0.05528690665960312,0.060151923447847366,9.75841236114502,0.003499999875202775,0.0011999999405816197,-0.05859999731183052,-0.019999999511567335,-0.06800000267489824,-0.0039999999856897995
-0.05951027572154999,0.07035122066736221,9.763276100158691,-0.006300000008195639,0.010999999940395355,-0.04879999905824661,-0.019999999511567335,-0.007000000079177565,-0.0039999999856897995
-0.044848185032606125,0.05025908350944519,9.767748832702637,0.013100000098347664,-0.00839999970048666,-0.04879999905824661,0.03999999902313467,-0.06800000267489824,-0.0039999999856897995
-0.06443275511264801,0.05422388017177582,9.759368896484375,-0.006599999964237213,-0.00839999970048666,-0.04879999905824661,-0.019999999511567335,0.05300000012305109,-0.0039999999856897995
-0.06443275511264801,0.05422388017177582,9.759368896484375,-0.006599999964237213,-0.00839999970048666,-0.04879999905824661,-0.019999999511567335,0.05300000012305109,-0.0039999999856897995
-0.04774995893239975,0.06499778479337692,9.757913589477539,0.012999999336898327,0.0013000000035390258,-0.05859999731183052,-0.019999999511567335,-0.007000000079177565,-0.06500000216452881
-0.053400274366140366,0.06985322386026382,9.761237144470215,0.0030999998562037945,0.011099999770522118,-0.04879999905824661,0.03999999902313467,-0.007000000079177565,-0.0039999999856897995
-0.058207832276821136,0.0690775066614151,9.760931015014648,-0.0064999996684491634,0.010799999348819256,-0.04879999905824661,-0.019000000453128628,-0.007000000079177565,0.05600000063342052
-0.06870400905609131,0.07388506084680557,9.76193618774414,-0.016200000420212746,0.010699999518692493,-0.04879999905824661,-0.019999999511567335,-0.06800000267489824,0.05600000063342052
-0.06439444422721863,0.06042007356882095,9.774577140808105,-0.006399999838322401,0.0009999999310821295,-0.039000000804662704,0.041000001416626686,-0.007000000079177565,-0.06500000216452881
-0.05313212424516678,0.044963106513023376,9.774213790893555,0.0031999999191612005,-0.018400000408291817,-0.039000000804662704,-0.019000000453128628,0.05300000012305109,-0.0039999999856897995
-0.04758715257048607,0.07530242949724197,9.762337684631348,0.0032999999821186066,0.010900000110268593,-0.04879999905824661,0.03999999902313467,-0.007000000079177565,-0.0039999999856897995
-0.04364151135087013,0.06498821079730988,9.76504898071289,0.012799999676644802,0.000699999975040555,-0.04879999905824661,-0.08100000043976135,-0.007000000079177565,-0.0039999999856897995
-0.04696466028690338,0.061195798218250275,9.747455596923828,0.012600000016391277,0.0008999999845400453,-0.06839999556541443,-0.019999999511567335,-0.007000000079177565,-0.0039999999856897995
-0.05591897666454315,0.06182786449790001,9.763343811035156,0.00279999990016222,0.0009999999310821295,-0.04879999905824661,0.03999999902313467,-0.007000000079177565,-0.0039999999856897995
-0.054233454167842865,0.06866570562124252,9.76530647277832,0.00279999990016222,0.0009999999310821295,-0.04879999905824661,-0.019000000453128628,0.05300000012305109,-0.0039999999856897995
-0.051839254796504974,0.05212656036019325,9.754351615905762,0.00279999990016222,-0.008899999782443047,-0.05859999731183052,0.03999999902313467,-0.06800000267489824,-0.06500000216452881
-0.06524679064750671,0.0638485699892044,9.765182495117188,-0.00699999975040555,0.000699999975040555,-0.04879999905824661,-0.019999999511567335,-0.007000000079177565,0.05600000063342052
-0.05446329712867737,0.05720226839184761,9.752253532409668,0.002699999837204814,-0.008799999952316284,-0.05859999731183052,-0.019000000453128628,-0.007000000079177565,-0.0039999999856897995
-0.050536807626485825,0.05720226839184761,9.768707275390625,0.0026000000070780516,-0.008700000122189522,-0.039000000804662704,0.041000001416626686,-0.007000000079177565,-0.0039999999856897995
-0.05607220530509949,0.06110960245132446,9.759015083312988,0.0026000000070780516,0.0008999999845400453,-0.04879999905824661,-0.019999999511567335,-0.007000000079177565,-0.06500000216452881
-0.05583278089761734,0.05881116911768913,9.767768859863281,0.0024999999441206455,0.0008999999845400453,-0.04879999905824661,-0.019000000453128628,-0.06800000267489824,-0.06500000216452881
-0.07086837291717529,0.05841852352023125,9.766082763671875,-0.016999999061226845,0.0009999999310821295,-0.04879999905824661,-0.019000000453128628,-0.007000000079177565,0.05600000063342052
-0.05573701485991478,0.05341942980885506,9.753403663635254,0.0024999999441206455,-0.008599999360740185,-0.05859999731183052,0.041000001416626686,-0.007000000079177565,-0.0039999999856897995
-0.04978981614112854,0.07472781836986542,9.758469581604004,0.0024999999441206455,0.010699999518692493,-0.05859999731183052,0.041000001416626686,0.05300000012305109,-0.0039999999856897995
-0.05448245257139206,0.055631671100854874,9.767318725585938,0.0026000000070780516,-0.008799999952316284,-0.04879999905824661,-0.07999999804626934,-0.007000000079177565,-0.0039999999856897995
-0.05801629647612572,0.06459555774927139,9.768860816955566,-0.00699999975040555,0.0009999999310821295,-0.039000000804662704,0.041000001416626686,-0.007000000079177565,0.05600000063342052
-0.05066130682826042,0.07195054739713669,9.768621444702148,0.0026000000070780516,0.010599999688565731,-0.039000000804662704,-0.019000000453128628,-0.007000000079177565,-0.0039999999856897995
-0.06663542240858078,0.05630204826593399,9.756420135498047,-0.00699999975040555,-0.008799999952316284,-0.05859999731183052,-0.019000000453128628,-0.007000000079177565,-0.0039999999856897995
-0.06652049720287323,0.06325481086969376,9.747943878173828,-0.00699999975040555,0.0008999999845400453,-0.06839999556541443,0.041000001416626686,-0.06800000267489824,0.05600000063342052
-0.05045061931014061,0.06735368072986603,9.773256301879883,0.0024999999441206455,0.010499999858438969,-0.039000000804662704,-0.019000000453128628,0.05300000012305109,-0.0039999999856897995
-0.05092945694923401,0.05406107380986214,9.763975143432617,0.0026000000070780516,-0.008899999782443047,-0.04879999905824661,0.041000001416626686,-0.007000000079177565,-0.06500000216452881
-0.06142564117908478,0.0701596811413765,9.759303092956543,-0.00699999975040555,0.010400000028312206,-0.04879999905824661,0.041000001416626686,-0.007000000079177565,-0.0039999999856897995
-0.05471229553222656,0.061981093138456345,9.761524200439453,0.0026000000070780516,0.00039999998989515007,-0.04879999905824661,-0.019000000453128628,-0.007000000079177565,-0.06500000216452881
-0.05352477356791496,0.06768887490034103,9.77022933959961,0.0026000000070780516,0.010199999436736107,-0.04879999905824661,-0.019000000453128628,-0.007000000079177565,-0.0039999999856897995
-0.054300494492053986,0.0559285506606102,9.769904136657715,0.0026000000070780516,-0.00930000003427267,-0.039000000804662704,0.041000001416626686,0.05300000012305109,-0.0039999999856897995
-0.06343676894903183,0.06295792758464813,9.775056838989258,-0.006799999624490738,0.00029999998514540493,-0.039000000804662704,-0.019000000453128628,-0.06800000267489824,0.05600000063342052
-0.053045932203531265,0.07708371430635452,9.761505126953125,0.0026000000070780516,0.019700000062584877,-0.04879999905824661,0.041000001416626686,-0.007000000079177565,-0.0039999999856897995
-0.047548845410346985,0.06707596033811569,9.76881217956543,0.012199999764561653,0.009599999524652958,-0.039000000804662704,-0.019000000453128628,-0.06800000267489824,0.05600000063342052
-0.06376238167285919,0.05162856727838516,9.767356872558594,-0.007400000002235174,-0.00969999935477972,-0.04879999905824661,-0.019000000453128628,-0.007000000079177565,-0.06500000216452881
-0.05675215646624565,0.07196012884378433,9.768094062805176,0.002300000051036477,0.00969999935477972,-0.04879999905824661,-0.08100000043976135,-0.007000000079177565,-0.0039999999856897995
-0.06132987141609192,0.0612628310918808,9.765555381774902,-0.0072999997064471245,0.00009999999747378752,-0.04879999905824661,-0.019000000453128628,-0.007000000079177565,-0.0039999999856897995
-0.050201620906591415,0.057211846113204956,9.759303092956543,0.002300000051036477,-0.009399999864399433,-0.04879999905824661,-0.019000000453128628,0.05300000012305109,-0.06500000216452881
-0.05795883387327194,0.06584054231643677,9.776741981506348,-0.0071000000461936,0.00039999998989515007,-0.039000000804662704,-0.019000000453128628,-0.007000000079177565,-0.0039999999856897995
-0.06763140857219696,0.0597209669649601,9.760049819946289,-0.016699999570846558,0.00039999998989515007,-0.04879999905824661,-0.019000000453128628,-0.007000000079177565,-0.0039999999856897995
-0.05525817349553108,0.06935523450374603,9.765766143798828,0.002699999837204814,0.010099999606609344,-0.04879999905824661,-0.019000000453128628,0.05300000012305109,-0.0039999999856897995
-0.05346731096506119,0.05808333307504654,9.764492988586426,0.00279999990016222,0.00039999998989515007,-0.04879999905824661,-0.08100000043976135,-0.007000000079177565,-0.0039999999856897995
-0.06894343346357346,0.054329223930835724,9.77502727508545,-0.01640000008046627,-0.008999999612569809,-0.039000000804662704,-0.019000000453128628,-0.06800000267489824,-0.0039999999856897995
-0.06490202248096466,0.07070556282997131,9.779633522033691,-0.0066999997943639755,0.010400000028312206,-0.029199998825788498,0.10199999734224074,-0.06800000267489824,0.05600000063342052
-0.04477157071232796,0.0625748559832573,9.779595375061035,0.012399999424815178,0.00019999999494757503,-0.029199998825788498,-0.07999999804626934,-0.007000000079177565,-0.0039999999856897995
-0.06347507238388062,0.06201940029859543,9.76717472076416,-0.0071000000461936,0.00039999998989515007,-0.04879999905824661,-0.14099999730693671,-0.06800000267489824,-0.0039999999856897995
-0.05180094763636589,0.057049039751291275,9.771340370178223,0.0023999998811632395,-0.008799999952316284,-0.039000000804662704,0.041000001416626686,-0.007000000079177565,0.05600000063342052
-0.058782439678907394,0.06711426377296448,9.786596298217773,-0.007199999876320362,0.010400000028312206,-0.029199998825788498,-0.07999999804626934,0.05300000012305109,-0.0039999999856897995
-0.0549708716571331,0.07060979306697845,9.771493911743164,0.0026000000070780516,0.010499999858438969,-0.039000000804662704,-0.08100000043976135,-0.007000000079177565,-0.0039999999856897995
-0.049349285662174225,0.05999869480729103,9.778206825256348,0.0026000000070780516,0.0008999999845400453,-0.029199998825788498,0.041000001416626686,0.05300000012305109,0.05600000063342052
-0.05670427158474922,0.05617754906415939,9.769559860229492,0.002699999837204814,-0.008799999952316284,-0.039000000804662704,-0.019000000453128628,-0.06800000267489824,0.05600000063342052
-0.05747999623417854,0.06435614079236984,9.766916275024414,-0.007199999876320362,0.0008999999845400453,-0.04879999905824661,-0.019000000453128628,-0.007000000079177565,-0.0039999999856897995
-0.04179318621754646,0.0682443231344223,9.764492988586426,0.012199999764561653,0.010699999518692493,-0.04879999905824661,-0.019000000453128628,0.05300000012305109,-0.0039999999856897995
-0.06387729942798615,0.05879201367497444,9.772451400756836,-0.0071000000461936,0.0008999999845400453,-0.039000000804662704,-0.019000000453128628,0.05300000012305109,-0.06500000216452881
-0.052500054240226746,0.07280288636684418,9.770909309387207,0.00279999990016222,0.0008999999845400453,-0.039000000804662704,-0.07999999804626934,0.05300000012305109,0.05600000063342052
-0.04248271510004997,0.06912539154291153,9.769721984863281,0.002699999837204814,0.010599999688565731,-0.039000000804662704,-0.019000000453128628,0.05300000012305109,0.05600000063342052
-0.058303602039813995,0.06610869616270065,9.76325798034668,-0.006799999624490738,0.0008999999845400453,-0.04879999905824661,0.10199999734224074,0.05300000012305109,-0.06500000216452881
-0.055248599499464035,0.07158663123846054,9.772345542907715,0.003000000026077032,0.010300000198185444,-0.039000000804662704,-0.019000000453128628,-0.007000000079177565,-0.06500000216452881
-0.04971320182085037,0.05272989720106125,9.774367332458496,0.003000000026077032,0.010300000198185444,-0.039000000804662704,0.041000001416626686,-0.007000000079177565,-0.06500000216452881
-0.06173209846019745,0.06629065424203873,9.769549369812012,-0.0066999997943639755,0.0005999999702908099,-0.039000000804662704,0.041000001416626686,-0.007000000079177565,-0.0039999999856897995
-0.04935886338353157,0.05583278089761734,9.78455638885498,0.002899999963119626,-0.009099999442696571,-0.029199998825788498,0.041000001416626686,-0.007000000079177565,-0.06500000216452881
-0.04902367293834686,0.06042007356882095,9.776684761047363,0.002899999963119626,0.0004999999655410647,-0.039000000804662704,-0.019000000453128628,0.05300000012305109,-0.0039999999856897995
-0.0606594942510128,0.05455906689167023,9.774232864379883,-0.006599999964237213,-0.008999999612569809,-0.039000000804662704,0.03999999902313467,-0.06800000267489824,0.05600000063342052
-0.05221274867653847,0.05371630936861038,9.77415657043457,0.002899999963119626,-0.008999999612569809,-0.039000000804662704,-0.019999999511567335,-0.007000000079177565,0.05600000063342052
-0.05564124509692192,0.05409938097000122,9.781156539916992,0.00279999990016222,-0.008799999952316284,-0.029199998825788498,-0.019000000453128628,-0.06800000267489824,-0.06500000216452881
-0.056100934743881226,0.05583278089761734,9.767921447753906,0.0026000000070780516,-0.008700000122189522,-0.04879999905824661,0.041000001416626686,-0.007000000079177565,-0.0039999999856897995
-0.06653965264558792,0.04368939250707626,9.778111457824707,-0.00699999975040555,-0.018199998885393143,-0.029199998825788498,-0.019000000453128628,0.05300000012305109,0.05600000063342052
-0.06322608143091202,0.0720367431640625,9.778091430664062,-0.006799999624490738,0.010900000110268593,-0.029199998825788498,0.10100000161885533,0.05300000012305109,-0.0039999999856897995
-0.05289270356297493,0.060037001967430115,9.770075798034668,0.0030999998562037945,0.0007999999797903001,-0.039000000804662704,-0.07999999804626934,0.05300000012305109,0.05600000063342052
-0.05365884676575661,0.0625748559832573,9.780409812927246,0.0030999998562037945,0.0008999999845400453,-0.029199998825788498,0.041000001416626686,-0.128999995265459,0.05600000063342052
-0.06324522942304611,0.06529466807842255,9.780956268310547,-0.006799999624490738,0.0007999999797903001,-0.029199998825788498,0.041000001416626686,-0.007000000079177565,-0.0039999999856897995
-0.052854396402835846,0.05886863172054291,9.781693458557129,0.00279999990016222,0.000699999975040555,-0.029199998825788498,-0.07999999804626934,0.11400000605382507,-0.0039999999856897995
-0.05864836648106575,0.06664499640464783,9.772422790527344,-0.0064999996684491634,0.0008999999845400453,-0.039000000804662704,0.041000001416626686,-0.06800000267489824,-0.06500000216452881
-0.06011361628770828,0.0692020058631897,9.784757614135742,-0.0064999996684491634,0.010400000028312206,-0.029199998825788498,-0.08100000043976135,-0.007000000079177565,0.05600000063342052
-0.06578309088945389,0.060985106974840164,9.786079406738281,-0.006399999838322401,0.000699999975040555,-0.029199998825788498,-0.07999999804626934,-0.007000000079177565,-0.0039999999856897995
-0.05725972726941109,0.0631590411067009,9.777929306030273,0.0031999999191612005,0.0008999999845400453,-0.029199998825788498,-0.019000000453128628,0.05300000012305109,-0.0039999999856897995
-0.05379292368888855,0.06407841295003891,9.77796745300293,0.0032999999821186066,0.0009999999310821295,-0.029199998825788498,0.10100000161885533,0.05300000012305109,-0.0039999999856897995
-0.06096595525741577,0.063973069190979,9.783838272094727,0.003399999812245369,0.000699999975040555,-0.029199998825788498,-0.019999999511567335,-0.007000000079177565,0.05600000063342052
-0.05791094899177551,0.061789557337760925,9.781462669372559,-0.006000000052154064,0.000699999975040555,-0.029199998825788498,-0.08100000043976135,0.05300000012305109,-0.0039999999856897995
-0.06886681914329529,0.06669288873672485,9.781903266906738,-0.015399999916553497,0.0008999999845400453,-0.029199998825788498,-0.019999999511567335,0.05300000012305109,-0.0039999999856897995
-0.04532702639698982,0.05601474270224571,9.778226852416992,0.013799999840557575,-0.008599999360740185,-0.029199998825788498,-0.019999999511567335,-0.06800000267489824,-0.0039999999856897995
-0.055890243500471115,0.06547663360834122,9.779135704040527,0.003700000001117587,0.0011999999405816197,-0.029199998825788498,0.041000001416626686,-0.06800000267489824,-0.0039999999856897995
-0.05705861747264862,0.05001965910196304,9.77699089050293,0.003499999875202775,-0.008499999530613422,-0.039000000804662704,-0.019000000453128628,-0.007000000079177565,-0.0039999999856897995
-0.05736507475376129,0.05689580738544464,9.78219985961914,0.003399999812245369,-0.008299999870359898,-0.029199998825788498,-0.019999999511567335,0.11400000605382507,-0.06500000216452881
-0.05535394325852394,0.0612628310918808,9.77525806427002,0.003700000001117587,0.00139999995008111,-0.039000000804662704,-0.019000000453128628,-0.007000000079177565,0.05600000063342052
-0.05530606210231781,0.061789557337760925,9.784527778625488,0.003599999938160181,0.00139999995008111,-0.029199998825788498,0.03999999902313467,-0.128999995265459,-0.0039999999856897995
-0.05456864461302757,0.06850289553403854,9.778475761413574,0.0031999999191612005,0.010900000110268593,-0.029199998825788498,0.041000001416626686,-0.06800000267489824,-0.0039999999856897995
-0.06211517006158829,0.058207832276821136,9.784192085266113,-0.006599999964237213,0.0009999999310821295,-0.029199998825788498,0.041000001416626686,-0.06800000267489824,-0.0039999999856897995
-0.05244259163737297,0.0629100427031517,9.785293579101562,0.002899999963119626,0.0007999999797903001,-0.029199998825788498,0.03999999902313467,-0.06800000267489824,-0.0039999999856897995
-0.04829583689570427,0.0744309350848198,9.782430648803711,0.0026000000070780516,0.010300000198185444,-0.029199998825788498,0.03999999902313467,-0.007000000079177565,-0.06500000216452881
-0.056761734187603,0.05519114062190056,9.786328315734863,0.0024999999441206455,-0.009099999442696571,-0.029199998825788498,0.03999999902313467,-0.06800000267489824,0.05600000063342052
-0.05212656036019325,0.06817728281021118,9.778579711914062,0.002300000051036477,0.010099999606609344,-0.029199998825788498,0.03999999902313467,-0.06800000267489824,-0.0039999999856897995
-0.05787264183163643,0.06235458701848984,9.779644012451172,-0.007499999832361937,0.00019999999494757503,-0.029199998825788498,0.10100000161885533,0.05300000012305109,-0.06500000216452881
-0.0603051520884037,0.07214207947254181,9.785686492919922,-0.007199999876320362,0.009599999524652958,-0.029199998825788498,-0.08100000043976135,0.05300000012305109,-0.0039999999856897995
-0.06009446457028389,0.06130113825201988,9.778446197509766,-0.006899999920278788,0,-0.029199998825788498,-0.019000000453128628,-0.007000000079177565,-0.0039999999856897995
