Accelerometer_Gx,Accelerometer_Gy,Accelerometer_Gz,Accelerometer_X,Accelerometer_Y,Accelerometer_Z,Gyroscope_Z,Gyroscope_X,Gyroscope_Y
-0.042521022260189056,0.057192690670490265,9.7092924118042,0.016499999910593033,-0.008599999360740185,-0.10759999603033066,-0.004999999877891834,-0.017999999727163266,-0.07000000079177565
-0.04752011597156525,0.06241204962134361,9.709991455078125,0.012399999424815178,0.001999999862164259,-0.10759999603033066,0.05200000106461238,0.043999998591942806,-0.009999999755783667
-0.06311115622520447,0.07231447100639343,9.719893455505371,-0.005399999674409628,0.009200000204145908,-0.09779999405145645,-0.007000000079177565,-0.015999999942759198,-0.07099999651516105
-0.05476018041372299,0.05301720276474953,9.707472801208496,0.003499999875202775,-0.00839999970048666,-0.10759999603033066,-0.007000000079177565,-0.015999999942759198,-0.009999999755783667
-0.06527551263570786,0.0664726197719574,9.715575218200684,-0.004900000058114529,0.0008999999845400453,-0.09779999405145645,-0.007000000079177565,-0.015999999942759198,-0.009999999755783667
-0.06031472608447075,0.05829402059316635,9.715066909790039,-0.003000000026077032,0.00039999998989515007,-0.09779999405145645,-0.06800000267489824,-0.015999999942759198,0.049999999612681666
-0.05346731096506119,0.05443457141518593,9.710164070129395,0.005499999970197678,-0.007499999832361937,-0.10759999603033066,-0.007000000079177565,0.043999998591942806,0.049999999612681666
-0.055152833461761475,0.04993347078561783,9.713563919067383,0.004600000102072954,-0.006000000052154064,-0.09779999405145645,0.05300000012305109,-0.01700000066872456,-0.009999999755783667
-0.06675034016370773,0.0645764097571373,9.723456382751465,-0.005200000014156103,0.003499999875202775,-0.08799999952316284,-0.007000000079177565,0.0429999995335041,-0.009999999755783667
-0.05601474270224571,0.05841852352023125,9.73464298248291,-0.005200000014156103,0.003499999875202775,-0.08799999952316284,-0.007000000079177565,-0.01700000066872456,-0.07099999651516105
-0.05411853268742561,0.0772465243935585,9.72907829284668,0.004600000102072954,0.02319999970495701,-0.08799999952316284,0.05300000012305109,-0.07799999992939192,-0.07099999651516105
-0.06765056401491165,0.06262274086475372,9.729433059692383,-0.015099999494850636,0.003399999812245369,-0.08799999952316284,-0.007000000079177565,-0.01700000066872456,0.049999999612681666
-0.050584692507982254,0.07258261740207672,9.716848373413086,0.004299999680370092,0.013199999928474426,-0.09779999405145645,-0.007000000079177565,-0.01700000066872456,-0.009999999755783667
-0.054750602692365646,0.06038176640868187,9.723925590515137,0.004299999680370092,0.003399999812245369,-0.08799999952316284,-0.007000000079177565,-0.01700000066872456,0.049999999612681666
-0.0618470199406147,0.05421430245041847,9.726521492004395,-0.005499999970197678,-0.006300000008195639,-0.08799999952316284,0.05300000012305109,-0.01700000066872456,-0.009999999755783667
-0.05583278089761734,0.06137775257229805,9.72824478149414,0.00419999985024333,0.0032999999821186066,-0.08799999952316284,-0.007000000079177565,-0.01700000066872456,0.049999999612681666
-0.05673300102353096,0.06757394969463348,9.72197151184082,0.004100000020116568,0.013100000098347664,-0.08799999952316284,-0.007000000079177565,-0.01700000066872456,0.049999999612681666
-0.05787264183163643,0.06259401142597198,9.729480743408203,-0.00559999980032444,0.0032999999821186066,-0.08799999952316284,0.05300000012305109,-0.07799999992939192,0.049999999612681666
-0.06840712577104568,0.06596504151821136,9.734278678894043,-0.015599999576807022,0.0031999999191612005,-0.07819999754428864,0.05300000012305109,-0.01700000066872456,-0.009999999755783667
-0.05892609432339668,0.07886500656604767,9.73837661743164,-0.005799999926239252,0.022599998861551285,-0.07819999754428864,-0.007000000079177565,-0.01700000066872456,-0.009999999755783667
-0.04608359560370445,0.06395391374826431,9.735570907592773,0.013599999248981476,0.003000000026077032,-0.07819999754428864,0.05300000012305109,-0.01700000066872456,-0.009999999755783667
-0.04608359560370445,0.06395391374826431,9.735570907592773,0.013599999248981476,0.003000000026077032,-0.07819999754428864,0.05300000012305109,-0.01700000066872456,-0.009999999755783667
-0.046763546764850616,0.056646812707185745,9.74753189086914,0.013499999418854713,-0.006899999920278788,-0.06839999556541443,-0.007000000079177565,-0.01700000066872456,-0.07099999651516105
-0.06347507238388062,0.06774633377790451,9.741996765136719,-0.006099999882280827,0.012600000016391277,-0.06839999556541443,-0.007000000079177565,-0.01700000066872456,-0.009999999755783667
-0.049464207142591476,0.05239471048116684,9.739554405212402,0.003599999938160181,-0.006799999624490738,-0.07819999754428864,-0.007000000079177565,-0.07799999992939192,-0.07099999651516105
-0.0393415205180645,0.06656838208436966,9.741307258605957,0.013199999928474426,0.01269999984651804,-0.06839999556541443,-0.007000000079177565,-0.07799999992939192,0.049999999612681666
-0.0632643848657608,0.05879201367497444,9.73818588256836,0.012899999506771564,0.002899999963119626,-0.06839999556541443,-0.06800000267489824,-0.01700000066872456,-0.009999999755783667
-0.053496044129133224,0.044685378670692444,9.729498863220215,0.003000000026077032,-0.01640000008046627,-0.08799999952316284,0.05300000012305109,0.0429999995335041,-0.009999999755783667
-0.06538085639476776,0.06044880300760269,9.7417573928833,-0.0064999996684491634,0.002899999963119626,-0.06839999556541443,-0.007000000079177565,-0.01700000066872456,-0.009999999755783667
-0.05353435128927231,0.05231809616088867,9.737035751342773,0.0030999998562037945,-0.0066999997943639755,-0.07819999754428864,0.05300000012305109,-0.01700000066872456,-0.009999999755783667
-0.0644710585474968,0.049349285662174225,9.742782592773438,-0.006599999964237213,-0.006799999624490738,-0.06839999556541443,0.05300000012305109,-0.01700000066872456,-0.009999999755783667
-0.06057330220937729,0.05946239456534386,9.743242263793945,-0.006599999964237213,0.002699999837204814,-0.06839999556541443,0.05300000012305109,-0.01700000066872456,-0.009999999755783667
-0.07478528469800949,0.06387729942798615,9.729498863220215,-0.01640000008046627,0.0026000000070780516,-0.08799999952316284,0.05300000012305109,0.0429999995335041,-0.009999999755783667
-0.06917327642440796,0.0712035596370697,9.746641159057617,-0.016300000250339508,0.012199999764561653,-0.06839999556541443,0.05300000012305109,-0.01700000066872456,-0.009999999755783667
-0.05702031031250954,0.07021714746952057,9.749466896057129,0.0031999999191612005,0.012000000104308128,-0.05859999731183052,0.05300000012305109,0.0429999995335041,0.049999999612681666
-0.06785167753696442,0.07079175859689713,9.744152069091797,-0.016099998727440834,0.011799999512732029,-0.06839999556541443,0.0539999991814898,-0.01700000066872456,-0.009999999755783667
-0.05363012105226517,0.05824613943696022,9.753220558166504,0.0032999999821186066,0.0017999999690800905,-0.05859999731183052,-0.006000000186975531,0.0429999995335041,0.049999999612681666
-0.049588706344366074,0.06868486106395721,9.753220558166504,0.003399999812245369,0.011599999852478504,-0.05859999731183052,-0.006000000186975531,-0.01700000066872456,-0.07099999651516105
-0.05271074175834656,0.05495171621441841,9.764264106750488,0.0032999999821186066,-0.007899999618530273,-0.04879999905824661,0.0539999991814898,-0.01700000066872456,-0.009999999755783667
-0.05250963196158409,0.06200982257723808,9.757884979248047,0.0032999999821186066,0.0016999999061226845,-0.05859999731183052,-0.007000000079177565,-0.01700000066872456,0.049999999612681666
-0.06254612654447556,0.058638785034418106,9.756773948669434,-0.006399999838322401,0.0016999999061226845,-0.05859999731183052,-0.006000000186975531,-0.01700000066872456,-0.009999999755783667
-0.0581790991127491,0.06962338089942932,9.749428749084473,-0.006399999838322401,0.011399999260902405,-0.05859999731183052,-0.006000000186975531,-0.07799999992939192,-0.07099999651516105
-0.0590122826397419,0.06983407586812973,9.74940013885498,-0.006599999964237213,0.011399999260902405,-0.05859999731183052,0.0539999991814898,-0.01700000066872456,0.049999999612681666
-0.05748957023024559,0.05459737405180931,9.746431350708008,0.003000000026077032,0.01119999960064888,-0.05859999731183052,-0.06800000267489824,-0.01700000066872456,-0.009999999755783667
-0.06182786449790001,0.07151959091424942,9.748950004577637,-0.0066999997943639755,-0.008100000210106373,-0.06839999556541443,-0.006000000186975531,-0.01700000066872456,-0.07099999651516105
-0.06157886981964111,0.05890693888068199,9.751028060913086,-0.0066999997943639755,0.0016999999061226845,-0.05859999731183052,0.05300000012305109,-0.01700000066872456,-0.009999999755783667
-0.07702626287937164,0.05815994739532471,9.746967315673828,-0.0066999997943639755,0.0016999999061226845,-0.05859999731183052,-0.006000000186975531,-0.01700000066872456,-0.009999999755783667
-0.05106353387236595,0.06259401142597198,9.754830360412598,-0.02630000002682209,0.0015999999595806003,-0.06839999556541443,-0.006000000186975531,-0.01700000066872456,-0.009999999755783667
-0.05681919306516647,0.05672342702746391,9.7583646774292,0.002899999963119626,-0.008100000210106373,-0.05859999731183052,-0.006000000186975531,-0.01700000066872456,-0.009999999755783667
-0.048468220978975296,0.06507439911365509,9.766274452209473,0.002899999963119626,0.0016999999061226845,-0.04879999905824661,-0.006000000186975531,-0.01700000066872456,-0.009999999755783667
-0.06983407586812973,0.06492117047309875,9.754093170166016,-0.016599999740719795,0.0016999999061226845,-0.05859999731183052,0.0539999991814898,-0.01700000066872456,-0.009999999755783667
-0.05035484954714775,0.06650134176015854,9.768171310424805,0.002899999963119626,0.001500000013038516,-0.04879999905824661,0.0539999991814898,-0.01700000066872456,0.049999999612681666
-0.048382025212049484,0.06637685000896454,9.76369857788086,0.00279999990016222,0.0013000000035390258,-0.04879999905824661,-0.006000000186975531,-0.01700000066872456,0.049999999612681666
-0.059136781841516495,0.06981492042541504,9.750980377197266,-0.006899999920278788,0.011099999770522118,-0.05859999731183052,0.0539999991814898,-0.017999999727163266,0.05099999867112037
-0.05586151406168938,0.06702806800603867,9.755768775939941,0.002699999837204814,0.0010999999940395355,-0.05859999731183052,-0.006000000186975531,-0.01700000066872456,-0.009999999755783667
-0.05586151406168938,0.06702806800603867,9.755768775939941,0.002699999837204814,0.0010999999940395355,-0.05859999731183052,-0.006000000186975531,-0.01700000066872456,-0.009999999755783667
-0.05462610721588135,0.05485595017671585,9.75196647644043,0.002699999837204814,-0.008499999530613422,-0.05859999731183052,-0.006000000186975531,-0.017999999727163266,0.049999999612681666
-0.06660669296979904,0.06698018312454224,9.75571060180664,0.0026000000070780516,0.010900000110268593,-0.04879999905824661,-0.006000000186975531,0.0429999995335041,-0.009999999755783667
-0.0571160763502121,0.05836106091737747,9.76538372039795,-0.006899999920278788,0.0010999999940395355,-0.05859999731183052,0.0539999991814898,-0.01700000066872456,-0.07099999651516105
-0.07206546515226364,0.06256527453660965,9.763640403747559,0.002699999837204814,0.0009999999310821295,-0.04879999905824661,0.0539999991814898,-0.01700000066872456,0.049999999612681666
-0.05111141875386238,0.06495948135852814,9.762625694274902,-0.016699999570846558,0.0007999999797903001,-0.04879999905824661,0.0539999991814898,0.04200000047506539,-0.07099999651516105
-0.04395754262804985,0.06915412098169327,9.770191192626953,0.002699999837204814,0.000699999975040555,-0.04879999905824661,-0.006000000186975531,-0.017999999727163266,0.049999999612681666
-0.05204036831855774,0.0652850940823555,9.759590148925781,0.01249999925494194,0.010199999436736107,-0.039000000804662704,-0.006000000186975531,0.04200000047506539,-0.008999999863581633
-0.05898355320096016,0.06550535559654236,9.773064613342285,-0.006899999920278788,0.00039999998989515007,-0.039000000804662704,-0.006000000186975531,-0.01700000066872456,0.049999999612681666
-0.05787264183163643,0.06017107889056206,9.760682106018066,-0.006899999920278788,0.00039999998989515007,-0.04879999905824661,0.0539999991814898,-0.017999999727163266,-0.008999999863581633
-0.05326620116829872,0.058610059320926666,9.76432991027832,0.00279999990016222,0.00029999998514540493,-0.04879999905824661,-0.006000000186975531,-0.01700000066872456,-0.07099999651516105
-0.056579772382974625,0.0676601380109787,9.760403633117676,0.002699999837204814,0.009999999776482582,-0.04879999905824661,-0.006000000186975531,0.04200000047506539,-0.07000000079177565
-0.06270892918109894,0.05602432042360306,9.7672700881958,0.002699999837204814,0.009999999776482582,-0.04879999905824661,-0.006000000186975531,-0.017999999727163266,0.05099999867112037
-0.0662236139178276,0.05360138788819313,9.755721092224121,-0.006799999624490738,-0.00930000003427267,-0.05859999731183052,-0.006000000186975531,-0.017999999727163266,-0.008999999863581633
-0.047031696885824203,0.07336792349815369,9.764397621154785,0.01249999925494194,0.010099999606609344,-0.04879999905824661,-0.006000000186975531,-0.017999999727163266,-0.008999999863581633
-0.052739474922418594,0.06026684492826462,9.77458667755127,0.002699999837204814,0.00029999998514540493,-0.039000000804662704,-0.006000000186975531,-0.07900000232288394,-0.008999999863581633
-0.06669288873672485,0.059682659804821014,9.769702911376953,-0.007199999876320362,0.00029999998514540493,-0.039000000804662704,0.0539999991814898,-0.07900000232288394,0.05099999867112037
-0.05343858152627945,0.06182786449790001,9.765957832336426,0.002300000051036477,0.00019999999494757503,-0.04879999905824661,-0.006000000186975531,-0.01700000066872456,-0.009999999755783667
-0.06241204962134361,0.060630764812231064,9.774022102355957,-0.007400000002235174,0.00019999999494757503,-0.039000000804662704,-0.006000000186975531,0.04200000047506539,0.05099999867112037
-0.04986643046140671,0.06519889831542969,9.772642135620117,0.0023999998811632395,0.00019999999494757503,-0.039000000804662704,0.0539999991814898,-0.017999999727163266,-0.008999999863581633
-0.0696808472275734,0.060554150491952896,9.774088859558105,-0.016999999061226845,0.00009999999747378752,-0.039000000804662704,0.0539999991814898,0.04200000047506539,-0.009999999755783667
-0.04916732758283615,0.065055251121521,9.762194633483887,0.0026000000070780516,0,-0.04879999905824661,-0.006000000186975531,-0.01700000066872456,-0.009999999755783667
-0.0624503567814827,0.05136999115347862,9.777000427246094,-0.00699999975040555,-0.00969999935477972,-0.039000000804662704,-0.006000000186975531,-0.01700000066872456,-0.009999999755783667
-0.04924394190311432,0.06446148455142975,9.777737617492676,0.0026000000070780516,0.00009999999747378752,-0.039000000804662704,0.0539999991814898,-0.017999999727163266,-0.009999999755783667
-0.06071695312857628,0.06784210354089737,9.77997875213623,-0.00699999975040555,0.009599999524652958,-0.029199998825788498,-0.006000000186975531,-0.017999999727163266,-0.008999999863581633
-0.05077622830867767,0.054606951773166656,9.760375022888184,0.012299999594688416,-0.00009999999747378752,-0.04879999905824661,0.0539999991814898,-0.017999999727163266,-0.008999999863581633
-0.05077622830867767,0.054606951773166656,9.760375022888184,0.0023999998811632395,-0.009999999776482582,-0.04879999905824661,-0.006000000186975531,-0.017999999727163266,-0.008999999863581633
-0.04392881318926811,0.05672342702746391,9.766561508178711,0.0023999998811632395,-0.00019999999494757503,-0.04879999905824661,0.0539999991814898,-0.01700000066872456,-0.07099999651516105
-0.054233454167842865,0.05602432042360306,9.77747917175293,0.012000000104308128,-0.009800000116229057,-0.04879999905824661,0.0539999991814898,-0.017999999727163266,0.05099999867112037
-0.054616525769233704,0.057001154869794846,9.772173881530762,0.001999999862164259,-0.00989999994635582,-0.039000000804662704,0.0539999991814898,-0.07900000232288394,-0.008999999863581633
-0.0643274113535881,0.06218220666050911,9.770133972167969,-0.007799999788403511,-0.00019999999494757503,-0.039000000804662704,-0.06700000028140622,0.04200000047506539,-0.009999999755783667
-0.056388236582279205,0.06038176640868187,9.776569366455078,0.001999999862164259,-0.00009999999747378752,-0.039000000804662704,-0.006000000186975531,-0.017999999727163266,-0.008999999863581633
-0.050057969987392426,0.06504566967487335,9.76481819152832,0.0018999999156221747,0,-0.04879999905824661,0.0539999991814898,-0.017999999727163266,-0.008999999863581633
-0.0486980639398098,0.056081779301166534,9.772833824157715,0.0018999999156221747,-0.00989999994635582,-0.039000000804662704,-0.006000000186975531,-0.017999999727163266,-0.008999999863581633
-0.05546886473894119,0.0662236139178276,9.768035888671875,0.0017999999690800905,0,-0.04879999905824661,0.0539999991814898,-0.017999999727163266,-0.07000000079177565
-0.055507171899080276,0.05476975813508034,9.769826889038086,0.0016999999061226845,-0.00989999994635582,-0.039000000804662704,0.0539999991814898,-0.017999999727163266,0.049999999612681666
-0.0527203232049942,0.05326620116829872,9.777239799499512,0.0016999999061226845,-0.00989999994635582,-0.039000000804662704,-0.006000000186975531,-0.017999999727163266,-0.008999999863581633
-0.057355497032403946,0.05465483292937279,9.765748023986816,0.0015999999595806003,-0.009800000116229057,-0.04879999905824661,-0.006000000186975531,-0.017999999727163266,-0.008999999863581633
-0.06001785025000572,0.06430825591087341,9.774654388427734,-0.007999999448657036,0,-0.039000000804662704,-0.006000000186975531,-0.017999999727163266,-0.008999999863581633
-0.05096776410937309,0.06223009154200554,9.773026466369629,0.0015999999595806003,0,-0.039000000804662704,-0.006000000186975531,0.04200000047506539,-0.009999999755783667
-0.05760449171066284,0.053285352885723114,9.778082847595215,-0.007899999618530273,-0.009599999524652958,-0.029199998825788498,-0.006000000186975531,-0.017999999727163266,-0.008999999863581633
-0.05397488549351692,0.05483679473400116,9.765949249267578,0.0017999999690800905,-0.009499999694526196,-0.04879999905824661,-0.006000000186975531,0.04200000047506539,-0.008999999863581633
-0.06721960753202438,0.0521361343562603,9.763323783874512,-0.017400000244379044,-0.00930000003427267,-0.04879999905824661,-0.006000000186975531,-0.017999999727163266,-0.009999999755783667
-0.06345592439174652,0.06031472608447075,9.787631034851074,-0.007499999832361937,0.00039999998989515007,-0.01939999870955944,-0.006000000186975531,-0.017999999727163266,0.049999999612681666
-0.058332327753305435,0.06896258890628815,9.789862632751465,-0.007400000002235174,0.009999999776482582,-0.01939999870955944,-0.006000000186975531,-0.017999999727163266,0.049999999612681666
-0.06358042359352112,0.06862739473581314,9.776214599609375,-0.0072999997064471245,0.00989999994635582,-0.039000000804662704,0.0539999991814898,-0.017999999727163266,-0.009999999755783667
-0.0581790991127491,0.060228537768125534,9.767653465270996,-0.0072999997064471245,0,-0.04879999905824661,0.11500000177721047,-0.017999999727163266,-0.008999999863581633
-0.05834190919995308,0.07566635310649872,9.768965721130371,-0.007199999876320362,0.00930000003427267,-0.039000000804662704,0.0539999991814898,-0.017999999727163266,-0.07000000079177565
-0.05983588844537735,0.06671203672885895,9.78809928894043,-0.0071000000461936,-0.0005999999702908099,-0.019299998879432678,-0.006000000186975531,-0.017999999727163266,-0.008999999863581633
-0.05156152695417404,0.06684611737728119,9.778637886047363,0.0024999999441206455,-0.0004999999655410647,-0.04879999905824661,-0.006000000186975531,0.04200000047506539,0.05099999867112037
-0.05156152695417404,0.06684611737728119,9.778637886047363,0.0023999998811632395,-0.0004999999655410647,-0.029199998825788498,-0.006000000186975531,0.04200000047506539,0.05099999867112037
-0.05571785941720009,0.06085103377699852,9.769329071044922,0.0023999998811632395,-0.0004999999655410647,-0.039000000804662704,0.0539999991814898,-0.017999999727163266,-0.008999999863581633
-0.053994037210941315,0.059682659804821014,9.77944278717041,0.0023999998811632395,-0.0004999999655410647,-0.039000000804662704,-0.006000000186975531,-0.017999999727163266,-0.008999999863581633
-0.05867709219455719,0.06306327134370804,9.769683837890625,-0.0072999997064471245,-0.0005999999702908099,-0.039000000804662704,-0.006000000186975531,0.04200000047506539,-0.008999999863581633
-0.04339251294732094,0.059558164328336716,9.75841236114502,0.012199999764561653,-0.0005999999702908099,-0.05859999731183052,-0.006000000186975531,-0.01700000066872456,-0.009999999755783667
-0.057709839195013046,0.05848555639386177,9.772279739379883,-0.0072999997064471245,-0.0005999999702908099,-0.039000000804662704,0.0539999991814898,-0.017999999727163266,-0.009999999755783667
-0.04784572497010231,0.06536170840263367,9.757013320922852,0.01209999993443489,-0.000699999975040555,-0.05859999731183052,-0.006000000186975531,-0.017999999727163266,-0.008999999863581633
-0.06227797269821167,0.06418376415967941,9.764664649963379,-0.007400000002235174,-0.000699999975040555,-0.04879999905824661,-0.006000000186975531,-0.017999999727163266,-0.008999999863581633
-0.060372188687324524,0.05851428955793381,9.778552055358887,-0.0072999997064471245,-0.0005999999702908099,-0.029199998825788498,-0.06700000028140622,-0.017999999727163266,-0.008999999863581633
-0.060151923447847366,0.06394433975219727,9.75960922241211,-0.0072999997064471245,-0.0004999999655410647,-0.04879999905824661,0.0539999991814898,0.04200000047506539,-0.008999999863581633
-0.0611383356153965,0.06937438994646072,9.777039527893066,-0.0071000000461936,0.008999999612569809,-0.039000000804662704,0.0539999991814898,-0.017999999727163266,-0.009999999755783667
-0.051858410239219666,0.06573519855737686,9.773983001708984,0.0026000000070780516,-0.0008999999845400453,-0.039000000804662704,-0.006000000186975531,-0.017999999727163266,-0.07099999651516105
-0.0664726197719574,0.055200714617967606,9.776138305664062,-0.0071000000461936,-0.010499999858438969,-0.039000000804662704,-0.006000000186975531,-0.017999999727163266,0.05099999867112037
-0.051389146596193314,0.05750872567296028,9.780476570129395,0.0024999999441206455,-0.000699999975040555,-0.029199998825788498,-0.006000000186975531,-0.017999999727163266,-0.008999999863581633
-0.05906974524259567,0.05027823522686958,9.78276538848877,-0.0071000000461936,-0.010300000198185444,-0.029199998825788498,-0.006000000186975531,-0.017999999727163266,-0.07000000079177565
-0.06489244103431702,0.05031654238700867,9.784690856933594,-0.00699999975040555,-0.010099999606609344,-0.029199998825788498,-0.006000000186975531,-0.017999999727163266,0.05099999867112037
-0.051456183195114136,0.05966350436210632,9.77290153503418,0.0026000000070780516,-0.00029999998514540493,-0.039000000804662704,-0.006000000186975531,0.04200000047506539,-0.008999999863581633
-0.05844724923372269,0.06484455615282059,9.779155731201172,-0.006899999920278788,-0.00029999998514540493,-0.029199998825788498,-0.006000000186975531,-0.017999999727163266,0.05099999867112037
-0.05109226703643799,0.057029884308576584,9.778647422790527,0.00279999990016222,-0.00989999994635582,-0.029199998825788498,-0.006000000186975531,-0.017999999727163266,-0.008999999863581633
-0.06309200078248978,0.05492299050092697,9.779816627502441,0.002699999837204814,-0.00009999999747378752,-0.029199998825788498,-0.006000000186975531,0.04200000047506539,-0.008999999863581633
-0.04774995893239975,0.07273584604263306,9.768458366394043,-0.006799999624490738,-0.00969999935477972,-0.029199998825788498,0.0539999991814898,-0.017999999727163266,-0.008999999863581633
-0.06502652168273926,0.06392518430948257,9.785361289978027,0.012600000016391277,0.00969999935477972,-0.039000000804662704,-0.006000000186975531,0.04200000047506539,-0.008999999863581633
-0.06848374009132385,0.05954858288168907,9.786778450012207,-0.006799999624490738,-0.00019999999494757503,-0.029199998825788498,0.0539999991814898,-0.017999999727163266,-0.07000000079177565
-0.050891149789094925,0.06947015225887299,9.786108016967773,-0.016200000420212746,-0.00009999999747378752,-0.029199998825788498,-0.06700000028140622,-0.017999999727163266,-0.008999999863581633
-0.05850471183657646,0.06482540816068649,9.784451484680176,-0.006399999838322401,-0.00029999998514540493,-0.029199998825788498,-0.006000000186975531,-0.017999999727163266,-0.008999999863581633
-0.05038357898592949,0.06404968351125717,9.768362045288086,0.0031999999191612005,-0.00019999999494757503,-0.039000000804662704,0.0539999991814898,-0.017999999727163266,0.05099999867112037
-0.04909071326255798,0.06240247189998627,9.778685569763184,0.0030999998562037945,-0.00039999998989515007,-0.029199998825788498,-0.006000000186975531,-0.017999999727163266,0.05099999867112037
-0.06082230061292648,0.060793567448854446,9.788617134094238,-0.0064999996684491634,-0.00039999998989515007,-0.019299998879432678,-0.06700000028140622,-0.017999999727163266,-0.008999999863581633
-0.05436753109097481,0.06368576735258102,9.77637767791748,0.0030999998562037945,-0.00019999999494757503,-0.039000000804662704,0.0539999991814898,-0.017999999727163266,-0.008999999863581633
-0.05521029233932495,0.07206546515226364,9.77414608001709,0.003000000026077032,0.00930000003427267,-0.039000000804662704,-0.12799999954207358,0.16400000566650674,-0.008999999863581633
-0.055085793137550354,0.05583278089761734,9.77458667755127,0.003499999875202775,-0.00969999935477972,-0.039000000804662704,-0.006000000186975531,-0.017999999727163266,-0.008999999863581633
-0.0614926740527153,0.06357084214687347,9.78117561340332,-0.006199999712407589,0,-0.029199998825788498,0.11500000177721047,0.16400000566650674,-0.008999999863581633
-0.05158068239688873,0.06639600545167923,9.78264045715332,0.0038999998942017555,-0.00019999999494757503,-0.029199998825788498,-0.06700000028140622,0.04200000047506539,-0.009999999755783667
-0.05843767523765564,0.0662427768111229,9.776808738708496,-0.00559999980032444,0,-0.039000000804662704,-0.12799999954207358,0.16400000566650674,-0.07000000079177565
-0.056484006345272064,0.06227797269821167,9.786826133728027,0.0044999998062849045,-0.00930000003427267,-0.029199998825788498,-0.06700000028140622,0.04200000047506539,0.05099999867112037
-0.056484006345272064,0.06227797269821167,9.786826133728027,0.004600000102072954,0.0005999999702908099,-0.029199998825788498,-0.006000000186975531,-0.017999999727163266,-0.009999999755783667
-0.05960604548454285,0.04772122949361801,9.780284881591797,-0.0050999997183680534,-0.01860000006854534,-0.029199998825788498,0.11500000177721047,-0.017999999727163266,0.049999999612681666
-0.06994900107383728,0.06329311430454254,9.782114028930664,-0.014699999243021011,0.0005999999702908099,-0.029199998825788498,0.11500000177721047,-0.017999999727163266,0.05099999867112037
-0.06638642400503159,0.06974788755178452,9.78504467010498,-0.004900000058114529,0.00989999994635582,-0.029099998995661736,0.0539999991814898,-0.07900000232288394,-0.008999999863581633
-0.058945246040821075,0.07217081636190414,9.78810977935791,-0.004999999888241291,0.009499999694526196,-0.019299998879432678,-0.006000000186975531,-0.017999999727163266,0.05099999867112037
-0.04254017770290375,0.06879020482301712,9.770536422729492,0.014299999922513962,0.009399999864399433,-0.039000000804662704,0.0539999991814898,-0.017999999727163266,-0.008999999863581633
-0.046888045966625214,0.06359957158565521,9.782238960266113,0.013899999670684338,-0.00039999998989515007,-0.029099998995661736,-0.06700000028140622,0.04200000047506539,0.05099999867112037
-0.04829583689570427,0.06779421120882034,9.778647422790527,0.004100000020116568,0.00930000003427267,-0.029099998995661736,-0.006000000186975531,-0.017999999727163266,-0.008999999863581633
-0.05543055757880211,0.06164590269327164,9.770747184753418,0.004100000020116568,0.00930000003427267,-0.029099998995661736,0.0539999991814898,0.04200000047506539,-0.008999999863581633
-0.057594917714595795,0.04559517651796341,9.77224063873291,-0.005499999970197678,-0.019899999722838402,-0.039000000804662704,-0.006000000186975531,-0.01700000066872456,0.049999999612681666
-0.05831317603588104,0.06752606481313705,9.776559829711914,-0.005499999970197678,0.00930000003427267,-0.039000000804662704,0.0539999991814898,0.04200000047506539,-0.008999999863581633
-0.05013458430767059,0.07596323639154434,9.785331726074219,0.004299999680370092,0.008999999612569809,-0.029099998995661736,-0.006000000186975531,0.04200000047506539,-0.009999999755783667
-0.06515101343393326,0.050795383751392365,9.778475761413574,-0.005200000014156103,-0.010300000198185444,-0.029099998995661736,-0.006000000186975531,-0.07900000232288394,0.05099999867112037
-0.06561069935560226,0.05861963331699371,9.779212951660156,-0.005399999674409628,-0.0004999999655410647,-0.029099998995661736,-0.006000000186975531,-0.017999999727163266,-0.008999999863581633
-0.05612008646130562,0.06494990736246109,9.779068946838379,0.00419999985024333,-0.00039999998989515007,-0.029099998995661736,-0.006000000186975531,-0.07900000232288394,-0.008999999863581633
-0.05800671875476837,0.055650826543569565,9.788013458251953,-0.00559999980032444,-0.009999999776482582,-0.019299998879432678,-0.006000000186975531,-0.07900000232288394,-0.008999999863581633
-0.06651092320680618,0.0663672685623169,9.772604942321777,-0.005699999630451202,-0.00019999999494757503,-0.039000000804662704,-0.006000000186975531,-0.017999999727163266,0.049999999612681666
-0.06365703791379929,0.06215347722172737,9.770574569702148,-0.005699999630451202,-0.00019999999494757503,-0.039000000804662704,-0.006000000186975531,-0.017999999727163266,-0.008999999863581633
-0.06607038527727127,0.06041049584746361,9.78122329711914,-0.00559999980032444,-0.00009999999747378752,-0.029199998825788498,-0.006000000186975531,-0.017999999727163266,0.05099999867112037
-0.05315127968788147,0.06404968351125717,9.76859188079834,0.003999999724328518,-0.00009999999747378752,-0.039000000804662704,0.0539999991814898,0.04200000047506539,-0.07099999651516105
-0.052097827196121216,0.06507439911365509,9.771617889404297,0.003999999724328518,-0.00029999998514540493,-0.039000000804662704,0.0539999991814898,-0.017999999727163266,-0.008999999863581633
-0.05177221819758415,0.06752606481313705,9.78809928894043,0.0038999998942017555,0.009099999442696571,-0.019299998879432678,0.11500000177721047,-0.017999999727163266,-0.008999999863581633
-0.048161763697862625,0.06633853912353516,9.783082008361816,0.0037999998312443495,-0.0009999999310821295,-0.029099998995661736,-0.006000000186975531,-0.017999999727163266,-0.008999999863581633
-0.0656394362449646,0.07386591285467148,9.786941528320312,-0.0058999997563660145,0.008599999360740185,-0.029099998995661736,-0.006000000186975531,-0.01700000066872456,-0.009999999755783667
-0.06969042122364044,0.06737283617258072,9.777087211608887,-0.01549999974668026,0.008499999530613422,-0.039000000804662704,-0.006000000186975531,-0.017999999727163266,-0.008999999863581633
-0.054702721536159515,0.05387911573052406,9.776493072509766,0.0038999998942017555,0.00839999970048666,-0.029099998995661736,0.0539999991814898,-0.017999999727163266,-0.07000000079177565
-0.061100028455257416,0.07043741643428802,9.771791458129883,0.0037999998312443495,-0.011099999770522118,-0.039000000804662704,-0.006000000186975531,-0.01700000066872456,-0.009999999755783667
-0.056484006345272064,0.0654095932841301,9.771368980407715,-0.005699999630451202,0.008299999870359898,-0.039000000804662704,0.0539999991814898,-0.017999999727163266,-0.07099999651516105
-0.04592078924179077,0.060889340937137604,9.77383041381836,0.013499999418854713,-0.001500000013038516,-0.039000000804662704,-0.006000000186975531,-0.01700000066872456,-0.009999999755783667
-0.047778692096471786,0.05572744086384773,9.766868591308594,0.013299999758601189,-0.01119999960064888,-0.04879999905824661,0.0539999991814898,-0.07900000232288394,-0.008999999863581633
-0.062498241662979126,0.06092764809727669,9.768122673034668,-0.006399999838322401,-0.001500000013038516,-0.04879999905824661,-0.006000000186975531,-0.017999999727163266,0.049999999612681666
-0.042645517736673355,0.0643465667963028,9.771943092346191,0.012899999506771564,-0.001500000013038516,-0.039000000804662704,-0.006000000186975531,-0.017999999727163266,-0.008999999863581633
-0.058763287961483,0.06969999521970749,9.769424438476562,-0.006599999964237213,0.008100000210106373,-0.039000000804662704,-0.006000000186975531,-0.017999999727163266,-0.008999999863581633
-0.0547410286962986,0.048257529735565186,9.75890064239502,0.003000000026077032,-0.01119999960064888,-0.04879999905824661,-0.06700000028140622,0.04200000047506539,0.05099999867112037
-0.05156152695417404,0.06860824674367905,9.764349937438965,0.0030999998562037945,0.00839999970048666,-0.04879999905824661,0.0539999991814898,0.04200000047506539,-0.008999999863581633
-0.05540182814002037,0.060678645968437195,9.773638725280762,0.0031999999191612005,-0.001500000013038516,-0.039000000804662704,-0.006000000186975531,0.04200000047506539,-0.008999999863581633
-0.055373094975948334,0.057690683752298355,9.783780097961426,0.0032999999821186066,-0.00139999995008111,-0.029099998995661736,-0.006000000186975531,-0.017999999727163266,-0.008999999863581633
-0.06191405653953552,0.06646303832530975,9.774759292602539,-0.006399999838322401,-0.00139999995008111,-0.039000000804662704,-0.006000000186975531,-0.07900000232288394,-0.008999999863581633
-0.05801629647612572,0.06203855574131012,9.76220417022705,-0.0064999996684491634,-0.00139999995008111,-0.04879999905824661,0.0539999991814898,-0.017999999727163266,0.05099999867112037
-0.05801629647612572,0.06203855574131012,9.76220417022705,-0.0064999996684491634,-0.00139999995008111,-0.04879999905824661,0.0539999991814898,-0.017999999727163266,0.05099999867112037
-0.05801629647612572,0.06203855574131012,9.76220417022705,-0.0064999996684491634,-0.00139999995008111,-0.04879999905824661,0.0539999991814898,-0.017999999727163266,0.05099999867112037
-0.05801629647612572,0.06203855574131012,9.76220417022705,-0.0064999996684491634,-0.00139999995008111,-0.04879999905824661,0.0539999991814898,-0.017999999727163266,0.05099999867112037
-0.05147533863782883,0.05533478781580925,9.771839141845703,0.00279999990016222,-0.011099999770522118,-0.039000000804662704,-0.013000000266153095,0.049999999612681666,0.05300000012305109
-0.054606951773166656,0.06021896004676819,9.762701988220215,0.00279999990016222,-0.0011999999405816197,-0.04879999905824661,-0.013000000266153095,-0.009999999755783667,-0.007999999971379599
-0.06557239592075348,0.054846372455358505,9.762989044189453,-0.006799999624490738,-0.010900000110268593,-0.04879999905824661,-0.07399999702553048,-0.009999999755783667,-0.007999999971379599
-0.05560293793678284,0.06393475830554962,9.75899600982666,0.01249999925494194,-0.0008999999845400453,-0.04879999905824661,-0.013000000266153095,-0.009999999755783667,-0.007000000079177565
-0.055631671100854874,0.07505343854427338,9.764138221740723,0.002699999837204814,-0.0007999999797903001,-0.04879999905824661,0.046999999102312236,-0.25400000763737635,-0.007000000079177565
-0.0554497092962265,0.06994900107383728,9.764291763305664,0.0010999999940395355,0.003700000001117587,-0.0486999973654747,-0.013000000266153095,0.049999999612681666,0.05200000106461238
-0.054089806973934174,0.05976885184645653,9.761754035949707,0.0008999999845400453,-0.0037999998312443495,-0.04879999905824661,0.046999999102312236,-0.009999999755783667,-0.007000000079177565
-0.056905388832092285,0.06312073767185211,9.7670316696167,0.0005999999702908099,-0.00279999990016222,-0.04879999905824661,0.046999999102312236,-0.009999999755783667,-0.007000000079177565
-0.057336341589689255,0.06475836783647537,9.773313522338867,0.00039999998989515007,-0.001999999862164259,-0.039000000804662704,-0.07399999702553048,0.049999999612681666,0.05300000012305109
-0.04551856219768524,0.06132029369473457,9.76917552947998,0.007199999876320362,-0.0013000000035390258,-0.039000000804662704,-0.013000000266153095,0.049999999612681666,-0.007000000079177565
-0.054990023374557495,0.0579492561519146,9.765192031860352,-0.0016999999061226845,-0.0009999999310821295,-0.04879999905824661,0.046999999102312236,-0.009999999755783667,-0.007000000079177565
-0.052567094564437866,0.0630345419049263,9.759111404418945,-0.0011999999405816197,-0.0008999999845400453,-0.04879999905824661,-0.013000000266153095,-0.009999999755783667,-0.007000000079177565
-0.05369715392589569,0.05488467961549759,9.748777389526367,-0.0008999999845400453,-0.008499999530613422,-0.06839999556541443,0.046999999102312236,-0.009999999755783667,-0.007000000079177565
-0.055488016456365585,0.07018841803073883,9.764857292175293,-0.0005999999702908099,0.007899999618530273,-0.04879999905824661,-0.013000000266153095,0.11099999887334903,-0.06800000267489824
-0.055488016456365585,0.07018841803073883,9.764857292175293,-0.0005999999702908099,0.007899999618530273,-0.04879999905824661,-0.013000000266153095,0.11099999887334903,-0.06800000267489824
-0.056675542145967484,0.07466079294681549,9.762453079223633,-0.00009999999747378752,0.005699999630451202,-0.04879999905824661,-0.13499999628619785,0.049999999612681666,-0.06800000267489824
-0.05940493568778038,0.0740574523806572,9.755922317504883,-0.009800000116229057,0.006000000052154064,-0.05859999731183052,0.046999999102312236,-0.1319999957758284,-0.007000000079177565
-0.06469132751226425,0.06538085639476776,9.759791374206543,-0.010199999436736107,-0.0037999998312443495,-0.04879999905824661,-0.013000000266153095,-0.009999999755783667,-0.007000000079177565
-0.057240575551986694,0.06915412098169327,9.752963066101074,-0.010199999436736107,-0.0037999998312443495,-0.05859999731183052,-0.13499999628619785,0.049999999612681666,-0.007999999971379599
-0.053610965609550476,0.05250963196158409,9.760289192199707,-0.00019999999494757503,0.006300000008195639,-0.05859999731183052,0.16899999762364695,0.23300000406479038,-0.007000000079177565
-0.05772899091243744,0.07083963602781296,9.776166915893555,0.0015999999595806003,-0.013100000098347664,-0.04879999905824661,-0.013000000266153095,-0.07099999651516105,-0.007000000079177565
-0.06155971437692642,0.05271074175834656,9.770362854003906,-0.003399999812245369,-0.010599999688565731,-0.03889999911189079,-0.07399999702553048,-0.009999999755783667,0.05300000012305109
-0.0610138364136219,0.06241204962134361,9.768372535705566,-0.002300000051036477,-0.00039999998989515007,-0.03889999911189079,-0.013000000266153095,0.11099999887334903,-0.007000000079177565
-0.06095637381076813,0.06754522025585175,9.768783569335938,-0.0013000000035390258,0.0064999996684491634,-0.03889999911189079,0.1079999983629796,-0.1319999957758284,-0.007000000079177565
-0.04773080348968506,0.065055251121521,9.758986473083496,0.013299999758601189,-0.002699999837204814,-0.04879999905824661,-0.013000000266153095,0.049999999612681666,-0.007999999971379599
-0.05133168399333954,0.0638677254319191,9.766236305236816,0.002699999837204814,-0.001999999862164259,-0.04879999905824661,-0.07399999702553048,0.049999999612681666,-0.06800000267489824
-0.05694369599223137,0.06173209846019745,9.75663948059082,0.002199999988079071,-0.001500000013038516,-0.05859999731183052,-0.013000000266153095,-0.009999999755783667,-0.007000000079177565
-0.05902186036109924,0.060678645968437195,9.76707935333252,-0.005399999674409628,-0.0010999999940395355,-0.04879999905824661,-0.013000000266153095,-0.07099999651516105,-0.06800000267489824
-0.058140791952610016,0.06110960245132446,9.765575408935547,-0.003999999724328518,-0.0007999999797903001,-0.04879999905824661,0.046999999102312236,-0.1319999957758284,-0.007000000079177565
-0.05168602615594864,0.060372188687324524,9.763391494750977,0.0038999998942017555,-0.0007999999797903001,-0.04879999905824661,-0.013000000266153095,-0.009999999755783667,-0.06800000267489824
-0.058207832276821136,0.05135083943605423,9.767433166503906,-0.005799999926239252,-0.010499999858438969,-0.04879999905824661,-0.013000000266153095,-0.009999999755783667,-0.06800000267489824
-0.0670567974448204,0.06017107889056206,9.765939712524414,-0.015599999576807022,-0.000699999975040555,-0.04879999905824661,0.1079999983629796,-0.07099999651516105,-0.007000000079177565
-0.07059064507484436,0.052547939121723175,9.776320457458496,-0.015799999237060547,-0.010799999348819256,-0.039000000804662704,0.046999999102312236,-0.009999999755783667,-0.007000000079177565
-0.05191586911678314,0.06094679981470108,9.768974304199219,0.003700000001117587,-0.0010999999940395355,-0.039000000804662704,-0.13499999628619785,0.11099999887334903,-0.007000000079177565
-0.06429868191480637,0.056148819625377655,9.777087211608887,-0.005699999630451202,-0.010499999858438969,-0.039000000804662704,0.046999999102312236,-0.009999999755783667,-0.007000000079177565
-0.04324885830283165,0.06722918897867203,9.77579402923584,0.013799999840557575,0.008899999782443047,-0.039000000804662704,-0.07399999702553048,0.049999999612681666,-0.007000000079177565
-0.051264647394418716,0.06000826880335808,9.773935317993164,0.004100000020116568,-0.0005999999702908099,-0.039000000804662704,0.046999999102312236,-0.009999999755783667,-0.007000000079177565
-0.06577350944280624,0.06137775257229805,9.773265838623047,-0.00559999980032444,-0.000699999975040555,-0.039000000804662704,0.046999999102312236,-0.009999999755783667,-0.007000000079177565
-0.05493256449699402,0.06796659529209137,9.773849487304688,0.004100000020116568,0.008799999952316284,-0.039000000804662704,-0.013000000266153095,0.049999999612681666,-0.007000000079177565
-0.05476975813508034,0.06047753617167473,9.780295372009277,0.00419999985024333,-0.0007999999797903001,-0.029099998995661736,0.046999999102312236,0.049999999612681666,-0.007000000079177565
-0.04717535153031349,0.04654328152537346,9.769243240356445,0.014099999330937862,-0.020499998703598976,-0.039000000804662704,-0.013000000266153095,-0.009999999755783667,-0.007000000079177565
-0.05680004134774208,0.06127241253852844,9.76805591583252,0.00419999985024333,-0.0007999999797903001,-0.04879999905824661,-0.07399999702553048,-0.07099999651516105,-0.06800000267489824
-0.05324704572558403,0.05191586911678314,9.761839866638184,-0.015399999916553497,-0.010400000028312206,-0.039000000804662704,0.046999999102312236,-0.07099999651516105,-0.007000000079177565
-0.059232551604509354,0.06919243186712265,9.76565170288086,0.004399999976158142,-0.00989999994635582,-0.04879999905824661,0.046999999102312236,-0.07099999651516105,-0.007000000079177565
-0.0529693178832531,0.06819643825292587,9.764339447021484,0.004100000020116568,0.009599999524652958,-0.04879999905824661,-0.013000000266153095,-0.25400000763737635,-0.007000000079177565
-0.05158068239688873,0.08357679098844528,9.773419380187988,0.0026000000070780516,0.01850000023841858,-0.039000000804662704,0.046999999102312236,-0.25400000763737635,-0.007000000079177565
-0.054606951773166656,0.07002561539411545,9.770113945007324,0.0016999999061226845,0.008299999870359898,-0.039000000804662704,0.046999999102312236,-0.009999999755783667,0.05300000012305109
-0.06144479289650917,0.07034164667129517,9.77507495880127,-0.004799999762326479,0.004900000058114529,-0.03889999911189079,0.046999999102312236,0.049999999612681666,-0.007000000079177565
-0.04448426887392998,0.05881116911768913,9.789344787597656,-0.004799999762326479,0.004900000058114529,-0.03889999911189079,-0.013000000266153095,-0.009999999755783667,-0.007000000079177565
-0.06833051145076752,0.05102522671222687,9.778274536132812,-0.014299999922513962,-0.00839999970048666,-0.029199998825788498,0.046999999102312236,-0.07099999651516105,-0.007000000079177565
-0.05571785941720009,0.05675215646624565,9.78353214263916,0.003399999812245369,-0.0058999997563660145,-0.029199998825788498,-0.07399999702553048,0.049999999612681666,0.05300000012305109
-0.04012681916356087,0.06403053551912308,9.776588439941406,0.009800000116229057,0.002899999963119626,-0.039000000804662704,-0.013000000266153095,-0.009999999755783667,-0.06800000267489824
-0.05353435128927231,0.07020757347345352,9.780840873718262,0,0.008499999530613422,-0.029199998825788498,0.046999999102312236,-0.07099999651516105,0.05300000012305109
-0.06236416473984718,0.05945281684398651,9.759167671203613,-0.007499999832361937,-0.0010999999940395355,-0.04879999905824661,0.046999999102312236,-0.009999999755783667,-0.007000000079177565
-0.051810525357723236,0.05917508900165558,9.763630867004395,0.0016999999061226845,-0.0008999999845400453,-0.04879999905824661,0.046999999102312236,0.049999999612681666,-0.06800000267489824
-0.06430825591087341,0.0670567974448204,9.77125358581543,-0.005499999970197678,0.006000000052154064,-0.03889999911189079,0.046999999102312236,-0.009999999755783667,-0.007000000079177565
-0.06020938605070114,0.0684933215379715,9.773006439208984,-0.0038999998942017555,0.004100000020116568,-0.03889999911189079,-0.013000000266153095,-0.009999999755783667,-0.007000000079177565
-0.05981673300266266,0.058188680559396744,9.772662162780762,-0.0038999998942017555,-0.005499999970197678,-0.03889999911189079,0.16899999762364695,-0.07099999651516105,-0.007000000079177565
-0.04845863953232765,0.056790463626384735,9.775870323181152,0.00559999980032444,-0.015799999237060547,-0.03889999911189079,-0.013000000266153095,-0.07099999651516105,-0.007000000079177565
-0.07585788518190384,0.05684792250394821,9.773207664489746,-0.014099999330937862,-0.015799999237060547,-0.03889999911189079,0.046999999102312236,-0.009999999755783667,0.05300000012305109
-0.059108052402734756,0.056886233389377594,9.79121208190918,-0.004299999680370092,-0.01589999906718731,-0.019299998879432678,0.046999999102312236,-0.009999999755783667,-0.007000000079177565
-0.06716214865446091,0.061741672456264496,9.788071632385254,-0.014099999330937862,-0.006199999712407589,-0.019299998879432678,-0.013000000266153095,-0.009999999755783667,-0.007000000079177565
-0.05573701485991478,0.07635588198900223,9.781453132629395,0.005399999674409628,0.003499999875202775,-0.029099998995661736,-0.07399999702553048,0.11099999887334903,-0.007000000079177565
-0.05623500794172287,0.06222051382064819,9.783684730529785,0.005699999630451202,-0.0058999997563660145,-0.029099998995661736,0.046999999102312236,0.049999999612681666,-0.007000000079177565
-0.049799397587776184,0.06130113825201988,9.778159141540527,0.005799999926239252,-0.006000000052154064,-0.029099998995661736,0.046999999102312236,-0.009999999755783667,0.05300000012305109
-0.066721610724926,0.06570647656917572,9.778867721557617,-0.0038999998942017555,-0.006099999882280827,-0.029099998995661736,-0.013000000266153095,0.049999999612681666,-0.007000000079177565
-0.05393657833337784,0.05848555639386177,9.768017768859863,0.0058999997563660145,-0.006099999882280827,-0.03889999911189079,-0.07399999702553048,0.11099999887334903,-0.007000000079177565
-0.05393657833337784,0.05848555639386177,9.768017768859863,0.0058999997563660145,-0.006000000052154064,-0.0486999973654747,-0.07399999702553048,0.11099999887334903,-0.007000000079177565
-0.05417599529027939,0.0715770572423935,9.776694297790527,0.006199999712407589,0.0037999998312443495,-0.03889999911189079,-0.013000000266153095,-0.009999999755783667,-0.007000000079177565
-0.047098737210035324,0.06899131834506989,9.775104522705078,0.01599999889731407,0.0037999998312443495,-0.03889999911189079,-0.013000000266153095,-0.009999999755783667,0.05300000012305109
-0.05554547905921936,0.07827123999595642,9.77623462677002,0.006099999882280827,0.013599999248981476,-0.03889999911189079,-0.013000000266153095,-0.07099999651516105,0.05300000012305109
-0.06745903193950653,0.07023629546165466,9.77551555633545,-0.013599999248981476,0.0037999998312443495,-0.03889999911189079,-0.19600000221697184,-0.009999999755783667,-0.007000000079177565
-0.054616525769233704,0.04843948781490326,9.78762149810791,0.0058999997563660145,-0.014999999664723873,-0.019299998879432678,0.046999999102312236,-0.07099999651516105,0.05300000012305109
-0.06542874127626419,0.04453215003013611,9.778858184814453,-0.003999999724328518,-0.024799998849630356,-0.029099998995661736,-0.013000000266153095,-0.009999999755783667,-0.007000000079177565
-0.06592673808336258,0.06942227482795715,9.768304824829102,-0.003999999724328518,0.0044999998062849045,-0.0486999973654747,-0.07399999702553048,0.049999999612681666,-0.007000000079177565
-0.05255751311779022,0.05120718851685524,9.7774019241333,0.005799999926239252,-0.014699999243021011,-0.03889999911189079,0.046999999102312236,-0.009999999755783667,-0.007000000079177565
-0.056934114545583725,0.056455276906490326,9.780994415283203,0.005799999926239252,-0.014699999243021011,-0.029099998995661736,-0.013000000266153095,-0.009999999755783667,-0.007000000079177565
-0.052854396402835846,0.0686178207397461,9.777593612670898,0.005699999630451202,0.004799999762326479,-0.03889999911189079,-0.013000000266153095,-0.009999999755783667,-0.007000000079177565
-0.05469314008951187,0.07541734725236893,9.778005599975586,0.005699999630451202,0.004799999762326479,-0.029099998995661736,-0.013000000266153095,0.049999999612681666,-0.007000000079177565
-0.0491769015789032,0.04808514937758446,9.772499084472656,0.005799999926239252,-0.014599999412894249,-0.03889999911189079,0.046999999102312236,-0.009999999755783667,-0.007000000079177565
-0.05334281548857689,0.057288460433483124,9.77028751373291,0.005699999630451202,-0.014699999243021011,-0.03889999911189079,0.046999999102312236,0.049999999612681666,-0.007000000079177565
-0.059376202523708344,0.06566816568374634,9.767308235168457,-0.0037999998312443495,-0.004999999888241291,-0.0486999973654747,-0.13499999628619785,-0.07099999651516105,0.05300000012305109
-0.0753694698214531,0.06605123728513718,9.776885986328125,-0.013799999840557575,-0.0044999998062849045,-0.03889999911189079,-0.013000000266153095,-0.1319999957758284,-0.007000000079177565
-0.07102160155773163,0.060793567448854446,9.782267570495605,-0.0139999995008111,-0.0044999998062849045,-0.029099998995661736,-0.013000000266153095,-0.009999999755783667,0.05300000012305109
-0.05825571343302727,0.07198885083198547,9.77263355255127,-0.00419999985024333,0.0052999998442828655,-0.03889999911189079,-0.013000000266153095,-0.009999999755783667,-0.007000000079177565
-0.04850652813911438,0.062076862901449203,9.779192924499512,0.005399999674409628,-0.004399999976158142,-0.029099998995661736,0.1079999983629796,0.049999999612681666,-0.007000000079177565
-0.0606594942510128,0.06631939113140106,9.795062065124512,-0.004100000020116568,-0.004600000102072954,-0.019299998879432678,0.046999999102312236,-0.07099999651516105,0.05300000012305109
-0.047663770616054535,0.06154056265950203,9.798011779785156,0.014999999664723873,0.004799999762326479,-0.009499999694526196,-0.013000000266153095,-0.009999999755783667,-0.007000000079177565
-0.047663770616054535,0.06154056265950203,9.798011779785156,0.014699999243021011,-0.004799999762326479,-0.009499999694526196,-0.013000000266153095,-0.009999999755783667,-0.007000000079177565
-0.05363012105226517,0.07052360475063324,9.786108016967773,-0.004799999762326479,0.004900000058114529,-0.029099998995661736,-0.07399999702553048,0.049999999612681666,-0.06800000267489824
-0.05717353895306587,0.06039134040474892,9.784144401550293,0.004799999762326479,0.004900000058114529,-0.029099998995661736,-0.07399999702553048,0.049999999612681666,0.05300000012305109
-0.05932832136750221,0.06524679064750671,9.775535583496094,0.004900000058114529,-0.0044999998062849045,-0.029099998995661736,0.1079999983629796,-0.009999999755783667,0.05300000012305109
-0.0513029545545578,0.05797798931598663,9.776578903198242,0.0050999997183680534,-0.0044999998062849045,-0.03889999911189079,-0.013000000266153095,-0.009999999755783667,0.05300000012305109
-0.05950070172548294,0.0644710585474968,9.767595291137695,-0.004600000102072954,-0.004399999976158142,-0.0486999973654747,0.046999999102312236,-0.009999999755783667,-0.06800000267489824
-0.05556463077664375,0.06215347722172737,9.767624855041504,0.004999999888241291,-0.0044999998062849045,-0.0486999973654747,-0.013000000266153095,-0.009999999755783667,-0.007000000079177565
-0.05167644843459129,0.07172070443630219,9.765814781188965,0.004999999888241291,0.005200000014156103,-0.0486999973654747,-0.013000000266153095,-0.07099999651516105,-0.007999999971379599
-0.05523902177810669,0.061885327100753784,9.780160903930664,0.004699999932199717,-0.004399999976158142,-0.029099998995661736,-0.013000000266153095,0.049999999612681666,0.05300000012305109
-0.058399368077516556,0.06360915303230286,9.79192066192627,-0.004799999762326479,-0.004299999680370092,-0.019299998879432678,-0.013000000266153095,-0.009999999755783667,0.05300000012305109
-0.05850471183657646,0.07996633648872375,9.78320598602295,-0.004799999762326479,0.015099999494850636,-0.029099998995661736,0.046999999102312236,-0.009999999755783667,-0.007000000079177565
-0.06251739710569382,0.06675992161035538,9.785781860351562,-0.004799999762326479,-0.0044999998062849045,-0.029099998995661736,0.046999999102312236,-0.009999999755783667,-0.007000000079177565
-0.05352477356791496,0.063973069190979,9.782841682434082,0.004900000058114529,-0.004600000102072954,-0.029099998995661736,-0.013000000266153095,0.049999999612681666,0.05300000012305109
-0.06526593863964081,0.062096014618873596,9.79704475402832,-0.004600000102072954,-0.0044999998062849045,-0.019299998879432678,0.046999999102312236,-0.009999999755783667,-0.007999999971379599
-0.05419514700770378,0.06429868191480637,9.786720275878906,0.004999999888241291,-0.004600000102072954,-0.029099998995661736,-0.013000000266153095,-0.009999999755783667,-0.007000000079177565
-0.055085793137550354,0.0617225207388401,9.787382125854492,0.004900000058114529,-0.0044999998062849045,-0.029099998995661736,0.046999999102312236,-0.009999999755783667,-0.007000000079177565
-0.06274724006652832,0.06567773967981339,9.788626670837402,-0.004699999932199717,-0.004600000102072954,-0.019299998879432678,0.23000000355442093,-0.1319999957758284,0.05300000012305109
-0.05917508900165558,0.05670427158474922,9.778685569763184,-0.007799999788403511,-0.012999999336898327,-0.029099998995661736,-0.013000000266153095,-0.009999999755783667,-0.007999999971379599
-0.04873637109994888,0.05396530404686928,9.777383804321289,0.0009999999310821295,-0.006399999838322401,-0.039000000804662704,0.046999999102312236,-0.07099999651516105,-0.007000000079177565
-0.050939034670591354,0.051858410239219666,9.776300430297852,0.0005999999702908099,-0.004100000020116568,-0.039000000804662704,-0.013000000266153095,-0.1319999957758284,-0.007999999971379599
-0.058303602039813995,0.05848555639386177,9.770909309387207,-0.006300000008195639,0.003700000001117587,-0.039000000804662704,-0.07399999702553048,-0.009999999755783667,0.05300000012305109
-0.05957731604576111,0.06675992161035538,9.778715133666992,-0.003999999724328518,0.0023999998811632395,-0.029199998825788498,-0.07399999702553048,0.11099999887334903,-0.007000000079177565
-0.04818091541528702,0.05339069664478302,9.780898094177246,0.003999999724328518,0.008200000040233135,-0.029099998995661736,-0.013000000266153095,0.049999999612681666,-0.007000000079177565
-0.05815037339925766,0.06332184374332428,9.79116439819336,-0.004100000020116568,0.0011999999405816197,-0.019299998879432678,-0.013000000266153095,-0.009999999755783667,-0.007999999971379599
-0.05431964993476868,0.06725791096687317,9.79051399230957,0.003599999938160181,0.00699999975040555,-0.019299998879432678,0.046999999102312236,0.049999999612681666,-0.007000000079177565
-0.05751830339431763,0.07052360475063324,9.783129692077637,-0.00419999985024333,0.004799999762326479,-0.029099998995661736,-0.013000000266153095,-0.07099999651516105,0.05200000106461238
-0.05042188614606857,0.06283342838287354,9.790225982666016,0.003399999812245369,-0.0030999998562037945,-0.019299998879432678,-0.013000000266153095,0.049999999612681666,0.05200000106461238
-0.0651605874300003,0.05978800728917122,9.775640487670898,-0.006199999712407589,-0.0030999998562037945,-0.03889999911189079,-0.013000000266153095,-0.009999999755783667,-0.007000000079177565
-0.04518337547779083,0.0681389793753624,9.779729843139648,0.013299999758601189,0.0066999997943639755,-0.029099998995661736,0.046999999102312236,-0.07099999651516105,0.05200000106461238
-0.05191586911678314,0.06729622185230255,9.78380012512207,0.0032999999821186066,0.0064999996684491634,-0.029099998995661736,-0.013000000266153095,0.049999999612681666,-0.007000000079177565
-0.05646485090255737,0.05511452630162239,9.778428077697754,0.003399999812245369,-0.012899999506771564,-0.029099998995661736,-0.013000000266153095,0.049999999612681666,-0.007999999971379599
-0.06246950849890709,0.05658935010433197,9.789794921875,-0.006099999882280827,-0.012899999506771564,-0.019299998879432678,0.16899999762364695,-0.1319999957758284,-0.007000000079177565
-0.06721960753202438,0.07244853675365448,9.789862632751465,-0.016300000250339508,0.006099999882280827,-0.019299998879432678,0.1079999983629796,-0.009999999755783667,0.05300000012305109
-0.05047934874892235,0.05702031031250954,9.771904945373535,0.0031999999191612005,-0.013599999248981476,-0.03889999911189079,-0.013000000266153095,-0.009999999755783667,-0.007000000079177565
-0.05180094763636589,0.05670427158474922,9.777268409729004,0.0031999999191612005,-0.013599999248981476,-0.03889999911189079,0.046999999102312236,-0.07099999651516105,-0.007999999971379599
-0.057432111352682114,0.0724964290857315,9.781022071838379,0.003000000026077032,0.005799999926239252,-0.029099998995661736,-0.013000000266153095,0.049999999612681666,-0.007999999971379599
-0.057997141033411026,0.058475982397794724,9.773869514465332,0.0030999998562037945,-0.0038999998942017555,-0.019299998879432678,-0.013000000266153095,-0.009999999755783667,-0.007000000079177565
-0.057997141033411026,0.058475982397794724,9.773869514465332,-0.006799999624490738,-0.004399999976158142,-0.03889999911189079,-0.013000000266153095,-0.009999999755783667,-0.007000000079177565
-0.05081453546881676,0.06110960245132446,9.789910316467285,0.00279999990016222,-0.004299999680370092,-0.019299998879432678,-0.013000000266153095,-0.009999999755783667,0.05300000012305109
-0.05459737405180931,0.05675215646624565,9.788013458251953,0.00279999990016222,-0.0139999995008111,-0.019299998879432678,-0.013000000266153095,-0.009999999755783667,0.05200000106461238
-0.0661182701587677,0.05263412743806839,9.788664817810059,-0.006899999920278788,-0.013899999670684338,-0.019299998879432678,-0.013000000266153095,0.049999999612681666,-0.007999999971379599
-0.05303635820746422,0.05412811413407326,9.78427791595459,0.002899999963119626,-0.013799999840557575,-0.029099998995661736,-0.07399999702553048,-0.009999999755783667,-0.007000000079177565
-0.047309424728155136,0.05581362918019295,9.790389060974121,0.01269999984651804,-0.013499999418854713,-0.029099998995661736,0.046999999102312236,-0.009999999755783667,-0.007000000079177565
-0.045987825840711594,0.05900270864367485,9.777498245239258,0.012600000016391277,-0.003700000001117587,-0.03889999911189079,-0.07399999702553048,0.049999999612681666,-0.007999999971379599
-0.059088896960020065,0.05348646640777588,9.792036056518555,-0.0066999997943639755,-0.013199999928474426,-0.019299998879432678,0.046999999102312236,0.049999999612681666,-0.007999999971379599
-0.05914635956287384,0.06398265063762665,9.774797439575195,-0.0064999996684491634,-0.003499999875202775,-0.03889999911189079,-0.013000000266153095,-0.07099999651516105,-0.007000000079177565
-0.052385132759809494,0.06211517006158829,9.779260635375977,-0.0064999996684491634,-0.003499999875202775,-0.03889999911189079,-0.013000000266153095,0.049999999612681666,-0.007000000079177565
-0.06348465383052826,0.06415502727031708,9.770986557006836,-0.006599999964237213,-0.003399999812245369,-0.03889999911189079,-0.013000000266153095,-0.009999999755783667,-0.007000000079177565
-0.062239665538072586,0.06808152049779892,9.782966613769531,-0.006599999964237213,0.006300000008195639,-0.029099998995661736,0.046999999102312236,-0.009999999755783667,-0.007000000079177565
-0.05540182814002037,0.05207867547869682,9.786270141601562,0.0030999998562037945,-0.013299999758601189,-0.029099998995661736,-0.013000000266153095,-0.009999999755783667,-0.007000000079177565
-0.05531563609838486,0.053304508328437805,9.781722068786621,0.0030999998562037945,-0.013299999758601189,-0.029099998995661736,-0.013000000266153095,-0.009999999755783667,-0.007000000079177565
-0.054827217012643814,0.07037995010614395,9.787208557128906,0.003000000026077032,-0.013199999928474426,-0.029099998995661736,-0.013000000266153095,0.049999999612681666,-0.007999999971379599
-0.04961743578314781,0.07377971708774567,9.788081169128418,0.002899999963119626,0.006099999882280827,-0.019299998879432678,-0.013000000266153095,-0.009999999755783667,-0.007999999971379599
-0.051484912633895874,0.05767153203487396,9.793903350830078,0.00279999990016222,-0.003499999875202775,-0.019299998879432678,0.046999999102312236,-0.07099999651516105,-0.007999999971379599
-0.052241481840610504,0.059251703321933746,9.788435935974121,0.0026000000070780516,-0.003599999938160181,-0.019299998879432678,-0.013000000266153095,0.049999999612681666,-0.007999999971379599
-0.06187574937939644,0.06533297896385193,9.794219970703125,-0.006899999920278788,-0.003499999875202775,-0.019299998879432678,0.1079999983629796,-0.009999999755783667,-0.007999999971379599
-0.05635950714349747,0.056934114545583725,9.78378963470459,0.002699999837204814,-0.013599999248981476,-0.029099998995661736,0.1079999983629796,0.049999999612681666,-0.007999999971379599
-0.056761734187603,0.0630345419049263,9.786375999450684,0.00279999990016222,-0.003999999724328518,-0.029099998995661736,-0.013000000266153095,0.049999999612681666,-0.007000000079177565
-0.06340803951025009,0.062076862901449203,9.79148006439209,-0.006599999964237213,-0.0038999998942017555,-0.019299998879432678,-0.013000000266153095,-0.009999999755783667,-0.007999999971379599
-0.057192690670490265,0.05948155000805855,9.780601501464844,0.003000000026077032,-0.0037999998312443495,-0.029099998995661736,-0.013000000266153095,-0.009999999755783667,-0.007999999971379599
-0.06140648573637009,0.055392250418663025,9.775391578674316,-0.0066999997943639755,-0.013499999418854713,-0.03889999911189079,-0.013000000266153095,-0.07099999651516105,0.05300000012305109
-0.058610059320926666,0.05176264047622681,9.778839111328125,-0.006799999624490738,-0.013299999758601189,-0.029099998995661736,-0.07399999702553048,0.049999999612681666,-0.007000000079177565
-0.056292470544576645,0.05433880165219307,9.78134822845459,-0.0066999997943639755,-0.0032999999821186066,-0.029099998995661736,0.046999999102312236,0.049999999612681666,-0.007999999971379599
-0.04808514937758446,0.05456864461302757,9.780553817749023,0.003000000026077032,-0.013100000098347664,-0.029099998995661736,-0.01400000015835513,0.049999999612681666,0.05200000106461238
-0.06818686425685883,0.053553506731987,9.793261528015137,-0.016099998727440834,-0.012899999506771564,-0.019299998879432678,0.046999999102312236,0.049999999612681666,-0.007000000079177565
-0.06818686425685883,0.053553506731987,9.793261528015137,-0.016099998727440834,-0.012899999506771564,-0.019299998879432678,0.046999999102312236,0.049999999612681666,-0.007000000079177565
-0.04936843737959862,0.053898271173238754,9.78908634185791,0.003599999938160181,-0.012899999506771564,-0.019299998879432678,0.046999999102312236,-0.009999999755783667,-0.007000000079177565
-0.060295574367046356,0.06838797777891159,9.794028282165527,-0.006099999882280827,0.006399999838322401,-0.019299998879432678,0.046999999102312236,0.049999999612681666,-0.007999999971379599
-0.050939034670591354,0.07125144451856613,9.789709091186523,0.003700000001117587,0.006199999712407589,-0.019299998879432678,0.16899999762364695,-0.009999999755783667,-0.007000000079177565
-0.05872498080134392,0.06855078041553497,9.779576301574707,-0.006000000052154064,0.005699999630451202,-0.029099998995661736,0.046999999102312236,-0.009999999755783667,-0.007999999971379599
-0.05952943116426468,0.05986462160944939,9.786548614501953,-0.0058999997563660145,-0.004100000020116568,-0.029099998995661736,0.046999999102312236,-0.07099999651516105,-0.06899999839828364
-0.05412811413407326,0.05725015327334404,9.790283203125,0.003499999875202775,-0.013899999670684338,-0.019299998879432678,-0.0749999994190225,0.049999999612681666,-0.007999999971379599
-0.05272989720106125,0.049330130219459534,9.779902458190918,0.003599999938160181,-0.013599999248981476,-0.029099998995661736,0.1079999983629796,-0.009999999755783667,0.05200000106461238
-0.06580223888158798,0.06204812973737717,9.803269386291504,-0.006000000052154064,-0.003999999724328518,-0.009499999694526196,-0.013000000266153095,-0.009999999755783667,-0.007999999971379599
-0.04661989584565163,0.07027460634708405,9.77307415008545,-0.006000000052154064,0.005699999630451202,-0.029099998995661736,0.04600000004387353,-0.07099999651516105,-0.007999999971379599
-0.04661989584565163,0.07027460634708405,9.77307415008545,0.013299999758601189,0.005499999970197678,-0.03889999911189079,-0.07399999702553048,0.049999999612681666,0.05200000106461238
-0.065055251121521,0.05689580738544464,9.771828651428223,-0.006300000008195639,-0.013700000010430813,-0.03889999911189079,-0.013000000266153095,-0.009999999755783667,-0.007999999971379599
-0.0644519105553627,0.06545747071504593,9.769539833068848,-0.006199999712407589,-0.0037999998312443495,-0.03889999911189079,0.046999999102312236,-0.009999999755783667,-0.007999999971379599
-0.05331408232450485,0.060247693210840225,9.779719352722168,0.003399999812245369,-0.0038999998942017555,-0.029099998995661736,-0.013000000266153095,-0.009999999755783667,0.05200000106461238
-0.06368576735258102,0.052931010723114014,9.778571128845215,-0.006300000008195639,-0.013499999418854713,-0.029099998995661736,0.1070000026395942,0.05099999867112037,-0.007999999971379599
-0.05872498080134392,0.05694369599223137,9.76956844329834,-0.006000000052154064,-0.013700000010430813,-0.03889999911189079,0.046999999102312236,-0.009999999755783667,-0.007999999971379599
-0.04968447610735893,0.07005434483289719,9.78219985961914,0.003599999938160181,0.00559999980032444,-0.029099998995661736,-0.013000000266153095,-0.009999999755783667,0.05200000106461238
-0.06187574937939644,0.060678645968437195,9.779701232910156,-0.006099999882280827,-0.003999999724328518,-0.029099998995661736,-0.013000000266153095,-0.07099999651516105,-0.007999999971379599
-0.05211698263883591,0.05996038764715195,9.787257194519043,0.003399999812245369,-0.0038999998942017555,-0.029099998995661736,-0.013000000266153095,-0.009999999755783667,-0.007999999971379599
-0.05491340905427933,0.051484912633895874,9.781338691711426,0.0032999999821186066,-0.013499999418854713,-0.029099998995661736,-0.01400000015835513,-0.009999999755783667,0.05200000106461238
-0.0629291981458664,0.04977066442370415,9.779336929321289,-0.006300000008195639,-0.013299999758601189,-0.029099998995661736,-0.013000000266153095,-0.07099999651516105,-0.06899999839828364
-0.05706819146871567,0.06317819654941559,9.774654388427734,0.0031999999191612005,-0.003399999812245369,-0.03889999911189079,-0.013000000266153095,0.049999999612681666,-0.007999999971379599
-0.053850382566452026,0.05758533999323845,9.775199890136719,0.0032999999821186066,-0.003399999812245369,-0.03889999911189079,-0.01400000015835513,-0.008999999863581633,0.05200000106461238
-0.05376419425010681,0.06848374009132385,9.785743713378906,0.0031999999191612005,0.006300000008195639,-0.029099998995661736,-0.013000000266153095,0.049999999612681666,-0.007999999971379599
-0.05462610721588135,0.06408798694610596,9.783330917358398,0.0032999999821186066,-0.0032999999821186066,-0.029099998995661736,-0.013000000266153095,-0.009999999755783667,0.05200000106461238
-0.05465483292937279,0.06683653593063354,9.787745475769043,0.0031999999191612005,-0.0031999999191612005,-0.019299998879432678,-0.013000000266153095,0.049999999612681666,-0.007999999971379599
-0.06254612654447556,0.06028600037097931,9.789278030395508,-0.006300000008195639,-0.0031999999191612005,-0.019299998879432678,-0.13600000534979648,-0.009999999755783667,0.05200000106461238
-0.05175306275486946,0.06486371904611588,9.801335334777832,0.0032999999821186066,-0.002699999837204814,-0.009499999694526196,-0.01400000015835513,-0.008999999863581633,-0.007999999971379599
-0.06256527453660965,0.07255388796329498,9.78357982635498,-0.006300000008195639,0.006899999920278788,-0.029099998995661736,-0.07399999702553048,0.049999999612681666,-0.007000000079177565
-0.05694369599223137,0.06523720920085907,9.786337852478027,0.003499999875202775,-0.0024999999441206455,-0.029099998995661736,-0.01400000015835513,-0.43600000302588643,0.05200000106461238
-0.05862921103835106,0.06685569137334824,9.79236125946045,-0.009099999442696571,-0.003399999812245369,-0.019299998879432678,0.046999999102312236,-0.07099999651516105,-0.007999999971379599
-0.053706735372543335,0.06818686425685883,9.78477668762207,0.00019999999494757503,0.0026000000070780516,-0.029099998995661736,-0.01400000015835513,-0.009999999755783667,0.05200000106461238
-0.055057063698768616,0.057288460433483124,9.780284881591797,0.00009999999747378752,-0.00989999994635582,-0.029199998825788498,0.04600000004387353,0.05099999867112037,-0.007999999971379599
-0.049636587500572205,0.05454949289560318,9.791126251220703,-0.005200000014156103,0.0052999998442828655,-0.019299998879432678,0.1079999983629796,0.049999999612681666,-0.007999999971379599
-0.0654095932841301,0.056081779301166534,9.787065505981445,0.00279999990016222,-0.008899999782443047,-0.01939999870955944,-0.013000000266153095,0.049999999612681666,-0.007999999971379599
-0.06070737913250923,0.06508397310972214,9.780994415283203,-0.0032999999821186066,0.0024999999441206455,-0.029199998825788498,-0.01400000015835513,-0.009999999755783667,0.05200000106461238
-0.05512410029768944,0.059845466166734695,9.782708168029785,0.004399999976158142,0.0016999999061226845,-0.029199998825788498,0.04600000004387353,0.049999999612681666,-0.007999999971379599
-0.052308518439531326,0.05942408740520477,9.789661407470703,0.00279999990016222,0.0008999999845400453,-0.01939999870955944,-0.01400000015835513,-0.07000000079177565,-0.007999999971379599
-0.056742578744888306,0.05801629647612572,9.795990943908691,0.0015999999595806003,0.0004999999655410647,-0.01939999870955944,-0.01400000015835513,0.049999999612681666,-0.007999999971379599
-0.060985106974840164,0.08168058842420578,9.786846160888672,0.0015999999595806003,0.0004999999655410647,-0.01939999870955944,-0.01400000015835513,-0.07000000079177565,-0.007999999971379599
-0.049722783267498016,0.06837840378284454,9.781598091125488,0.003999999724328518,0.004299999680370092,-0.029099998995661736,0.04600000004387353,0.049999999612681666,-0.007999999971379599
-0.05900270864367485,0.0607839934527874,9.786194801330566,-0.005499999970197678,-0.005499999970197678,-0.029099998995661736,-0.013000000266153095,-0.07099999651516105,-0.007999999971379599
-0.05279693752527237,0.06260358542203903,9.787678718566895,0.003999999724328518,-0.005499999970197678,-0.019299998879432678,-0.01400000015835513,0.049999999612681666,-0.06899999839828364
-0.04746265336871147,0.05379292368888855,9.786615371704102,0.013899999670684338,-0.015199999324977398,-0.029099998995661736,-0.01400000015835513,-0.008999999863581633,0.05200000106461238
-0.05170518159866333,0.06616616249084473,9.783167839050293,0.004100000020116568,-0.0052999998442828655,-0.029099998995661736,-0.07399999702553048,-0.009999999755783667,-0.06899999839828364
-0.052950166165828705,0.05478890985250473,9.780065536499023,0.003999999724328518,-0.01489999983459711,-0.029099998995661736,-0.01400000015835513,-0.009999999755783667,0.05200000106461238
-0.040155552327632904,0.04502056911587715,9.78200912475586,0.013799999840557575,-0.02459999918937683,-0.029099998995661736,-0.01400000015835513,0.1729999938574018,0.05200000106461238
-0.05646485090255737,0.05657019838690758,9.784623146057129,0.004399999976158142,-0.014800000004470348,-0.029099998995661736,-0.0749999994190225,0.11200000126684104,-0.007999999971379599
-0.06095637381076813,0.057882219552993774,9.795196533203125,-0.004999999888241291,-0.004699999932199717,-0.019299998879432678,-0.01400000015835513,-0.009999999755783667,0.05200000106461238
-0.05206909775733948,0.0706193745136261,9.78184700012207,0.004699999932199717,0.004999999888241291,-0.029099998995661736,-0.01400000015835513,-0.009999999755783667,-0.007999999971379599
-0.05795883387327194,0.06812940537929535,9.783062934875488,-0.004999999888241291,0.004999999888241291,-0.029099998995661736,0.1070000026395942,-0.07000000079177565,-0.007999999971379599
-0.06128198653459549,0.06441360712051392,9.787103652954102,-0.005200000014156103,-0.004999999888241291,-0.029099998995661736,0.1070000026395942,-0.008999999863581633,-0.007999999971379599
-0.06258442997932434,0.07603026926517487,9.78908634185791,-0.005200000014156103,0.004399999976158142,-0.019299998879432678,0.1070000026395942,-0.07099999651516105,0.05200000106461238
-0.06057330220937729,0.06800490617752075,9.782191276550293,-0.0052999998442828655,0.004100000020116568,-0.029099998995661736,0.04600000004387353,0.11099999887334903,-0.007999999971379599
-0.053256623446941376,0.05708734691143036,9.786873817443848,0.004699999932199717,-0.01549999974668026,-0.029099998995661736,-0.01400000015835513,0.05099999867112037,0.05200000106461238
-0.0514274537563324,0.07400956004858017,9.788406372070312,0.004799999762326479,0.003999999724328518,-0.019299998879432678,0.04600000004387353,0.049999999612681666,-0.007999999971379599
-0.04919605702161789,0.05755661055445671,9.790532112121582,-0.004799999762326479,-0.005799999926239252,-0.029099998995661736,0.04600000004387353,-0.07099999651516105,-0.007999999971379599
-0.05516240745782852,0.08344271779060364,9.790206909179688,0.004699999932199717,-0.005799999926239252,-0.019299998879432678,0.04600000004387353,0.049999999612681666,-0.007999999971379599
-0.054635681211948395,0.05725015327334404,9.790398597717285,0.004600000102072954,0.013399999588727951,-0.019299998879432678,-0.01400000015835513,0.049999999612681666,-0.06899999839828364
-0.05096776410937309,0.06130113825201988,9.781923294067383,0.004900000058114529,-0.006000000052154064,-0.029099998995661736,-0.01400000015835513,0.05099999867112037,-0.007999999971379599
-0.05591897666454315,0.06743986904621124,9.786959648132324,0.004999999888241291,0.003700000001117587,-0.029099998995661736,-0.0749999994190225,0.11200000126684104,-0.007999999971379599
-0.053045932203531265,0.07431601732969284,9.798864364624023,0.005200000014156103,0.0038999998942017555,-0.009499999694526196,-0.01400000015835513,0.05099999867112037,-0.007999999971379599
-0.05882074683904648,0.06166505813598633,9.778973579406738,-0.004299999680370092,-0.005799999926239252,-0.029099998995661736,-0.01400000015835513,-0.07000000079177565,0.05200000106461238
-0.056273315101861954,0.05511452630162239,9.787017822265625,0.0050999997183680534,-0.015399999916553497,-0.029099998995661736,0.1070000026395942,0.05099999867112037,0.05200000106461238
-0.06083187833428383,0.07050444930791855,9.781817436218262,-0.004399999976158142,0.0037999998312443495,-0.029099998995661736,-0.01400000015835513,0.05099999867112037,0.05200000106461238
-0.06538085639476776,0.057384226471185684,9.783780097961426,-0.004299999680370092,-0.015599999576807022,-0.029099998995661736,-0.01400000015835513,-0.008999999863581633,-0.007999999971379599
-0.04837245121598244,0.0486980639398098,9.786596298217773,0.005399999674409628,-0.015399999916553497,-0.029099998995661736,0.04600000004387353,0.05099999867112037,-0.007999999971379599
-0.05950070172548294,0.06495948135852814,9.790474891662598,-0.004100000020116568,-0.005699999630451202,-0.019299998879432678,0.04600000004387353,0.05099999867112037,-0.06899999839828364
-0.06527551263570786,0.05334281548857689,9.78073501586914,-0.003999999724328518,-0.01549999974668026,-0.029099998995661736,-0.0749999994190225,-0.008999999863581633,0.05200000106461238
-0.05103480443358421,0.06710468232631683,9.785006523132324,0.005699999630451202,0.00419999985024333,-0.029099998995661736,-0.01400000015835513,-0.07000000079177565,-0.007999999971379599
-0.06182786449790001,0.0727454200387001,9.7841157913208,-0.00419999985024333,0.00419999985024333,-0.029099998995661736,-0.0749999994190225,0.05099999867112037,-0.007999999971379599
-0.05308423936367035,0.07243896275758743,9.777039527893066,0.00559999980032444,0.004299999680370092,-0.03889999911189079,-0.01400000015835513,-0.008999999863581633,-0.007999999971379599
-0.05553590506315231,0.06216305121779442,9.78178882598877,0.005499999970197678,-0.0052999998442828655,-0.029099998995661736,-0.01400000015835513,0.05099999867112037,-0.007999999971379599
-0.05581362918019295,0.07604942470788956,9.78641414642334,0.00559999980032444,0.004399999976158142,-0.029099998995661736,-0.01400000015835513,-0.07000000079177565,-0.007999999971379599
-0.058092910796403885,0.0625748559832573,9.772795677185059,-0.00419999985024333,-0.005200000014156103,-0.03889999911189079,-0.01400000015835513,0.05099999867112037,-0.007999999971379599
-0.05087199807167053,0.05559336394071579,9.78918170928955,0.00559999980032444,-0.014800000004470348,-0.019299998879432678,0.04600000004387353,-0.008999999863581633,0.05200000106461238
-0.043028589338064194,0.0618470199406147,9.781558990478516,0.015199999324977398,-0.0050999997183680534,-0.029099998995661736,0.04600000004387353,0.11200000126684104,-0.007999999971379599
-0.05951985716819763,0.06830178946256638,9.785255432128906,-0.003999999724328518,0.0044999998062849045,-0.029099998995661736,0.04600000004387353,-0.008999999863581633,-0.007999999971379599
-0.04231990873813629,0.06710468232631683,9.78402042388916,0.015199999324977398,0.00419999985024333,-0.029099998995661736,0.04600000004387353,0.11200000126684104,0.05200000106461238
-0.06461471319198608,0.06781336665153503,9.785160064697266,-0.0038999998942017555,0.004100000020116568,-0.029099998995661736,0.04600000004387353,-0.008999999863581633,-0.007999999971379599
-0.06459555774927139,0.07082048803567886,9.788061141967773,-0.0038999998942017555,0.0038999998942017555,-0.019299998879432678,0.04600000004387353,-0.008999999863581633,-0.007999999971379599
-0.06341761350631714,0.06455725431442261,9.785993576049805,-0.0038999998942017555,-0.0058999997563660145,-0.029099998995661736,0.04600000004387353,-0.07000000079177565,-0.007999999971379599
-0.059251703321933746,0.051791369915008545,9.791595458984375,-0.003999999724328518,-0.015599999576807022,-0.019299998879432678,-0.01400000015835513,0.05099999867112037,-0.007999999971379599
-0.053639695048332214,0.0689721629023552,9.788750648498535,0.005699999630451202,0.0038999998942017555,-0.019299998879432678,0.04600000004387353,-0.008999999863581633,-0.06899999839828364
-0.052595820277929306,0.06833051145076752,9.776501655578613,0.005699999630451202,0.003700000001117587,-0.03889999911189079,-0.01400000015835513,-0.009999999755783667,-0.007999999971379599
-0.049722783267498016,0.062028978019952774,9.79023551940918,0.005499999970197678,-0.0058999997563660145,-0.019299998879432678,-0.01400000015835513,-0.008999999863581633,-0.007999999971379599
-0.06006573140621185,0.06723876297473907,9.777623176574707,-0.00419999985024333,0.0038999998942017555,-0.03889999911189079,-0.01400000015835513,0.05099999867112037,-0.007999999971379599
-0.05858132615685463,0.061128757894039154,9.783167839050293,-0.0038999998942017555,-0.005699999630451202,-0.029099998995661736,0.1070000026395942,-0.008999999863581633,-0.007999999971379599
-0.05465483292937279,0.07116525620222092,9.772652626037598,0.005699999630451202,0.003700000001117587,-0.03889999911189079,0.04600000004387353,0.05099999867112037,-0.007999999971379599
-0.053141701966524124,0.052854396402835846,9.793865203857422,0.005699999630451202,-0.015699999406933784,-0.019299998879432678,0.04600000004387353,-0.13100000005244303,0.05200000106461238
-0.05336196720600128,0.05535394325852394,9.778303146362305,0.0052999998442828655,-0.015699999406933784,-0.029099998995661736,0.04600000004387353,0.05099999867112037,0.05200000106461238
-0.04781699925661087,0.0625748559832573,9.784212112426758,0.015099999494850636,-0.0058999997563660145,-0.029099998995661736,-0.01400000015835513,-0.009999999755783667,-0.007999999971379599
-0.06697060912847519,0.054444145411252975,9.780343055725098,-0.004399999976158142,-0.01549999974668026,-0.029099998995661736,-0.01400000015835513,-0.07000000079177565,-0.007999999971379599
-0.05435795709490776,0.057307612150907516,9.785724639892578,0.0050999997183680534,-0.01529999915510416,-0.029099998995661736,-0.01400000015835513,0.05099999867112037,-0.007999999971379599
-0.057211846113204956,0.05531563609838486,9.788818359375,0.0050999997183680534,-0.014999999664723873,-0.019299998879432678,-0.01400000015835513,-0.008999999863581633,-0.007999999971379599
-0.054204728454351425,0.06343676894903183,9.790111541748047,0.004999999888241291,-0.004999999888241291,-0.019299998879432678,0.04600000004387353,-0.008999999863581633,-0.007999999971379599
-0.06509356200695038,0.06562986224889755,9.783426284790039,-0.004699999932199717,-0.0050999997183680534,-0.029099998995661736,-0.01400000015835513,0.11200000126684104,0.05200000106461238
-0.050230350345373154,0.05766195431351662,9.78418254852295,-0.004299999680370092,-0.014699999243021011,-0.029099998995661736,-0.01400000015835513,0.05099999867112037,-0.007999999971379599
-0.05822698771953583,0.05014416202902794,9.780946731567383,0.005399999674409628,-0.004799999762326479,-0.029099998995661736,-0.01400000015835513,-0.009999999755783667,-0.007999999971379599
-0.044302307069301605,0.059682659804821014,9.78762149810791,0.015099999494850636,-0.0044999998062849045,-0.019299998879432678,0.04600000004387353,0.05099999867112037,-0.06899999839828364
-0.06675034016370773,0.057853490114212036,9.778772354125977,-0.00419999985024333,-0.0044999998062849045,-0.029099998995661736,-0.01400000015835513,0.05099999867112037,-0.007999999971379599
-0.04822879657149315,0.06631939113140106,9.781578063964844,-0.00419999985024333,-0.0044999998062849045,-0.029099998995661736,0.04600000004387353,-0.008999999863581633,-0.007999999971379599
-0.044177811592817307,0.059443242847919464,9.784383773803711,0.015099999494850636,-0.0044999998062849045,-0.029099998995661736,-0.01400000015835513,-0.008999999863581633,-0.007999999971379599
-0.051408298313617706,0.07336792349815369,9.791145324707031,0.005200000014156103,0.005200000014156103,-0.019299998879432678,-0.0749999994190225,0.11200000126684104,-0.007999999971379599
-0.05637866258621216,0.05604347214102745,9.778772354125977,0.005399999674409628,-0.0139999995008111,-0.029099998995661736,-0.01400000015835513,-0.008999999863581633,-0.007999999971379599
-0.048496946692466736,0.0636378824710846,9.782774925231934,0.0052999998442828655,-0.004100000020116568,-0.029099998995661736,-0.13600000534979648,-0.008999999863581633,-0.007999999971379599
-0.058543018996715546,0.06465302407741547,9.775323867797852,-0.004299999680370092,-0.003599999938160181,-0.03889999911189079,0.04600000004387353,-0.07000000079177565,0.05200000106461238
-0.06651092320680618,0.0584089420735836,9.793922424316406,-0.004399999976158142,-0.003599999938160181,-0.019299998879432678,-0.0749999994190225,-0.07000000079177565,0.05200000106461238
-0.060745686292648315,0.07328172028064728,9.792984008789062,-0.0044999998062849045,0.006199999712407589,-0.019299998879432678,-0.0749999994190225,0.05099999867112037,-0.007999999971379599
-0.05762364715337753,0.05727888271212578,9.787688255310059,-0.004299999680370092,-0.012899999506771564,-0.019299998879432678,-0.01400000015835513,-0.07000000079177565,-0.007999999971379599
-0.06444232910871506,0.05227978900074959,9.78553295135498,-0.004399999976158142,-0.01269999984651804,-0.029099998995661736,-0.01400000015835513,-0.07000000079177565,-0.007999999971379599
-0.05006754770874977,0.06423164159059525,9.784881591796875,0.004999999888241291,-0.00279999990016222,-0.029099998995661736,-0.01400000015835513,-0.008999999863581633,-0.007999999971379599
-0.042616792023181915,0.05471229553222656,9.78872299194336,0.014499999582767487,-0.012299999594688416,-0.019299998879432678,-0.01400000015835513,0.05099999867112037,0.05200000106461238
-0.06477751582860947,0.052787356078624725,9.780208587646484,-0.004799999762326479,-0.01209999993443489,-0.029099998995661736,-0.01400000015835513,0.05099999867112037,-0.06899999839828364
-0.06156928837299347,0.06757394969463348,9.792332649230957,-0.004600000102072954,0.0072999997064471245,-0.019299998879432678,-0.01400000015835513,-0.07000000079177565,-0.007999999971379599
-0.05905058979988098,0.05362053960561752,9.784815788269043,-0.004699999932199717,-0.012000000104308128,-0.029099998995661736,-0.01400000015835513,-0.008999999863581633,-0.007999999971379599
-0.05429091677069664,0.05687665566802025,9.78330135345459,0.004900000058114529,-0.011799999512732029,-0.029099998995661736,-0.01400000015835513,0.05099999867112037,-0.007999999971379599
-0.07596323639154434,0.06727706640958786,9.781702041625977,-0.014299999922513962,0.007599999662488699,-0.029099998995661736,-0.01400000015835513,0.05099999867112037,-0.06899999839828364
-0.06815813481807709,0.05357265844941139,9.79023551940918,-0.013899999670684338,-0.011599999852478504,-0.019299998879432678,0.04600000004387353,-0.008999999863581633,-0.06899999839828364
-0.06260358542203903,0.05644569918513298,9.788636207580566,-0.003999999724328518,-0.011500000022351742,-0.019299998879432678,-0.01400000015835513,-0.008999999863581633,-0.007999999971379599
-0.06137775257229805,0.05838021636009216,9.774261474609375,-0.003999999724328518,-0.011299999430775642,-0.019299998879432678,0.04600000004387353,0.05099999867112037,-0.007999999971379599
-0.056838348507881165,0.06543832272291183,9.785571098327637,0.00559999980032444,-0.0016999999061226845,-0.029099998995661736,-0.01400000015835513,0.05099999867112037,-0.007999999971379599
-0.058351483196020126,0.06548620760440826,9.790552139282227,-0.0038999998942017555,-0.0015999999595806003,-0.019299998879432678,0.04600000004387353,0.05099999867112037,-0.06899999839828364
-0.048755522817373276,0.06320692598819733,9.786299705505371,0.0058999997563660145,-0.0016999999061226845,-0.029099998995661736,-0.01400000015835513,-0.008999999863581633,-0.007999999971379599
-0.06006573140621185,0.06552451103925705,9.787084579467773,-0.0037999998312443495,-0.0016999999061226845,-0.029099998995661736,-0.01400000015835513,-0.008999999863581633,0.05200000106461238
-0.06253654509782791,0.06006573140621185,9.779777526855469,-0.0037999998312443495,-0.0015999999595806003,-0.029099998995661736,0.04600000004387353,-0.008999999863581633,-0.007999999971379599
-0.057307612150907516,0.06518932431936264,9.798873901367188,0.005699999630451202,-0.0015999999595806003,-0.009499999694526196,-0.01400000015835513,0.05099999867112037,-0.007999999971379599
-0.05578489974141121,0.06780379265546799,9.78041934967041,0.005799999926239252,0.007999999448657036,-0.029099998995661736,0.04600000004387353,-0.07000000079177565,-0.007999999971379599
-0.054137688130140305,0.0668078064918518,9.779318809509277,0.005499999970197678,-0.0017999999690800905,-0.029099998995661736,-0.01400000015835513,-0.008999999863581633,-0.007999999971379599
-0.05028781294822693,0.05914635956287384,9.776799201965332,0.005399999674409628,-0.0017999999690800905,-0.03889999911189079,-0.01400000015835513,-0.008999999863581633,0.05200000106461238
-0.049224790185689926,0.055650826543569565,9.773944854736328,0.005399999674409628,-0.011399999260902405,-0.03889999911189079,0.04600000004387353,-0.07000000079177565,-0.06899999839828364
-0.04627513140439987,0.057307612150907516,9.778762817382812,0.014800000004470348,-0.011399999260902405,-0.029099998995661736,-0.01400000015835513,-0.008999999863581633,-0.007999999971379599
-0.06318777054548264,0.054846372455358505,9.780946731567383,-0.004699999932199717,-0.011099999770522118,-0.029099998995661736,0.04600000004387353,-0.008999999863581633,-0.007999999971379599
-0.06104256957769394,0.07391379773616791,9.779767990112305,-0.004600000102072954,0.008100000210106373,-0.029099998995661736,0.04600000004387353,-0.008999999863581633,0.05200000106461238
-0.0637432262301445,0.061933208256959915,9.781932830810547,-0.004600000102072954,-0.0016999999061226845,-0.029099998995661736,0.04600000004387353,-0.008999999863581633,0.05200000106461238
-0.054750602692365646,0.07969819009304047,9.776406288146973,-0.004600000102072954,-0.0016999999061226845,-0.029099998995661736,-0.01400000015835513,-0.008999999863581633,0.05200000106461238
-0.05877286195755005,0.07224743068218231,9.784757614135742,-0.004600000102072954,0.007599999662488699,-0.029099998995661736,0.04600000004387353,-0.008999999863581633,-0.007999999971379599
-0.0559285506606102,0.07258261740207672,9.781558990478516,0.004999999888241291,0.0072999997064471245,-0.029099998995661736,-0.01400000015835513,0.05099999867112037,-0.007999999971379599
-0.05606262758374214,0.07043741643428802,9.775459289550781,0.0050999997183680534,0.0072999997064471245,-0.03889999911189079,0.04600000004387353,-0.008999999863581633,-0.007999999971379599
-0.06974788755178452,0.06448063999414444,9.783177375793457,-0.014299999922513962,-0.0024999999441206455,-0.029099998995661736,-0.01400000015835513,-0.07000000079177565,-0.007999999971379599
-0.05512410029768944,0.06469132751226425,9.773964881896973,0.004999999888241291,-0.0023999998811632395,-0.03889999911189079,-0.01400000015835513,-0.008999999863581633,-0.06899999839828364
-0.06179913505911827,0.05827486887574196,9.777756690979004,-0.004699999932199717,-0.0023999998811632395,-0.03889999911189079,-0.01400000015835513,-0.008999999863581633,-0.007999999971379599
-0.057403381913900375,0.075015127658844,9.7759370803833,0.0050999997183680534,0.007199999876320362,-0.03889999911189079,0.04600000004387353,0.05099999867112037,-0.007999999971379599
-0.04903325065970421,0.0662236139178276,9.776559829711914,0.005200000014156103,-0.0026000000070780516,-0.03889999911189079,-0.01400000015835513,-0.008999999863581633,-0.007999999971379599
-0.04903325065970421,0.0662236139178276,9.776559829711914,0.005200000014156103,-0.0026000000070780516,-0.03889999911189079,-0.01400000015835513,-0.008999999863581633,-0.007999999971379599
-0.06722918897867203,0.06192363426089287,9.767356872558594,-0.0142000000923872,-0.0024999999441206455,-0.0486999973654747,-0.0749999994190225,-0.07000000079177565,-0.007999999971379599
-0.044991835951805115,0.06643430888652802,9.776569366455078,0.014800000004470348,-0.002300000051036477,-0.03889999911189079,-0.01400000015835513,-0.008999999863581633,-0.007999999971379599
-0.04597824811935425,0.05147533863782883,9.779509544372559,0.014499999582767487,-0.011899999342858791,-0.029099998995661736,-0.01400000015835513,-0.008999999863581633,-0.007999999971379599
-0.047022122889757156,0.06675992161035538,9.77600383758545,0.014299999922513962,-0.002099999925121665,-0.03889999911189079,0.04600000004387353,-0.008999999863581633,-0.06899999839828364
-0.05211698263883591,0.05879201367497444,9.780160903930664,0.0044999998062849045,-0.002099999925121665,-0.029099998995661736,-0.0749999994190225,-0.008999999863581633,0.05200000106461238
-0.05513367801904678,0.0606594942510128,9.776397705078125,0.004399999976158142,-0.0018999999156221747,-0.03889999911189079,-0.01400000015835513,-0.008999999863581633,-0.007999999971379599
-0.05680004134774208,0.07131848484277725,9.776512145996094,0.004299999680370092,0.007699999958276749,-0.03889999911189079,0.04600000004387353,0.05099999867112037,-0.007999999971379599
-0.054300494492053986,0.05993165448307991,9.778791427612305,0.004399999976158142,-0.002099999925121665,-0.029099998995661736,0.04600000004387353,0.11200000126684104,-0.007999999971379599
-0.06300581246614456,0.04543237388134003,9.773676872253418,0.004600000102072954,-0.002099999925121665,-0.029099998995661736,-0.01400000015835513,0.05099999867112037,-0.007999999971379599
-0.06064033880829811,0.05575616657733917,9.77469253540039,-0.004900000058114529,-0.02149999886751175,-0.03889999911189079,0.47299999153349176,-0.25299999857377775,-0.007999999971379599
-0.04986643046140671,0.05429091677069664,9.778762817382812,0.004299999680370092,-0.013199999928474426,-0.029099998995661736,0.04600000004387353,-0.008999999863581633,-0.007999999971379599
-0.05834190919995308,0.05781518295407295,9.775506973266602,-0.005399999674409628,-0.003499999875202775,-0.03889999911189079,-0.01400000015835513,-0.008999999863581633,-0.007999999971379599
-0.061416059732437134,0.04985685646533966,9.77299690246582,-0.005399999674409628,-0.013299999758601189,-0.03889999911189079,-0.01400000015835513,0.05099999867112037,-0.007999999971379599
-0.06044880300760269,0.058686673641204834,9.76587200164795,-0.0052999998442828655,-0.003399999812245369,-0.0486999973654747,-0.01400000015835513,-0.008999999863581633,-0.007999999971379599
-0.06368576735258102,0.057547032833099365,9.770861625671387,-0.0052999998442828655,-0.003399999812245369,-0.0486999973654747,-0.01400000015835513,-0.13100000005244303,0.05200000106461238
-0.04697423428297043,0.06477751582860947,9.777268409729004,0.013899999670684338,-0.0032999999821186066,-0.03889999911189079,0.04600000004387353,-0.008999999863581633,-0.007999999971379599
-0.0430094376206398,0.0681198239326477,9.788003921508789,0.013799999840557575,0.006199999712407589,-0.019299998879432678,0.04600000004387353,0.05099999867112037,-0.06899999839828364
-0.061387334018945694,0.06057330220937729,9.785887718200684,-0.00559999980032444,-0.003599999938160181,-0.029099998995661736,-0.01400000015835513,-0.008999999863581633,-0.007999999971379599
-0.0529693178832531,0.06488286703824997,9.788521766662598,0.004100000020116568,-0.003499999875202775,-0.019299998879432678,-0.01400000015835513,-0.008999999863581633,-0.007999999971379599
-0.053285352885723114,0.07133763283491135,9.775372505187988,0.004100000020116568,0.006199999712407589,-0.03889999911189079,-0.01400000015835513,0.05099999867112037,-0.06899999839828364
-0.059136781841516495,0.07055233418941498,9.77512264251709,-0.005399999674409628,0.006099999882280827,-0.03889999911189079,0.04600000004387353,-0.008999999863581633,-0.007999999971379599
-0.051791369915008545,0.051666874438524246,9.777268409729004,0.00419999985024333,-0.013299999758601189,-0.03889999911189079,-0.13600000534979648,0.11200000126684104,-0.06899999839828364
-0.06177040562033653,0.061195798218250275,9.781386375427246,-0.0050999997183680534,-0.0030999998562037945,-0.029099998995661736,0.04600000004387353,0.11200000126684104,-0.007999999971379599
-0.059969961643218994,0.05516240745782852,9.781042098999023,-0.004699999932199717,-0.012799999676644802,-0.029099998995661736,0.04600000004387353,-0.07000000079177565,-0.007999999971379599
-0.05396530404686928,0.07291781157255173,9.768563270568848,0.004699999932199717,0.0064999996684491634,-0.03889999911189079,-0.0749999994190225,0.05099999867112037,-0.007999999971379599
-0.06454767286777496,0.059366628527641296,9.782037734985352,-0.004799999762326479,-0.003000000026077032,-0.029099998995661736,0.04600000004387353,-0.008999999863581633,-0.007999999971379599
-0.05204036831855774,0.0453844889998436,9.768467903137207,0.004799999762326479,-0.02239999920129776,-0.03889999911189079,-0.0749999994190225,0.05099999867112037,-0.007999999971379599
-0.05950070172548294,0.059797581285238266,9.76684856414795,-0.004699999932199717,-0.0024999999441206455,-0.0486999973654747,0.04600000004387353,-0.008999999863581633,0.05200000106461238
-0.059682659804821014,0.07075344771146774,9.778063774108887,-0.004600000102072954,0.006899999920278788,-0.029099998995661736,-0.01400000015835513,0.1729999938574018,-0.007999999971379599
-0.05321831628680229,0.05191586911678314,9.788300514221191,0.005499999970197678,-0.012299999594688416,-0.019299998879432678,-0.0749999994190225,0.05099999867112037,-0.007999999971379599
-0.0571160763502121,0.062191784381866455,9.779308319091797,0.005499999970197678,-0.002199999988079071,-0.029099998995661736,-0.01400000015835513,-0.008999999863581633,0.05200000106461238
-0.05707776919007301,0.06213432177901268,9.782841682434082,0.005399999674409628,-0.002199999988079071,-0.029099998995661736,0.04600000004387353,-0.008999999863581633,-0.007999999971379599
-0.0584089420735836,0.068263478577137,9.782526016235352,-0.004299999680370092,-0.002199999988079071,-0.03889999911189079,-0.01400000015835513,-0.008999999863581633,-0.007999999971379599
-0.06446148455142975,0.05298847332596779,9.779308319091797,-0.00419999985024333,0.007400000002235174,-0.029099998995661736,-0.0749999994190225,-0.008999999863581633,-0.007999999971379599
-0.05564124509692192,0.06056372448801994,9.771034240722656,0.00559999980032444,-0.0016999999061226845,-0.03889999911189079,-0.0749999994190225,0.05099999867112037,-0.007999999971379599
-0.048688482493162155,0.06621403992176056,9.774548530578613,0.00559999980032444,-0.001500000013038516,-0.03889999911189079,0.04600000004387353,-0.008999999863581633,-0.06899999839828364
-0.05723099783062935,0.0656394362449646,9.781453132629395,0.005499999970197678,-0.0015999999595806003,-0.029099998995661736,-0.01400000015835513,-0.008999999863581633,-0.007999999971379599
-0.06241204962134361,0.049636587500572205,9.782833099365234,-0.004100000020116568,-0.011099999770522118,-0.029099998995661736,0.04600000004387353,0.05099999867112037,-0.007999999971379599
-0.05291185900568962,0.05480806529521942,9.768486022949219,-0.004100000020116568,-0.011099999770522118,-0.029099998995661736,-0.01400000015835513,-0.07000000079177565,-0.007999999971379599
-0.04815218225121498,0.04983770474791527,9.774127006530762,0.005399999674409628,-0.010900000110268593,-0.03889999911189079,0.04600000004387353,-0.008999999863581633,-0.007999999971379599
-0.048688482493162155,0.05517198517918587,9.781731605529785,0.0052999998442828655,-0.010900000110268593,-0.029099998995661736,0.04600000004387353,-0.008999999863581633,0.05200000106461238
-0.0573459193110466,0.06947015225887299,9.789076805114746,0.0050999997183680534,0.008299999870359898,-0.019299998879432678,-0.01400000015835513,-0.008999999863581633,0.05200000106461238
-0.0646817535161972,0.055555056780576706,9.785025596618652,-0.0044999998062849045,-0.010999999940395355,-0.029099998995661736,-0.01400000015835513,-0.008999999863581633,-0.007999999971379599
-0.04968447610735893,0.0640975683927536,9.791327476501465,0.004999999888241291,-0.0010999999940395355,-0.019299998879432678,0.04600000004387353,-0.008999999863581633,-0.06899999839828364
-0.06474879384040833,0.05225105583667755,9.783732414245605,-0.004600000102072954,-0.010799999348819256,-0.029099998995661736,0.04600000004387353,-0.008999999863581633,0.05200000106461238
-0.0451354905962944,0.06947015225887299,9.784748077392578,0.014599999412894249,0.00839999970048666,-0.029099998995661736,0.04600000004387353,-0.008999999863581633,-0.007999999971379599
-0.05777687579393387,0.05364927276968956,9.777593612670898,-0.004799999762326479,-0.011099999770522118,-0.03889999911189079,0.04600000004387353,-0.07000000079177565,0.05200000106461238
-0.055200714617967606,0.0600753091275692,9.781501770019531,0.004600000102072954,-0.00139999995008111,-0.029099998995661736,-0.01400000015835513,-0.008999999863581633,-0.007999999971379599
-0.07071514427661896,0.06522762775421143,9.777173042297363,-0.014699999243021011,-0.0013000000035390258,-0.03889999911189079,0.04600000004387353,0.05099999867112037,-0.007999999971379599
-0.06166505813598633,0.06274724006652832,9.775602340698242,-0.004699999932199717,-0.00139999995008111,-0.03889999911189079,0.1070000026395942,-0.13100000005244303,-0.007999999971379599
-0.05006754770874977,0.06033388152718544,9.773964881896973,0.004600000102072954,-0.0016999999061226845,-0.03889999911189079,-0.01400000015835513,0.05099999867112037,0.11299999699022645
-0.05281608924269676,0.056484006345272064,9.780016899108887,0.004600000102072954,-0.011299999430775642,-0.029099998995661736,0.04600000004387353,-0.008999999863581633,0.05200000106461238
-0.07685387134552002,0.06429868191480637,9.780571937561035,-0.024299999698996544,-0.0015999999595806003,-0.029099998995661736,0.04600000004387353,-0.07000000079177565,-0.007999999971379599
-0.06585012376308441,0.060228537768125534,9.789852142333984,-0.004799999762326479,-0.0016999999061226845,-0.019299998879432678,0.1070000026395942,-0.19200000598321698,-0.007999999971379599
-0.05907932296395302,0.06448063999414444,9.777517318725586,-0.0050999997183680534,-0.0018999999156221747,-0.03889999911189079,-0.01400000015835513,-0.008999999863581633,-0.007999999971379599
-0.06925946474075317,0.05961562320590019,9.784968376159668,-0.014699999243021011,-0.0017999999690800905,-0.029099998995661736,0.04600000004387353,-0.008999999863581633,-0.007999999971379599
-0.06779421120882034,0.048094723373651505,9.786385536193848,-0.014499999582767487,-0.011500000022351742,-0.029099998995661736,0.04600000004387353,-0.008999999863581633,-0.007999999971379599
-0.04947378486394882,0.05042188614606857,9.775047302246094,0.004900000058114529,-0.011500000022351742,-0.03889999911189079,-0.01400000015835513,-0.008999999863581633,-0.007999999971379599
-0.06017107889056206,0.056407392024993896,9.794611930847168,0.004799999762326479,-0.011299999430775642,-0.03889999911189079,0.04600000004387353,0.05099999867112037,-0.007999999971379599
-0.05503791198134422,0.06049668788909912,9.783129692077637,0.004999999888241291,-0.0013000000035390258,-0.029099998995661736,-0.01400000015835513,-0.008999999863581633,-0.007999999971379599
-0.054108958691358566,0.051695603877305984,9.782861709594727,0.004900000058114529,-0.010900000110268593,-0.029099998995661736,-0.01400000015835513,-0.07000000079177565,0.05200000106461238
-0.05581362918019295,0.05445372313261032,9.77672290802002,0.004600000102072954,-0.010699999518692493,-0.039000000804662704,-0.01400000015835513,-0.07000000079177565,-0.06899999839828364
-0.06417418271303177,0.058332327753305435,9.781099319458008,0.004600000102072954,-0.010699999518692493,-0.039000000804662704,0.04600000004387353,-0.008999999863581633,0.05200000106461238
-0.05657019838690758,0.06828263401985168,9.778724670410156,0.004399999976158142,0.008599999360740185,-0.029099998995661736,-0.01400000015835513,-0.07000000079177565,-0.007999999971379599
-0.059845466166734695,0.06059245765209198,9.778685569763184,-0.005399999674409628,-0.0010999999940395355,-0.029099998995661736,-0.01400000015835513,-0.008999999863581633,-0.007999999971379599
-0.06564901024103165,0.055765748023986816,9.783761978149414,-0.0052999998442828655,-0.010699999518692493,-0.029099998995661736,-0.01400000015835513,-0.008999999863581633,0.05200000106461238
-0.06168421357870102,0.0709928646683693,9.781673431396484,-0.005200000014156103,0.008700000122189522,-0.029099998995661736,-0.01400000015835513,0.11200000126684104,-0.007999999971379599
-0.05957731604576111,0.06755479425191879,9.780725479125977,-0.004799999762326479,0.008599999360740185,-0.029099998995661736,0.1070000026395942,-0.008999999863581633,-0.007999999971379599
-0.055085793137550354,0.0693073496222496,9.784221649169922,0.004799999762326479,0.008200000040233135,-0.029099998995661736,-0.01400000015835513,-0.008999999863581633,-0.007999999971379599
-0.05454949289560318,0.054089806973934174,9.783771514892578,0.004699999932199717,-0.011099999770522118,-0.029099998995661736,-0.01400000015835513,0.05099999867112037,-0.06899999839828364
-0.05428134277462959,0.05983588844537735,9.779519081115723,0.004699999932199717,-0.0011999999405816197,-0.029099998995661736,0.04600000004387353,0.11200000126684104,-0.007999999971379599
-0.05388868972659111,0.049042828381061554,9.782362937927246,0.004999999888241291,-0.010900000110268593,-0.029099998995661736,-0.01400000015835513,0.4169999909000712,0.05200000106461238
-0.06971915066242218,0.06444232910871506,9.78842544555664,-0.013199999928474426,-0.0010999999940395355,-0.019299998879432678,-0.01400000015835513,-0.07000000079177565,-0.007999999971379599
-0.05242343991994858,0.06755479425191879,9.781386375427246,0.006099999882280827,0.008599999360740185,-0.029099998995661736,0.04600000004387353,-0.008999999863581633,-0.007999999971379599
-0.05562209337949753,0.06557239592075348,9.771081924438477,0.006099999882280827,-0.0011999999405816197,-0.03889999911189079,-0.01400000015835513,0.11200000126684104,-0.007999999971379599
-0.07019799202680588,0.053735461086034775,9.776540756225586,-0.013100000098347664,-0.010999999940395355,-0.03889999911189079,0.04600000004387353,0.05099999867112037,0.05200000106461238
-0.05279693752527237,0.06681738048791885,9.7796630859375,0.006599999964237213,-0.0013000000035390258,-0.029099998995661736,-0.0749999994190225,-0.008999999863581633,-0.007999999971379599
-0.04675397276878357,0.06746860593557358,9.778369903564453,0.016300000250339508,0.008599999360740185,-0.029099998995661736,-0.0749999994190225,-0.008999999863581633,-0.007999999971379599
-0.06224924325942993,0.0611383356153965,9.788262367248535,0.0064999996684491634,-0.0008999999845400453,-0.03889999911189079,-0.0749999994190225,-0.008999999863581633,-0.007999999971379599
-0.06745903193950653,0.05193502455949783,9.785226821899414,-0.0032999999821186066,-0.000699999975040555,-0.019299998879432678,0.04600000004387353,-0.008999999863581633,-0.007999999971379599
-0.05815037339925766,0.05861963331699371,9.784212112426758,-0.013100000098347664,-0.010599999688565731,-0.029099998995661736,0.04600000004387353,-0.008999999863581633,-0.007999999971379599
-0.06684611737728119,0.06130113825201988,9.789709091186523,-0.0032999999821186066,-0.000699999975040555,-0.029099998995661736,-0.01400000015835513,-0.008999999863581633,-0.007999999971379599
-0.06928820163011551,0.07632714509963989,9.7927827835083,-0.01269999984651804,0.008599999360740185,-0.019299998879432678,0.04600000004387353,-0.07000000079177565,0.05200000106461238
-0.054233454167842865,0.06561069935560226,9.787409782409668,0.006399999838322401,-0.0011999999405816197,-0.029099998995661736,0.1070000026395942,0.05099999867112037,-0.007999999971379599
-0.058351483196020126,0.06767929345369339,9.788674354553223,-0.003000000026077032,0.007999999448657036,-0.019299998879432678,-0.01400000015835513,0.05099999867112037,-0.007999999971379599
-0.05493256449699402,0.05741295590996742,9.800004005432129,0.0064999996684491634,-0.010999999940395355,-0.009499999694526196,-0.01400000015835513,0.05099999867112037,0.05200000106461238
-0.044302307069301605,0.05673300102353096,9.785236358642578,0.016200000420212746,-0.010799999348819256,-0.029099998995661736,0.04600000004387353,-0.008999999863581633,-0.007999999971379599
-0.05554547905921936,0.05616797134280205,9.779671669006348,0.006300000008195639,-0.010699999518692493,-0.029099998995661736,0.04600000004387353,0.05099999867112037,-0.007999999971379599
-0.060630764812231064,0.05887820944190025,9.765786170959473,-0.0032999999821186066,-0.0009999999310821295,-0.0486999973654747,0.04600000004387353,0.11200000126684104,0.05200000106461238
-0.06064991652965546,0.06651092320680618,9.779653549194336,-0.002899999963119626,-0.0010999999940395355,-0.029099998995661736,0.04600000004387353,0.05099999867112037,0.05200000106461238
-0.052931010723114014,0.06142564117908478,9.781060218811035,0.006799999624490738,-0.0011999999405816197,-0.029099998995661736,-0.13600000534979648,-0.3139999911643385,-0.007999999971379599
-0.06635769456624985,0.05408022552728653,9.789813995361328,-0.0038999998942017555,-0.010599999688565731,-0.019299998879432678,-0.01400000015835513,-0.008999999863581633,-0.007999999971379599
-0.04815218225121498,0.06400179862976074,9.783090591430664,0.005799999926239252,-0.0007999999797903001,-0.029099998995661736,-0.01400000015835513,0.05099999867112037,-0.007999999971379599
-0.06330269575119019,0.06703764945268631,9.785035133361816,-0.003700000001117587,0.008999999612569809,-0.029099998995661736,0.04600000004387353,-0.07000000079177565,-0.007999999971379599
-0.0536780022084713,0.06584054231643677,9.78384780883789,0.005799999926239252,-0.0008999999845400453,-0.029099998995661736,-0.0749999994190225,-0.008999999863581633,-0.06899999839828364
-0.06519889831542969,0.050843264907598495,9.796029090881348,-0.0038999998942017555,-0.010400000028312206,-0.019299998879432678,-0.01400000015835513,0.05099999867112037,-0.007999999971379599
-0.05253836140036583,0.06312073767185211,9.783426284790039,0.0058999997563660145,-0.0005999999702908099,-0.029099998995661736,-0.01400000015835513,0.05099999867112037,-0.007999999971379599
-0.06589800864458084,0.07276458293199539,9.77600383758545,-0.003599999938160181,0.009200000204145908,-0.03889999911189079,-0.01400000015835513,0.05099999867112037,-0.06899999839828364
-0.047855306416749954,0.0629100427031517,9.781760215759277,0.01599999889731407,-0.0004999999655410647,-0.029099998995661736,-0.01400000015835513,-0.008999999863581633,0.05200000106461238
-0.05096776410937309,0.06427952647209167,9.781376838684082,-0.003599999938160181,-0.0004999999655410647,-0.029099998995661736,0.04600000004387353,-0.13100000005244303,-0.007999999971379599
-0.05242343991994858,0.0614926740527153,9.7749605178833,0.006300000008195639,-0.00039999998989515007,-0.029099998995661736,0.04600000004387353,-0.008999999863581633,-0.06899999839828364
-0.06335058063268661,0.06472006440162659,9.78418254852295,-0.0037999998312443495,-0.000699999975040555,-0.029099998995661736,-0.0749999994190225,-0.008999999863581633,-0.007999999971379599
-0.0542621873319149,0.06378152966499329,9.78183650970459,0.005799999926239252,-0.0004999999655410647,-0.029099998995661736,0.04600000004387353,-0.008999999863581633,-0.007999999971379599
-0.05930916592478752,0.058236561715602875,9.771215438842773,-0.0038999998942017555,-0.0005999999702908099,-0.03889999911189079,-0.01400000015835513,0.05099999867112037,-0.007999999971379599
-0.053400274366140366,0.05660850554704666,9.783349990844727,0.005799999926239252,-0.010099999606609344,-0.029099998995661736,0.04600000004387353,0.05099999867112037,-0.007999999971379599
-0.06026684492826462,0.06510313600301743,9.780763626098633,-0.003599999938160181,-0.0004999999655410647,-0.029099998995661736,-0.01400000015835513,-0.008999999863581633,0.05200000106461238
-0.060937222093343735,0.06011361628770828,9.776684761047363,-0.003599999938160181,-0.00039999998989515007,-0.03889999911189079,-0.01400000015835513,-0.008999999863581633,0.11299999699022645
-0.06194278597831726,0.04682100564241409,9.786433219909668,-0.003499999875202775,-0.019600000232458115,-0.029099998995661736,0.1070000026395942,-0.19200000598321698,-0.007999999971379599
-0.05051765590906143,0.05560293793678284,9.784632682800293,0.005499999970197678,-0.00989999994635582,-0.029099998995661736,-0.0749999994190225,0.05099999867112037,0.05200000106461238
-0.052567094564437866,0.07190266251564026,9.784652709960938,0.00559999980032444,0.009599999524652958,-0.029099998995661736,-0.13600000534979648,0.23399998644796255,-0.007999999971379599
-0.05607220530509949,0.05616797134280205,9.793386459350586,0.006300000008195639,-0.009499999694526196,-0.019299998879432678,-0.0749999994190225,-0.07000000079177565,0.11299999699022645
-0.050584692507982254,0.05864836648106575,9.785696029663086,0.006099999882280827,0.00039999998989515007,-0.029099998995661736,-0.01400000015835513,-0.008999999863581633,-0.007999999971379599
-0.056244585663080215,0.05694369599223137,9.775947570800781,0.006099999882280827,-0.009200000204145908,-0.039000000804662704,-0.01400000015835513,0.05099999867112037,0.05200000106461238
-0.04772122949361801,0.07426813244819641,9.785073280334473,0.01599999889731407,0.010400000028312206,-0.029099998995661736,-0.01400000015835513,-0.07000000079177565,-0.007999999971379599
-0.0631398856639862,0.0644710585474968,9.782649993896484,-0.003700000001117587,0.0005999999702908099,-0.029099998995661736,-0.01400000015835513,-0.07000000079177565,-0.007999999971379599
-0.06771759688854218,0.07267838716506958,9.78869342803955,-0.013700000010430813,0.010400000028312206,-0.019299998879432678,-0.01400000015835513,-0.008999999863581633,-0.007999999971379599
-0.0598263144493103,0.06909666210412979,9.780428886413574,0.005799999926239252,-0.008999999612569809,-0.029099998995661736,-0.01400000015835513,-0.008999999863581633,-0.007999999971379599
-0.057049039751291275,0.06006573140621185,9.780610084533691,-0.0038999998942017555,0.010499999858438969,-0.029099998995661736,0.04600000004387353,-0.008999999863581633,-0.007999999971379599
-0.04950251430273056,0.07602068781852722,9.776320457458496,0.005799999926239252,0.010099999606609344,-0.039000000804662704,0.04600000004387353,-0.008999999863581633,-0.007999999971379599
-0.058801595121622086,0.05841852352023125,9.79023551940918,0.005799999926239252,0.010099999606609344,-0.039000000804662704,0.04600000004387353,-0.008999999863581633,-0.007999999971379599
-0.05551674962043762,0.06335058063268661,9.792581558227539,0.00559999980032444,0.00009999999747378752,-0.019299998879432678,0.04600000004387353,-0.008999999863581633,0.05200000106461238
-0.05028781294822693,0.06437529623508453,9.795493125915527,0.005399999674409628,0,-0.019299998879432678,-0.0749999994190225,-0.07000000079177565,-0.06899999839828364
-0.06021896004676819,0.056675542145967484,9.794841766357422,-0.004399999976158142,-0.009200000204145908,-0.019299998879432678,-0.01400000015835513,0.05099999867112037,-0.007999999971379599
-0.056742578744888306,0.0743064433336258,9.79037857055664,0.0052999998442828655,0.010099999606609344,-0.019299998879432678,-0.01400000015835513,0.05099999867112037,-0.06899999839828364
-0.07069598883390427,0.059558164328336716,9.806266784667969,-0.013399999588727951,0.00029999998514540493,-0.009499999694526196,0.04600000004387353,-0.07000000079177565,0.05200000106461238
-0.054444145411252975,0.07348284125328064,9.79240894317627,0.005799999926239252,0.009800000116229057,-0.019299998879432678,-0.01400000015835513,-0.07000000079177565,-0.007999999971379599
-0.06427952647209167,0.06533297896385193,9.792370796203613,-0.003999999724328518,0,-0.019299998879432678,0.04600000004387353,-0.07000000079177565,-0.007999999971379599
-0.05136999115347862,0.059941235929727554,9.779739379882812,0.005399999674409628,0,-0.029099998995661736,0.04600000004387353,0.05099999867112037,-0.007999999971379599
-0.059778425842523575,0.06307285279035568,9.777220726013184,-0.004100000020116568,-0.00009999999747378752,-0.039000000804662704,0.1070000026395942,-0.008999999863581633,0.05200000106461238
-0.058993130922317505,0.06534255295991898,9.778360366821289,-0.003999999724328518,-0.00039999998989515007,-0.029099998995661736,-0.01400000015835513,-0.008999999863581633,0.05200000106461238
-0.06630022823810577,0.07319553196430206,9.785351753234863,-0.003999999724328518,0.009200000204145908,-0.029099998995661736,-0.0749999994190225,0.05099999867112037,-0.007999999971379599
-0.06155013665556908,0.057355497032403946,9.779452323913574,-0.003700000001117587,-0.00989999994635582,-0.029099998995661736,0.04600000004387353,0.11200000126684104,-0.007999999971379599
-0.060132771730422974,0.06946057826280594,9.78005599975586,-0.003399999812245369,0.00930000003427267,-0.029099998995661736,-0.01400000015835513,-0.008999999863581633,-0.007999999971379599
-0.06690356880426407,0.05756618455052376,9.778791427612305,-0.0032999999821186066,-0.00029999998514540493,-0.029099998995661736,0.04600000004387353,0.11200000126684104,-0.007999999971379599
-0.052002061158418655,0.06341761350631714,9.785006523132324,0.006599999964237213,-0.0004999999655410647,-0.029099998995661736,-0.01400000015835513,-0.07000000079177565,0.05200000106461238
-0.0680144801735878,0.07718906551599503,9.795167922973633,-0.01269999984651804,0.01860000006854534,-0.019299998879432678,0.04600000004387353,-0.07000000079177565,-0.007999999971379599
-0.06271850317716599,0.06479667872190475,9.793089866638184,-0.003000000026077032,-0.0009999999310821295,-0.019299998879432678,0.1070000026395942,-0.008999999863581633,-0.007999999971379599
-0.06170336529612541,0.07020757347345352,9.790273666381836,-0.003000000026077032,0.008200000040233135,-0.019299998879432678,-0.01400000015835513,0.05099999867112037,-0.007999999971379599
-0.048851292580366135,0.06456683576107025,9.782258033752441,0.006799999624490738,-0.00139999995008111,-0.029099998995661736,-0.01400000015835513,0.05099999867112037,0.05200000106461238
-0.06714299321174622,0.048286259174346924,9.801010131835938,0.006799999624490738,-0.0013000000035390258,-0.029099998995661736,0.04600000004387353,0.05099999867112037,0.05200000106461238
-0.06714299321174622,0.048286259174346924,9.801010131835938,-0.01209999993443489,-0.010799999348819256,-0.009499999694526196,-0.01400000015835513,0.05099999867112037,0.05200000106461238
-0.06080314517021179,0.05409938097000122,9.790321350097656,-0.002099999925121665,-0.010400000028312206,-0.019299998879432678,0.04600000004387353,-0.008999999863581633,-0.007999999971379599
-0.05160941183567047,0.06785167753696442,9.781693458557129,0.007499999832361937,0.008799999952316284,-0.029099998995661736,0.04600000004387353,-0.008999999863581633,-0.007999999971379599
-0.06248866394162178,0.05890693888068199,9.778216361999512,-0.002199999988079071,-0.0009999999310821295,-0.029099998995661736,-0.01400000015835513,0.11200000126684104,-0.007999999971379599
-0.06782294809818268,0.04720408096909523,9.772088050842285,-0.011500000022351742,-0.02029999904334545,-0.03889999911189079,-0.01400000015835513,0.11200000126684104,-0.007999999971379599
-0.05975927412509918,0.06633853912353516,9.787285804748535,-0.00139999995008111,-0.0005999999702908099,-0.029099998995661736,-0.01400000015835513,0.05099999867112037,-0.06899999839828364
-0.04687846824526787,0.055938128381967545,9.778179168701172,0.017999999225139618,-0.010199999436736107,-0.029099998995661736,-0.0749999994190225,-0.13100000005244303,-0.007999999971379599
-0.05903143808245659,0.06439444422721863,9.783196449279785,-0.0018999999156221747,-0.00009999999747378752,-0.029099998995661736,-0.01400000015835513,-0.008999999863581633,-0.007999999971379599
-0.0509486123919487,0.06777506321668625,9.771934509277344,0.007699999958276749,0.009499999694526196,-0.03889999911189079,-0.01400000015835513,-0.008999999863581633,0.05200000106461238
-0.060630764812231064,0.06332184374332428,9.776473999023438,-0.001999999862164259,-0.00009999999747378752,-0.03889999911189079,-0.01400000015835513,0.05099999867112037,0.05200000106461238
-0.06417418271303177,0.07424898445606232,9.776224136352539,-0.0017999999690800905,0.009499999694526196,-0.03889999911189079,0.04600000004387353,-0.008999999863581633,-0.007999999971379599
-0.05766195431351662,0.06355168670415878,9.77721118927002,-0.0017999999690800905,-0.00029999998514540493,-0.03889999911189079,-0.01400000015835513,0.05099999867112037,-0.007999999971379599
-0.05488467961549759,0.06827305257320404,9.787477493286133,-0.0015999999595806003,-0.00029999998514540493,-0.019299998879432678,0.1070000026395942,-0.008999999863581633,-0.06899999839828364
-0.04365108534693718,0.07846277952194214,9.792486190795898,0.007899999618530273,0.008999999612569809,-0.029099998995661736,-0.13600000534979648,-0.3750000104353257,-0.06899999839828364
-0.05480806529521942,0.06415502727031708,9.782937049865723,0.006799999624490738,0,-0.029099998995661736,0.04600000004387353,0.05099999867112037,-0.007999999971379599
-0.05397488549351692,0.07058106362819672,9.78620433807373,0.006899999920278788,0.009499999694526196,-0.029099998995661736,-0.01400000015835513,-0.008999999863581633,-0.06899999839828364
-0.06362830102443695,0.061291564255952835,9.790159225463867,-0.00279999990016222,-0.00009999999747378752,-0.019299998879432678,0.04600000004387353,-0.008999999863581633,-0.007999999971379599
-0.06770802289247513,0.054750602692365646,9.782649993896484,-0.012600000016391277,-0.009999999776482582,-0.029099998995661736,-0.01400000015835513,0.05099999867112037,0.05200000106461238
-0.060908492654561996,0.06032430753111839,9.782976150512695,-0.012600000016391277,-0.009999999776482582,-0.029099998995661736,0.04600000004387353,-0.008999999863581633,-0.007999999971379599
