Accelerometer_Gx,Accelerometer_Gy,Accelerometer_Gz,Accelerometer_X,Accelerometer_Y,Accelerometer_Z,Gyroscope_Z,Gyroscope_X,Gyroscope_Y
-0.061243679374456406,0.060132771730422974,9.715526580810547,-0.013599999248981476,-0.00930000003427267,-0.09779999405145645,-0.06899999839828364,-0.01700000066872456,-0.006000000186975531
-0.059366628527641296,0.06933607906103134,9.712366104125977,-0.010799999348819256,0.00039999998989515007,-0.09779999405145645,-0.010999999647985701,0.04600000004387353,-0.007999999971379599
-0.05601474270224571,0.07088752835988998,9.7234468460083,0.0009999999310821295,0.006399999838322401,-0.08799999952316284,-0.010999999647985701,-0.01400000015835513,-0.008999999863581633
-0.061224523931741714,0.06589800864458084,9.723207473754883,-0.006799999624490738,-0.002699999837204814,-0.08799999952316284,-0.010999999647985701,-0.01400000015835513,-0.07000000079177565
-0.05118803307414055,0.05621585622429848,9.720975875854492,0.0023999998811632395,-0.00989999994635582,-0.08799999952316284,-0.010999999647985701,0.04600000004387353,-0.06899999839828364
-0.045441947877407074,0.052931010723114014,9.718198776245117,0.0023999998811632395,-0.00989999994635582,-0.08799999952316284,-0.010999999647985701,-0.01400000015835513,-0.007999999971379599
-0.06926904618740082,0.049607861787080765,9.723140716552734,-0.015199999324977398,-0.006399999838322401,-0.08799999952316284,-0.010999999647985701,0.04600000004387353,-0.008999999863581633
-0.05609135702252388,0.0598263144493103,9.721128463745117,-0.015199999324977398,-0.006399999838322401,-0.08799999952316284,0.04900000055424296,0.1070000026395942,-0.008999999863581633
-0.05184883251786232,0.056838348507881165,9.711706161499023,0.003599999938160181,0.0026000000070780516,-0.08799999952316284,-0.010999999647985701,0.04600000004387353,-0.007999999971379599
-0.05822698771953583,0.0590122826397419,9.725458145141602,-0.006300000008195639,0.0037999998312443495,-0.08799999952316284,-0.010999999647985701,0.04600000004387353,-0.06899999839828364
-0.056694693863391876,0.05718311294913292,9.723226547241211,0.003499999875202775,-0.0058999997563660145,-0.08799999952316284,0.04900000055424296,0.04600000004387353,-0.007999999971379599
-0.05588066950440407,0.0696616917848587,9.727086067199707,0.003599999938160181,0.013499999418854713,-0.08799999952316284,-0.010999999647985701,0.04600000004387353,0.05200000106461238
-0.05272989720106125,0.06444232910871506,9.718984603881836,0.003700000001117587,0.003700000001117587,-0.09779999405145645,-0.010999999647985701,-0.01400000015835513,0.05200000106461238
-0.07018841803073883,0.05371630936861038,9.721752166748047,-0.015799999237060547,-0.006000000052154064,-0.08799999952316284,-0.010999999647985701,-0.01400000015835513,0.05200000106461238
-0.06225882098078728,0.06216305121779442,9.723945617675781,-0.006000000052154064,0.0037999998312443495,-0.08799999952316284,-0.07199999890865307,0.04600000004387353,-0.007999999971379599
-0.05692454054951668,0.05022077634930611,9.719060897827148,0.0037999998312443495,-0.005699999630451202,-0.09779999405145645,-0.010999999647985701,-0.01400000015835513,-0.007999999971379599
-0.04527914524078369,0.06489244103431702,9.726980209350586,0.013499999418854713,0.003999999724328518,-0.08799999952316284,0.04900000055424296,-0.01400000015835513,-0.06899999839828364
-0.0719122365117073,0.07034164667129517,9.724174499511719,-0.015799999237060547,0.013700000010430813,-0.08799999952316284,-0.010999999647985701,-0.01400000015835513,-0.06899999839828364
-0.06521805375814438,0.05257666856050491,9.738387107849121,-0.006000000052154064,-0.005799999926239252,-0.07819999754428864,0.04900000055424296,-0.01400000015835513,-0.007999999971379599
-0.05862921103835106,0.06226839870214462,9.728311538696289,-0.006000000052154064,0.0037999998312443495,-0.08799999952316284,-0.010999999647985701,-0.01400000015835513,-0.007999999971379599
-0.055459290742874146,0.05459737405180931,9.729604721069336,0.003599999938160181,-0.0058999997563660145,-0.08799999952316284,-0.010999999647985701,-0.01400000015835513,0.05200000106461238
-0.05786306783556938,0.060985106974840164,9.725870132446289,-0.006099999882280827,0.0037999998312443495,-0.08799999952316284,-0.07199999890865307,0.04600000004387353,-0.007999999971379599
-0.04884171113371849,0.059376202523708344,9.734968185424805,0.003700000001117587,-0.005699999630451202,-0.06839999556541443,-0.010999999647985701,0.04600000004387353,-0.007999999971379599
-0.04884171113371849,0.059376202523708344,9.734968185424805,0.0037999998312443495,0.003999999724328518,-0.07819999754428864,-0.010999999647985701,-0.01400000015835513,-0.007999999971379599
-0.05322789400815964,0.052547939121723175,9.72089958190918,0.0037999998312443495,-0.00559999980032444,-0.08799999952316284,-0.010999999647985701,-0.01400000015835513,-0.06899999839828364
-0.06096595525741577,0.060276418924331665,9.738846778869629,-0.0058999997563660145,0.004100000020116568,-0.07819999754428864,-0.010999999647985701,-0.01400000015835513,-0.007999999971379599
-0.07399041205644608,0.059653930366039276,9.734383583068848,-0.015699999406933784,0.004100000020116568,-0.07819999754428864,-0.010999999647985701,-0.01400000015835513,-0.007999999971379599
-0.04981854930520058,0.05637866258621216,9.733109474182129,0.003700000001117587,-0.005499999970197678,-0.07819999754428864,-0.010999999647985701,0.04600000004387353,-0.007999999971379599
-0.05528690665960312,0.0668269544839859,9.728809356689453,0.013599999248981476,-0.005499999970197678,-0.08799999952316284,-0.009999999755783667,-0.014999999216793838,-0.007999999971379599
-0.058092910796403885,0.06410714983940125,9.73469066619873,0.0037999998312443495,0.004100000020116568,-0.08799999952316284,-0.009999999755783667,0.04500000098543482,-0.007999999971379599
-0.05736507475376129,0.06541916728019714,9.733521461486816,0.0037999998312443495,0.004100000020116568,-0.07819999754428864,-0.07199999890865307,-0.01400000015835513,-0.007999999971379599
-0.0472806952893734,0.052672434598207474,9.737821578979492,0.013599999248981476,-0.005399999674409628,-0.07819999754428864,-0.009999999755783667,0.04600000004387353,-0.007999999971379599
-0.06788040697574615,0.06498821079730988,9.741250038146973,-0.015599999576807022,0.004399999976158142,-0.06839999556541443,-0.009999999755783667,-0.014999999216793838,0.05200000106461238
-0.05578489974141121,0.06808152049779892,9.754236221313477,0.0038999998942017555,0.014099999330937862,-0.05859999731183052,0.049999999612681666,-0.01400000015835513,-0.007999999971379599
-0.06299623847007751,0.057930104434490204,9.744908332824707,-0.005799999926239252,0.00419999985024333,-0.06839999556541443,-0.009999999755783667,-0.01400000015835513,-0.007999999971379599
-0.05855259671807289,0.06114790961146355,9.741020202636719,-0.0058999997563660145,0.00419999985024333,-0.06839999556541443,-0.07199999890865307,0.04600000004387353,-0.007999999971379599
-0.05232767015695572,0.05078580603003502,9.740034103393555,0.003999999724328518,-0.0052999998442828655,-0.06839999556541443,-0.009999999755783667,0.04500000098543482,0.05200000106461238
-0.052500054240226746,0.04732858017086983,9.741211891174316,0.004100000020116568,-0.014999999664723873,-0.06839999556541443,-0.07099999651516105,0.04500000098543482,-0.007999999971379599
-0.05047934874892235,0.06958507746458054,9.746374130249023,0.00419999985024333,0.014399999752640724,-0.06839999556541443,-0.009999999755783667,0.04500000098543482,0.05200000106461238
-0.06154056265950203,0.05975927412509918,9.748978614807129,-0.005399999674409628,0.004600000102072954,-0.06839999556541443,-0.1319999957758284,0.04500000098543482,-0.007999999971379599
-0.04571967571973801,0.05660850554704666,9.727086067199707,0.0142000000923872,-0.004699999932199717,-0.08799999952316284,-0.07099999651516105,0.04500000098543482,-0.007999999971379599
-0.052739474922418594,0.06600335240364075,9.74095344543457,0.0044999998062849045,0.005200000014156103,-0.06839999556541443,-0.009999999755783667,-0.014999999216793838,-0.007999999971379599
-0.05666596442461014,0.06185659393668175,9.732975959777832,0.004399999976158142,0.005200000014156103,-0.07819999754428864,-0.07099999651516105,-0.014999999216793838,0.05200000106461238
-0.0511784553527832,0.05087199807167053,9.725236892700195,0.004399999976158142,-0.004299999680370092,-0.08799999952316284,-0.009999999755783667,0.04500000098543482,-0.007999999971379599
-0.056790463626384735,0.07438305765390396,9.752503395080566,0.0044999998062849045,0.015099999494850636,-0.05859999731183052,-0.009999999755783667,-0.014999999216793838,-0.007999999971379599
-0.05986462160944939,0.06383899599313736,9.729135513305664,-0.005200000014156103,0.0052999998442828655,-0.08799999952316284,-0.009999999755783667,0.04500000098543482,-0.007999999971379599
-0.06626192480325699,0.054185573011636734,9.747244834899902,-0.0050999997183680534,-0.004299999680370092,-0.06839999556541443,0.049999999612681666,0.04500000098543482,-0.007999999971379599
-0.06417418271303177,0.06817728281021118,9.750261306762695,-0.004900000058114529,0.014999999664723873,-0.05859999731183052,-0.009999999755783667,0.04500000098543482,0.05200000106461238
-0.06463386863470078,0.06431782990694046,9.745320320129395,-0.004799999762326479,0.005200000014156103,-0.06839999556541443,-0.009999999755783667,0.10600000024610218,0.05200000106461238
-0.07527370750904083,0.06906793266534805,9.759368896484375,-0.0142000000923872,0.01489999983459711,-0.04879999905824661,-0.07099999651516105,-0.014999999216793838,-0.007999999971379599
-0.06023811176419258,0.06487329304218292,9.75622844696045,-0.004399999976158142,0.005200000014156103,-0.05859999731183052,-0.009999999755783667,-0.014999999216793838,-0.007999999971379599
-0.046935927122831345,0.06748775392770767,9.745244026184082,0.014999999664723873,0.005200000014156103,-0.07819999754428864,-0.07099999651516105,-0.014999999216793838,0.05200000106461238
-0.051408298313617706,0.06099468097090721,9.738837242126465,0.01489999983459711,0.015199999324977398,-0.06839999556541443,-0.009999999755783667,-0.014999999216793838,-0.007999999971379599
-0.05112099274992943,0.06372407078742981,9.753662109375,0.004999999888241291,0.005499999970197678,-0.07819999754428864,-0.07099999651516105,-0.014999999216793838,-0.007999999971379599
-0.04078762233257294,0.06120537221431732,9.746220588684082,0.004900000058114529,0.005499999970197678,-0.05859999731183052,-0.009999999755783667,0.10600000024610218,-0.007999999971379599
-0.060132771730422974,0.06096595525741577,9.744199752807617,0.014599999412894249,0.005699999630451202,-0.06839999556541443,-0.07099999651516105,0.04500000098543482,-0.06899999839828364
-0.05855259671807289,0.06721002608537674,9.752828598022461,-0.004600000102072954,0.005699999630451202,-0.06839999556541443,0.049999999612681666,0.04500000098543482,-0.007999999971379599
-0.06400179862976074,0.06059245765209198,9.7427339553833,-0.004399999976158142,0.01549999974668026,-0.05859999731183052,-0.009999999755783667,-0.014999999216793838,-0.007999999971379599
-0.0644710585474968,0.0698915347456932,9.747513771057129,-0.004299999680370092,0.01529999915510416,-0.06839999556541443,-0.009999999755783667,-0.014999999216793838,-0.007999999971379599
-0.05779602751135826,0.05243301764130592,9.755146026611328,-0.004299999680370092,-0.00419999985024333,-0.05859999731183052,0.049999999612681666,0.04500000098543482,-0.13000000432905762
-0.0511784553527832,0.0663672685623169,9.755423545837402,0.005499999970197678,0.005399999674409628,-0.05859999731183052,0.049999999612681666,-0.014999999216793838,-0.007999999971379599
-0.061952363699674606,0.06086060777306557,9.755318641662598,-0.00419999985024333,0.005200000014156103,-0.05859999731183052,-0.009999999755783667,-0.07600000181251451,-0.007999999971379599
-0.045815445482730865,0.0665779560804367,9.76041316986084,0.014999999664723873,0.005200000014156103,-0.04879999905824661,0.049999999612681666,0.04500000098543482,-0.06899999839828364
-0.04748180881142616,0.0580546036362648,9.757904052734375,0.014999999664723873,0.004999999888241291,-0.05859999731183052,-0.009999999755783667,-0.07600000181251451,-0.007999999971379599
-0.04255932942032814,0.04656243696808815,9.750798225402832,0.014699999243021011,-0.014399999752640724,-0.05859999731183052,0.049999999612681666,-0.014999999216793838,-0.007999999971379599
-0.052691590040922165,0.06638642400503159,9.760566711425781,0.004799999762326479,0.004999999888241291,-0.04879999905824661,-0.009999999755783667,-0.014999999216793838,-0.007999999971379599
-0.05933789536356926,0.06425079703330994,9.75792407989502,0.014399999752640724,0.014699999243021011,-0.05859999731183052,-0.009999999755783667,-0.014999999216793838,-0.06899999839828364
-0.05933789536356926,0.06425079703330994,9.75792407989502,-0.004900000058114529,0.004699999932199717,-0.05859999731183052,-0.009999999755783667,-0.014999999216793838,-0.06899999839828364
-0.062287550419569016,0.06590758264064789,9.769512176513672,0.004699999932199717,-0.004900000058114529,-0.04879999905824661,-0.009999999755783667,-0.014999999216793838,0.05200000106461238
-0.05085284262895584,0.058523863554000854,9.762032508850098,-0.004999999888241291,0.004699999932199717,-0.039000000804662704,-0.009999999755783667,0.04500000098543482,0.05200000106461238
-0.05845683068037033,0.07257304340600967,9.763056755065918,0.004600000102072954,0.004699999932199717,-0.04879999905824661,-0.07099999651516105,-0.014999999216793838,0.05200000106461238
-0.05623500794172287,0.06479667872190475,9.755021095275879,0.004699999932199717,0.004799999762326479,-0.05859999731183052,0.049999999612681666,0.04500000098543482,-0.007999999971379599
-0.05654146522283554,0.06797617673873901,9.773082733154297,0.004799999762326479,0.014299999922513962,-0.039000000804662704,-0.009999999755783667,0.04500000098543482,-0.007999999971379599
-0.057882219552993774,0.05353435128927231,9.77094841003418,-0.004699999932199717,-0.005200000014156103,-0.039000000804662704,-0.009999999755783667,0.04500000098543482,-0.007999999971379599
-0.05983588844537735,0.059108052402734756,9.766264915466309,-0.004600000102072954,0.0044999998062849045,-0.04879999905824661,-0.009999999755783667,-0.014999999216793838,-0.007999999971379599
-0.06738241761922836,0.05900270864367485,9.753077507019043,-0.014299999922513962,0.0044999998062849045,-0.05859999731183052,-0.009999999755783667,0.04500000098543482,-0.007999999971379599
-0.05762364715337753,0.07538862526416779,9.748767852783203,-0.004299999680370092,0.0142000000923872,-0.06839999556541443,-0.009999999755783667,-0.014999999216793838,-0.007999999971379599
-0.06322608143091202,0.06668330729007721,9.76738452911377,-0.004299999680370092,0.004399999976158142,-0.04879999905824661,-0.009999999755783667,0.04500000098543482,-0.007999999971379599
-0.06456683576107025,0.054990023374557495,9.76935863494873,-0.00419999985024333,-0.005200000014156103,-0.039000000804662704,-0.07099999651516105,-0.014999999216793838,-0.007999999971379599
-0.05855259671807289,0.04919605702161789,9.759560585021973,-0.00419999985024333,-0.004999999888241291,-0.04879999905824661,-0.009999999755783667,0.04500000098543482,-0.007999999971379599
-0.05495171621441841,0.06264188885688782,9.766217231750488,0.00559999980032444,0.004699999932199717,-0.04879999905824661,-0.07099999651516105,0.04500000098543482,-0.007999999971379599
-0.06413587182760239,0.05750872567296028,9.765144348144531,-0.0038999998942017555,0.004799999762326479,-0.04879999905824661,-0.009999999755783667,-0.014999999216793838,-0.007999999971379599
-0.06019023060798645,0.0695563480257988,9.765326499938965,-0.0038999998942017555,0.014499999582767487,-0.04879999905824661,0.049999999612681666,0.04500000098543482,-0.007999999971379599
-0.05636908486485481,0.06513186544179916,9.757664680480957,0.0058999997563660145,0.0044999998062849045,-0.05859999731183052,-0.009999999755783667,0.04500000098543482,-0.007999999971379599
-0.044062890112400055,0.07171113044023514,9.767117500305176,0.015599999576807022,0.0142000000923872,-0.04879999905824661,-0.009999999755783667,-0.014999999216793838,-0.007999999971379599
-0.06269935518503189,0.0509486123919487,9.77094841003418,-0.0038999998942017555,-0.005200000014156103,-0.039000000804662704,-0.009999999755783667,-0.014999999216793838,0.05200000106461238
-0.06919243186712265,0.059653930366039276,9.766149520874023,-0.013599999248981476,0.0044999998062849045,-0.04879999905824661,-0.009999999755783667,-0.014999999216793838,-0.007999999971379599
-0.04603571072220802,0.07039910554885864,9.776664733886719,0.01549999974668026,0.0142000000923872,-0.039000000804662704,-0.009999999755783667,0.04500000098543482,-0.007999999971379599
-0.056129664182662964,0.05244259163737297,9.780946731567383,0.005699999630451202,-0.0052999998442828655,-0.029199998825788498,-0.07099999651516105,-0.014999999216793838,-0.007999999971379599
-0.0476350374519825,0.06538085639476776,9.775036811828613,0.01529999915510416,0.004600000102072954,-0.039000000804662704,-0.009999999755783667,-0.014999999216793838,-0.007999999971379599
-0.053735461086034775,0.06780379265546799,9.770181655883789,0.005399999674409628,0.014099999330937862,-0.039000000804662704,-0.009999999755783667,-0.014999999216793838,-0.007999999971379599
-0.053735461086034775,0.06780379265546799,9.770181655883789,0.005399999674409628,0.014099999330937862,-0.039000000804662704,-0.009999999755783667,-0.014999999216793838,-0.007999999971379599
-0.05428134277462959,0.05326620116829872,9.767040252685547,0.0052999998442828655,-0.0052999998442828655,-0.039000000804662704,0.049999999612681666,0.04500000098543482,-0.007999999971379599
-0.06325481086969376,0.056675542145967484,9.765748023986816,-0.00419999985024333,-0.0050999997183680534,-0.04879999905824661,0.049999999612681666,0.10600000024610218,-0.007999999971379599
-0.04244440793991089,0.06421248614788055,9.760576248168945,0.01549999974668026,0.004399999976158142,-0.04879999905824661,-0.009999999755783667,-0.014999999216793838,-0.007999999971379599
-0.05276820436120033,0.059041015803813934,9.770708084106445,0.00559999980032444,0.004299999680370092,-0.039000000804662704,-0.009999999755783667,-0.014999999216793838,-0.007999999971379599
-0.061885327100753784,0.07316680252552032,9.772690773010254,-0.004100000020116568,0.0139999995008111,-0.039000000804662704,-0.009999999755783667,0.04500000098543482,0.05200000106461238
-0.061885327100753784,0.07316680252552032,9.772690773010254,-0.004100000020116568,0.0139999995008111,-0.039000000804662704,-0.009999999755783667,0.04500000098543482,0.05200000106461238
-0.0541568398475647,0.06299623847007751,9.767375946044922,0.005799999926239252,0.004100000020116568,-0.04879999905824661,-0.07099999651516105,0.04500000098543482,-0.007999999971379599
-0.0541568398475647,0.06299623847007751,9.767375946044922,0.005799999926239252,0.004100000020116568,-0.04879999905824661,-0.07099999651516105,0.04500000098543482,-0.007999999971379599
-0.04992389306426048,0.06120537221431732,9.76684856414795,0.005799999926239252,0.0044999998062849045,-0.04879999905824661,-0.07099999651516105,-0.014999999216793838,-0.06899999839828364
-0.04568136855959892,0.06471048295497894,9.777344703674316,0.005799999926239252,0.0044999998062849045,-0.04879999905824661,-0.009999999755783667,-0.07600000181251451,-0.007999999971379599
-0.052289362996816635,0.06446148455142975,9.767979621887207,0.0052999998442828655,0.004600000102072954,-0.04879999905824661,0.049999999612681666,-0.014999999216793838,-0.007999999971379599
-0.05964435264468193,0.06771759688854218,9.764933586120605,-0.004399999976158142,0.014099999330937862,-0.04879999905824661,-0.07099999651516105,0.04500000098543482,0.05200000106461238
-0.05384080857038498,0.06080314517021179,9.761351585388184,-0.004399999976158142,0.014099999330937862,-0.04879999905824661,-0.009999999755783667,-0.014999999216793838,-0.007999999971379599
-0.05800671875476837,0.06145436689257622,9.77312183380127,0.005399999674409628,0.004399999976158142,-0.04879999905824661,-0.009999999755783667,-0.014999999216793838,-0.007999999971379599
-0.05081453546881676,0.07387548685073853,9.772920608520508,0.0052999998442828655,0.0139999995008111,-0.039000000804662704,-0.009999999755783667,-0.014999999216793838,-0.007999999971379599
-0.06157886981964111,0.07215166836977005,9.771110534667969,-0.004299999680370092,0.013899999670684338,-0.039000000804662704,-0.009999999755783667,-0.014999999216793838,-0.007999999971379599
-0.048573561012744904,0.05298847332596779,9.78320598602295,0.005200000014156103,-0.005499999970197678,-0.029199998825788498,0.049999999612681666,-0.014999999216793838,-0.06899999839828364
-0.05341942980885506,0.046811431646347046,9.765182495117188,0.0050999997183680534,-0.01529999915510416,-0.04879999905824661,-0.009999999755783667,-0.014999999216793838,0.05200000106461238
-0.05632119998335838,0.06526593863964081,9.774616241455078,0.004999999888241291,0.00419999985024333,-0.039000000804662704,-0.009999999755783667,0.04500000098543482,-0.007999999971379599
-0.06367618590593338,0.06720045208930969,9.768802642822266,-0.0044999998062849045,0.013799999840557575,-0.039000000804662704,-0.009999999755783667,-0.014999999216793838,-0.007999999971379599
-0.053256623446941376,0.06689399480819702,9.762979507446289,0.004999999888241291,0.004100000020116568,-0.04879999905824661,-0.009999999755783667,-0.014999999216793838,-0.007999999971379599
-0.053256623446941376,0.06689399480819702,9.762979507446289,0.004999999888241291,0.004100000020116568,-0.04879999905824661,-0.009999999755783667,-0.014999999216793838,-0.007999999971379599
-0.05710649862885475,0.06958507746458054,9.766504287719727,0.004900000058114529,0.013700000010430813,-0.04879999905824661,-0.07099999651516105,-0.014999999216793838,0.05200000106461238
-0.06006573140621185,0.060774415731430054,9.762931823730469,-0.004799999762326479,0.003999999724328518,-0.04879999905824661,-0.009999999755783667,0.04500000098543482,-0.007999999971379599
-0.038307227194309235,0.07708371430635452,9.769912719726562,-0.004600000102072954,0.003999999724328518,-0.039000000804662704,-0.009999999755783667,0.04500000098543482,-0.007999999971379599
-0.038307227194309235,0.07708371430635452,9.769912719726562,0.014800000004470348,0.02329999953508377,-0.039000000804662704,-0.009999999755783667,0.04500000098543482,-0.007999999971379599
-0.05066130682826042,0.05747999623417854,9.768266677856445,0.0050999997183680534,0.003700000001117587,-0.04879999905824661,-0.009999999755783667,0.04500000098543482,-0.007000000079177565
-0.051954176276922226,0.07426813244819641,9.7665433883667,0.005200000014156103,0.013299999758601189,-0.04879999905824661,-0.009999999755783667,0.04500000098543482,-0.06899999839828364
-0.044445961713790894,0.0645764097571373,9.773093223571777,0.01489999983459711,0.003499999875202775,-0.039000000804662704,0.049999999612681666,0.04500000098543482,-0.007999999971379599
-0.05095818638801575,0.061598021537065506,9.777153015136719,0.0050999997183680534,0.0032999999821186066,-0.039000000804662704,0.049999999612681666,0.04500000098543482,-0.007999999971379599
-0.050488926470279694,0.07290823012590408,9.774893760681152,0.005200000014156103,0.012799999676644802,-0.039000000804662704,-0.009999999755783667,-0.014999999216793838,-0.007999999971379599
-0.05525817349553108,0.07103117555379868,9.770584106445312,0.0050999997183680534,0.012600000016391277,-0.039000000804662704,0.049999999612681666,0.04500000098543482,-0.007999999971379599
-0.04696466028690338,0.0688476637005806,9.763708114624023,0.0050999997183680534,0.012600000016391277,-0.039000000804662704,-0.009999999755783667,-0.014999999216793838,-0.007999999971379599
-0.05750872567296028,0.06475836783647537,9.76931095123291,0.014800000004470348,0.012299999594688416,-0.04879999905824661,-0.009999999755783667,-0.014999999216793838,-0.007999999971379599
-0.05499960482120514,0.0657447800040245,9.767988204956055,-0.004699999932199717,0.0024999999441206455,-0.039000000804662704,-0.009999999755783667,0.04500000098543482,-0.007999999971379599
-0.049751508980989456,0.05519114062190056,9.765565872192383,0.004799999762326479,-0.0071000000461936,-0.04879999905824661,-0.07099999651516105,0.04500000098543482,-0.007999999971379599
-0.05531563609838486,0.0629291981458664,9.774328231811523,0.004799999762326479,-0.0071000000461936,-0.04879999905824661,0.049999999612681666,0.04500000098543482,-0.007999999971379599
-0.05707776919007301,0.051389146596193314,9.776214599609375,0.004900000058114529,-0.006899999920278788,-0.039000000804662704,0.049999999612681666,0.04500000098543482,-0.007999999971379599
-0.04782657325267792,0.06293877214193344,9.772825241088867,0.014599999412894249,0.0026000000070780516,-0.039000000804662704,-0.009999999755783667,-0.014999999216793838,-0.007999999971379599
-0.05081453546881676,0.06215347722172737,9.76961612701416,0.004699999932199717,0.0026000000070780516,-0.039000000804662704,-0.009999999755783667,-0.07600000181251451,-0.007999999971379599
-0.049109868705272675,0.062316279858350754,9.773303985595703,0.004399999976158142,0.0026000000070780516,-0.039000000804662704,-0.009999999755783667,-0.014999999216793838,-0.007999999971379599
-0.06610869616270065,0.04673481732606888,9.777039527893066,-0.005200000014156103,-0.016699999570846558,-0.039000000804662704,-0.009999999755783667,0.04500000098543482,-0.007999999971379599
-0.060918066650629044,0.06642472743988037,9.777545928955078,-0.004999999888241291,0.00279999990016222,-0.039000000804662704,-0.009999999755783667,-0.014999999216793838,-0.007999999971379599
-0.05921339616179466,0.06379111111164093,9.784029006958008,-0.004999999888241291,0.00279999990016222,-0.029199998825788498,-0.009999999755783667,-0.07600000181251451,0.05200000106461238
-0.06157886981964111,0.05014416202902794,9.783426284790039,-0.0050999997183680534,-0.006799999624490738,-0.029199998825788498,-0.009999999755783667,0.04500000098543482,-0.007999999971379599
-0.05997954308986664,0.06425079703330994,9.77997875213623,-0.004900000058114529,0.002899999963119626,-0.029199998825788498,-0.009999999755783667,-0.07600000181251451,-0.007999999971379599
-0.0440724641084671,0.06293877214193344,9.77143669128418,0.0142000000923872,0.002899999963119626,-0.039000000804662704,-0.009999999755783667,-0.014999999216793838,-0.007999999971379599
-0.047405194491147995,0.06268977373838425,9.775343894958496,0.0139999995008111,0.002899999963119626,-0.039000000804662704,-0.009999999755783667,0.04500000098543482,-0.007999999971379599
-0.058849480003118515,0.06269935518503189,9.776761054992676,-0.0052999998442828655,0.002899999963119626,-0.039000000804662704,-0.07099999651516105,0.10600000024610218,0.11299999699022645
-0.05795883387327194,0.058830320835113525,9.768295288085938,-0.004999999888241291,0.003000000026077032,-0.04879999905824661,-0.009999999755783667,0.04500000098543482,-0.007999999971379599
-0.050345271825790405,0.060056157410144806,9.779366493225098,0.004699999932199717,0.003000000026077032,-0.029199998825788498,-0.009999999755783667,-0.014999999216793838,0.05200000106461238
-0.04694550856947899,0.05122634023427963,9.778417587280273,0.0142000000923872,-0.006599999964237213,-0.029199998825788498,0.049999999612681666,0.10600000024610218,-0.007999999971379599
-0.048286259174346924,0.06348465383052826,9.76827621459961,0.004600000102072954,0.003000000026077032,-0.04879999905824661,-0.07099999651516105,0.10600000024610218,-0.06899999839828364
-0.0547410286962986,0.0632835403084755,9.775650024414062,0.004900000058114529,0.0030999998562037945,-0.039000000804662704,-0.07099999651516105,0.04500000098543482,-0.007999999971379599
-0.047098737210035324,0.06009446457028389,9.776291847229004,0.014599999412894249,0.0032999999821186066,-0.039000000804662704,-0.07099999651516105,0.04500000098543482,-0.007999999971379599
-0.05956773832440376,0.05666596442461014,9.768113136291504,-0.004799999762326479,-0.006199999712407589,-0.04879999905824661,-0.009999999755783667,0.04500000098543482,-0.007999999971379599
-0.05448245257139206,0.04720408096909523,9.780458450317383,0.004699999932199717,-0.015699999406933784,-0.029199998825788498,-0.1319999957758284,0.10600000024610218,-0.007999999971379599
-0.05597643554210663,0.06724833697080612,9.774174690246582,0.004999999888241291,0.013799999840557575,-0.039000000804662704,-0.07099999651516105,0.04500000098543482,-0.007999999971379599
-0.05152321979403496,0.06458598375320435,9.777239799499512,0.004999999888241291,0.013799999840557575,-0.039000000804662704,0.049999999612681666,0.04500000098543482,-0.007999999971379599
-0.04571009799838066,0.061981093138456345,9.766580581665039,0.014800000004470348,0.0038999998942017555,-0.04879999905824661,-0.07099999651516105,0.04500000098543482,-0.007999999971379599
-0.05582320690155029,0.06269935518503189,9.773265838623047,0.014800000004470348,0.0038999998942017555,-0.04879999905824661,0.049999999612681666,-0.014999999216793838,-0.007999999971379599
-0.060343459248542786,0.07056191563606262,9.774835586547852,-0.004600000102072954,0.013599999248981476,-0.039000000804662704,-0.009999999755783667,-0.014999999216793838,-0.007999999971379599
-0.06722918897867203,0.056273315101861954,9.779107093811035,-0.0142000000923872,-0.005799999926239252,-0.029199998825788498,0.049999999612681666,-0.014999999216793838,0.05200000106461238
-0.06139690801501274,0.0584089420735836,9.77758502960205,-0.004399999976158142,0.003700000001117587,-0.039000000804662704,0.049999999612681666,-0.014999999216793838,-0.007999999971379599
-0.04687846824526787,0.06070737913250923,9.768994331359863,0.01489999983459711,0.003499999875202775,-0.039000000804662704,-0.07099999651516105,0.04500000098543482,0.05200000106461238
-0.05633077770471573,0.04898536577820778,9.768074989318848,0.0050999997183680534,-0.0058999997563660145,-0.04879999905824661,-0.009999999755783667,-0.07600000181251451,-0.06899999839828364
-0.050488926470279694,0.0597209669649601,9.769454002380371,0.004900000058114529,0.0037999998312443495,-0.039000000804662704,-0.009999999755783667,-0.014999999216793838,-0.007999999971379599
-0.05531563609838486,0.0533236600458622,9.78271770477295,0.004799999762326479,-0.005799999926239252,-0.029199998825788498,0.049999999612681666,-0.014999999216793838,-0.06899999839828364
-0.060276418924331665,0.06742072105407715,9.766331672668457,-0.004900000058114529,0.013399999588727951,-0.04879999905824661,-0.009999999755783667,-0.07600000181251451,0.05200000106461238
-0.054702721536159515,0.05490383133292198,9.76744270324707,0.0044999998062849045,-0.006000000052154064,-0.04879999905824661,-0.009999999755783667,-0.014999999216793838,-0.007999999971379599
-0.047002967447042465,0.06868486106395721,9.775947570800781,0.014099999330937862,0.013299999758601189,-0.039000000804662704,-0.07099999651516105,0.10600000024610218,0.05200000106461238
-0.05521029233932495,0.06324522942304611,9.776291847229004,0.0044999998062849045,0.003599999938160181,-0.039000000804662704,-0.07099999651516105,-0.014999999216793838,0.05200000106461238
-0.056407392024993896,0.06889554858207703,9.770459175109863,0.004399999976158142,0.013399999588727951,-0.039000000804662704,-0.009999999755783667,0.04500000098543482,-0.007999999971379599
-0.053304508328437805,0.04684973880648613,9.761237144470215,0.004399999976158142,-0.015699999406933784,-0.04879999905824661,-0.009999999755783667,-0.014999999216793838,0.05200000106461238
-0.05660850554704666,0.06244077906012535,9.763688087463379,0.004299999680370092,0.0037999998312443495,-0.04879999905824661,0.049999999612681666,-0.07600000181251451,0.05200000106461238
-0.052356403321027756,0.059989117085933685,9.77699089050293,0.003999999724328518,0.013199999928474426,-0.029199998825788498,-0.009999999755783667,0.04500000098543482,-0.007999999971379599
-0.052356403321027756,0.059989117085933685,9.77699089050293,0.0037999998312443495,0.0031999999191612005,-0.039000000804662704,-0.009999999755783667,0.04500000098543482,-0.007999999971379599
-0.0565127357840538,0.06296750903129578,9.781166076660156,0.0037999998312443495,0.0031999999191612005,-0.029199998825788498,-0.009999999755783667,-0.014999999216793838,0.05200000106461238
-0.057853490114212036,0.06490202248096466,9.772614479064941,-0.005799999926239252,0.0031999999191612005,-0.039000000804662704,0.11099999887334903,-0.014999999216793838,-0.06899999839828364
-0.050441041588783264,0.07258261740207672,9.781606674194336,0.0037999998312443495,0.01249999925494194,-0.029199998825788498,-0.07099999651516105,0.04500000098543482,-0.007999999971379599
-0.05760449171066284,0.05929001420736313,9.78504467010498,-0.005699999630451202,0.00279999990016222,-0.029199998825788498,-0.07099999651516105,-0.014999999216793838,-0.007999999971379599
-0.04607401788234711,0.07494808733463287,9.776924133300781,0.013499999418854713,0.012399999424815178,-0.039000000804662704,0.049999999612681666,0.04500000098543482,-0.06899999839828364
-0.054539911448955536,0.0676601380109787,9.77175235748291,0.0037999998312443495,0.01209999993443489,-0.039000000804662704,0.049999999612681666,-0.014999999216793838,-0.007999999971379599
-0.04708915948867798,0.06449022144079208,9.776291847229004,0.013299999758601189,0.002099999925121665,-0.039000000804662704,-0.009999999755783667,0.04500000098543482,-0.06899999839828364
-0.04916732758283615,0.05623500794172287,9.769980430603027,0.013299999758601189,0.002099999925121665,-0.039000000804662704,0.049999999612681666,-0.07600000181251451,-0.007999999971379599
-0.051982905715703964,0.06000826880335808,9.765440940856934,0.003399999812245369,0.002099999925121665,-0.04879999905824661,-0.07099999651516105,0.04500000098543482,-0.007999999971379599
-0.06437529623508453,0.06757394969463348,9.771761894226074,-0.006099999882280827,0.012000000104308128,-0.039000000804662704,-0.009999999755783667,0.04500000098543482,-0.007999999971379599
-0.06554366648197174,0.058610059320926666,9.774577140808105,-0.0058999997563660145,0.002099999925121665,-0.039000000804662704,-0.07099999651516105,0.04500000098543482,-0.007999999971379599
-0.053898271173238754,0.05957731604576111,9.77087116241455,0.0038999998942017555,0.002300000051036477,-0.039000000804662704,-0.009999999755783667,0.04500000098543482,-0.007999999971379599
-0.053898271173238754,0.05957731604576111,9.77087116241455,0.0038999998942017555,0.002300000051036477,-0.039000000804662704,-0.009999999755783667,0.04500000098543482,-0.007999999971379599
-0.053898271173238754,0.05957731604576111,9.77087116241455,0.0038999998942017555,0.002300000051036477,-0.039000000804662704,-0.009999999755783667,0.04500000098543482,-0.007999999971379599
-0.053898271173238754,0.05957731604576111,9.77087116241455,0.0038999998942017555,0.002300000051036477,-0.039000000804662704,-0.009999999755783667,0.04500000098543482,-0.007999999971379599
-0.053898271173238754,0.05957731604576111,9.77087116241455,0.0038999998942017555,0.002300000051036477,-0.039000000804662704,-0.009999999755783667,0.04500000098543482,-0.007999999971379599
-0.051082685589790344,0.06960423290729523,9.771646499633789,0.003399999812245369,0.010900000110268593,-0.039000000804662704,0,-0.024000000747902123,0.05499999823992851
-0.050939034670591354,0.05762364715337753,9.762347221374512,0.0032999999821186066,0.0010999999940395355,-0.04879999905824661,0,-0.024000000747902123,-0.0659999978879142
-0.0502399280667305,0.05772899091243744,9.761839866638184,0.0031999999191612005,0.0010999999940395355,-0.04879999905824661,0,-0.024000000747902123,0.05499999823992851
-0.06311115622520447,0.06764098256826401,9.758268356323242,-0.0064999996684491634,0.010799999348819256,-0.05859999731183052,0,0.03599999945432653,-0.004999999877891834
-0.049895163625478745,0.07420109212398529,9.757722854614258,0.0032999999821186066,0.010699999518692493,-0.05859999731183052,0,-0.024000000747902123,-0.004999999877891834
-0.05895482376217842,0.061626750975847244,9.769070625305176,-0.006399999838322401,0.0008999999845400453,-0.039000000804662704,0,-0.024000000747902123,-0.004999999877891834
-0.05206909775733948,0.051810525357723236,9.766005516052246,0.0031999999191612005,-0.008799999952316284,-0.04879999905824661,0.05999999686717535,-0.023000000021936765,-0.0659999978879142
-0.05004839226603508,0.05114014819264412,9.758211135864258,0.0030999998562037945,-0.008799999952316284,-0.05859999731183052,0,-0.024000000747902123,0.05499999823992851
-0.05702031031250954,0.05157110467553139,9.76384162902832,0.00279999990016222,-0.008599999360740185,-0.04879999905824661,0,-0.023000000021936765,-0.004999999877891834
-0.05702031031250954,0.05157110467553139,9.76384162902832,0.00279999990016222,-0.008599999360740185,-0.04879999905824661,0,-0.023000000021936765,-0.004999999877891834
-0.056675542145967484,0.05896440148353577,9.761198043823242,0.002699999837204814,0.0010999999940395355,-0.04879999905824661,0.05999999686717535,0.03599999945432653,-0.004999999877891834
-0.05090072751045227,0.05635950714349747,9.766571044921875,-0.006799999624490738,0.0008999999845400453,-0.039000000804662704,-0.0009999999964224499,0.03699999851276524,-0.004999999877891834
-0.05729803442955017,0.057853490114212036,9.775459289550781,0.002899999963119626,0.0009999999310821295,-0.039000000804662704,0,-0.023000000021936765,-0.004999999877891834
-0.06815813481807709,0.05649358406662941,9.780074119567871,-0.01640000008046627,-0.008599999360740185,-0.029199998825788498,0,-0.024000000747902123,-0.004999999877891834
-0.055555056780576706,0.063973069190979,9.77131175994873,0.003000000026077032,0.0010999999940395355,-0.039000000804662704,0,-0.024000000747902123,-0.004999999877891834
-0.058590903878211975,0.05746084079146385,9.778839111328125,0.003000000026077032,0.0010999999940395355,-0.039000000804662704,0.05999999686717535,0.03599999945432653,-0.004999999877891834
-0.05405149981379509,0.04956955462694168,9.774174690246582,0.0030999998562037945,-0.008700000122189522,-0.039000000804662704,0,-0.023000000021936765,-0.004999999877891834
-0.042262446135282516,0.06577350944280624,9.797351837158203,0.012399999424815178,0.0009999999310821295,-0.009499999694526196,0.05900000114378995,-0.023000000021936765,-0.0659999978879142
-0.05324704572558403,0.06068822368979454,9.790704727172852,0.0024999999441206455,0.0007999999797903001,-0.01939999870955944,0,0.03699999851276524,-0.004999999877891834
-0.04376600682735443,0.06649176776409149,9.782554626464844,0.012199999764561653,0.0007999999797903001,-0.029199998825788498,0.05900000114378995,-0.023000000021936765,0.05499999823992851
-0.0651797503232956,0.06554366648197174,9.757675170898438,-0.0072999997064471245,0.0005999999702908099,-0.05859999731183052,0.05999999686717535,0.03699999851276524,-0.004999999877891834
-0.05513367801904678,0.055267754942178726,9.763172149658203,0.0024999999441206455,-0.009099999442696571,-0.04879999905824661,0,-0.024000000747902123,-0.004999999877891834
-0.051599834114313126,0.05678088590502739,9.758344650268555,0.0023999998811632395,-0.009099999442696571,-0.05859999731183052,0.05999999686717535,0.03599999945432653,0.05499999823992851
-0.05283524468541145,0.07204631716012955,9.766073226928711,0.0023999998811632395,0.010199999436736107,-0.04879999905824661,-0.06099999926066736,0.03599999945432653,-0.004999999877891834
-0.05388868972659111,0.05793968215584755,9.771215438842773,0.0024999999441206455,0.0004999999655410647,-0.039000000804662704,0,-0.024000000747902123,0.05499999823992851
-0.06045838072896004,0.061885327100753784,9.767988204956055,-0.007199999876320362,0.0004999999655410647,-0.04879999905824661,0,0.03599999945432653,-0.004999999877891834
-0.05510494485497475,0.06157886981964111,9.7761869430542,0.0026000000070780516,0.0004999999655410647,-0.039000000804662704,0,0.0969999987149939,-0.004999999877891834
-0.05471229553222656,0.059136781841516495,9.765929222106934,0.00279999990016222,0.0004999999655410647,-0.04879999905824661,0,0.03699999851276524,-0.004999999877891834
-0.04142926633358002,0.06323565542697906,9.763726234436035,0.002899999963119626,0.010199999436736107,-0.039000000804662704,0,-0.024000000747902123,-0.004999999877891834
-0.04142926633358002,0.06323565542697906,9.763726234436035,0.01249999925494194,0.00039999998989515007,-0.04879999905824661,0,-0.024000000747902123,-0.004999999877891834
-0.04818091541528702,0.0601998046040535,9.758756637573242,0.0026000000070780516,0.00029999998514540493,-0.05859999731183052,0,0.09800000110848592,-0.004999999877891834
-0.044560883194208145,0.05872498080134392,9.762310028076172,0.012600000016391277,0.00029999998514540493,-0.04879999905824661,0,-0.024000000747902123,0.05499999823992851
-0.0490524061024189,0.0553252138197422,9.762395858764648,0.012600000016391277,0.00029999998514540493,-0.04879999905824661,0.05999999686717535,0.0969999987149939,-0.004999999877891834
-0.04120900109410286,0.06164590269327164,9.758574485778809,0.012600000016391277,0.00029999998514540493,-0.05859999731183052,0.05999999686717535,-0.024000000747902123,0.05499999823992851
-0.05329493060708046,0.06509356200695038,9.757818222045898,0.012600000016391277,0.00029999998514540493,-0.05859999731183052,-0.06099999926066736,-0.024000000747902123,-0.004999999877891834
-0.04861186817288399,0.0586579404771328,9.773006439208984,0.0026000000070780516,0.00019999999494757503,-0.039000000804662704,0,0.03599999945432653,-0.004999999877891834
-0.05013458430767059,0.06389645487070084,9.763066291809082,0.002699999837204814,0.00019999999494757503,-0.04879999905824661,0,-0.023000000021936765,-0.004999999877891834
-0.03941813483834267,0.06021896004676819,9.76565170288086,0.012299999594688416,0.00019999999494757503,-0.04879999905824661,0,0.03599999945432653,-0.0659999978879142
-0.056129664182662964,0.06261315941810608,9.759886741638184,0.0024999999441206455,0.00019999999494757503,-0.04879999905824661,0.12100000279794933,-0.024000000747902123,-0.004999999877891834
-0.05971139296889305,0.05457821860909462,9.76854419708252,-0.0071000000461936,-0.00969999935477972,-0.039000000804662704,0,0.03699999851276524,0.05499999823992851
-0.057901374995708466,0.06717172265052795,9.773419380187988,-0.006899999920278788,0.009599999524652958,-0.039000000804662704,-0.06099999926066736,-0.024000000747902123,-0.004999999877891834
-0.05221274867653847,0.058686673641204834,9.775583267211914,0.002699999837204814,0,-0.039000000804662704,0.05999999686717535,-0.023000000021936765,-0.004999999877891834
-0.0486980639398098,0.05844724923372269,9.777709007263184,0.0026000000070780516,-0.00009999999747378752,-0.039000000804662704,-0.06099999926066736,-0.024000000747902123,-0.004999999877891834
-0.06431782990694046,0.06625235080718994,9.7771635055542,-0.0071000000461936,0,-0.039000000804662704,0,-0.024000000747902123,0.05499999823992851
-0.05175306275486946,0.05611051246523857,9.763640403747559,0.0024999999441206455,-0.009599999524652958,-0.04879999905824661,0,0.03599999945432653,-0.0659999978879142
-0.05810248479247093,0.05751830339431763,9.759886741638184,-0.00699999975040555,0.00009999999747378752,-0.04879999905824661,0,0.03599999945432653,0.05499999823992851
-0.05352477356791496,0.0678899809718132,9.767117500305176,0.002699999837204814,0.009800000116229057,-0.04879999905824661,0,-0.024000000747902123,0.05499999823992851
-0.05356308072805405,0.07077260315418243,9.764214515686035,0.0026000000070780516,0.00969999935477972,-0.04879999905824661,0,-0.024000000747902123,-0.004999999877891834
-0.05697242170572281,0.047194503247737885,9.760193824768066,0.0024999999441206455,-0.01939999870955944,-0.04879999905824661,0.05999999686717535,0.03599999945432653,-0.004999999877891834
-0.053112972527742386,0.05862921103835106,9.75997257232666,0.0026000000070780516,0,-0.04879999905824661,0,0.03599999945432653,-0.004999999877891834
-0.04219541326165199,0.07542693614959717,9.765546798706055,0.012399999424815178,0.009599999524652958,-0.04879999905824661,-0.06099999926066736,-0.024000000747902123,-0.004999999877891834
-0.05408022552728653,0.06686526536941528,9.765336036682129,0.0024999999441206455,0,-0.04879999905824661,0,-0.024000000747902123,0.05499999823992851
-0.04852567985653877,0.06612785160541534,9.776876449584961,-0.007199999876320362,0,-0.039000000804662704,0,-0.024000000747902123,-0.004999999877891834
-0.056761734187603,0.06057330220937729,9.776617050170898,0.0024999999441206455,0.00009999999747378752,-0.039000000804662704,0.05999999686717535,-0.024000000747902123,-0.004999999877891834
-0.056761734187603,0.06057330220937729,9.776617050170898,0.0024999999441206455,0.00009999999747378752,-0.039000000804662704,0.05999999686717535,-0.024000000747902123,-0.004999999877891834
-0.061626750975847244,0.055775322020053864,9.766179084777832,-0.007199999876320362,0,-0.029199998825788498,0.05999999686717535,-0.08499999667351618,-0.004999999877891834
-0.05531563609838486,0.06047753617167473,9.767633438110352,0.0024999999441206455,0,-0.04879999905824661,0,0.03599999945432653,-0.004999999877891834
-0.0523659773170948,0.06975746154785156,9.778647422790527,0.0024999999441206455,0.009499999694526196,-0.029199998825788498,0,0.03599999945432653,0.05499999823992851
-0.051149725914001465,0.0766623392701149,9.765192031860352,0.0024999999441206455,0.009499999694526196,-0.029199998825788498,0,-0.024000000747902123,-0.004999999877891834
-0.06890513002872467,0.05336196720600128,9.773734092712402,-0.016699999570846558,-0.010099999606609344,-0.039000000804662704,0,0.03599999945432653,-0.0659999978879142
-0.05822698771953583,0.0559285506606102,9.764626502990723,-0.016699999570846558,-0.010099999606609344,-0.039000000804662704,0,-0.024000000747902123,-0.004999999877891834
-0.06508397310972214,0.061004262417554855,9.77823543548584,-0.0066999997943639755,-0.009999999776482582,-0.04879999905824661,0.05999999686717535,0.0969999987149939,-0.004999999877891834
-0.05589982122182846,0.06056372448801994,9.766063690185547,0.0032999999821186066,-0.00029999998514540493,-0.04879999905824661,0,0.0969999987149939,-0.004999999877891834
-0.05589982122182846,0.05514325201511383,9.772173881530762,0.003499999875202775,-0.009999999776482582,-0.039000000804662704,0,0.0969999987149939,-0.004999999877891834
-0.0628046989440918,0.059280432760715485,9.825860977172852,-0.005799999926239252,-0.00019999999494757503,0.009999999776482582,0,0.03599999945432653,-0.0659999978879142
-0.061128757894039154,0.056129664182662964,9.781213760375977,-0.00559999980032444,-0.009800000116229057,-0.029199998825788498,0,-0.024000000747902123,-0.004999999877891834
-0.06394433975219727,0.06092764809727669,9.772183418273926,-0.00559999980032444,0,-0.039000000804662704,0.05999999686717535,-0.024000000747902123,-0.0659999978879142
-0.04992389306426048,0.043210551142692566,9.752225875854492,0.003999999724328518,-0.019600000232458115,-0.05859999731183052,-0.06099999926066736,-0.024000000747902123,-0.004999999877891834
-0.05725015327334404,0.06717172265052795,9.748547554016113,0.0038999998942017555,0.009800000116229057,-0.06839999556541443,-0.06099999926066736,0.03599999945432653,-0.004999999877891834
-0.04808514937758446,0.055181559175252914,9.751497268676758,0.003999999724328518,-0.009399999864399433,-0.05859999731183052,0,0.03599999945432653,-0.004999999877891834
-0.0559285506606102,0.06164590269327164,9.753690719604492,0.003999999724328518,0.00029999998514540493,-0.05859999731183052,0,-0.024000000747902123,0.05499999823992851
-0.05182010307908058,0.04747223109006882,9.775764465332031,0.0038999998942017555,-0.01899999938905239,-0.039000000804662704,0.05999999686717535,0.03599999945432653,-0.004999999877891834
-0.045413218438625336,0.07093541324138641,9.767902374267578,0.013700000010430813,0.009999999776482582,-0.04879999905824661,-0.06099999926066736,-0.024000000747902123,-0.004999999877891834
-0.06467217206954956,0.06779421120882034,9.773543357849121,-0.005799999926239252,0.010099999606609344,-0.039000000804662704,0,-0.024000000747902123,0.05499999823992851
-0.05639781430363655,0.06110960245132446,9.77694320678711,-0.005799999926239252,0.00029999998514540493,-0.029199998825788498,0,-0.024000000747902123,-0.0659999978879142
-0.059491124004125595,0.06225882098078728,9.775409698486328,0.003999999724328518,0.00009999999747378752,-0.039000000804662704,0,0.03599999945432653,-0.004999999877891834
-0.0554497092962265,0.0663481131196022,9.775113105773926,0.003999999724328518,0.00009999999747378752,-0.039000000804662704,0.05999999686717535,-0.024000000747902123,-0.004999999877891834
-0.058715399354696274,0.05396530404686928,9.766905784606934,0.003999999724328518,0.00009999999747378752,-0.039000000804662704,0,-0.024000000747902123,-0.004999999877891834
-0.0415920726954937,0.06253654509782791,9.763036727905273,0.013599999248981476,0,-0.04879999905824661,0,0.03599999945432653,-0.004999999877891834
-0.050891149789094925,0.05786306783556938,9.763161659240723,0.0038999998942017555,0,-0.04879999905824661,0.05999999686717535,0.03599999945432653,0.05499999823992851
-0.05511452630162239,0.06342719495296478,9.787103652954102,0.0038999998942017555,-0.00009999999747378752,-0.029199998825788498,0,-0.024000000747902123,-0.004999999877891834
-0.06632896512746811,0.05326620116829872,9.76819896697998,-0.005799999926239252,-0.00969999935477972,-0.04879999905824661,-0.06099999926066736,0.03599999945432653,-0.004999999877891834
-0.06216305121779442,0.06185659393668175,9.765517234802246,-0.00559999980032444,0.00009999999747378752,-0.04879999905824661,0.05999999686717535,0.03599999945432653,-0.0659999978879142
-0.058638785034418106,0.05742253363132477,9.751086235046387,-0.00559999980032444,0.00009999999747378752,-0.04879999905824661,0.05999999686717535,0.03599999945432653,-0.0659999978879142
-0.06036261469125748,0.053735461086034775,9.74940013885498,-0.005499999970197678,-0.009599999524652958,-0.05859999731183052,0.05999999686717535,0.03599999945432653,-0.004999999877891834
-0.058332327753305435,0.06725791096687317,9.766179084777832,-0.0052999998442828655,0.00969999935477972,-0.04879999905824661,0,-0.024000000747902123,0.05499999823992851
-0.0499909333884716,0.05240428447723389,9.770430564880371,-0.0052999998442828655,0.00969999935477972,-0.04879999905824661,-0.1830000044521087,0.15800000464576788,-0.004999999877891834
-0.055267754942178726,0.054616525769233704,9.773552894592285,0.004299999680370092,-0.00969999935477972,-0.039000000804662704,0,-0.024000000747902123,-0.004999999877891834
-0.05570828542113304,0.06031472608447075,9.77677059173584,0.00279999990016222,0.00029999998514540493,-0.039000000804662704,0.05999999686717535,-0.024000000747902123,-0.0659999978879142
-0.057307612150907516,0.058734554797410965,9.773112297058105,0.0016999999061226845,0,-0.039000000804662704,0.05999999686717535,-0.08499999667351618,-0.0659999978879142
-0.04956955462694168,0.04916732758283615,9.782516479492188,0.0008999999845400453,-0.006199999712407589,-0.029199998825788498,0,-0.024000000747902123,0.05499999823992851
-0.041007883846759796,0.059088896960020065,9.771484375,0.007599999662488699,0.0023999998811632395,-0.039000000804662704,0.12100000279794933,-0.14600000260429016,0.05499999823992851
-0.05941450968384743,0.058973975479602814,9.781903266906738,-0.008200000040233135,0.0013000000035390258,-0.029199998825788498,0,-0.024000000747902123,-0.004999999877891834
-0.0673058032989502,0.05542098358273506,9.770478248596191,-0.013100000098347664,-0.006099999882280827,-0.039000000804662704,0,0.03599999945432653,0.05499999823992851
-0.05562209337949753,0.06230670586228371,9.763296127319336,0.004999999888241291,0.0026000000070780516,-0.04879999905824661,-0.06099999926066736,-0.024000000747902123,-0.004999999877891834
-0.05222232639789581,0.04485776275396347,9.77175235748291,0.003599999938160181,-0.012000000104308128,-0.039000000804662704,0.05999999686717535,-0.08499999667351618,-0.004999999877891834
-0.06628108024597168,0.06279512494802475,9.768524169921875,-0.0044999998062849045,0.005200000014156103,-0.039000000804662704,-0.06099999926066736,0.03599999945432653,-0.004999999877891834
-0.05433880165219307,0.06508397310972214,9.771197319030762,0.0038999998942017555,0.0037999998312443495,-0.039000000804662704,0,-0.024000000747902123,-0.004999999877891834
-0.060372188687324524,0.059749700129032135,9.777910232543945,-0.0058999997563660145,0.0037999998312443495,-0.039000000804662704,0.05999999686717535,-0.024000000747902123,-0.004999999877891834
-0.08406520634889603,0.043469127267599106,9.770852088928223,-0.025599999353289604,-0.015799999237060547,-0.039000000804662704,-0.06099999926066736,-0.024000000747902123,0.05499999823992851
-0.05341942980885506,0.05718311294913292,9.771273612976074,0.003700000001117587,-0.0058999997563660145,-0.039000000804662704,0,-0.024000000747902123,-0.004999999877891834
-0.06260358542203903,0.05644569918513298,9.780888557434082,-0.006099999882280827,-0.005799999926239252,-0.029199998825788498,-0.06099999926066736,0.03599999945432653,0.05499999823992851
-0.051293376833200455,0.0658692792057991,9.769577980041504,0.003700000001117587,0.003999999724328518,-0.039000000804662704,0,-0.08499999667351618,0.05499999823992851
-0.06130113825201988,0.06444232910871506,9.765087127685547,-0.006099999882280827,0.003999999724328518,-0.04879999905824661,0.05999999686717535,-0.08499999667351618,-0.004999999877891834
-0.05208825320005417,0.0653904378414154,9.772153854370117,0.0032999999821186066,0.0038999998942017555,-0.039000000804662704,0.05999999686717535,0.03599999945432653,-0.004999999877891834
-0.05514325201511383,0.04942589998245239,9.77366828918457,0.003399999812245369,-0.006000000052154064,-0.039000000804662704,0.05999999686717535,-0.024000000747902123,-0.0659999978879142
-0.047050848603248596,0.05257666856050491,9.765144348144531,0.013100000098347664,-0.006099999882280827,-0.04879999905824661,0.05999999686717535,0.0969999987149939,-0.004999999877891834
-0.049914319068193436,0.05753745511174202,9.776808738708496,0.003599999938160181,-0.006300000008195639,-0.039000000804662704,0.05999999686717535,0.03599999945432653,-0.004999999877891834
-0.05400361120700836,0.06165548413991928,9.77028751373291,0.0037999998312443495,0.0031999999191612005,-0.039000000804662704,-0.06099999926066736,0.0969999987149939,-0.004999999877891834
-0.058610059320926666,0.06371449679136276,9.773983001708984,0.0038999998942017555,0.0030999998562037945,-0.039000000804662704,0.05999999686717535,0.03599999945432653,-0.004999999877891834
-0.06350380927324295,0.04557602480053902,9.76793098449707,-0.005399999674409628,-0.01640000008046627,-0.04879999905824661,0.05999999686717535,-0.024000000747902123,-0.0659999978879142
-0.05753745511174202,0.059088896960020065,9.773370742797852,-0.005399999674409628,-0.01640000008046627,-0.04879999905824661,0.05999999686717535,-0.024000000747902123,0.05499999823992851
-0.056886233389377594,0.07565677911043167,9.775420188903809,0.00419999985024333,0.01249999925494194,-0.039000000804662704,0,-0.024000000747902123,-0.004999999877891834
-0.05951985716819763,0.06570647656917572,9.778905868530273,-0.005499999970197678,0.002699999837204814,-0.029199998825788498,0,0.03599999945432653,0.05499999823992851
-0.04568136855959892,0.052030790597200394,9.793022155761719,0.0139999995008111,-0.00699999975040555,-0.01939999870955944,0,-0.024000000747902123,0.05499999823992851
-0.052193596959114075,0.057001154869794846,9.765499114990234,0.004100000020116568,-0.006899999920278788,-0.04879999905824661,-0.06099999926066736,-0.024000000747902123,0.05499999823992851
-0.05564124509692192,0.057499147951602936,9.764101028442383,0.003999999724328518,0.003000000026077032,-0.04879999905824661,0.05999999686717535,0.03599999945432653,0.05499999823992851
-0.06299623847007751,0.048305410891771317,9.781185150146484,-0.00559999980032444,-0.006799999624490738,-0.029199998825788498,0,-0.024000000747902123,-0.0659999978879142
-0.062143899500370026,0.07387548685073853,9.815375328063965,-0.005499999970197678,0.012399999424815178,0.00019999999494757503,0,-0.024000000747902123,-0.0659999978879142
-0.057834334671497345,0.057853490114212036,9.809389114379883,-0.005499999970197678,0.0024999999441206455,0.00019999999494757503,0.05999999686717535,-0.024000000747902123,-0.004999999877891834
-0.05967308580875397,0.0737031027674675,9.748701095581055,-0.005499999970197678,0.01209999993443489,-0.06839999556541443,-0.06099999926066736,0.03599999945432653,-0.004999999877891834
-0.04974193498492241,0.06885723769664764,9.707550048828125,0.004299999680370092,0.012299999594688416,-0.10759999603033066,-0.06099999926066736,-0.024000000747902123,-0.004999999877891834
-0.040960002690553665,0.06156928837299347,9.71987533569336,0.0139999995008111,0.0026000000070780516,-0.09779999405145645,0.05999999686717535,-0.024000000747902123,-0.0659999978879142
-0.046629469841718674,0.06404968351125717,9.703794479370117,0.013899999670684338,0.0024999999441206455,-0.10759999603033066,0,-0.024000000747902123,0.05499999823992851
-0.05223190411925316,0.0629291981458664,9.718438148498535,0.003999999724328518,0.0023999998811632395,-0.09779999405145645,0.05999999686717535,-0.024000000747902123,-0.004999999877891834
-0.053639695048332214,0.05227021127939224,9.734651565551758,0.0038999998942017555,-0.007400000002235174,-0.07819999754428864,0,-0.024000000747902123,-0.004999999877891834
-0.06604165583848953,0.056407392024993896,9.747504234313965,-0.005799999926239252,-0.007400000002235174,-0.06839999556541443,0.05999999686717535,0.03599999945432653,-0.004999999877891834
-0.06337931007146835,0.056886233389377594,9.778428077697754,-0.005699999630451202,-0.007499999832361937,-0.029199998825788498,-0.06099999926066736,-0.024000000747902123,0.05499999823992851
-0.054300494492053986,0.07146213203668594,9.782123565673828,0.0038999998942017555,0.01209999993443489,-0.029199998825788498,0,0.03599999945432653,-0.004999999877891834
-0.04281790181994438,0.06011361628770828,9.78886604309082,0.013700000010430813,0.002300000051036477,-0.01939999870955944,0,0.03599999945432653,-0.0659999978879142
-0.05503791198134422,0.05650315806269646,9.786260604858398,0.003999999724328518,-0.007400000002235174,-0.029199998825788498,0.05999999686717535,-0.08499999667351618,-0.004999999877891834
-0.05417599529027939,0.06564901024103165,9.793424606323242,0.013399999588727951,-0.007499999832361937,-0.029199998825788498,0.05999999686717535,-0.024000000747902123,0.05499999823992851
-0.04969405010342598,0.05398445948958397,9.759599685668945,0.003599999938160181,0.001999999862164259,-0.01939999870955944,0,-0.024000000747902123,-0.004999999877891834
-0.05443457141518593,0.062316279858350754,9.7647705078125,0.003399999812245369,0.0018999999156221747,-0.04879999905824661,0,-0.024000000747902123,-0.004999999877891834
-0.0510731115937233,0.05644569918513298,9.753911018371582,0.0032999999821186066,-0.007799999788403511,-0.05859999731183052,0,-0.024000000747902123,-0.004999999877891834
-0.05961562320590019,0.06045838072896004,9.757320404052734,0.0032999999821186066,-0.007799999788403511,-0.05859999731183052,0,-0.024000000747902123,0.05499999823992851
-0.050891149789094925,0.0731189176440239,9.766120910644531,0.0031999999191612005,0.011699999682605267,-0.04879999905824661,0.05999999686717535,0.03599999945432653,0.05499999823992851
-0.0669323056936264,0.05634992942214012,9.759753227233887,-0.006399999838322401,-0.007999999448657036,-0.04879999905824661,0.05999999686717535,-0.024000000747902123,-0.004999999877891834
-0.04952166602015495,0.05929001420736313,9.76472282409668,0.0032999999821186066,0.0015999999595806003,-0.04879999905824661,0.05999999686717535,-0.024000000747902123,-0.004999999877891834
-0.05551674962043762,0.05792052671313286,9.768045425415039,0.0031999999191612005,0.00139999995008111,-0.04879999905824661,0,-0.024000000747902123,-0.004999999877891834
-0.05607220530509949,0.06517017632722855,9.76489543914795,0.0030999998562037945,0.00139999995008111,-0.04879999905824661,0,0.03599999945432653,-0.004999999877891834
-0.060918066650629044,0.062143899500370026,9.762462615966797,-0.0064999996684491634,0.00139999995008111,-0.04879999905824661,0,-0.024000000747902123,0.05499999823992851
-0.05533478781580925,0.048966214060783386,9.764311790466309,0.0030999998562037945,-0.008299999870359898,-0.04879999905824661,0,0.0969999987149939,0.05499999823992851
-0.06451894342899323,0.06163632869720459,9.763985633850098,-0.006300000008195639,0.00139999995008111,-0.04879999905824661,-0.06099999926066736,-0.024000000747902123,0.05499999823992851
-0.05408022552728653,0.0701596811413765,9.763009071350098,0.0032999999821186066,0.011299999430775642,-0.04879999905824661,0.05999999686717535,-0.08499999667351618,-0.0659999978879142
-0.06045838072896004,0.058045025914907455,9.7588529586792,-0.006599999964237213,0.0013000000035390258,-0.04879999905824661,0,-0.024000000747902123,-0.004999999877891834
-0.0481138750910759,0.06330269575119019,9.763717651367188,0.0030999998562037945,0.0013000000035390258,-0.04879999905824661,0,-0.024000000747902123,-0.004999999877891834
-0.04789361357688904,0.05324704572558403,9.764445304870605,0.003000000026077032,0.010999999940395355,-0.05859999731183052,0,-0.024000000747902123,-0.004999999877891834
-0.05229894071817398,0.06709510833024979,9.75076961517334,0.002899999963119626,-0.00839999970048666,-0.04879999905824661,0.12100000279794933,0.03599999945432653,-0.004999999877891834
-0.05510494485497475,0.058686673641204834,9.754801750183105,0.00279999990016222,0.010999999940395355,-0.05859999731183052,0.05999999686717535,0.03599999945432653,-0.004999999877891834
-0.05510494485497475,0.058686673641204834,9.754801750183105,0.002899999963119626,0.0007999999797903001,-0.05859999731183052,0.05999999686717535,0.03599999945432653,-0.004999999877891834
-0.07006391882896423,0.06947973370552063,9.760576248168945,-0.01640000008046627,0.010400000028312206,-0.04879999905824661,-0.06099999926066736,-0.024000000747902123,-0.004999999877891834
-0.06211517006158829,0.053754616528749466,9.772624015808105,-0.006599999964237213,-0.008799999952316284,-0.039000000804662704,0,-0.024000000747902123,0.05499999823992851
-0.05462610721588135,0.05902186036109924,9.762127876281738,0.002899999963119626,-0.0016999999061226845,-0.04879999905824661,0,-0.024000000747902123,-0.004999999877891834
-0.05462610721588135,0.05902186036109924,9.762127876281738,0.002899999963119626,-0.0016999999061226845,-0.04879999905824661,0,-0.024000000747902123,-0.004999999877891834
-0.050086699426174164,0.06006573140621185,9.768898010253906,0.0015999999595806003,-0.0009999999310821295,-0.04879999905824661,0,0.03599999945432653,-0.004999999877891834
-0.04712746664881706,0.06052541732788086,9.753116607666016,0.008100000210106373,-0.0004999999655410647,-0.05859999731183052,0,0.03599999945432653,-0.004999999877891834
-0.057029884308576584,0.06393475830554962,9.758086204528809,-0.0010999999940395355,-0.00039999998989515007,-0.05859999731183052,0.05999999686717535,0.03599999945432653,0.05499999823992851
-0.04774995893239975,0.049655742943286896,9.759934425354004,0.0064999996684491634,-0.007699999958276749,-0.04879999905824661,-0.06099999926066736,0.03599999945432653,-0.004999999877891834
-0.053256623446941376,0.06426995247602463,9.760183334350586,0.0064999996684491634,-0.007699999958276749,-0.04879999905824661,-0.06099999926066736,-0.08499999667351618,-0.004999999877891834
-0.05265328288078308,0.060697801411151886,9.757750511169434,-0.0018999999156221747,0.0013000000035390258,-0.05859999731183052,0,0.03599999945432653,-0.004999999877891834
-0.05187756195664406,0.06584054231643677,9.766063690185547,-0.0013000000035390258,0.0008999999845400453,-0.04879999905824661,0,0.03599999945432653,-0.004999999877891834
-0.05844724923372269,0.06102341413497925,9.753039360046387,-0.00839999970048666,0.0005999999702908099,-0.05859999731183052,-0.12199999852133472,0.03599999945432653,-0.004999999877891834
-0.043373361229896545,0.0708492174744606,9.760671615600586,0.00839999970048666,0.007999999448657036,-0.04879999905824661,0.05999999686717535,-0.024000000747902123,-0.004999999877891834
-0.05613924190402031,0.06308242678642273,9.764062881469727,-0.00139999995008111,-0.0018999999156221747,-0.04879999905824661,0.05999999686717535,-0.024000000747902123,-0.004999999877891834
-0.05673300102353096,0.0523659773170948,9.761486053466797,-0.00139999995008111,-0.011899999342858791,-0.04879999905824661,0,-0.024000000747902123,0.05499999823992851
-0.05552632361650467,0.046323012560606,9.760451316833496,-0.001500000013038516,-0.02159999869763851,-0.04879999905824661,0,0.03599999945432653,0.05499999823992851
-0.04902367293834686,0.058945246040821075,9.7583646774292,-0.00139999995008111,-0.001999999862164259,-0.05859999731183052,0,-0.024000000747902123,-0.0659999978879142
-0.050038814544677734,0.0632835403084755,9.76237678527832,-0.001500000013038516,-0.001999999862164259,-0.04879999905824661,0.05999999686717535,-0.08499999667351618,-0.004999999877891834
-0.058849480003118515,0.05513367801904678,9.763765335083008,-0.011500000022351742,-0.012000000104308128,-0.04879999905824661,-0.06099999926066736,-0.024000000747902123,-0.004999999877891834
-0.050728343427181244,0.06379111111164093,9.763832092285156,-0.0017999999690800905,-0.001999999862164259,-0.04879999905824661,0,0.03599999945432653,-0.004999999877891834
-0.053639695048332214,0.051264647394418716,9.760595321655273,-0.0015999999595806003,-0.011799999512732029,-0.04879999905824661,0,-0.024000000747902123,-0.004999999877891834
-0.04752011597156525,0.058590903878211975,9.75992488861084,0.007999999448657036,-0.001999999862164259,-0.04879999905824661,0.05999999686717535,-0.08499999667351618,-0.004999999877891834
-0.0530746653676033,0.06412629783153534,9.765708923339844,-0.001999999862164259,-0.002199999988079071,-0.04879999905824661,0,0.03599999945432653,0.05499999823992851
-0.05637866258621216,0.06002742424607277,9.766887664794922,0.007799999788403511,-0.012000000104308128,-0.06839999556541443,0,0.03599999945432653,-0.004999999877891834
-0.06556282192468643,0.07083963602781296,9.762500762939453,-0.011399999260902405,0.007699999958276749,-0.04879999905824661,-0.06099999926066736,-0.024000000747902123,0.05499999823992851
-0.06092764809727669,0.051954176276922226,9.76418685913086,-0.011500000022351742,-0.011599999852478504,-0.04879999905824661,0.05999999686717535,-0.024000000747902123,-0.004999999877891834
-0.07295611500740051,0.05893566831946373,9.766532897949219,-0.021299999207258224,-0.001999999862164259,-0.04879999905824661,-0.06099999926066736,0.03599999945432653,0.05499999823992851
-0.06327396631240845,0.052174441516399384,9.77405071258545,-0.021299999207258224,-0.001999999862164259,-0.04879999905824661,0.05999999686717535,-0.08499999667351618,-0.004999999877891834
-0.04932055622339249,0.0623258575797081,9.770574569702148,-0.0016999999061226845,-0.0018999999156221747,-0.039000000804662704,0.05999999686717535,0.03599999945432653,-0.004999999877891834
-0.07223785668611526,0.061195798218250275,9.759081840515137,-0.0210999995470047,-0.002099999925121665,-0.04879999905824661,-0.06099999926066736,0.03599999945432653,-0.004999999877891834
-0.061128757894039154,0.060630764812231064,9.773619651794434,-0.01119999960064888,-0.0018999999156221747,-0.039000000804662704,0.05999999686717535,-0.024000000747902123,-0.004999999877891834
-0.03905421867966652,0.0670567974448204,9.768515586853027,0.008200000040233135,0.007599999662488699,-0.039000000804662704,0.05999999686717535,-0.08499999667351618,-0.004999999877891834
-0.042425256222486496,0.051312532275915146,9.762080192565918,0.007899999618530273,-0.012000000104308128,-0.04879999905824661,-0.06099999926066736,0.03599999945432653,-0.004999999877891834
-0.05706819146871567,0.06514143943786621,9.75948429107666,-0.0016999999061226845,-0.002099999925121665,-0.04879999905824661,0,-0.024000000747902123,-0.004999999877891834
-0.053754616528749466,0.05792052671313286,9.761150360107422,-0.0016999999061226845,-0.002099999925121665,-0.04879999905824661,0.05999999686717535,-0.024000000747902123,-0.004999999877891834
-0.0665779560804367,0.06443275511264801,9.760700225830078,-0.011599999852478504,-0.002199999988079071,-0.04879999905824661,0.05999999686717535,-0.024000000747902123,-0.004999999877891834
-0.0618470199406147,0.049655742943286896,9.756649017333984,-0.011599999852478504,-0.01209999993443489,-0.05859999731183052,-0.06099999926066736,0.03599999945432653,-0.0659999978879142
-0.05419514700770378,0.06261315941810608,9.766762733459473,-0.0015999999595806003,-0.002099999925121665,-0.04879999905824661,0,-0.08499999667351618,-0.004999999877891834
-0.05112099274992943,0.07244853675365448,9.765440940856934,-0.0017999999690800905,0.007499999832361937,-0.04879999905824661,0,0.03599999945432653,-0.004999999877891834
-0.05961562320590019,0.05220317468047142,9.759197235107422,-0.011500000022351742,-0.011899999342858791,-0.04879999905824661,0.05999999686717535,-0.024000000747902123,-0.004999999877891834
-0.045796290040016174,0.05162856727838516,9.764435768127441,0.007899999618530273,-0.012000000104308128,-0.04879999905824661,-0.06099999926066736,0.0969999987149939,0.05499999823992851
-0.0539078451693058,0.06538085639476776,9.755941390991211,-0.001500000013038516,-0.001999999862164259,-0.05859999731183052,0,0.03599999945432653,-0.004999999877891834
-0.05827486887574196,0.059989117085933685,9.756745338439941,-0.01119999960064888,-0.001999999862164259,-0.05859999731183052,0,-0.024000000747902123,0.05499999823992851
-0.06301538646221161,0.0625748559832573,9.751363754272461,-0.01119999960064888,-0.001999999862164259,-0.05859999731183052,0,0.03599999945432653,-0.004999999877891834
-0.04820007085800171,0.05670427158474922,9.750826835632324,-0.0011999999405816197,-0.011799999512732029,-0.05859999731183052,0,0.03599999945432653,-0.004999999877891834
-0.05495171621441841,0.05292143300175667,9.747982025146484,0.008499999530613422,-0.0018999999156221747,-0.05859999731183052,0,0.03599999945432653,-0.004999999877891834
-0.05064215511083603,0.05266286060214043,9.736328125,-0.0011999999405816197,-0.011699999682605267,-0.06839999556541443,0,-0.08499999667351618,-0.004999999877891834
-0.05064215511083603,0.05266286060214043,9.736328125,-0.0010999999940395355,-0.011699999682605267,-0.07819999754428864,0,-0.08499999667351618,-0.004999999877891834
-0.05092945694923401,0.04526956379413605,9.753250122070312,-0.00139999995008111,-0.0210999995470047,-0.05859999731183052,-0.06099999926066736,-0.08499999667351618,-0.004999999877891834
-0.05905058979988098,0.06438487023115158,9.753786087036133,-0.011399999260902405,-0.0013000000035390258,-0.05859999731183052,0.05999999686717535,-0.024000000747902123,-0.004999999877891834
-0.05571785941720009,0.06295792758464813,9.77169418334961,-0.0015999999595806003,-0.00139999995008111,-0.039000000804662704,0,-0.024000000747902123,0.05499999823992851
-0.05411853268742561,0.0730997696518898,9.776214599609375,-0.0016999999061226845,0.008200000040233135,-0.039000000804662704,0,-0.024000000747902123,0.05499999823992851
-0.06225882098078728,0.06963296234607697,9.771502494812012,-0.011399999260902405,0.008100000210106373,-0.039000000804662704,0.05999999686717535,-0.08499999667351618,-0.004999999877891834
-0.05514325201511383,0.06732495129108429,9.779557228088379,-0.0017999999690800905,0.007899999618530273,-0.029199998825788498,0,0.03599999945432653,0.05499999823992851
-0.05850471183657646,0.07135678827762604,9.786059379577637,-0.011399999260902405,0.007799999788403511,-0.029199998825788498,0,-0.024000000747902123,-0.004999999877891834
-0.057144805788993835,0.06132987141609192,9.784010887145996,-0.0015999999595806003,-0.0018999999156221747,-0.029199998825788498,0.12100000279794933,0.03599999945432653,-0.004999999877891834
-0.05374504253268242,0.06068822368979454,9.780343055725098,-0.001500000013038516,-0.002199999988079071,-0.029199998825788498,0,0.0969999987149939,0.05499999823992851
-0.06137775257229805,0.06118621677160263,9.768171310424805,-0.010999999940395355,-0.002199999988079071,-0.04879999905824661,0,-0.024000000747902123,-0.0659999978879142
-0.06276638805866241,0.06784210354089737,9.765824317932129,-0.010999999940395355,0.007400000002235174,-0.04879999905824661,0.05999999686717535,-0.024000000747902123,-0.004999999877891834
-0.055296480655670166,0.06047753617167473,9.755126953125,-0.0011999999405816197,-0.0023999998811632395,-0.05859999731183052,0,-0.08499999667351618,-0.004999999877891834
-0.048209644854068756,0.06937438994646072,9.757195472717285,-0.001500000013038516,0.007199999876320362,-0.05859999731183052,0.05999999686717535,-0.08499999667351618,-0.004999999877891834
-0.03979163244366646,0.06087018549442291,9.770545959472656,0.007899999618530273,-0.0026000000070780516,-0.039000000804662704,-0.06099999926066736,0.03599999945432653,-0.004999999877891834
-0.05450160428881645,0.044187385588884354,9.769099235534668,-0.0016999999061226845,-0.021900000050663948,-0.039000000804662704,0,-0.024000000747902123,-0.0659999978879142
-0.0479893796145916,0.058475982397794724,9.756458282470703,-0.0016999999061226845,-0.002300000051036477,-0.05859999731183052,0.05999999686717535,0.03599999945432653,-0.004999999877891834
-0.047213658690452576,0.06125325709581375,9.780313491821289,-0.011399999260902405,0.007199999876320362,-0.04879999905824661,0.05999999686717535,0.03599999945432653,-0.004999999877891834
-0.06215347722172737,0.05978800728917122,9.768438339233398,0.007999999448657036,-0.0024999999441206455,-0.029199998825788498,0.05999999686717535,0.03599999945432653,-0.004999999877891834
-0.05446329712867737,0.0543866828083992,9.76738452911377,-0.00139999995008111,-0.012299999594688416,-0.04879999905824661,0.05999999686717535,0.03599999945432653,-0.004999999877891834
-0.04727111756801605,0.05966350436210632,9.766973495483398,0.008299999870359898,-0.002699999837204814,-0.04879999905824661,0,0.03599999945432653,0.05499999823992851
-0.04776911064982414,0.060295574367046356,9.765144348144531,0.00839999970048666,-0.002699999837204814,-0.04879999905824661,0,-0.024000000747902123,-0.004999999877891834
-0.05054638534784317,0.06676950305700302,9.766905784606934,-0.00139999995008111,-0.0026000000070780516,-0.04879999905824661,0,-0.024000000747902123,-0.004999999877891834
-0.061100028455257416,0.06630022823810577,9.770018577575684,-0.01119999960064888,-0.0026000000070780516,-0.039000000804662704,0,-0.024000000747902123,0.05499999823992851
-0.05477933585643768,0.060678645968437195,9.771081924438477,-0.00139999995008111,-0.0026000000070780516,-0.039000000804662704,0,0.0969999987149939,-0.004999999877891834
-0.052595820277929306,0.06087018549442291,9.770956993103027,-0.0010999999940395355,-0.0026000000070780516,-0.039000000804662704,0,-0.024000000747902123,-0.004999999877891834
-0.05457821860909462,0.06562028080224991,9.760030746459961,-0.0011999999405816197,-0.0024999999441206455,-0.04879999905824661,0.05999999686717535,-0.024000000747902123,-0.004999999877891834
-0.06533297896385193,0.05906974524259567,9.778867721557617,-0.010900000110268593,-0.002699999837204814,-0.029199998825788498,-0.06099999926066736,0.03599999945432653,-0.004999999877891834
-0.05485595017671585,0.06452852487564087,9.763985633850098,-0.0009999999310821295,-0.0024999999441206455,-0.04879999905824661,-0.06099999926066736,-0.024000000747902123,-0.004999999877891834
-0.047022122889757156,0.05829402059316635,9.767595291137695,0.008599999360740185,-0.002300000051036477,-0.04879999905824661,0,-0.024000000747902123,-0.004999999877891834
-0.047022122889757156,0.05829402059316635,9.767595291137695,0.008599999360740185,-0.002300000051036477,-0.04879999905824661,0,-0.024000000747902123,-0.004999999877891834
-0.044800300151109695,0.06627149879932404,9.770191192626953,0.008700000122189522,-0.002300000051036477,-0.039000000804662704,0,-0.024000000747902123,-0.004999999877891834
-0.055085793137550354,0.05815037339925766,9.760307312011719,-0.0010999999940395355,-0.002199999988079071,-0.04879999905824661,-0.06099999926066736,-0.024000000747902123,-0.0659999978879142
-0.042999863624572754,0.06698018312454224,9.765182495117188,-0.0010999999940395355,-0.002199999988079071,-0.04879999905824661,0,-0.024000000747902123,0.05499999823992851
-0.06589800864458084,0.06740156561136246,9.773839950561523,-0.010999999940395355,0.007599999662488699,-0.039000000804662704,0.05999999686717535,-0.08499999667351618,-0.004999999877891834
-0.0629100427031517,0.05927085876464844,9.769424438476562,-0.011099999770522118,-0.002300000051036477,-0.039000000804662704,-0.06099999926066736,-0.024000000747902123,0.05499999823992851
-0.054702721536159515,0.0715770572423935,9.769262313842773,-0.0013000000035390258,0.007499999832361937,-0.039000000804662704,-0.06099999926066736,-0.024000000747902123,-0.004999999877891834
-0.057930104434490204,0.0694318488240242,9.772173881530762,-0.011099999770522118,0.007599999662488699,-0.039000000804662704,0,-0.08499999667351618,-0.004999999877891834
-0.06571605056524277,0.06535212695598602,9.758727073669434,-0.01119999960064888,-0.002099999925121665,-0.05859999731183052,0,0.03599999945432653,-0.0659999978879142
-0.04731900244951248,0.07217081636190414,9.773619651794434,0.008299999870359898,0.007499999832361937,-0.039000000804662704,0.05999999686717535,0.03599999945432653,-0.0659999978879142
-0.055555056780576706,0.06235458701848984,9.76668643951416,-0.0013000000035390258,-0.002300000051036477,-0.04879999905824661,0,-0.024000000747902123,-0.004999999877891834
-0.04672523960471153,0.05366842821240425,9.764598846435547,0.008200000040233135,-0.012000000104308128,-0.04879999905824661,-0.06099999926066736,0.03599999945432653,-0.004999999877891834
-0.05649358406662941,0.055440135300159454,9.77409839630127,-0.0013000000035390258,-0.011699999682605267,-0.039000000804662704,0.05999999686717535,0.03599999945432653,0.05499999823992851
-0.05649358406662941,0.055440135300159454,9.77409839630127,-0.00139999995008111,-0.011599999852478504,-0.039000000804662704,0.05999999686717535,0.03599999945432653,0.05499999823992851
-0.05843767523765564,0.06012319028377533,9.7766752243042,-0.010999999940395355,-0.0018999999156221747,-0.039000000804662704,0,0.03599999945432653,-0.004999999877891834
-0.05104437842965126,0.06052541732788086,9.774395942687988,-0.0010999999940395355,-0.0018999999156221747,-0.039000000804662704,0.05999999686717535,-0.024000000747902123,-0.0659999978879142
-0.04848737269639969,0.06164590269327164,9.771598815917969,-0.0010999999940395355,-0.001999999862164259,-0.039000000804662704,0,-0.024000000747902123,-0.004999999877891834
-0.048947058618068695,0.04831499233841896,9.769761085510254,-0.0011999999405816197,-0.011699999682605267,-0.039000000804662704,0,0.03599999945432653,-0.004999999877891834
-0.05398445948958397,0.046504974365234375,9.76695442199707,-0.0008999999845400453,-0.021399999037384987,-0.04879999905824661,0,-0.024000000747902123,-0.004999999877891834
-0.05398445948958397,0.046504974365234375,9.76695442199707,-0.0008999999845400453,-0.021399999037384987,-0.04879999905824661,0,-0.024000000747902123,-0.004999999877891834
-0.05670427158474922,0.06327396631240845,9.765900611877441,-0.0009999999310821295,-0.0017999999690800905,-0.04879999905824661,0.05999999686717535,-0.08499999667351618,-0.0659999978879142
-0.055555056780576706,0.05465483292937279,9.769721984863281,-0.0011999999405816197,-0.011599999852478504,-0.039000000804662704,-0.06099999926066736,-0.024000000747902123,-0.004999999877891834
-0.044465113431215286,0.0651797503232956,9.77623462677002,0.008299999870359898,-0.0015999999595806003,-0.039000000804662704,-0.06099999926066736,-0.024000000747902123,0.05499999823992851
-0.05793968215584755,0.06194278597831726,9.770000457763672,-0.011099999770522118,-0.00139999995008111,-0.029199998825788498,-0.12199999852133472,-0.024000000747902123,-0.004999999877891834
-0.05348646640777588,0.0495312474668026,9.77753734588623,-0.010799999348819256,-0.001500000013038516,-0.039000000804662704,0,-0.024000000747902123,-0.004999999877891834
-0.06264188885688782,0.06649176776409149,9.776042938232422,-0.010799999348819256,-0.0009999999310821295,-0.039000000804662704,0,-0.024000000747902123,-0.004999999877891834
-0.05253836140036583,0.07331045717000961,9.770833015441895,-0.0010999999940395355,0.008599999360740185,-0.039000000804662704,0,-0.024000000747902123,-0.004999999877891834
-0.05454949289560318,0.06687483936548233,9.770143508911133,-0.0010999999940395355,0.008599999360740185,-0.039000000804662704,-0.06099999926066736,0.03599999945432653,-0.004999999877891834
-0.04222413897514343,0.06846459209918976,9.764291763305664,0.008599999360740185,0.008599999360740185,-0.04879999905824661,0,-0.024000000747902123,-0.004999999877891834
-0.04270298033952713,0.06354211270809174,9.77202033996582,0.00839999970048666,-0.0010999999940395355,-0.039000000804662704,0,0.03599999945432653,0.05499999823992851
-0.05507621914148331,0.06597462296485901,9.767845153808594,-0.0011999999405816197,-0.0009999999310821295,-0.04879999905824661,0,0.03599999945432653,-0.004999999877891834
-0.056388236582279205,0.06139690801501274,9.775947570800781,-0.0010999999940395355,-0.0009999999310821295,-0.039000000804662704,0,-0.024000000747902123,-0.004999999877891834
-0.053448159247636795,0.0505942702293396,9.765277862548828,-0.0010999999940395355,-0.010699999518692493,-0.04879999905824661,0,-0.024000000747902123,-0.0659999978879142
-0.059443242847919464,0.059347473084926605,9.759753227233887,-0.010900000110268593,-0.0008999999845400453,-0.04879999905824661,0,0.03599999945432653,0.05499999823992851
-0.059395354241132736,0.055200714617967606,9.75987720489502,-0.010599999688565731,-0.010599999688565731,-0.04879999905824661,0,-0.024000000747902123,-0.004999999877891834
-0.051743488758802414,0.07197927683591843,9.773026466369629,-0.0008999999845400453,0.008799999952316284,-0.039000000804662704,0,-0.024000000747902123,-0.004999999877891834
-0.054396264255046844,0.0669323056936264,9.778179168701172,-0.0008999999845400453,-0.0008999999845400453,-0.029199998825788498,0.05999999686717535,0.03599999945432653,0.05499999823992851
-0.06050626188516617,0.061004262417554855,9.768409729003906,-0.010499999858438969,-0.0010999999940395355,-0.039000000804662704,0,-0.024000000747902123,-0.004999999877891834
-0.06737283617258072,0.0660991221666336,9.764463424682617,-0.020099999383091927,-0.0010999999940395355,-0.04879999905824661,0.05999999686717535,-0.024000000747902123,-0.004999999877891834
-0.05146576091647148,0.07220911979675293,9.767184257507324,-0.0004999999655410647,0.00839999970048666,-0.04879999905824661,0,0.03599999945432653,0.05499999823992851
-0.057403381913900375,0.04675397276878357,9.765517234802246,-0.00039999998989515007,-0.02070000022649765,-0.04879999905824661,0,-0.08499999667351618,-0.004999999877891834
-0.05396530404686928,0.05726930499076843,9.76591968536377,-0.000699999975040555,-0.010799999348819256,-0.04879999905824661,0,-0.024000000747902123,-0.0659999978879142
-0.06322608143091202,0.06320692598819733,9.769932746887207,-0.010400000028312206,-0.0008999999845400453,-0.039000000804662704,0,-0.024000000747902123,-0.004999999877891834
-0.05408022552728653,0.060439229011535645,9.75850772857666,-0.0005999999702908099,-0.0008999999845400453,-0.05859999731183052,0.05999999686717535,-0.024000000747902123,-0.004999999877891834
-0.04485776275396347,0.05843767523765564,9.770105361938477,0.008899999782443047,-0.0010999999940395355,-0.039000000804662704,0.18199999538851008,-0.14600000260429016,0.05499999823992851
-0.04974193498492241,0.07260177284479141,9.764551162719727,-0.0011999999405816197,0.008100000210106373,-0.04879999905824661,0,0.03599999945432653,-0.004999999877891834
-0.05906974524259567,0.0610138364136219,9.765527725219727,-0.010900000110268593,-0.0015999999595806003,-0.04879999905824661,0,-0.024000000747902123,0.05499999823992851
-0.0618470199406147,0.05784391239285469,9.77753734588623,-0.010999999940395355,-0.0015999999595806003,-0.039000000804662704,0.05999999686717535,0.03599999945432653,0.05499999823992851
-0.06366661190986633,0.053706735372543335,9.771024703979492,-0.010900000110268593,-0.0016999999061226845,-0.04879999905824661,0.05999999686717535,0.03599999945432653,-0.004999999877891834
-0.05875370651483536,0.06985322386026382,9.767624855041504,-0.010499999858438969,0.007999999448657036,-0.04879999905824661,0,-0.024000000747902123,-0.004999999877891834
-0.06116706505417824,0.075474813580513,9.771129608154297,-0.010499999858438969,0.007999999448657036,-0.039000000804662704,0,-0.024000000747902123,-0.004999999877891834
-0.06204812973737717,0.05365884676575661,9.762654304504395,-0.010499999858438969,0.007999999448657036,-0.039000000804662704,0.05999999686717535,-0.024000000747902123,-0.004999999877891834
-0.05022077634930611,0.06288131326436996,9.759809494018555,-0.0007999999797903001,-0.0017999999690800905,-0.04879999905824661,0,0.03599999945432653,-0.004999999877891834
-0.06299623847007751,0.06044880300760269,9.76966381072998,-0.010499999858438969,-0.0017999999690800905,-0.039000000804662704,0.05999999686717535,-0.024000000747902123,-0.004999999877891834
-0.057432111352682114,0.07483316957950592,9.770986557006836,-0.000699999975040555,0.007699999958276749,-0.039000000804662704,0.05999999686717535,-0.08499999667351618,-0.004999999877891834
-0.04078762233257294,0.05247132480144501,9.771819114685059,0.008599999360740185,-0.011799999512732029,-0.039000000804662704,0,0.03599999945432653,-0.004999999877891834
-0.05358223244547844,0.054539911448955536,9.770181655883789,-0.0009999999310821295,-0.011599999852478504,-0.039000000804662704,0,-0.024000000747902123,-0.004999999877891834
-0.05097734183073044,0.06353253871202469,9.76863956451416,-0.0009999999310821295,-0.0017999999690800905,-0.039000000804662704,0,-0.024000000747902123,0.05499999823992851
-0.05443457141518593,0.06194278597831726,9.767701148986816,-0.0010999999940395355,-0.0017999999690800905,-0.04879999905824661,0,-0.08499999667351618,-0.004999999877891834
-0.04903325065970421,0.057307612150907516,9.771484375,-0.0013000000035390258,-0.011399999260902405,-0.039000000804662704,-0.06099999926066736,0.03599999945432653,-0.004999999877891834
-0.06064991652965546,0.06957550346851349,9.784728050231934,-0.010799999348819256,0.008100000210106373,-0.029199998825788498,0,-0.024000000747902123,-0.004999999877891834
-0.05091987922787666,0.054252609610557556,9.779547691345215,-0.0009999999310821295,-0.01119999960064888,-0.029199998825788498,-0.12199999852133472,-0.024000000747902123,-0.004999999877891834
-0.053610965609550476,0.05363012105226517,9.767499923706055,-0.0009999999310821295,-0.010699999518692493,-0.04879999905824661,0.05999999686717535,0.03599999945432653,-0.004999999877891834
-0.041955988854169846,0.05573701485991478,9.778523445129395,0.008599999360740185,-0.010699999518692493,-0.029199998825788498,-0.06099999926066736,-0.024000000747902123,-0.004999999877891834
-0.05553590506315231,0.05189671739935875,9.763822555541992,-0.0011999999405816197,-0.010400000028312206,-0.04879999905824661,0,-0.024000000747902123,-0.004999999877891834
-0.052806511521339417,0.051791369915008545,9.769109725952148,-0.0011999999405816197,-0.010199999436736107,-0.039000000804662704,0.05999999686717535,-0.024000000747902123,-0.004999999877891834
-0.047711651772260666,0.051810525357723236,9.775047302246094,0.008299999870359898,-0.010199999436736107,-0.039000000804662704,0.12100000279794933,-0.024000000747902123,-0.0659999978879142
-0.04251144453883171,0.06603208184242249,9.765393257141113,0.008100000210106373,-0.000699999975040555,-0.04879999905824661,0.05999999686717535,-0.024000000747902123,-0.004999999877891834
-0.06146394833922386,0.059184666723012924,9.768209457397461,-0.011299999430775642,-0.0008999999845400453,-0.04879999905824661,0,-0.024000000747902123,-0.004999999877891834
-0.050891149789094925,0.06562986224889755,9.760595321655273,-0.001500000013038516,-0.0008999999845400453,-0.04879999905824661,0,-0.08499999667351618,-0.004999999877891834
-0.05492299050092697,0.06974788755178452,9.766973495483398,-0.011399999260902405,0.008700000122189522,-0.039000000804662704,-0.06099999926066736,-0.024000000747902123,-0.004999999877891834
-0.055890243500471115,0.047548845410346985,9.772029876708984,-0.0016999999061226845,-0.020499998703598976,-0.039000000804662704,0,-0.024000000747902123,-0.004999999877891834
-0.05274904891848564,0.057786453515291214,9.775918006896973,-0.0016999999061226845,-0.0007999999797903001,-0.039000000804662704,0.05999999686717535,0.03599999945432653,-0.004999999877891834
-0.06610869616270065,0.06095637381076813,9.771197319030762,-0.01119999960064888,-0.0009999999310821295,-0.039000000804662704,-0.06099999926066736,-0.024000000747902123,-0.004999999877891834
-0.05070919170975685,0.06064991652965546,9.777230262756348,-0.00139999995008111,-0.0007999999797903001,-0.039000000804662704,0,-0.024000000747902123,-0.0659999978879142
-0.060056157410144806,0.06845501810312271,9.76961612701416,-0.011099999770522118,0.008799999952316284,-0.039000000804662704,-0.06099999926066736,0.0969999987149939,-0.004999999877891834
-0.04481945559382439,0.06451894342899323,9.781367301940918,0.00839999970048666,-0.0007999999797903001,-0.029199998825788498,0,0.03599999945432653,0.05499999823992851
-0.05337154492735863,0.06393475830554962,9.764703750610352,-0.0010999999940395355,-0.0007999999797903001,-0.04879999905824661,-0.06099999926066736,-0.024000000747902123,0.05499999823992851
-0.04872678965330124,0.0704948753118515,9.763449668884277,-0.0011999999405816197,0.008999999612569809,-0.04879999905824661,0,-0.024000000747902123,-0.004999999877891834
-0.06368576735258102,0.06146394833922386,9.776100158691406,-0.010900000110268593,-0.000699999975040555,-0.039000000804662704,0,-0.024000000747902123,-0.004999999877891834
-0.0565127357840538,0.07635588198900223,9.771072387695312,-0.0010999999940395355,0.008799999952316284,-0.039000000804662704,0.05999999686717535,-0.024000000747902123,-0.004999999877891834
-0.059280432760715485,0.056771308183670044,9.773514747619629,-0.010799999348819256,-0.010699999518692493,-0.039000000804662704,-0.06099999926066736,-0.08499999667351618,-0.004999999877891834
-0.0464475117623806,0.06620446592569351,9.77802562713623,0.008299999870359898,-0.000699999975040555,-0.029199998825788498,0,-0.024000000747902123,-0.004999999877891834
-0.06110960245132446,0.060151923447847366,9.770641326904297,-0.011099999770522118,-0.0007999999797903001,-0.039000000804662704,0,0.0969999987149939,-0.004999999877891834
-0.06110960245132446,0.060151923447847366,9.770641326904297,-0.011099999770522118,-0.0007999999797903001,-0.039000000804662704,0,0.0969999987149939,-0.004999999877891834
-0.0495312474668026,0.06906793266534805,9.767068862915039,-0.0009999999310821295,0.008799999952316284,-0.04879999905824661,0.05999999686717535,-0.024000000747902123,0.05499999823992851
-0.050747498869895935,0.06851247698068619,9.770890235900879,-0.0010999999940395355,0.008499999530613422,-0.039000000804662704,0.05999999686717535,-0.024000000747902123,-0.004999999877891834
-0.06459555774927139,0.0601998046040535,9.771665573120117,-0.010799999348819256,-0.00139999995008111,-0.039000000804662704,0.05999999686717535,-0.08499999667351618,-0.004999999877891834
-0.05234682559967041,0.07047571986913681,9.770421028137207,-0.0011999999405816197,0.007999999448657036,-0.039000000804662704,0.12100000279794933,0.21899999723632863,0.05499999823992851
-0.058284446597099304,0.053189586848020554,9.775956153869629,-0.010400000028312206,-0.011799999512732029,-0.039000000804662704,0.12100000279794933,-0.2069999951948509,-0.004999999877891834
-0.05414726585149765,0.048401180654764175,9.77294921875,-0.00139999995008111,-0.012799999676644802,-0.039000000804662704,0.05999999686717535,-0.024000000747902123,0.05499999823992851
-0.06506482511758804,0.05466441437602043,9.772931098937988,-0.011299999430775642,-0.012899999506771564,-0.039000000804662704,0.05999999686717535,-0.024000000747902123,0.05499999823992851
-0.05938578024506569,0.0721612423658371,9.790915489196777,-0.011299999430775642,-0.012899999506771564,-0.039000000804662704,0,-0.024000000747902123,0.05499999823992851
-0.05445372313261032,0.05606262758374214,9.769607543945312,-0.001500000013038516,-0.013100000098347664,-0.039000000804662704,0,-0.024000000747902123,-0.004999999877891834
-0.0579492561519146,0.05976885184645653,9.762271881103516,-0.001500000013038516,-0.013100000098347664,-0.039000000804662704,0,-0.08499999667351618,-0.004999999877891834
-0.05981673300266266,0.06975746154785156,9.776350021362305,-0.011599999852478504,0.006399999838322401,-0.039000000804662704,0,-0.024000000747902123,-0.004999999877891834
-0.04737646505236626,0.06082230061292648,9.765393257141113,0.007799999788403511,-0.0032999999821186066,-0.04879999905824661,0,-0.024000000747902123,-0.004999999877891834
-0.052854396402835846,0.05492299050092697,9.772662162780762,-0.0018999999156221747,-0.012999999336898327,-0.039000000804662704,0,-0.024000000747902123,-0.004999999877891834
-0.05159026011824608,0.06823474913835526,9.768420219421387,-0.001999999862164259,0.0064999996684491634,-0.039000000804662704,-0.12199999852133472,0.0969999987149939,-0.004999999877891834
-0.057144805788993835,0.05427176132798195,9.767509460449219,-0.0016999999061226845,-0.01269999984651804,-0.04879999905824661,-0.06099999926066736,-0.08499999667351618,-0.0659999978879142
-0.06297708302736282,0.05689580738544464,9.768017768859863,-0.011699999682605267,-0.01249999925494194,-0.04879999905824661,0.05999999686717535,-0.024000000747902123,-0.004999999877891834
-0.048851292580366135,0.06245993450284004,9.759819030761719,-0.0018999999156221747,-0.00279999990016222,-0.04879999905824661,-0.06099999926066736,0.03599999945432653,0.05499999823992851
-0.05696284770965576,0.06745903193950653,9.772987365722656,-0.0017999999690800905,0.006899999920278788,-0.039000000804662704,0,-0.024000000747902123,-0.004999999877891834
-0.054961297661066055,0.06531382352113724,9.784719467163086,-0.0017999999690800905,-0.002699999837204814,-0.029199998825788498,0.05999999686717535,-0.024000000747902123,-0.004999999877891834
-0.061052143573760986,0.05493256449699402,9.771140098571777,-0.011500000022351742,-0.01249999925494194,-0.039000000804662704,0,-0.024000000747902123,-0.004999999877891834
-0.059136781841516495,0.06732495129108429,9.764626502990723,-0.011399999260902405,0.006899999920278788,-0.04879999905824661,0.05999999686717535,-0.024000000747902123,-0.004999999877891834
-0.056081779301166534,0.06332184374332428,9.76481819152832,-0.0015999999595806003,-0.002899999963119626,-0.04879999905824661,0,-0.08499999667351618,-0.004999999877891834
-0.05737464874982834,0.061195798218250275,9.757444381713867,-0.0017999999690800905,-0.002899999963119626,-0.05859999731183052,0.05999999686717535,-0.024000000747902123,-0.004999999877891834
-0.059395354241132736,0.0622013583779335,9.768649101257324,-0.011500000022351742,-0.003000000026077032,-0.039000000804662704,-0.12199999852133472,-0.024000000747902123,-0.0659999978879142
-0.04521210491657257,0.07079175859689713,9.762979507446289,0.007899999618530273,0.00699999975040555,-0.04879999905824661,-0.06099999926066736,0.21899999723632863,-0.004999999877891834
-0.051647718995809555,0.05966350436210632,9.766772270202637,-0.0013000000035390258,-0.0024999999441206455,-0.04879999905824661,-0.24399999704266945,0.03599999945432653,-0.004999999877891834
-0.055794473737478256,0.06310158222913742,9.778820037841797,-0.010999999940395355,-0.0018999999156221747,-0.04879999905824661,-0.06099999926066736,-0.024000000747902123,-0.004999999877891834
-0.046840161085128784,0.06288131326436996,9.774079322814941,-0.0013000000035390258,-0.001999999862164259,-0.029199998825788498,0.12100000279794933,0.15800000464576788,-0.004999999877891834
-0.05222232639789581,0.058092910796403885,9.776684761047363,0.00839999970048666,-0.0018999999156221747,-0.039000000804662704,-0.06099999926066736,-0.024000000747902123,-0.004999999877891834
-0.05417599529027939,0.05447287857532501,9.773859024047852,-0.0008999999845400453,-0.002199999988079071,-0.039000000804662704,-0.06099999926066736,-0.024000000747902123,-0.004999999877891834
-0.06883808970451355,0.05991250276565552,9.766398429870605,-0.020600000396370888,-0.0018999999156221747,-0.04879999905824661,0,-0.024000000747902123,-0.004999999877891834
-0.05118803307414055,0.07019799202680588,9.767585754394531,-0.0009999999310821295,0.007799999788403511,-0.04879999905824661,0.05999999686717535,-0.024000000747902123,-0.004999999877891834
-0.055267754942178726,0.06935523450374603,9.780869483947754,-0.0010999999940395355,0.007599999662488699,-0.029199998825788498,-0.06099999926066736,0.03599999945432653,-0.0659999978879142
-0.04964616894721985,0.057642798870801926,9.787065505981445,-0.0008999999845400453,-0.0018999999156221747,-0.029199998825788498,0,0.03599999945432653,0.05499999823992851
-0.048305410891771317,0.06637685000896454,9.77699089050293,-0.0008999999845400453,-0.0018999999156221747,-0.039000000804662704,0.05999999686717535,-0.08499999667351618,-0.004999999877891834
-0.05890693888068199,0.06518932431936264,9.764062881469727,-0.010900000110268593,-0.002099999925121665,-0.04879999905824661,0,-0.024000000747902123,-0.0659999978879142
-0.052002061158418655,0.07490978389978409,9.76956844329834,-0.0010999999940395355,0.007499999832361937,-0.039000000804662704,0,0.0969999987149939,0.05499999823992851
-0.053735461086034775,0.061981093138456345,9.774337768554688,-0.0007999999797903001,-0.002199999988079071,-0.039000000804662704,-0.12199999852133472,-0.024000000747902123,-0.004999999877891834
-0.043354205787181854,0.05929001420736313,9.770938873291016,0.008599999360740185,-0.0017999999690800905,-0.039000000804662704,0,-0.024000000747902123,-0.004999999877891834
-0.05594770610332489,0.050153736025094986,9.77202033996582,-0.0010999999940395355,-0.011399999260902405,-0.039000000804662704,0,-0.024000000747902123,0.05499999823992851
-0.054089806973934174,0.05090072751045227,9.771904945373535,-0.0010999999940395355,-0.01119999960064888,-0.039000000804662704,0,-0.024000000747902123,-0.004999999877891834
-0.04997177794575691,0.07324341684579849,9.772843360900879,-0.0011999999405816197,0.008200000040233135,-0.039000000804662704,-0.06099999926066736,0.03599999945432653,-0.004999999877891834
-0.04837245121598244,0.06523720920085907,9.774491310119629,-0.0010999999940395355,-0.0013000000035390258,-0.039000000804662704,-0.24399999704266945,-0.024000000747902123,0.05499999823992851
-0.0495312474668026,0.06689399480819702,9.773159980773926,-0.0010999999940395355,-0.0005999999702908099,-0.039000000804662704,0,-0.024000000747902123,-0.004999999877891834
-0.05506663769483566,0.0681198239326477,9.77956771850586,-0.0011999999405816197,0.009099999442696571,-0.029199998825788498,0,-0.024000000747902123,0.05499999823992851
-0.05741295590996742,0.06376238167285919,9.772843360900879,-0.0011999999405816197,-0.0005999999702908099,-0.039000000804662704,0.05999999686717535,0.03599999945432653,-0.0659999978879142
-0.05552632361650467,0.06774633377790451,9.772144317626953,-0.0010999999940395355,0.008899999782443047,-0.039000000804662704,0.05999999686717535,0.03599999945432653,-0.004999999877891834
-0.05454949289560318,0.06404968351125717,9.780571937561035,-0.0009999999310821295,-0.010699999518692493,-0.029199998825788498,0,0.0969999987149939,0.05499999823992851
-0.05637866258621216,0.06910623610019684,9.775104522705078,-0.000699999975040555,0.008799999952316284,-0.039000000804662704,0,-0.024000000747902123,-0.004999999877891834
-0.06176082789897919,0.057384226471185684,9.765277862548828,-0.000699999975040555,0.008799999952316284,-0.039000000804662704,0,-0.024000000747902123,-0.004999999877891834
-0.052030790597200394,0.04548025503754616,9.769702911376953,-0.010499999858438969,-0.010699999518692493,-0.04879999905824661,-0.06099999926066736,0.03599999945432653,-0.004999999877891834
-0.0528448186814785,0.04911944270133972,9.76325798034668,-0.000699999975040555,-0.010499999858438969,-0.04879999905824661,0,0.03599999945432653,0.05499999823992851
-0.048401180654764175,0.05845683068037033,9.776100158691406,-0.000699999975040555,-0.010499999858438969,-0.04879999905824661,0.12100000279794933,-0.024000000747902123,-0.004999999877891834
-0.05566997826099396,0.06199067085981369,9.771378517150879,-0.0005999999702908099,-0.0008999999845400453,-0.039000000804662704,0.05999999686717535,-0.024000000747902123,-0.004999999877891834
-0.05726930499076843,0.06777506321668625,9.77420425415039,-0.0005999999702908099,-0.0008999999845400453,-0.039000000804662704,0.05999999686717535,-0.024000000747902123,-0.004999999877891834
-0.05726930499076843,0.06777506321668625,9.77420425415039,-0.000699999975040555,0.00839999970048666,-0.039000000804662704,-0.06099999926066736,-0.024000000747902123,-0.004999999877891834
-0.05891651660203934,0.0539078451693058,9.771110534667969,-0.010300000198185444,-0.010699999518692493,-0.039000000804662704,-0.12199999852133472,0.03599999945432653,-0.004999999877891834
-0.06014234572649002,0.06012319028377533,9.775429725646973,-0.00039999998989515007,-0.01979999989271164,-0.039000000804662704,0,-0.024000000747902123,-0.004999999877891834
-0.06147352233529091,0.05246174708008766,9.785428047180176,-0.00969999935477972,-0.009599999524652958,-0.029199998825788498,0.05999999686717535,0.03599999945432653,-0.004999999877891834
-0.05581362918019295,0.061837442219257355,9.771780967712402,0.00009999999747378752,0,-0.039000000804662704,0,-0.024000000747902123,-0.004999999877891834
-0.06446148455142975,0.0624503567814827,9.774184226989746,-0.009499999694526196,0,-0.039000000804662704,0,0.03599999945432653,-0.004999999877891834
-0.05360138788819313,0.058830320835113525,9.777374267578125,0.00029999998514540493,0,-0.039000000804662704,0.05999999686717535,-0.024000000747902123,-0.004999999877891834
-0.05310339480638504,0.06715257465839386,9.770660400390625,0.00019999999494757503,0.009399999864399433,-0.039000000804662704,0,0.03599999945432653,-0.0659999978879142
-0.052806511521339417,0.06969999521970749,9.774088859558105,0.00029999998514540493,0.009200000204145908,-0.039000000804662704,0.05999999686717535,-0.14600000260429016,-0.004999999877891834
-0.06614699959754944,0.05680004134774208,9.780304908752441,-0.009599999524652958,-0.010199999436736107,-0.029199998825788498,0,0.03599999945432653,-0.004999999877891834
-0.04585375264286995,0.06463386863470078,9.75960922241211,0.00989999994635582,-0.00039999998989515007,-0.04879999905824661,0.12100000279794933,-0.024000000747902123,-0.0659999978879142
-0.05906016752123833,0.05666596442461014,9.762568473815918,-0.009599999524652958,-0.010400000028312206,-0.04879999905824661,-0.06099999926066736,0.21899999723632863,-0.0659999978879142
-0.05668511986732483,0.047663770616054535,9.769051551818848,0.0007999999797903001,-0.019999999552965164,-0.039000000804662704,-0.06099999926066736,-0.024000000747902123,0.05499999823992851
-0.055181559175252914,0.07151001691818237,9.775870323181152,0.0007999999797903001,0.009399999864399433,-0.039000000804662704,0.05999999686717535,-0.024000000747902123,-0.004999999877891834
-0.05204036831855774,0.0522606335580349,9.765881538391113,0.000699999975040555,0.009200000204145908,-0.039000000804662704,-0.06099999926066736,0.03599999945432653,-0.004999999877891834
-0.05902186036109924,0.06408798694610596,9.772250175476074,-0.008999999612569809,-0.00029999998514540493,-0.039000000804662704,0.05999999686717535,-0.024000000747902123,-0.004999999877891834
-0.06356126815080643,0.05599559098482132,9.77566909790039,-0.008999999612569809,-0.00029999998514540493,-0.039000000804662704,0,-0.024000000747902123,-0.004999999877891834
-0.06356126815080643,0.05599559098482132,9.77566909790039,-0.008999999612569809,-0.010199999436736107,-0.039000000804662704,0,-0.024000000747902123,-0.004999999877891834
-0.03481169044971466,0.06746860593557358,9.772825241088867,0.02019999921321869,0.009200000204145908,-0.039000000804662704,0.05999999686717535,0.03599999945432653,-0.004999999877891834
-0.059586890041828156,0.054990023374557495,9.764033317565918,-0.009099999442696571,-0.010199999436736107,-0.04879999905824661,-0.06099999926066736,0.03599999945432653,0.05499999823992851
-0.05870582535862923,0.050651729106903076,9.765087127685547,-0.008999999612569809,-0.010099999606609344,-0.04879999905824661,0,-0.024000000747902123,-0.004999999877891834
-0.06998730450868607,0.05976885184645653,9.774395942687988,-0.018799999728798866,-0.00029999998514540493,-0.039000000804662704,-0.06099999926066736,-0.024000000747902123,0.05499999823992851
-0.05641696974635124,0.07884585112333298,9.77845573425293,0.0005999999702908099,0.01889999955892563,-0.029199998825788498,0.05999999686717535,-0.024000000747902123,0.05499999823992851
-0.051312532275915146,0.0629291981458664,9.777565002441406,0.0005999999702908099,-0.0007999999797903001,-0.039000000804662704,-0.06099999926066736,0.0969999987149939,-0.004999999877891834
-0.0561583936214447,0.05850471183657646,9.758211135864258,0.0007999999797903001,-0.0005999999702908099,-0.05859999731183052,-0.06099999926066736,-0.024000000747902123,0.05499999823992851
-0.0561583936214447,0.05850471183657646,9.758211135864258,0.0007999999797903001,-0.0005999999702908099,-0.05859999731183052,-0.06099999926066736,-0.024000000747902123,0.05499999823992851
-0.05860047787427902,0.06510313600301743,9.768793106079102,-0.008799999952316284,-0.00039999998989515007,-0.039000000804662704,0.05999999686717535,-0.08499999667351618,-0.0659999978879142
-0.04912902042269707,0.0618470199406147,9.766791343688965,0.0005999999702908099,-0.0005999999702908099,-0.039000000804662704,-0.06099999926066736,-0.08499999667351618,-0.004999999877891834
-0.056436121463775635,0.05427176132798195,9.771646499633789,0.00039999998989515007,-0.00039999998989515007,-0.04879999905824661,0.05999999686717535,-0.024000000747902123,-0.004999999877891834
-0.04473326355218887,0.05948155000805855,9.775918006896973,0.009800000116229057,-0.00019999999494757503,-0.039000000804662704,0.05999999686717535,-0.024000000747902123,-0.004999999877891834
-0.05402276664972305,0.06687483936548233,9.786989212036133,0,-0.00039999998989515007,-0.029199998825788498,-0.06099999926066736,0.03599999945432653,0.05499999823992851
-0.05533478781580925,0.06340803951025009,9.779633522033691,0,-0.00039999998989515007,-0.029199998825788498,0.05999999686717535,0.03599999945432653,-0.004999999877891834
-0.05775772035121918,0.050843264907598495,9.776483535766602,-0.009399999864399433,-0.009999999776482582,-0.039000000804662704,0,-0.024000000747902123,0.05499999823992851
-0.05436753109097481,0.05405149981379509,9.779902458190918,-0.009399999864399433,-0.009999999776482582,-0.039000000804662704,0,-0.024000000747902123,-0.004999999877891834
-0.05594770610332489,0.07172070443630219,9.785706520080566,0.00009999999747378752,0.009499999694526196,-0.029199998825788498,-0.06099999926066736,-0.024000000747902123,0.05499999823992851
-0.05594770610332489,0.07172070443630219,9.785706520080566,0.00009999999747378752,0.009499999694526196,-0.029199998825788498,-0.06099999926066736,-0.024000000747902123,0.05499999823992851
-0.060582879930734634,0.06140648573637009,9.772259712219238,-0.008999999612569809,0.00009999999747378752,-0.039000000804662704,0,-0.024000000747902123,-0.004999999877891834
-0.03358586132526398,0.0724964290857315,9.767653465270996,0.019999999552965164,0.00969999935477972,-0.04879999905824661,-0.06099999926066736,-0.024000000747902123,-0.004999999877891834
-0.0663672685623169,0.06275681406259537,9.768420219421387,-0.00930000003427267,0.00009999999747378752,-0.039000000804662704,-0.12199999852133472,0.03599999945432653,-0.004999999877891834
-0.05308423936367035,0.08248503506183624,9.776856422424316,0.0004999999655410647,0.019700000062584877,-0.039000000804662704,0,0.03599999945432653,-0.004999999877891834
-0.06185659393668175,0.07384675741195679,9.777517318725586,-0.008899999782443047,0.00969999935477972,-0.039000000804662704,0.05999999686717535,-0.024000000747902123,-0.004999999877891834
-0.045863326638936996,0.07373183220624924,9.778964042663574,0.010300000198185444,0.00930000003427267,-0.029199998825788498,0.05999999686717535,0.03599999945432653,-0.004999999877891834
-0.05601474270224571,0.05398445948958397,9.776924133300781,0.0005999999702908099,-0.010199999436736107,-0.039000000804662704,0.12100000279794933,0.03599999945432653,-0.0659999978879142
-0.053141701966524124,0.0536780022084713,9.764760971069336,0.000699999975040555,-0.010300000198185444,-0.04879999905824661,0.05999999686717535,-0.024000000747902123,-0.0659999978879142
-0.058782439678907394,0.06822517514228821,9.782774925231934,-0.008899999782443047,0.008799999952316284,-0.029199998825788498,0,-0.024000000747902123,-0.004999999877891834
-0.059041015803813934,0.06354211270809174,9.775764465332031,-0.008799999952316284,-0.0008999999845400453,-0.039000000804662704,-0.06099999926066736,0.0969999987149939,0.05499999823992851
-0.053256623446941376,0.05647442862391472,9.77353286743164,0.0011999999405816197,-0.010300000198185444,-0.039000000804662704,-0.06099999926066736,0.03599999945432653,-0.004999999877891834
-0.03887225687503815,0.0722857341170311,9.777862548828125,0.010900000110268593,0.009200000204145908,-0.039000000804662704,-0.06099999926066736,-0.024000000747902123,0.05499999823992851
-0.04333505406975746,0.04792233929038048,9.779969215393066,0.010599999688565731,-0.009999999776482582,-0.029199998825788498,-0.06099999926066736,0.0969999987149939,-0.12700000381868817
-0.05297889560461044,0.04990473762154579,9.768601417541504,0.0009999999310821295,-0.009599999524652958,-0.039000000804662704,-0.12199999852133472,0.03599999945432653,-0.004999999877891834
-0.04817133769392967,0.07254431396722794,9.765172958374023,0.0010999999940395355,0.010099999606609344,-0.04879999905824661,0,0.03599999945432653,0.05499999823992851
-0.04639962688088417,0.057384226471185684,9.767423629760742,0.0011999999405816197,0.00029999998514540493,-0.039000000804662704,0,-0.024000000747902123,-0.004999999877891834
-0.04623682424426079,0.05668511986732483,9.768563270568848,0.010799999348819256,-0.009499999694526196,-0.04879999905824661,0.05999999686717535,-0.024000000747902123,-0.004999999877891834
-0.05062299966812134,0.06394433975219727,9.774270057678223,0.000699999975040555,0.00019999999494757503,-0.039000000804662704,0.05999999686717535,0.03599999945432653,-0.004999999877891834
-0.060487110167741776,0.06819643825292587,9.776033401489258,-0.008799999952316284,0.00969999935477972,-0.039000000804662704,0.05999999686717535,0.03599999945432653,-0.004999999877891834
-0.054942142218351364,0.05919424444437027,9.780946731567383,-0.008799999952316284,0.00969999935477972,-0.039000000804662704,0,-0.024000000747902123,-0.004999999877891834
-0.06924989074468613,0.06582139432430267,9.768793106079102,-0.018299998715519905,-0.00019999999494757503,-0.039000000804662704,0,-0.024000000747902123,-0.004999999877891834
-0.04630386084318161,0.057384226471185684,9.777688980102539,0.010799999348819256,-0.009800000116229057,-0.039000000804662704,-0.06099999926066736,0.03599999945432653,0.05499999823992851
-0.04933971166610718,0.04628470540046692,9.773686408996582,0.0010999999940395355,-0.019099999219179153,-0.039000000804662704,0.05999999686717535,-0.024000000747902123,-0.004999999877891834
-0.06370491534471512,0.05561251938343048,9.780811309814453,-0.008499999530613422,-0.00930000003427267,-0.029199998825788498,0,-0.024000000747902123,-0.004999999877891834
-0.04547068104147911,0.06052541732788086,9.778867721557617,0.010699999518692493,0.00039999998989515007,-0.029199998825788498,0,-0.024000000747902123,-0.004999999877891834
-0.03289633244276047,0.06514143943786621,9.768035888671875,0.02019999921321869,0.00039999998989515007,-0.04879999905824661,0,0.03599999945432653,-0.004999999877891834
-0.05535394325852394,0.06028600037097931,9.764101028442383,0.000699999975040555,0.00039999998989515007,-0.04879999905824661,0,0.03599999945432653,0.05499999823992851
-0.06273765861988068,0.06262274086475372,9.76722240447998,-0.008799999952316284,0.00039999998989515007,-0.04879999905824661,0.05999999686717535,0.03599999945432653,-0.004999999877891834
-0.047500960528850555,0.059969961643218994,9.766303062438965,0.010699999518692493,0.00019999999494757503,-0.04879999905824661,0,-0.024000000747902123,-0.004999999877891834
-0.044867340475320816,0.052739474922418594,9.766264915466309,0.010499999858438969,-0.009399999864399433,-0.04879999905824661,-0.06099999926066736,0.03599999945432653,-0.004999999877891834
-0.05172433331608772,0.06032430753111839,9.769761085510254,0.0007999999797903001,0.0004999999655410647,-0.039000000804662704,-0.06099999926066736,0.0969999987149939,0.05499999823992851
-0.05073792114853859,0.05763322487473488,9.770660400390625,0.0009999999310821295,0.0005999999702908099,-0.039000000804662704,0,-0.024000000747902123,-0.004999999877891834
-0.052643708884716034,0.055746592581272125,9.764608383178711,0.0009999999310821295,-0.008999999612569809,-0.04879999905824661,0,-0.024000000747902123,0.05499999823992851
-0.05964435264468193,0.06738241761922836,9.762568473815918,-0.008700000122189522,0.010400000028312206,-0.04879999905824661,0,-0.024000000747902123,-0.004999999877891834
-0.047951072454452515,0.06696103513240814,9.771225929260254,0.0008999999845400453,0.0005999999702908099,-0.039000000804662704,0.05999999686717535,0.03599999945432653,-0.0659999978879142
-0.043277591466903687,0.07079175859689713,9.767538070678711,0.010699999518692493,0.010099999606609344,-0.04879999905824661,0.05999999686717535,0.03599999945432653,-0.004999999877891834
-0.06486371904611588,0.05551674962043762,9.757147789001465,-0.008599999360740185,-0.009499999694526196,-0.05859999731183052,-0.06099999926066736,0.03599999945432653,-0.004999999877891834
-0.05043146386742592,0.05698200315237045,9.757951736450195,0.0011999999405816197,-0.009200000204145908,-0.05859999731183052,0,-0.024000000747902123,-0.004999999877891834
-0.0553252138197422,0.0682443231344223,9.75778865814209,0.0010999999940395355,0.010199999436736107,-0.05859999731183052,0,-0.024000000747902123,-0.004999999877891834
-0.059299588203430176,0.0697861909866333,9.769587516784668,0.0009999999310821295,0.010099999606609344,-0.05859999731183052,0.05999999686717535,0.03599999945432653,-0.004999999877891834
-0.05519114062190056,0.05768110603094101,9.755922317504883,0.0009999999310821295,0,-0.05859999731183052,0,-0.024000000747902123,-0.004999999877891834
-0.06060203164815903,0.06116706505417824,9.749371528625488,-0.008599999360740185,0,-0.05859999731183052,0,0.03599999945432653,-0.004999999877891834
-0.05327577516436577,0.05712565407156944,9.740302085876465,0.0011999999405816197,-0.00969999935477972,-0.06839999556541443,-0.06099999926066736,-0.024000000747902123,-0.004999999877891834
-0.039561789482831955,0.07052360475063324,9.752042770385742,0.0011999999405816197,-0.00969999935477972,-0.06839999556541443,0,0.03599999945432653,-0.004999999877891834
-0.06225882098078728,0.05885905399918556,9.759493827819824,-0.008499999530613422,0.00009999999747378752,-0.04879999905824661,0,0.03599999945432653,-0.004999999877891834
-0.04149630293250084,0.0639922246336937,9.761322975158691,0.010999999940395355,0.00009999999747378752,-0.04879999905824661,0.05999999686717535,-0.024000000747902123,-0.0659999978879142
-0.05560293793678284,0.052883125841617584,9.758105278015137,0.0010999999940395355,-0.00969999935477972,-0.05859999731183052,0,-0.024000000747902123,-0.004999999877891834
-0.054990023374557495,0.0579492561519146,9.753469467163086,0.0009999999310821295,0,-0.05859999731183052,-0.06099999926066736,-0.08499999667351618,-0.004999999877891834
-0.036861129105091095,0.0447811484336853,9.75503158569336,0.02019999921321869,-0.019099999219179153,-0.05859999731183052,0,0.03599999945432653,-0.0659999978879142
-0.054750602692365646,0.05731718987226486,9.751985549926758,0.0005999999702908099,-0.009200000204145908,-0.05859999731183052,0,-0.024000000747902123,-0.004999999877891834
-0.04636131972074509,0.06073610857129097,9.749371528625488,0.010300000198185444,0.0004999999655410647,-0.05859999731183052,0,-0.024000000747902123,0.05499999823992851
-0.03748362511396408,0.0618470199406147,9.754312515258789,0.01979999989271164,0.0004999999655410647,-0.05859999731183052,-0.06099999926066736,-0.024000000747902123,-0.004999999877891834
-0.05705861747264862,0.05997954308986664,9.759159088134766,0.00009999999747378752,0.000699999975040555,-0.04879999905824661,-0.06099999926066736,-0.024000000747902123,-0.004999999877891834
-0.04827668517827988,0.06888597458600998,9.760346412658691,0,0.010499999858438969,-0.04879999905824661,0,0.03599999945432653,-0.004999999877891834
-0.03604710102081299,0.062000248581171036,9.758832931518555,0.019500000402331352,0.000699999975040555,-0.04879999905824661,-0.06099999926066736,-0.024000000747902123,-0.004999999877891834
-0.06109045073390007,0.049512092024087906,9.754457473754883,-0.009800000116229057,-0.008700000122189522,-0.05859999731183052,0,-0.024000000747902123,-0.004999999877891834
-0.04002147540450096,0.045154642313718796,9.760872840881348,0.009499999694526196,-0.018299998715519905,-0.04879999905824661,0,-0.024000000747902123,-0.004999999877891834
-0.05583278089761734,0.05287355184555054,9.750903129577637,-0.00019999999494757503,-0.00839999970048666,-0.05859999731183052,0,0.0969999987149939,0.05499999823992851
-0.05748957023024559,0.05786306783556938,9.759617805480957,-0.009599999524652958,0.0013000000035390258,-0.04879999905824661,-0.06099999926066736,0.03599999945432653,-0.004999999877891834
-0.048449065536260605,0.04511633515357971,9.744487762451172,0.00019999999494757503,-0.017899999395012856,-0.06839999556541443,0,-0.024000000747902123,-0.004999999877891834
-0.05352477356791496,0.06227797269821167,9.757482528686523,0.00009999999747378752,0.0015999999595806003,-0.05859999731183052,-0.06099999926066736,-0.024000000747902123,-0.004999999877891834
-0.05422388017177582,0.055392250418663025,9.75792407989502,0,-0.007899999618530273,-0.05859999731183052,0,-0.024000000747902123,-0.004999999877891834
-0.041084498167037964,0.06464345008134842,9.756754875183105,-0.009599999524652958,0.0017999999690800905,-0.039000000804662704,0,-0.024000000747902123,0.05499999823992851
-0.07011180371046066,0.05547844246029854,9.763497352600098,0.009599999524652958,0.0015999999595806003,-0.05859999731183052,-0.06099999926066736,0.03599999945432653,-0.004999999877891834
-0.0513029545545578,0.05702031031250954,9.765642166137695,0.00009999999747378752,-0.007699999958276749,-0.04879999905824661,0,-0.024000000747902123,-0.004999999877891834
-0.045413218438625336,0.05945281684398651,9.752589225769043,0.00969999935477972,0.001999999862164259,-0.05859999731183052,0.05999999686717535,-0.024000000747902123,0.05499999823992851
-0.050469771027565,0.06552451103925705,9.749466896057129,-0.00009999999747378752,0.0017999999690800905,-0.05859999731183052,0,0.03599999945432653,-0.0659999978879142
-0.049416325986385345,0.06706637889146805,9.747178077697754,0,0.011500000022351742,-0.06839999556541443,0,-0.024000000747902123,-0.004999999877891834
-0.06407841295003891,0.07592492550611496,9.760519027709961,-0.00969999935477972,0.011299999430775642,-0.04879999905824661,-0.06099999926066736,-0.024000000747902123,-0.004999999877891834
-0.06494990736246109,0.06291962414979935,9.755605697631836,-0.00969999935477972,0.0016999999061226845,-0.05859999731183052,0,-0.024000000747902123,-0.004999999877891834
-0.05305550992488861,0.06699934601783752,9.753116607666016,0,0.0015999999595806003,-0.05859999731183052,0,0.0969999987149939,-0.0659999978879142
-0.05620627850294113,0.05858132615685463,9.752655982971191,0.00019999999494757503,0.0015999999595806003,-0.05859999731183052,0.12100000279794933,-0.14600000260429016,0.05499999823992851
-0.05391742289066315,0.04543237388134003,9.768860816955566,-0.00009999999747378752,-0.017899999395012856,-0.039000000804662704,0,0.03599999945432653,-0.0659999978879142
-0.05607220530509949,0.062028978019952774,9.758574485778809,0,0.0015999999595806003,-0.05859999731183052,0,0.03599999945432653,-0.004999999877891834
-0.06520847976207733,0.05297889560461044,9.765824317932129,-0.009499999694526196,-0.007999999448657036,-0.04879999905824661,0,-0.08499999667351618,-0.004999999877891834
-0.06203855574131012,0.07849150896072388,9.759446144104004,-0.009599999524652958,0.020999999716877937,-0.04879999905824661,0.05999999686717535,0.03599999945432653,-0.0659999978879142
-0.04762545973062515,0.06956592202186584,9.764827728271484,0.00989999994635582,0.010900000110268593,-0.04879999905824661,0,0.03599999945432653,-0.004999999877891834
