Accelerometer_Gx,Accelerometer_Gy,Accelerometer_Gz,Accelerometer_X,Accelerometer_Y,Accelerometer_Z,Gyroscope_Z,Gyroscope_X,Gyroscope_Y
-0.0499909333884716,0.05440583825111389,9.696938514709473,-0.00139999995008111,-0.009499999694526196,-0.11739999800920486,-0.012000000373951061,-0.012000000373951061,0.04900000055424296
-0.05644569918513298,0.0638677254319191,9.698498725891113,-0.0010999999940395355,0.00009999999747378752,-0.11739999800920486,-0.012000000373951061,-0.07300000130214508,0.04900000055424296
-0.06104256957769394,0.056340355426073074,9.694170951843262,-0.008999999612569809,0,-0.11739999800920486,-0.012000000373951061,-0.012000000373951061,-0.010999999647985701
-0.05523902177810669,0.0554497092962265,9.693001747131348,0.002099999925121665,-0.006599999964237213,-0.11739999800920486,-0.012000000373951061,-0.012000000373951061,-0.010999999647985701
-0.06201940029859543,0.06175125017762184,9.687255859375,-0.006199999712407589,0.0024999999441206455,-0.12719999253749847,-0.012000000373951061,-0.012000000373951061,-0.010999999647985701
-0.05402276664972305,0.0656394362449646,9.696402549743652,0.002899999963119626,0.0018999999156221747,-0.11739999800920486,-0.012000000373951061,-0.012000000373951061,-0.010999999647985701
-0.05731718987226486,0.06509356200695038,9.697569847106934,0.0023999998811632395,0.001500000013038516,-0.11739999800920486,-0.07300000130214508,-0.012000000373951061,-0.010999999647985701
-0.04635174572467804,0.0679091364145279,9.693634033203125,0.009999999776482582,0.009200000204145908,-0.11739999800920486,-0.010999999647985701,-0.012000000373951061,0.04900000055424296
-0.07020757347345352,0.06357084214687347,9.708046913146973,-0.01939999870955944,-0.00039999998989515007,-0.10759999603033066,-0.010999999647985701,-0.012000000373951061,-0.010999999647985701
-0.05385996401309967,0.06304412335157394,9.705413818359375,0.00009999999747378752,-0.00039999998989515007,-0.10759999603033066,-0.012000000373951061,-0.012000000373951061,0.04900000055424296
-0.052356403321027756,0.05388868972659111,9.703995704650879,0.00009999999747378752,-0.010199999436736107,-0.10759999603033066,0.048000001495804245,-0.012000000373951061,0.04900000055424296
-0.052356403321027756,0.05388868972659111,9.703995704650879,0.00009999999747378752,-0.010199999436736107,-0.10759999603033066,0.048000001495804245,-0.012000000373951061,0.04900000055424296
-0.04307647794485092,0.050699613988399506,9.70858383178711,-0.009599999524652958,0.009200000204145908,-0.09779999405145645,0.04900000055424296,0.048000001495804245,-0.010999999647985701
-0.04842033237218857,0.04967489466071129,9.709081649780273,0.00009999999747378752,-0.010599999688565731,-0.10759999603033066,0.04900000055424296,-0.012000000373951061,-0.010999999647985701
-0.05564124509692192,0.07400956004858017,9.71468448638916,0.00009999999747378752,0.008799999952316284,-0.09779999405145645,0.04900000055424296,-0.013000000266153095,-0.010999999647985701
-0.0632643848657608,0.0588877871632576,9.718801498413086,-0.009599999524652958,-0.0009999999310821295,-0.09779999405145645,-0.010999999647985701,-0.013000000266153095,-0.010999999647985701
-0.05457821860909462,0.07899907976388931,9.718753814697266,0.00009999999747378752,0.01850000023841858,-0.09779999405145645,-0.010999999647985701,-0.012000000373951061,0.04900000055424296
-0.05448245257139206,0.07141424715518951,9.712242126464844,0,0.008700000122189522,-0.09779999405145645,0.04900000055424296,-0.013000000266153095,0.04900000055424296
-0.06593631953001022,0.066721610724926,9.716675758361816,0,0.008700000122189522,-0.09779999405145645,-0.010999999647985701,-0.013000000266153095,-0.07199999890865307
-0.05564124509692192,0.052998051047325134,9.71353530883789,0,-0.010900000110268593,-0.09779999405145645,-0.010999999647985701,-0.013000000266153095,-0.07199999890865307
-0.058140791952610016,0.0772656798362732,9.711820602416992,-0.009800000116229057,0.018400000408291817,-0.09779999405145645,-0.010999999647985701,-0.013000000266153095,-0.010999999647985701
-0.05775772035121918,0.0578247606754303,9.722546577453613,-0.009800000116229057,-0.0010999999940395355,-0.08799999952316284,-0.010999999647985701,-0.013000000266153095,-0.010999999647985701
-0.06390602886676788,0.06213432177901268,9.716972351074219,-0.009800000116229057,-0.0009999999310821295,-0.09779999405145645,-0.010999999647985701,-0.013000000266153095,-0.010999999647985701
-0.0648062527179718,0.05845683068037033,9.722546577453613,-0.009800000116229057,-0.0009999999310821295,-0.08799999952316284,0.04900000055424296,0.046999999102312236,-0.07199999890865307
-0.050345271825790405,0.07478528469800949,9.72903060913086,0,0.008599999360740185,-0.08799999952316284,-0.010999999647985701,0.046999999102312236,-0.010999999647985701
-0.06448063999414444,0.05462610721588135,9.729433059692383,-0.009499999694526196,-0.010900000110268593,-0.08799999952316284,-0.07199999890865307,-0.013000000266153095,0.04900000055424296
-0.05405149981379509,0.07012137770652771,9.73032283782959,0.00009999999747378752,0.008799999952316284,-0.07819999754428864,0.04900000055424296,-0.013000000266153095,-0.010999999647985701
-0.051264647394418716,0.06321649998426437,9.729642868041992,0.00009999999747378752,-0.0010999999940395355,-0.08799999952316284,-0.010999999647985701,-0.013000000266153095,-0.010999999647985701
-0.060812726616859436,0.06529466807842255,9.735982894897461,-0.009599999524652958,-0.0009999999310821295,-0.07819999754428864,0.04900000055424296,-0.07399999702553048,-0.010999999647985701
-0.04855440929532051,0.06701849400997162,9.739737510681152,0,-0.0011999999405816197,-0.06839999556541443,0.04900000055424296,0.046999999102312236,-0.010999999647985701
-0.04592078924179077,0.07007349282503128,9.727420806884766,0.009800000116229057,0.00839999970048666,-0.08799999952316284,-0.010999999647985701,0.046999999102312236,-0.010999999647985701
-0.058543018996715546,0.06896258890628815,9.7323637008667,-0.009499999694526196,0.00839999970048666,-0.07819999754428864,-0.010999999647985701,0.046999999102312236,0.04900000055424296
-0.0450301431119442,0.06465302407741547,9.734919548034668,0.010099999606609344,-0.0013000000035390258,-0.07819999754428864,-0.010999999647985701,-0.013000000266153095,-0.010999999647985701
-0.05424303561449051,0.05946239456534386,9.73032283782959,0.00019999999494757503,-0.0011999999405816197,-0.07819999754428864,0.04900000055424296,0.046999999102312236,0.04900000055424296
-0.0697861909866333,0.06319735199213028,9.727181434631348,-0.019099999219179153,-0.00139999995008111,-0.08799999952316284,0.04900000055424296,0.046999999102312236,-0.010999999647985701
-0.05996038764715195,0.06696103513240814,9.733148574829102,-0.009099999442696571,-0.001500000013038516,-0.07819999754428864,-0.010999999647985701,-0.013000000266153095,-0.010999999647985701
-0.06544789671897888,0.058188680559396744,9.738032341003418,-0.009099999442696571,-0.001500000013038516,-0.07819999754428864,-0.07199999890865307,-0.013000000266153095,-0.010999999647985701
-0.06036261469125748,0.0663672685623169,9.745521545410156,-0.009099999442696571,-0.0013000000035390258,-0.06839999556541443,-0.009999999755783667,0.046999999102312236,-0.009999999755783667
-0.059395354241132736,0.0521361343562603,9.737916946411133,-0.008999999612569809,-0.010999999940395355,-0.07819999754428864,-0.010999999647985701,0.046999999102312236,0.04900000055424296
-0.05855259671807289,0.06137775257229805,9.747675895690918,-0.008799999952316284,-0.0011999999405816197,-0.06839999556541443,-0.010999999647985701,0.046999999102312236,-0.010999999647985701
-0.04974193498492241,0.06627149879932404,9.738520622253418,0.0009999999310821295,-0.0010999999940395355,-0.07819999754428864,-0.010999999647985701,-0.013000000266153095,-0.010999999647985701
-0.057192690670490265,0.0565127357840538,9.749907493591309,0.0009999999310821295,0.008599999360740185,-0.05859999731183052,0.04900000055424296,-0.013000000266153095,0.04900000055424296
-0.049445051699876785,0.05932832136750221,9.756505966186523,0.0010999999940395355,-0.010999999940395355,-0.05859999731183052,0.04900000055424296,-0.013000000266153095,0.04900000055424296
-0.04682100564241409,0.062479086220264435,9.750837326049805,0.0010999999940395355,-0.00139999995008111,-0.05859999731183052,0.049999999612681666,-0.013000000266153095,-0.009999999755783667
-0.04393838718533516,0.05803544819355011,9.7449951171875,0.010900000110268593,-0.001500000013038516,-0.06839999556541443,-0.010999999647985701,0.046999999102312236,0.04900000055424296
-0.04921520873904228,0.0658692792057991,9.744209289550781,0.0011999999405816197,-0.00139999995008111,-0.06839999556541443,0.049999999612681666,0.046999999102312236,-0.07099999651516105
-0.046198517084121704,0.06236416473984718,9.745291709899902,0.011099999770522118,-0.0015999999595806003,-0.06839999556541443,-0.010999999647985701,-0.013000000266153095,-0.010999999647985701
-0.05792052671313286,0.05635950714349747,9.744324684143066,-0.00839999970048666,-0.011299999430775642,-0.06839999556541443,0.04900000055424296,-0.013000000266153095,0.04900000055424296
-0.04696466028690338,0.06234501302242279,9.744611740112305,0.010999999940395355,-0.0015999999595806003,-0.06839999556541443,-0.010999999647985701,-0.07399999702553048,0.04900000055424296
-0.055085793137550354,0.05341942980885506,9.758163452148438,0.0008999999845400453,-0.011500000022351742,-0.05859999731183052,-0.009999999755783667,-0.013000000266153095,-0.009999999755783667
-0.05220317468047142,0.0654095932841301,9.757761001586914,0.0008999999845400453,-0.0016999999061226845,-0.05859999731183052,-0.010999999647985701,-0.013000000266153095,-0.010999999647985701
-0.056934114545583725,0.060582879930734634,9.751823425292969,0.0007999999797903001,-0.0017999999690800905,-0.05859999731183052,0.049999999612681666,0.046999999102312236,-0.009999999755783667
-0.056934114545583725,0.060582879930734634,9.751823425292969,0.0007999999797903001,-0.0017999999690800905,-0.05859999731183052,0.049999999612681666,0.046999999102312236,-0.009999999755783667
-0.0606594942510128,0.06419333815574646,9.754150390625,-0.008700000122189522,-0.0018999999156221747,-0.05859999731183052,0.049999999612681666,-0.013000000266153095,-0.009999999755783667
-0.048880018293857574,0.06026684492826462,9.748854637145996,0.0008999999845400453,-0.001999999862164259,-0.06839999556541443,-0.07099999651516105,-0.07399999702553048,0.049999999612681666
-0.05760449171066284,0.07017884403467178,9.757119178771973,-0.008899999782443047,0.007799999788403511,-0.05859999731183052,0.049999999612681666,-0.013000000266153095,-0.07099999651516105
-0.0486980639398098,0.06389645487070084,9.75600814819336,0.0007999999797903001,-0.001999999862164259,-0.05859999731183052,-0.009999999755783667,0.046999999102312236,-0.009999999755783667
-0.05252878740429878,0.06986280530691147,9.756065368652344,0.0008999999845400453,0.007699999958276749,-0.05859999731183052,0.049999999612681666,0.046999999102312236,-0.009999999755783667
-0.054750602692365646,0.05158068239688873,9.75490665435791,0.0009999999310821295,-0.011899999342858791,-0.04879999905824661,-0.009999999755783667,-0.07399999702553048,-0.009999999755783667
-0.057882219552993774,0.057144805788993835,9.755644798278809,0.0010999999940395355,-0.011799999512732029,-0.05859999731183052,-0.009999999755783667,0.046999999102312236,-0.009999999755783667
-0.04602613300085068,0.0638485699892044,9.764004707336426,-0.008700000122189522,-0.011699999682605267,-0.05859999731183052,-0.009999999755783667,-0.013000000266153095,-0.009999999755783667
-0.06194278597831726,0.05824613943696022,9.747992515563965,-0.008700000122189522,-0.0017999999690800905,-0.06839999556541443,0.049999999612681666,-0.013000000266153095,-0.009999999755783667
-0.05543055757880211,0.060697801411151886,9.760872840881348,0.0009999999310821295,-0.0018999999156221747,-0.04879999905824661,0.049999999612681666,0.046999999102312236,-0.009999999755783667
-0.06196194142103195,0.05043146386742592,9.7628173828125,-0.008499999530613422,-0.011699999682605267,-0.04879999905824661,-0.009999999755783667,-0.013000000266153095,-0.009999999755783667
-0.0584089420735836,0.05318000912666321,9.747159004211426,-0.008499999530613422,-0.011599999852478504,-0.06839999556541443,-0.009999999755783667,0.04600000004387353,-0.009999999755783667
-0.05787264183163643,0.05279693752527237,9.758306503295898,-0.008299999870359898,-0.011500000022351742,-0.05859999731183052,-0.07099999651516105,-0.013000000266153095,-0.009999999755783667
-0.05812164023518562,0.06737283617258072,9.755778312683105,-0.008200000040233135,0.008100000210106373,-0.05859999731183052,-0.009999999755783667,-0.013000000266153095,-0.07099999651516105
-0.06703764945268631,0.05357265844941139,9.750760078430176,-0.017899999395012856,-0.01119999960064888,-0.05859999731183052,-0.009999999755783667,-0.013000000266153095,-0.07099999651516105
-0.05776729807257652,0.06479667872190475,9.754131317138672,-0.008100000210106373,-0.00139999995008111,-0.05859999731183052,-0.009999999755783667,0.04600000004387353,-0.009999999755783667
-0.07161536067724228,0.05789179727435112,9.755011558532715,-0.01759999990463257,-0.00139999995008111,-0.05859999731183052,-0.009999999755783667,0.04600000004387353,0.049999999612681666
-0.05587109178304672,0.06706637889146805,9.77077579498291,0.001999999862164259,0.008299999870359898,-0.039000000804662704,0.049999999612681666,-0.013000000266153095,-0.009999999755783667
-0.05106353387236595,0.06369534134864807,9.758105278015137,0.001999999862164259,-0.0015999999595806003,-0.05859999731183052,-0.009999999755783667,0.046999999102312236,-0.009999999755783667
-0.060429647564888,0.06643430888652802,9.758238792419434,-0.007499999832361937,-0.001500000013038516,-0.05859999731183052,-0.009999999755783667,0.046999999102312236,-0.009999999755783667
-0.06508397310972214,0.06147352233529091,9.756352424621582,-0.0072999997064471245,-0.001500000013038516,-0.05859999731183052,-0.009999999755783667,-0.01400000015835513,-0.009999999755783667
-0.06134902685880661,0.07198885083198547,9.759167671203613,-0.0072999997064471245,0.008200000040233135,-0.04879999905824661,-0.009999999755783667,-0.013000000266153095,-0.009999999755783667
-0.043373361229896545,0.0679953321814537,9.75556755065918,0.01209999993443489,0.008100000210106373,-0.05859999731183052,-0.009999999755783667,-0.01400000015835513,0.049999999612681666
-0.044369347393512726,0.05723099783062935,9.764435768127441,0.011899999342858791,-0.011299999430775642,-0.04879999905824661,0.049999999612681666,-0.01400000015835513,-0.009999999755783667
-0.054942142218351364,0.06485413014888763,9.751066207885742,0.001999999862164259,-0.0015999999595806003,-0.05859999731183052,-0.009999999755783667,-0.01400000015835513,0.049999999612681666
-0.05578489974141121,0.07230489701032639,9.764052391052246,0.001999999862164259,0.008100000210106373,-0.04879999905824661,-0.009999999755783667,0.046999999102312236,-0.009999999755783667
-0.07076302170753479,0.06898174434900284,9.751325607299805,-0.007499999832361937,-0.0015999999595806003,-0.05859999731183052,-0.009999999755783667,0.1070000026395942,0.049999999612681666
-0.07076302170753479,0.06898174434900284,9.751325607299805,-0.016899999231100082,0.007899999618530273,-0.05859999731183052,-0.009999999755783667,0.1070000026395942,0.049999999612681666
-0.06488286703824997,0.05069003626704216,9.758737564086914,-0.0066999997943639755,-0.011299999430775642,-0.05859999731183052,0.049999999612681666,-0.01400000015835513,0.049999999612681666
-0.05811206251382828,0.05583278089761734,9.762749671936035,-0.0066999997943639755,-0.011299999430775642,-0.05859999731183052,0.049999999612681666,-0.01400000015835513,-0.009999999755783667
-0.06092764809727669,0.06196194142103195,9.752148628234863,-0.006599999964237213,-0.0016999999061226845,-0.05859999731183052,-0.009999999755783667,-0.01400000015835513,-0.009999999755783667
-0.056531891226768494,0.06885723769664764,9.766905784606934,0.0030999998562037945,0.007999999448657036,-0.04879999905824661,-0.009999999755783667,-0.01400000015835513,0.049999999612681666
-0.05599559098482132,0.06062118709087372,9.770584106445312,0.003000000026077032,-0.0016999999061226845,-0.039000000804662704,-0.07099999651516105,0.04600000004387353,-0.009999999755783667
-0.04320097714662552,0.05966350436210632,9.764415740966797,0.012799999676644802,-0.001500000013038516,-0.04879999905824661,-0.009999999755783667,-0.01400000015835513,-0.009999999755783667
-0.0638677254319191,0.05612008646130562,9.758382797241211,-0.0066999997943639755,-0.011099999770522118,-0.05859999731183052,0.049999999612681666,-0.0749999994190225,-0.009999999755783667
-0.0494067445397377,0.05382165685296059,9.768113136291504,0.00279999990016222,-0.011099999770522118,-0.04879999905824661,0.049999999612681666,-0.01400000015835513,0.049999999612681666
-0.06260358542203903,0.0694318488240242,9.76325798034668,-0.006899999920278788,0.008100000210106373,-0.04879999905824661,-0.009999999755783667,-0.01400000015835513,-0.009999999755783667
-0.06411672383546829,0.06382941454648972,9.771866798400879,-0.006799999624490738,-0.001500000013038516,-0.039000000804662704,-0.009999999755783667,-0.01400000015835513,-0.009999999755783667
-0.04997177794575691,0.053285352885723114,9.763459205627441,0.00279999990016222,-0.01119999960064888,-0.04879999905824661,-0.009999999755783667,-0.01400000015835513,-0.009999999755783667
-0.062431201338768005,0.07338707149028778,9.755873680114746,-0.006899999920278788,0.008299999870359898,-0.05859999731183052,-0.07099999651516105,-0.0749999994190225,-0.009999999755783667
-0.059558164328336716,0.062143899500370026,9.767011642456055,-0.00699999975040555,-0.0011999999405816197,-0.04879999905824661,-0.009999999755783667,-0.01400000015835513,-0.009999999755783667
-0.05480806529521942,0.047405194491147995,9.763286590576172,0.002699999837204814,-0.020600000396370888,-0.04879999905824661,-0.009999999755783667,-0.01400000015835513,-0.009999999755783667
-0.04433104023337364,0.06519889831542969,9.756113052368164,0.012299999594688416,-0.0008999999845400453,-0.05859999731183052,-0.009999999755783667,-0.01400000015835513,-0.009999999755783667
-0.05274904891848564,0.06562986224889755,9.761476516723633,0.0023999998811632395,-0.0008999999845400453,-0.04879999905824661,0.049999999612681666,-0.01400000015835513,0.049999999612681666
-0.05104437842965126,0.06413587182760239,9.748528480529785,0.0023999998811632395,-0.0009999999310821295,-0.06839999556541443,-0.009999999755783667,0.04600000004387353,-0.009999999755783667
-0.051504068076610565,0.06446148455142975,9.761524200439453,0.0024999999441206455,-0.0009999999310821295,-0.04879999905824661,-0.009999999755783667,0.04600000004387353,0.049999999612681666
-0.05803544819355011,0.06770802289247513,9.758469581604004,-0.00699999975040555,0.008700000122189522,-0.05859999731183052,-0.07099999651516105,-0.01400000015835513,0.049999999612681666
-0.05902186036109924,0.05879201367497444,9.768409729003906,-0.00699999975040555,-0.0007999999797903001,-0.039000000804662704,-0.009999999755783667,-0.01400000015835513,0.049999999612681666
-0.050057969987392426,0.053352389484643936,9.766523361206055,0.002699999837204814,-0.010499999858438969,-0.04879999905824661,-0.009999999755783667,0.04600000004387353,-0.009999999755783667
-0.0531991608440876,0.05466441437602043,9.760969161987305,0.00279999990016222,-0.010300000198185444,-0.04879999905824661,-0.009999999755783667,-0.01400000015835513,-0.07099999651516105
-0.05051765590906143,0.06482540816068649,9.759848594665527,-0.006899999920278788,-0.0004999999655410647,-0.04879999905824661,-0.009999999755783667,-0.01400000015835513,-0.009999999755783667
-0.0590122826397419,0.055842362344264984,9.761343002319336,0.002699999837204814,-0.0004999999655410647,-0.04879999905824661,-0.009999999755783667,-0.01400000015835513,-0.009999999755783667
-0.04884171113371849,0.06109045073390007,9.75232982635498,-0.006899999920278788,-0.009999999776482582,-0.04879999905824661,0.049999999612681666,-0.01400000015835513,-0.009999999755783667
-0.0603051520884037,0.060937222093343735,9.754916191101074,-0.006899999920278788,-0.00029999998514540493,-0.05859999731183052,-0.009999999755783667,-0.01400000015835513,-0.009999999755783667
-0.05877286195755005,0.061368178576231,9.765009880065918,-0.006899999920278788,-0.00019999999494757503,-0.04879999905824661,-0.009999999755783667,-0.01400000015835513,0.049999999612681666
-0.058236561715602875,0.058734554797410965,9.768362045288086,-0.006799999624490738,-0.00019999999494757503,-0.039000000804662704,0.049999999612681666,0.04600000004387353,-0.009999999755783667
-0.05582320690155029,0.06182786449790001,9.767260551452637,0.003000000026077032,-0.00039999998989515007,-0.04879999905824661,0.049999999612681666,0.04600000004387353,-0.07099999651516105
-0.07604942470788956,0.06902004778385162,9.761955261230469,-0.016200000420212746,0.009099999442696571,-0.04879999905824661,0.049999999612681666,0.04600000004387353,0.049999999612681666
-0.0625557005405426,0.07863516360521317,9.76646614074707,-0.006199999712407589,0.01850000023841858,-0.04879999905824661,0.049999999612681666,0.04600000004387353,-0.009999999755783667
-0.05668511986732483,0.05824613943696022,9.759398460388184,0.003599999938160181,-0.0010999999940395355,-0.04879999905824661,-0.009999999755783667,-0.01400000015835513,-0.009999999755783667
-0.055392250418663025,0.06489244103431702,9.768773078918457,0.003499999875202775,-0.0010999999940395355,-0.039000000804662704,-0.009999999755783667,-0.01400000015835513,-0.009999999755783667
-0.0543866828083992,0.06309200078248978,9.770727157592773,0.003399999812245369,-0.0009999999310821295,-0.039000000804662704,-0.009999999755783667,-0.01400000015835513,0.049999999612681666
-0.05056554079055786,0.0636187270283699,9.764760971069336,0.0032999999821186066,-0.0009999999310821295,-0.04879999905824661,0.049999999612681666,-0.0749999994190225,-0.009999999755783667
-0.05746084079146385,0.05113057419657707,9.753202438354492,-0.0064999996684491634,-0.010799999348819256,-0.05859999731183052,-0.009999999755783667,0.04600000004387353,-0.07099999651516105
-0.05819825455546379,0.06615658104419708,9.761543273925781,-0.006300000008195639,-0.0009999999310821295,-0.04879999905824661,-0.07099999651516105,-0.01400000015835513,0.049999999612681666
-0.06416460126638412,0.06032430753111839,9.758086204528809,-0.006300000008195639,-0.0007999999797903001,-0.05859999731183052,0.049999999612681666,-0.01400000015835513,-0.009999999755783667
-0.05239471048116684,0.06734410673379898,9.75725269317627,0.003399999812245369,0.008700000122189522,-0.05859999731183052,0.049999999612681666,-0.01400000015835513,-0.009999999755783667
-0.06353253871202469,0.06237374246120453,9.756438255310059,-0.006300000008195639,-0.0010999999940395355,-0.05859999731183052,-0.009999999755783667,-0.01400000015835513,-0.009999999755783667
-0.05081453546881676,0.05961562320590019,9.760327339172363,0.0032999999821186066,-0.0010999999940395355,-0.04879999905824661,-0.009999999755783667,-0.01400000015835513,-0.009999999755783667
-0.052806511521339417,0.0685986652970314,9.769099235534668,0.0031999999191612005,0.008499999530613422,-0.039000000804662704,0.049999999612681666,-0.01400000015835513,0.049999999612681666
-0.044043734669685364,0.053994037210941315,9.761457443237305,0.012799999676644802,-0.010999999940395355,-0.04879999905824661,-0.009999999755783667,-0.0749999994190225,-0.009999999755783667
-0.06768887490034103,0.047568000853061676,9.770737648010254,-0.01640000008046627,-0.020499998703598976,-0.039000000804662704,-0.009999999755783667,0.04600000004387353,-0.009999999755783667
-0.05718311294913292,0.05632119998335838,9.770977020263672,0.0031999999191612005,-0.010499999858438969,-0.039000000804662704,0.049999999612681666,0.04600000004387353,-0.009999999755783667
-0.05025908350944519,0.04978981614112854,9.764090538024902,0.012899999506771564,-0.010499999858438969,-0.04879999905824661,-0.009999999755783667,0.04600000004387353,0.049999999612681666
-0.051341261714696884,0.051293376833200455,9.776827812194824,0.0032999999821186066,-0.009999999776482582,-0.039000000804662704,-0.009999999755783667,0.04600000004387353,-0.009999999755783667
-0.04753926768898964,0.06246950849890709,9.767959594726562,0.013100000098347664,-0.00019999999494757503,-0.04879999905824661,0.049999999612681666,0.04600000004387353,-0.009999999755783667
-0.05707776919007301,0.06075526028871536,9.76887035369873,0.0032999999821186066,-0.00029999998514540493,-0.039000000804662704,-0.009999999755783667,-0.01400000015835513,-0.009999999755783667
-0.0628046989440918,0.05992208048701286,9.765192031860352,-0.006300000008195639,-0.00029999998514540493,-0.04879999905824661,0.049999999612681666,-0.01400000015835513,-0.009999999755783667
-0.04718492925167084,0.05322789400815964,9.764205932617188,0.012999999336898327,-0.010099999606609344,-0.04879999905824661,-0.009999999755783667,-0.01400000015835513,-0.009999999755783667
-0.062028978019952774,0.058801595121622086,9.773159980773926,-0.0064999996684491634,-0.00029999998514540493,-0.039000000804662704,-0.009999999755783667,-0.13600000534979648,0.049999999612681666
-0.05007712170481682,0.06535212695598602,9.771454811096191,-0.006899999920278788,-0.00009999999747378752,-0.04879999905824661,-0.009999999755783667,0.04600000004387353,0.049999999612681666
-0.05007712170481682,0.06535212695598602,9.771454811096191,0.002699999837204814,-0.00019999999494757503,-0.039000000804662704,-0.009999999755783667,0.04600000004387353,0.049999999612681666
-0.06692273169755936,0.06225882098078728,9.772805213928223,-0.006799999624490738,-0.00019999999494757503,-0.039000000804662704,-0.009999999755783667,-0.01400000015835513,-0.009999999755783667
-0.046313438564538956,0.07033207267522812,9.768677711486816,0.01249999925494194,0.009399999864399433,-0.039000000804662704,-0.009999999755783667,-0.0749999994190225,0.049999999612681666
-0.050393156707286835,0.06863696873188019,9.780562400817871,0.0023999998811632395,0.009200000204145908,-0.029199998825788498,0.049999999612681666,-0.01400000015835513,-0.009999999755783667
-0.06592673808336258,0.06666415184736252,9.771809577941895,-0.007199999876320362,-0.0005999999702908099,-0.039000000804662704,0.11099999887334903,-0.01400000015835513,-0.009999999755783667
-0.05607220530509949,0.052739474922418594,9.76286506652832,0.0023999998811632395,-0.010599999688565731,-0.04879999905824661,0.049999999612681666,-0.01400000015835513,-0.009999999755783667
-0.05834190919995308,0.04566221684217453,9.765824317932129,-0.007199999876320362,-0.02029999904334545,-0.04879999905824661,-0.07099999651516105,-0.01400000015835513,-0.009999999755783667
-0.051484912633895874,0.05047934874892235,9.770593643188477,0.0023999998811632395,-0.010199999436736107,-0.039000000804662704,-0.009999999755783667,-0.01400000015835513,-0.009999999755783667
-0.0523659773170948,0.051839254796504974,9.77588939666748,0.002300000051036477,-0.009999999776482582,-0.039000000804662704,0.049999999612681666,-0.01400000015835513,-0.07099999651516105
-0.06021896004676819,0.060180652886629105,9.772441864013672,-0.0072999997064471245,-0.00029999998514540493,-0.039000000804662704,0.049999999612681666,-0.01400000015835513,0.049999999612681666
-0.05812164023518562,0.0402800478041172,9.766551971435547,-0.007199999876320362,-0.01979999989271164,-0.04879999905824661,-0.009999999755783667,-0.0749999994190225,0.049999999612681666
-0.046437934041023254,0.05266286060214043,9.765939712524414,0.011899999342858791,-0.00989999994635582,-0.04879999905824661,0.049999999612681666,-0.01400000015835513,0.049999999612681666
-0.05274904891848564,0.05877286195755005,9.7687349319458,0.002099999925121665,-0.00989999994635582,-0.05859999731183052,0.049999999612681666,-0.01400000015835513,0.049999999612681666
-0.05838021636009216,0.04637089744210243,9.762701988220215,-0.007499999832361937,-0.019700000062584877,-0.04879999905824661,-0.009999999755783667,0.1070000026395942,0.049999999612681666
-0.04232948645949364,0.05793968215584755,9.771990776062012,-0.007499999832361937,-0.019700000062584877,-0.04879999905824661,0.049999999612681666,0.04600000004387353,-0.009999999755783667
-0.052806511521339417,0.06200982257723808,9.771081924438477,0.0023999998811632395,-0.00019999999494757503,-0.039000000804662704,-0.008999999863581633,-0.01400000015835513,-0.009999999755783667
-0.057336341589689255,0.05504748597741127,9.776578903198242,0.0023999998811632395,-0.009800000116229057,-0.039000000804662704,0.049999999612681666,0.04600000004387353,-0.009999999755783667
-0.05834190919995308,0.05744168907403946,9.770813941955566,-0.0071000000461936,-0.009800000116229057,-0.039000000804662704,-0.009999999755783667,-0.01400000015835513,-0.009999999755783667
-0.06346549838781357,0.06404968351125717,9.772795677185059,-0.00699999975040555,0,-0.039000000804662704,-0.009999999755783667,-0.01400000015835513,-0.009999999755783667
-0.04733815789222717,0.0624503567814827,9.783608436584473,0.012199999764561653,0,-0.029199998825788498,0.049999999612681666,0.04600000004387353,-0.07099999651516105
-0.054894257336854935,0.050038814544677734,9.783120155334473,0.0024999999441206455,-0.00969999935477972,-0.029199998825788498,0.049999999612681666,0.04600000004387353,-0.009999999755783667
-0.051887139678001404,0.06276638805866241,9.764914512634277,0.0026000000070780516,-0.00009999999747378752,-0.04879999905824661,-0.009999999755783667,-0.01400000015835513,-0.009999999755783667
-0.06747817993164062,0.04803726077079773,9.753240585327148,-0.01679999940097332,-0.00969999935477972,-0.05859999731183052,0.049999999612681666,0.1070000026395942,0.049999999612681666
-0.05661807954311371,0.05877286195755005,9.759416580200195,0.003000000026077032,-0.00009999999747378752,-0.04879999905824661,-0.009999999755783667,-0.01400000015835513,-0.009999999755783667
-0.06075526028871536,0.056761734187603,9.76530647277832,-0.0066999997943639755,-0.00969999935477972,-0.04879999905824661,-0.009999999755783667,-0.01400000015835513,-0.009999999755783667
-0.05014416202902794,0.05633077770471573,9.769186019897461,0.002899999963119626,-0.009599999524652958,-0.039000000804662704,-0.009999999755783667,0.04600000004387353,-0.009999999755783667
-0.05424303561449051,0.058303602039813995,9.777613639831543,0.003000000026077032,0.00019999999494757503,-0.039000000804662704,0.049999999612681666,-0.01400000015835513,-0.07099999651516105
-0.04932055622339249,0.0665971115231514,9.773638725280762,0.002899999963119626,0,-0.039000000804662704,-0.009999999755783667,0.04600000004387353,-0.009999999755783667
-0.05861963331699371,0.06263231486082077,9.780476570129395,-0.0064999996684491634,0.00009999999747378752,-0.029199998825788498,0.049999999612681666,-0.01400000015835513,-0.07099999651516105
-0.05862921103835106,0.07330088317394257,9.7764253616333,-0.0064999996684491634,0.009599999524652958,-0.039000000804662704,0.049999999612681666,0.04600000004387353,-0.07099999651516105
-0.04961743578314781,0.061971515417099,9.770048141479492,0.0032999999821186066,-0.00029999998514540493,-0.039000000804662704,-0.07099999651516105,-0.01400000015835513,0.049999999612681666
-0.049464207142591476,0.0745362862944603,9.773082733154297,0.0031999999191612005,0.009499999694526196,-0.039000000804662704,0.049999999612681666,-0.01400000015835513,-0.009999999755783667
-0.05750872567296028,0.06970957666635513,9.75571060180664,-0.0064999996684491634,0.00930000003427267,-0.05859999731183052,0.049999999612681666,-0.01400000015835513,0.049999999612681666
-0.06025726720690727,0.0642220675945282,9.76440715789795,-0.006399999838322401,-0.0005999999702908099,-0.04879999905824661,-0.009999999755783667,0.04600000004387353,0.049999999612681666
-0.04571967571973801,0.049445051699876785,9.761706352233887,0.013100000098347664,-0.010199999436736107,-0.04879999905824661,-0.009999999755783667,-0.01400000015835513,-0.07099999651516105
-0.04966532066464424,0.06547663360834122,9.767289161682129,0.0031999999191612005,-0.00039999998989515007,-0.04879999905824661,-0.009999999755783667,-0.01400000015835513,0.049999999612681666
-0.061243679374456406,0.07890331000089645,9.758392333984375,-0.0064999996684491634,0.01889999955892563,-0.05859999731183052,-0.009999999755783667,-0.01400000015835513,-0.07099999651516105
-0.050728343427181244,0.06911581754684448,9.761275291442871,0.0031999999191612005,0.008999999612569809,-0.04879999905824661,-0.009999999755783667,-0.01400000015835513,-0.009999999755783667
-0.050728343427181244,0.06911581754684448,9.761275291442871,0.0031999999191612005,0.008999999612569809,-0.04879999905824661,-0.009999999755783667,-0.01400000015835513,-0.009999999755783667
-0.047548845410346985,0.06210559234023094,9.760815620422363,0.01269999984651804,-0.0005999999702908099,-0.04879999905824661,-0.019000000453128628,0.04200000047506539,0.04900000055424296
-0.05503791198134422,0.058543018996715546,9.764827728271484,0.002899999963119626,-0.0005999999702908099,-0.04879999905824661,-0.019000000453128628,-0.07900000232288394,-0.010999999647985701
-0.04717535153031349,0.06704722344875336,9.766839981079102,0.012399999424815178,0.008999999612569809,-0.04879999905824661,0.041000001416626686,-0.019000000453128628,0.04900000055424296
-0.05448245257139206,0.05879201367497444,9.761571884155273,-0.0071000000461936,-0.0007999999797903001,-0.039000000804662704,-0.019000000453128628,-0.07900000232288394,0.04900000055424296
-0.047759536653757095,0.05827486887574196,9.752963066101074,0.012199999764561653,-0.0007999999797903001,-0.05859999731183052,-0.019000000453128628,0.041000001416626686,-0.010999999647985701
-0.07124187052249908,0.0646817535161972,9.759753227233887,-0.01679999940097332,-0.0007999999797903001,-0.04879999905824661,0.041000001416626686,-0.07999999804626934,-0.07199999890865307
-0.05641696974635124,0.04836287349462509,9.759254455566406,0.0023999998811632395,-0.02029999904334545,-0.04879999905824661,-0.019000000453128628,-0.019000000453128628,0.04900000055424296
-0.05641696974635124,0.04836287349462509,9.759254455566406,0.0023999998811632395,-0.010300000198185444,-0.04879999905824661,-0.019000000453128628,-0.019000000453128628,0.04900000055424296
-0.047309424728155136,0.05665638670325279,9.764636993408203,0.0023999998811632395,-0.010300000198185444,-0.04879999905824661,-0.019000000453128628,-0.019000000453128628,-0.010999999647985701
-0.05313212424516678,0.05530606210231781,9.755796432495117,0.002099999925121665,-0.00989999994635582,-0.05859999731183052,-0.019000000453128628,0.041000001416626686,-0.010999999647985701
-0.04886086657643318,0.054635681211948395,9.756017684936523,0.002199999988079071,-0.009800000116229057,-0.05859999731183052,-0.019000000453128628,-0.019000000453128628,-0.010999999647985701
-0.061981093138456345,0.05543055757880211,9.757243156433105,-0.007499999832361937,-0.009599999524652958,-0.05859999731183052,-0.019000000453128628,-0.017999999727163266,-0.07199999890865307
-0.05385996401309967,0.06033388152718544,9.762127876281738,0.002099999925121665,0.00009999999747378752,-0.04879999905824661,0.041000001416626686,-0.019000000453128628,-0.010999999647985701
-0.05630204826593399,0.06082230061292648,9.745406150817871,0.001999999862164259,0,-0.06839999556541443,-0.019000000453128628,0.041000001416626686,-0.010999999647985701
-0.055957283824682236,0.07419151812791824,9.764760971069336,0.002099999925121665,0.00969999935477972,-0.04879999905824661,-0.019000000453128628,-0.017999999727163266,-0.07199999890865307
-0.06699934601783752,0.05760449171066284,9.758478164672852,-0.007499999832361937,0,-0.05859999731183052,0.041000001416626686,0.041000001416626686,0.049999999612681666
-0.0476350374519825,0.06463386863470078,9.755692481994629,0.012000000104308128,0,-0.05859999731183052,-0.019000000453128628,-0.07999999804626934,-0.010999999647985701
-0.05021119862794876,0.06772717833518982,9.740522384643555,0.0018999999156221747,0.009599999524652958,-0.06839999556541443,-0.019000000453128628,-0.019000000453128628,0.04900000055424296
-0.053065087646245956,0.07020757347345352,9.76494312286377,0.0018999999156221747,0.009599999524652958,-0.04879999905824661,-0.019000000453128628,0.041000001416626686,0.10999999647985702
-0.05016331374645233,0.05946239456534386,9.763525009155273,0.001999999862164259,-0.00009999999747378752,-0.04879999905824661,-0.019000000453128628,-0.019000000453128628,-0.009999999755783667
-0.05748957023024559,0.06606081128120422,9.750779151916504,-0.007699999958276749,0,-0.05859999731183052,-0.019000000453128628,0.04200000047506539,-0.010999999647985701
-0.06635769456624985,0.07628884166479111,9.749725341796875,-0.007499999832361937,0.009599999524652958,-0.05859999731183052,-0.019000000453128628,-0.019000000453128628,-0.009999999755783667
-0.06906793266534805,0.06106172129511833,9.752321243286133,-0.01719999872148037,-0.00009999999747378752,-0.05859999731183052,0.041000001416626686,-0.019000000453128628,-0.009999999755783667
-0.04303817078471184,0.058236561715602875,9.757569313049316,0.012000000104308128,-0.00019999999494757503,-0.05859999731183052,-0.019000000453128628,-0.019000000453128628,-0.009999999755783667
-0.03381570428609848,0.058782439678907394,9.764827728271484,0.021399999037384987,-0.00009999999747378752,-0.04879999905824661,-0.019000000453128628,0.041000001416626686,-0.009999999755783667
-0.05173391103744507,0.0748714730143547,9.753517150878906,0.0018999999156221747,0.009499999694526196,-0.05859999731183052,-0.07999999804626934,0.041000001416626686,-0.010999999647985701
-0.04851610213518143,0.06554366648197174,9.760002136230469,-0.007599999662488699,0,-0.05859999731183052,-0.019000000453128628,-0.019000000453128628,-0.010999999647985701
-0.05240428447723389,0.07114609330892563,9.763985633850098,0.001999999862164259,0,-0.04879999905824661,0.10199999734224074,-0.019000000453128628,-0.009999999755783667
-0.05035484954714775,0.06164590269327164,9.745195388793945,0.001999999862164259,0.00969999935477972,-0.04879999905824661,-0.019000000453128628,0.041000001416626686,-0.009999999755783667
-0.0622013583779335,0.06486371904611588,9.756429672241211,-0.007599999662488699,-0.00029999998514540493,-0.05859999731183052,0.041000001416626686,-0.019000000453128628,0.049999999612681666
-0.05453033745288849,0.058993130922317505,9.756036758422852,0.001999999862164259,-0.00039999998989515007,-0.05859999731183052,-0.019000000453128628,-0.07999999804626934,0.049999999612681666
-0.054990023374557495,0.059558164328336716,9.759982109069824,0.0017999999690800905,-0.00029999998514540493,-0.04879999905824661,0.041000001416626686,-0.019000000453128628,0.049999999612681666
-0.06617573648691177,0.0710790604352951,9.74330997467041,-0.007899999618530273,0.009200000204145908,-0.06839999556541443,-0.019000000453128628,-0.019000000453128628,-0.009999999755783667
-0.05220317468047142,0.06414545327425003,9.751229286193848,0.0016999999061226845,-0.0004999999655410647,-0.05859999731183052,0.041000001416626686,-0.019000000453128628,-0.010999999647985701
-0.051504068076610565,0.06264188885688782,9.74520492553711,0.0016999999061226845,-0.0005999999702908099,-0.06839999556541443,-0.019000000453128628,-0.019000000453128628,0.049999999612681666
-0.047213658690452576,0.06592673808336258,9.74535846710205,0.011299999430775642,-0.0004999999655410647,-0.06839999556541443,-0.019000000453128628,-0.019000000453128628,-0.07099999651516105
-0.05748957023024559,0.060295574367046356,9.751267433166504,-0.008200000040233135,-0.00039999998989515007,-0.05859999731183052,-0.019000000453128628,-0.019000000453128628,0.049999999612681666
-0.05919424444437027,0.052164867520332336,9.749333381652832,-0.008100000210106373,-0.010099999606609344,-0.05859999731183052,-0.07999999804626934,-0.019000000453128628,0.049999999612681666
-0.0558040551841259,0.0581790991127491,9.743979454040527,0.001500000013038516,0,-0.06839999556541443,-0.019000000453128628,0.041000001416626686,-0.009999999755783667
-0.07106947898864746,0.058897361159324646,9.738799095153809,-0.01769999973475933,0,-0.07819999754428864,0.041000001416626686,-0.019000000453128628,-0.009999999755783667
-0.053706735372543335,0.05988377332687378,9.755884170532227,0.0016999999061226845,-0.00009999999747378752,-0.05859999731183052,-0.019000000453128628,0.041000001416626686,0.049999999612681666
-0.03632482886314392,0.059184666723012924,9.746344566345215,0.021199999377131462,-0.00009999999747378752,-0.06839999556541443,-0.019000000453128628,0.041000001416626686,0.049999999612681666
-0.05006754770874977,0.06935523450374603,9.74748420715332,0.0016999999061226845,0.009599999524652958,-0.06839999556541443,-0.019000000453128628,0.041000001416626686,-0.009999999755783667
-0.06297708302736282,0.051599834114313126,9.756122589111328,-0.007799999788403511,-0.00969999935477972,-0.05859999731183052,-0.017999999727163266,-0.019000000453128628,-0.009999999755783667
-0.049157749861478806,0.07037995010614395,9.74084758758545,0.0018999999156221747,0.00969999935477972,-0.06839999556541443,-0.017999999727163266,-0.019000000453128628,-0.009999999755783667
-0.04867890849709511,0.06331226974725723,9.751506805419922,0.0017999999690800905,0,-0.05859999731183052,-0.017999999727163266,0.041000001416626686,-0.009999999755783667
-0.05429091677069664,0.05996038764715195,9.741039276123047,0.0018999999156221747,0,-0.06839999556541443,0.041000001416626686,-0.019000000453128628,0.049999999612681666
-0.04157291725277901,0.05877286195755005,9.740714073181152,0.011500000022351742,0,-0.06839999556541443,-0.017999999727163266,-0.019000000453128628,-0.009999999755783667
-0.05945281684398651,0.0656585842370987,9.739631652832031,-0.007999999448657036,0,-0.06839999556541443,0.041000001416626686,-0.019000000453128628,-0.009999999755783667
-0.06731537729501724,0.06721002608537674,9.745952606201172,-0.01759999990463257,0.009499999694526196,-0.06839999556541443,-0.017999999727163266,-0.019000000453128628,-0.009999999755783667
-0.05781518295407295,0.05978800728917122,9.755002975463867,-0.007799999788403511,-0.00009999999747378752,-0.05859999731183052,-0.019000000453128628,0.041000001416626686,0.049999999612681666
-0.049416325986385345,0.05720226839184761,9.749582290649414,0.001999999862164259,-0.00009999999747378752,-0.07819999754428864,-0.019000000453128628,0.041000001416626686,-0.009999999755783667
-0.0579492561519146,0.04173572361469269,9.762760162353516,0.002099999925121665,-0.00989999994635582,-0.05859999731183052,-0.019000000453128628,0.041000001416626686,-0.009999999755783667
-0.04722323641180992,0.05905058979988098,9.756850242614746,0.012000000104308128,0,-0.05859999731183052,-0.017999999727163266,-0.019000000453128628,-0.009999999755783667
-0.04064396768808365,0.056273315101861954,9.74307918548584,0.011799999512732029,-0.009499999694526196,-0.06839999556541443,-0.017999999727163266,-0.019000000453128628,0.049999999612681666
-0.04287536069750786,0.050230350345373154,9.745339393615723,0.011599999852478504,-0.009399999864399433,-0.06839999556541443,-0.017999999727163266,-0.019000000453128628,-0.009999999755783667
-0.05388868972659111,0.0650360956788063,9.748135566711426,0.0016999999061226845,0.00039999998989515007,-0.06839999556541443,-0.017999999727163266,-0.019000000453128628,-0.07099999651516105
-0.059730544686317444,0.06630022823810577,9.756659507751465,-0.007899999618530273,0.00039999998989515007,-0.05859999731183052,-0.017999999727163266,0.041000001416626686,0.049999999612681666
-0.051647718995809555,0.061818286776542664,9.755212783813477,0.0018999999156221747,0.0004999999655410647,-0.05859999731183052,0.04200000047506539,0.041000001416626686,0.049999999612681666
-0.05177221819758415,0.05906016752123833,9.75169849395752,0.001999999862164259,0.00029999998514540493,-0.05859999731183052,0.04200000047506539,-0.019000000453128628,-0.009999999755783667
-0.04118984565138817,0.060084883123636246,9.7464599609375,0.011599999852478504,0.00019999999494757503,-0.06839999556541443,-0.017999999727163266,-0.019000000453128628,-0.009999999755783667
-0.053898271173238754,0.06545747071504593,9.751276969909668,0.0016999999061226845,0.00029999998514540493,-0.05859999731183052,-0.017999999727163266,-0.019000000453128628,-0.009999999755783667
-0.050603847950696945,0.05895482376217842,9.739947319030762,0.0015999999595806003,0.00029999998514540493,-0.06839999556541443,-0.017999999727163266,-0.019000000453128628,-0.009999999755783667
-0.04877467826008797,0.05498044937849045,9.748040199279785,0.0015999999595806003,-0.00930000003427267,-0.06839999556541443,-0.017999999727163266,0.041000001416626686,-0.07099999651516105
-0.06000826880335808,0.06881893426179886,9.747330665588379,-0.007899999618530273,0.010199999436736107,-0.06839999556541443,0.04200000047506539,-0.019000000453128628,-0.009999999755783667
-0.05212656036019325,0.05808333307504654,9.752033233642578,0.0016999999061226845,0.00029999998514540493,-0.05859999731183052,0.04200000047506539,0.041000001416626686,-0.009999999755783667
-0.045767560601234436,0.05945281684398651,9.75671672821045,0.011500000022351742,0.00009999999747378752,-0.05859999731183052,0.04200000047506539,0.041000001416626686,0.049999999612681666
-0.05705861747264862,0.05843767523765564,9.747466087341309,0.0017999999690800905,0,-0.06839999556541443,-0.017999999727163266,0.041000001416626686,-0.009999999755783667
-0.054185573011636734,0.050412312150001526,9.748701095581055,0.0018999999156221747,-0.009599999524652958,-0.06839999556541443,0.041000001416626686,-0.019000000453128628,-0.009999999755783667
-0.05109226703643799,0.0540323443710804,9.748978614807129,0.0017999999690800905,-0.009599999524652958,-0.06839999556541443,-0.017999999727163266,0.041000001416626686,-0.009999999755783667
-0.06130113825201988,0.058428097516298294,9.745521545410156,0.011599999852478504,0.009800000116229057,-0.04879999905824661,-0.017999999727163266,-0.019000000453128628,-0.009999999755783667
-0.04992389306426048,0.05866751819849014,9.755270957946777,-0.007899999618530273,0.00009999999747378752,-0.06839999556541443,0.04200000047506539,0.041000001416626686,-0.009999999755783667
-0.04992389306426048,0.05866751819849014,9.755270957946777,0.0018999999156221747,0.00009999999747378752,-0.05859999731183052,0.04200000047506539,0.041000001416626686,-0.009999999755783667
-0.06809109449386597,0.055765748023986816,9.743060111999512,-0.01719999872148037,-0.009499999694526196,-0.06839999556541443,0.04200000047506539,0.041000001416626686,-0.009999999755783667
-0.05310339480638504,0.059845466166734695,9.750893592834473,0.0023999998811632395,0.00009999999747378752,-0.05859999731183052,-0.017999999727163266,-0.019000000453128628,-0.009999999755783667
-0.051484912633895874,0.059366628527641296,9.752100944519043,0.002300000051036477,0.00009999999747378752,-0.05859999731183052,-0.017999999727163266,0.041000001416626686,-0.009999999755783667
-0.054089806973934174,0.06879977881908417,9.749016761779785,0.002300000051036477,0.00009999999747378752,-0.05859999731183052,0.04200000047506539,0.041000001416626686,-0.009999999755783667
-0.06271850317716599,0.0668078064918518,9.755165100097656,-0.0071000000461936,0,-0.05859999731183052,-0.017999999727163266,0.041000001416626686,-0.009999999755783667
-0.06472006440162659,0.061100028455257416,9.740397453308105,-0.006899999920278788,0,-0.06839999556541443,0.10299999973573276,0.041000001416626686,-0.009999999755783667
-0.06492117047309875,0.06986280530691147,9.731884002685547,-0.006799999624490738,0.009399999864399433,-0.07819999754428864,-0.017999999727163266,-0.07999999804626934,-0.009999999755783667
-0.053898271173238754,0.07098329067230225,9.745636940002441,0.002699999837204814,0.009399999864399433,-0.06839999556541443,-0.017999999727163266,-0.019000000453128628,-0.009999999755783667
-0.060295574367046356,0.0610138364136219,9.748710632324219,-0.00699999975040555,-0.00029999998514540493,-0.06839999556541443,0.04200000047506539,-0.019000000453128628,-0.009999999755783667
-0.05838979035615921,0.06120537221431732,9.738041877746582,-0.00699999975040555,-0.00039999998989515007,-0.07819999754428864,-0.017999999727163266,0.041000001416626686,-0.009999999755783667
-0.04826710373163223,0.065055251121521,9.749850273132324,0.00279999990016222,-0.00029999998514540493,-0.05859999731183052,-0.017999999727163266,-0.019000000453128628,-0.07099999651516105
-0.04815218225121498,0.0636187270283699,9.750080108642578,0.002699999837204814,-0.00029999998514540493,-0.05859999731183052,0.04200000047506539,-0.019000000453128628,-0.009999999755783667
-0.06016149744391441,0.06678865104913712,9.744324684143066,-0.006899999920278788,-0.00039999998989515007,-0.06839999556541443,-0.017999999727163266,-0.019000000453128628,-0.009999999755783667
-0.04794149473309517,0.06050626188516617,9.747590065002441,0.002699999837204814,-0.00029999998514540493,-0.06839999556541443,-0.017999999727163266,0.041000001416626686,-0.009999999755783667
-0.04761588200926781,0.05694369599223137,9.745329856872559,0.01249999925494194,-0.009999999776482582,-0.06839999556541443,-0.017999999727163266,0.041000001416626686,-0.07099999651516105
-0.06288131326436996,0.05632119998335838,9.740934371948242,-0.006899999920278788,-0.00989999994635582,-0.06839999556541443,0.04200000047506539,-0.019000000453128628,-0.009999999755783667
-0.05038357898592949,0.05566997826099396,9.749946594238281,0.00279999990016222,-0.009800000116229057,-0.05859999731183052,-0.017999999727163266,-0.019999999511567335,0.049999999612681666
-0.053045932203531265,0.06562986224889755,9.735494613647461,0.002699999837204814,0,-0.07819999754428864,-0.017999999727163266,-0.019000000453128628,-0.009999999755783667
-0.05111141875386238,0.06354211270809174,9.74704360961914,0.0026000000070780516,0,-0.06839999556541443,0.04200000047506539,-0.07999999804626934,-0.009999999755783667
-0.0550953708589077,0.06594589352607727,9.74935245513916,0.0023999998811632395,0,-0.06839999556541443,-0.07900000232288394,-0.07999999804626934,-0.07099999651516105
-0.060132771730422974,0.055057063698768616,9.747542381286621,-0.007499999832361937,-0.009499999694526196,-0.06839999556541443,-0.07900000232288394,-0.019000000453128628,0.049999999612681666
-0.06752606481313705,0.05758533999323845,9.746536254882812,-0.01719999872148037,0.00039999998989515007,-0.06839999556541443,0.04200000047506539,0.041000001416626686,-0.009999999755783667
-0.048286259174346924,0.04720408096909523,9.754963874816895,0.0023999998811632395,-0.01899999938905239,-0.05859999731183052,0.04200000047506539,-0.019000000453128628,-0.009999999755783667
-0.04729985073208809,0.059088896960020065,9.746871948242188,0.01209999993443489,0.00039999998989515007,-0.06839999556541443,-0.017999999727163266,-0.019000000453128628,-0.009999999755783667
-0.057432111352682114,0.05357265844941139,9.752828598022461,0.002199999988079071,-0.009099999442696571,-0.05859999731183052,-0.017999999727163266,0.03999999902313467,-0.009999999755783667
-0.048688482493162155,0.06875190138816833,9.76122760772705,0.002300000051036477,0.010300000198185444,-0.04879999905824661,-0.017999999727163266,-0.019000000453128628,-0.009999999755783667
-0.03746446967124939,0.06893385201692581,9.758325576782227,0.02149999886751175,0.010199999436736107,-0.05859999731183052,-0.017999999727163266,-0.07999999804626934,-0.009999999755783667
-0.05465483292937279,0.05447287857532501,9.74782943725586,0.0016999999061226845,-0.009200000204145908,-0.06839999556541443,-0.017999999727163266,-0.019000000453128628,-0.009999999755783667
-0.058973975479602814,0.06265147030353546,9.750520706176758,-0.007999999448657036,0.0005999999702908099,-0.05859999731183052,-0.017999999727163266,0.041000001416626686,-0.009999999755783667
-0.045317452400922775,0.06975746154785156,9.748940467834473,0.011500000022351742,0.010300000198185444,-0.06839999556541443,0.04200000047506539,0.041000001416626686,-0.07099999651516105
-0.06156928837299347,0.06052541732788086,9.748834609985352,-0.007799999788403511,0.00039999998989515007,-0.06839999556541443,0.04200000047506539,-0.019000000453128628,-0.009999999755783667
-0.06177040562033653,0.06476794183254242,9.753776550292969,-0.007699999958276749,0.00029999998514540493,-0.05859999731183052,0.04200000047506539,0.03999999902313467,-0.009999999755783667
-0.0528448186814785,0.058303602039813995,9.748298645019531,0.002099999925121665,0.00009999999747378752,-0.06839999556541443,0.04200000047506539,-0.019000000453128628,-0.009999999755783667
-0.06607996672391891,0.06678865104913712,9.754312515258789,-0.007599999662488699,0,-0.05859999731183052,-0.017999999727163266,-0.019000000453128628,-0.009999999755783667
-0.04914817586541176,0.05827486887574196,9.750693321228027,0.002099999925121665,0.00009999999747378752,-0.05859999731183052,-0.017999999727163266,-0.019000000453128628,-0.009999999755783667
-0.05848555639386177,0.06311115622520447,9.755959510803223,-0.007599999662488699,0.00009999999747378752,-0.05859999731183052,0.04200000047506539,-0.019999999511567335,-0.009999999755783667
-0.05951027572154999,0.05933789536356926,9.762319564819336,-0.007499999832361937,0,-0.04879999905824661,0.04200000047506539,-0.019999999511567335,0.049999999612681666
-0.06294835358858109,0.047998953610658646,9.752617835998535,-0.007499999832361937,-0.00969999935477972,-0.05859999731183052,-0.017999999727163266,0.041000001416626686,0.049999999612681666
-0.058610059320926666,0.05786306783556938,9.748920440673828,-0.0072999997064471245,0,-0.06839999556541443,-0.017999999727163266,0.041000001416626686,-0.009999999755783667
-0.05457821860909462,0.06381026655435562,9.754294395446777,0.0024999999441206455,0.00009999999747378752,-0.05859999731183052,-0.017999999727163266,0.03999999902313467,-0.07099999651516105
-0.057240575551986694,0.05706819146871567,9.76832389831543,0.0024999999441206455,0,-0.05859999731183052,0.04200000047506539,0.03999999902313467,-0.009999999755783667
-0.04236779361963272,0.06922116130590439,9.753556251525879,0.0026000000070780516,-0.009599999524652958,-0.04879999905824661,0.04200000047506539,-0.019999999511567335,-0.009999999755783667
-0.04477157071232796,0.0783095508813858,9.757837295532227,0.012199999764561653,0.019199999049305916,-0.05859999731183052,-0.017999999727163266,0.03999999902313467,-0.009999999755783667
-0.05822698771953583,0.05445372313261032,9.75446605682373,-0.0071000000461936,-0.009999999776482582,-0.05859999731183052,-0.07900000232288394,-0.019999999511567335,0.049999999612681666
-0.046600744128227234,0.07383718341588974,9.748729705810547,0.012199999764561653,0.009599999524652958,-0.06839999556541443,0.04200000047506539,-0.019999999511567335,-0.009999999755783667
-0.05559336394071579,0.05156152695417404,9.746047973632812,0.002300000051036477,-0.00989999994635582,-0.06839999556541443,-0.017999999727163266,-0.019999999511567335,0.11099999887334903
-0.06151182949542999,0.05920381844043732,9.748595237731934,-0.007400000002235174,0,-0.06839999556541443,-0.017999999727163266,0.03999999902313467,-0.009999999755783667
-0.06285258382558823,0.06283342838287354,9.751335144042969,-0.007199999876320362,0,-0.05859999731183052,0.04200000047506539,-0.019000000453128628,-0.07099999651516105
-0.058045025914907455,0.0692020058631897,9.750309944152832,-0.0071000000461936,0.009499999694526196,-0.05859999731183052,-0.017999999727163266,-0.019999999511567335,-0.009999999755783667
-0.045987825840711594,0.05376419425010681,9.745301246643066,0.012199999764561653,-0.00989999994635582,-0.06839999556541443,-0.017999999727163266,-0.019999999511567335,-0.07099999651516105
-0.05519114062190056,0.05618712678551674,9.753058433532715,0.002300000051036477,-0.00969999935477972,-0.05859999731183052,-0.017999999727163266,-0.019999999511567335,-0.009999999755783667
-0.0558040551841259,0.07574296742677689,9.75207233428955,0.002199999988079071,0.00969999935477972,-0.05859999731183052,-0.017999999727163266,-0.019000000453128628,-0.009999999755783667
-0.05591897666454315,0.06061160936951637,9.745790481567383,0.002199999988079071,0,-0.06839999556541443,-0.017999999727163266,0.03999999902313467,-0.009999999755783667
-0.061483100056648254,0.05796841159462929,9.761831283569336,-0.0072999997064471245,0,-0.04879999905824661,-0.07900000232288394,0.03999999902313467,0.049999999612681666
-0.04495352879166603,0.06403053551912308,9.750462532043457,0.01209999993443489,0.00019999999494757503,-0.05859999731183052,0.04200000047506539,-0.019999999511567335,-0.009999999755783667
-0.058303602039813995,0.07505343854427338,9.764540672302246,-0.0072999997064471245,0.009800000116229057,-0.04879999905824661,-0.017999999727163266,-0.019999999511567335,0.049999999612681666
-0.060151923447847366,0.055583786219358444,9.759695053100586,-0.0072999997064471245,-0.009599999524652958,-0.04879999905824661,-0.07900000232288394,-0.019999999511567335,0.049999999612681666
-0.06477751582860947,0.05431006848812103,9.74509048461914,-0.007199999876320362,-0.00930000003427267,-0.06839999556541443,-0.017999999727163266,-0.019999999511567335,-0.009999999755783667
-0.06451894342899323,0.05707776919007301,9.755597114562988,-0.007199999876320362,-0.009099999442696571,-0.05859999731183052,-0.07900000232288394,-0.019000000453128628,0.049999999612681666
-0.060985106974840164,0.057240575551986694,9.752694129943848,0.0023999998811632395,0.0007999999797903001,-0.06839999556541443,0.04200000047506539,-0.019999999511567335,-0.009999999755783667
-0.03580768033862114,0.06411672383546829,9.756888389587402,-0.007199999876320362,-0.008899999782443047,-0.05859999731183052,-0.017999999727163266,-0.019999999511567335,-0.009999999755783667
-0.05408022552728653,0.05941450968384743,9.754494667053223,0.002099999925121665,0.000699999975040555,-0.05859999731183052,0.04200000047506539,0.03999999902313467,0.049999999612681666
-0.054233454167842865,0.0692020058631897,9.75059700012207,0.002199999988079071,0.010300000198185444,-0.05859999731183052,-0.017999999727163266,0.03999999902313467,0.049999999612681666
-0.04818091541528702,0.05864836648106575,9.762989044189453,0.002199999988079071,0.0004999999655410647,-0.04879999905824661,0.04200000047506539,-0.019999999511567335,-0.07099999651516105
-0.04833414405584335,0.06004657596349716,9.766073226928711,0.002199999988079071,0.00039999998989515007,-0.04879999905824661,0.04200000047506539,0.03999999902313467,-0.009999999755783667
-0.05215528979897499,0.06033388152718544,9.752205848693848,0.002300000051036477,0.00019999999494757503,-0.05859999731183052,-0.017999999727163266,-0.019999999511567335,-0.009999999755783667
-0.056273315101861954,0.0782041996717453,9.765613555908203,0.002199999988079071,0.019600000232458115,-0.04879999905824661,-0.017999999727163266,-0.019999999511567335,-0.009999999755783667
-0.04646666720509529,0.04891832917928696,9.767203330993652,0.011799999512732029,-0.009499999694526196,-0.04879999905824661,-0.017999999727163266,0.03999999902313467,0.049999999612681666
-0.05697242170572281,0.05125506967306137,9.753738403320312,0.001999999862164259,-0.009399999864399433,-0.05859999731183052,-0.017999999727163266,0.03999999902313467,0.049999999612681666
-0.05697242170572281,0.05125506967306137,9.753738403320312,0.001999999862164259,-0.009399999864399433,-0.05859999731183052,-0.017999999727163266,0.03999999902313467,0.049999999612681666
-0.06366661190986633,0.06064033880829811,9.750367164611816,-0.007499999832361937,0.00039999998989515007,-0.05859999731183052,-0.017999999727163266,-0.019999999511567335,-0.009999999755783667
-0.054252609610557556,0.06186617165803909,9.754505157470703,0.0018999999156221747,0.0004999999655410647,-0.05859999731183052,-0.017999999727163266,-0.019999999511567335,-0.009999999755783667
-0.054252609610557556,0.06186617165803909,9.754505157470703,0.0018999999156221747,0.0004999999655410647,-0.05859999731183052,-0.017999999727163266,-0.019999999511567335,-0.009999999755783667
-0.058332327753305435,0.06270892918109894,9.75059700012207,-0.007699999958276749,0.0004999999655410647,-0.05859999731183052,-0.07900000232288394,-0.08100000043976135,0.049999999612681666
-0.05078580603003502,0.06068822368979454,9.752004623413086,0.0017999999690800905,-0.008899999782443047,-0.06839999556541443,0.04200000047506539,0.03999999902313467,-0.009999999755783667
-0.04842991381883621,0.062335435301065445,9.755443572998047,0.0017999999690800905,0.000699999975040555,-0.05859999731183052,-0.017999999727163266,-0.019999999511567335,-0.009999999755783667
-0.047002967447042465,0.0694318488240242,9.747005462646484,0.0017999999690800905,0.000699999975040555,-0.05859999731183052,0.04200000047506539,-0.019999999511567335,0.049999999612681666
-0.05277778208255768,0.05756618455052376,9.748499870300293,0.001500000013038516,0.00039999998989515007,-0.06839999556541443,-0.017999999727163266,-0.019999999511567335,-0.009999999755783667
-0.048209644854068756,0.06355168670415878,9.759167671203613,0.001500000013038516,0.00039999998989515007,-0.04879999905824661,-0.01700000066872456,-0.019999999511567335,-0.009999999755783667
-0.04873637109994888,0.05019204318523407,9.749284744262695,0.00139999995008111,-0.009099999442696571,-0.05859999731183052,0.04200000047506539,-0.019999999511567335,-0.009999999755783667
-0.04469495639204979,0.07551312446594238,9.75668716430664,0.00139999995008111,-0.009099999442696571,-0.05859999731183052,0.0429999995335041,-0.019999999511567335,-0.009999999755783667
-0.05602432042360306,0.05926128104329109,9.753182411193848,0.0010999999940395355,0.00019999999494757503,-0.05859999731183052,-0.017999999727163266,-0.019999999511567335,-0.07099999651516105
-0.05502833053469658,0.05921339616179466,9.745491981506348,0.0010999999940395355,0.00019999999494757503,-0.06839999556541443,-0.07900000232288394,0.03999999902313467,-0.009999999755783667
-0.060132771730422974,0.05435795709490776,9.755499839782715,-0.00839999970048666,-0.009099999442696571,-0.05859999731183052,0.0429999995335041,0.03999999902313467,-0.009999999755783667
-0.04861186817288399,0.06137775257229805,9.751765251159668,0.00139999995008111,0.00039999998989515007,-0.05859999731183052,-0.01700000066872456,0.03999999902313467,-0.009999999755783667
-0.05135083943605423,0.06814856082201004,9.752388000488281,0.001500000013038516,0.010199999436736107,-0.05859999731183052,-0.01700000066872456,0.03999999902313467,-0.009999999755783667
-0.05467398837208748,0.05227021127939224,9.758325576782227,0.0015999999595806003,-0.009200000204145908,-0.05859999731183052,0.04200000047506539,-0.019999999511567335,-0.009999999755783667
-0.05013458430767059,0.06757394969463348,9.748422622680664,0.001500000013038516,0.010099999606609344,-0.06839999556541443,-0.017999999727163266,-0.019999999511567335,-0.009999999755783667
-0.05943366140127182,0.06787082552909851,9.746623039245605,-0.008200000040233135,0.009999999776482582,-0.06839999556541443,-0.01700000066872456,0.03999999902313467,-0.009999999755783667
-0.04458961263298988,0.07358817756175995,9.752904891967773,0.011299999430775642,0.009999999776482582,-0.05859999731183052,-0.01700000066872456,0.03999999902313467,-0.009999999755783667
-0.05657019838690758,0.07146213203668594,9.759350776672363,0.0015999999595806003,0.00989999994635582,-0.04879999905824661,-0.01700000066872456,-0.019999999511567335,0.049999999612681666
-0.053735461086034775,0.060228537768125534,9.761552810668945,0.001500000013038516,0.00009999999747378752,-0.04879999905824661,0.10299999973573276,-0.019999999511567335,-0.009999999755783667
-0.05113057419657707,0.06997773051261902,9.76064395904541,0.001500000013038516,0.009499999694526196,-0.04879999905824661,-0.07799999992939192,-0.019999999511567335,-0.008999999863581633
-0.054511185735464096,0.055775322020053864,9.754331588745117,0.00139999995008111,-0.00969999935477972,-0.05859999731183052,0.0429999995335041,-0.019999999511567335,-0.008999999863581633
-0.04368939250707626,0.060985106974840164,9.762271881103516,0.010999999940395355,0,-0.04879999905824661,-0.017999999727163266,-0.019999999511567335,0.049999999612681666
-0.059108052402734756,0.05596685782074928,9.756477355957031,-0.008499999530613422,-0.00969999935477972,-0.05859999731183052,0.0429999995335041,-0.019999999511567335,-0.009999999755783667
-0.05206909775733948,0.058945246040821075,9.755117416381836,0.0011999999405816197,0,-0.05859999731183052,-0.017999999727163266,-0.019999999511567335,-0.009999999755783667
-0.05007712170481682,0.058351483196020126,9.743654251098633,0.0010999999940395355,0,-0.06839999556541443,-0.07900000232288394,-0.019999999511567335,0.049999999612681666
-0.054041918367147446,0.05465483292937279,9.761016845703125,0.0009999999310821295,-0.009399999864399433,-0.04879999905824661,-0.01700000066872456,-0.019999999511567335,-0.009999999755783667
-0.068263478577137,0.05234682559967041,9.752033233642578,-0.018299998715519905,-0.009200000204145908,-0.05859999731183052,-0.017999999727163266,-0.019999999511567335,-0.07099999651516105
-0.04898536577820778,0.0600753091275692,9.744621276855469,0.0010999999940395355,0.0004999999655410647,-0.06839999556541443,-0.01700000066872456,-0.019999999511567335,-0.07099999651516105
-0.05921339616179466,0.07412447780370712,9.755041122436523,-0.00839999970048666,0.010099999606609344,-0.05859999731183052,0.0429999995335041,-0.019999999511567335,-0.009999999755783667
-0.05896440148353577,0.05427176132798195,9.755318641662598,-0.00839999970048666,-0.009399999864399433,-0.05859999731183052,-0.01700000066872456,0.03999999902313467,-0.009999999755783667
-0.04649539664387703,0.0581790991127491,9.750473022460938,0.011099999770522118,0.00039999998989515007,-0.05859999731183052,-0.01700000066872456,0.03999999902313467,-0.008999999863581633
-0.058763287961483,0.07485232502222061,9.75441837310791,0.011099999770522118,0.00039999998989515007,-0.05859999731183052,-0.017999999727163266,-0.019999999511567335,-0.009999999755783667
-0.0708492174744606,0.06016149744391441,9.763909339904785,-0.01769999973475933,0.00029999998514540493,-0.04879999905824661,-0.01700000066872456,-0.019999999511567335,-0.008999999863581633
-0.05252878740429878,0.052854396402835846,9.749571800231934,0.0016999999061226845,-0.009200000204145908,-0.05859999731183052,0.0429999995335041,-0.019999999511567335,-0.008999999863581633
-0.06415502727031708,0.06472006440162659,9.747992515563965,-0.007999999448657036,0.00029999998514540493,-0.06839999556541443,-0.01700000066872456,0.03999999902313467,-0.009999999755783667
-0.0617225207388401,0.06345592439174652,9.749734878540039,-0.007799999788403511,0.00039999998989515007,-0.05859999731183052,-0.01700000066872456,-0.019999999511567335,0.049999999612681666
-0.052595820277929306,0.06444232910871506,9.755806922912598,0.0018999999156221747,0.00039999998989515007,-0.05859999731183052,-0.01700000066872456,0.03999999902313467,-0.008999999863581633
-0.0622013583779335,0.06311115622520447,9.757683753967285,-0.007699999958276749,0.0004999999655410647,-0.05859999731183052,0.0429999995335041,-0.019999999511567335,-0.07099999651516105
-0.054798487573862076,0.05132210999727249,9.749898910522461,0.001999999862164259,-0.00930000003427267,-0.05859999731183052,-0.01700000066872456,-0.019999999511567335,0.05099999867112037
-0.045556869357824326,0.05187756195664406,9.753767013549805,0.011599999852478504,-0.009099999442696571,-0.05859999731183052,0.0429999995335041,-0.019999999511567335,-0.07000000079177565
-0.0499909333884716,0.06692273169755936,9.756247520446777,0.0016999999061226845,0.0004999999655410647,-0.05859999731183052,-0.01700000066872456,0.03999999902313467,-0.008999999863581633
-0.058092910796403885,0.06461471319198608,9.75419807434082,-0.007799999788403511,0.0004999999655410647,-0.05859999731183052,0.0429999995335041,0.03999999902313467,-0.008999999863581633
-0.04957912862300873,0.06049668788909912,9.755979537963867,0.001999999862164259,0.00039999998989515007,-0.05859999731183052,-0.01700000066872456,-0.019999999511567335,-0.008999999863581633
-0.05447287857532501,0.058945246040821075,9.76036548614502,0.0018999999156221747,0.0004999999655410647,-0.04879999905824661,0.0429999995335041,-0.019999999511567335,-0.009999999755783667
-0.045911211520433426,0.05701073259115219,9.760825157165527,0.011500000022351742,-0.009200000204145908,-0.04879999905824661,-0.07799999992939192,0.03999999902313467,-0.008999999863581633
-0.04448426887392998,0.06678865104913712,9.76099681854248,0.011500000022351742,0.000699999975040555,-0.04879999905824661,-0.07799999992939192,-0.019999999511567335,-0.009999999755783667
-0.05171475559473038,0.07272627204656601,9.761744499206543,0.0015999999595806003,0.010599999688565731,-0.04879999905824661,0.0429999995335041,-0.019999999511567335,-0.008999999863581633
-0.06359957158565521,0.055200714617967606,9.76122760772705,-0.008100000210106373,-0.008899999782443047,-0.04879999905824661,-0.01700000066872456,-0.019999999511567335,-0.008999999863581633
-0.04257848486304283,0.06896258890628815,9.766772270202637,0.01119999960064888,0.010499999858438969,-0.04879999905824661,-0.01700000066872456,-0.019999999511567335,-0.008999999863581633
-0.05300762504339218,0.05613924190402031,9.763296127319336,0.00139999995008111,-0.008899999782443047,-0.04879999905824661,-0.01700000066872456,0.03999999902313467,-0.008999999863581633
-0.057690683752298355,0.059730544686317444,9.761054992675781,-0.008200000040233135,0.0008999999845400453,-0.06839999556541443,-0.017999999727163266,-0.019999999511567335,-0.009999999755783667
-0.05886863172054291,0.0565127357840538,9.752388000488281,-0.008100000210106373,0.0008999999845400453,-0.04879999905824661,-0.01700000066872456,-0.019999999511567335,0.05099999867112037
-0.05776729807257652,0.06740156561136246,9.754505157470703,-0.007999999448657036,0.010900000110268593,-0.05859999731183052,0.0429999995335041,0.03999999902313467,-0.07000000079177565
-0.06218220666050911,0.06812940537929535,9.742303848266602,-0.007799999788403511,0.010699999518692493,-0.06839999556541443,-0.01700000066872456,-0.019999999511567335,-0.008999999863581633
-0.0431339368224144,0.07105990499258041,9.754982948303223,0.011500000022351742,0.010599999688565731,-0.05859999731183052,-0.01700000066872456,0.03999999902313467,-0.009999999755783667
-0.052241481840610504,0.06343676894903183,9.754256248474121,0.011500000022351742,0.010599999688565731,-0.05859999731183052,0.0429999995335041,0.03999999902313467,-0.07000000079177565
-0.04545152559876442,0.07020757347345352,9.752636909484863,0.011599999852478504,0.010400000028312206,-0.05859999731183052,-0.01700000066872456,0.03999999902313467,-0.008999999863581633
-0.05237555876374245,0.06917327642440796,9.758890151977539,0.0018999999156221747,0.010300000198185444,-0.04879999905824661,-0.01700000066872456,-0.019999999511567335,-0.008999999863581633
-0.048161763697862625,0.06097552925348282,9.765824317932129,0.0017999999690800905,0.0004999999655410647,-0.04879999905824661,-0.01700000066872456,-0.019999999511567335,0.05099999867112037
-0.042530596256256104,0.0703703761100769,9.76930046081543,0.011299999430775642,0.010199999436736107,-0.039000000804662704,-0.01700000066872456,-0.019999999511567335,-0.008999999863581633
-0.05609135702252388,0.05886863172054291,9.754552841186523,0.001500000013038516,0.00039999998989515007,-0.05859999731183052,-0.01700000066872456,-0.019999999511567335,-0.008999999863581633
-0.04458003491163254,0.0607839934527874,9.758918762207031,0.011099999770522118,0.0004999999655410647,-0.04879999905824661,-0.01700000066872456,-0.019999999511567335,-0.008999999863581633
-0.041697416454553604,0.060084883123636246,9.764933586120605,0.010900000110268593,0.0004999999655410647,-0.04879999905824661,-0.01700000066872456,-0.019999999511567335,0.05099999867112037
-0.03747404366731644,0.06268977373838425,9.763248443603516,0.02029999904334545,0.0004999999655410647,-0.04879999905824661,-0.01700000066872456,-0.019999999511567335,0.05099999867112037
-0.04686889424920082,0.05101565271615982,9.755443572998047,0.010300000198185444,-0.008999999612569809,-0.05859999731183052,-0.01700000066872456,-0.019999999511567335,-0.008999999863581633
-0.0536780022084713,0.052787356078624725,9.752359390258789,0.0004999999655410647,-0.008899999782443047,-0.05859999731183052,-0.01700000066872456,-0.019999999511567335,-0.008999999863581633
-0.057575762271881104,0.06534255295991898,9.751803398132324,-0.009200000204145908,0.0008999999845400453,-0.05859999731183052,-0.01700000066872456,-0.019999999511567335,0.05099999867112037
-0.05431964993476868,0.0693265050649643,9.759915351867676,0.0004999999655410647,0.010599999688565731,-0.04879999905824661,-0.01700000066872456,-0.08100000043976135,-0.008999999863581633
-0.059299588203430176,0.05680961534380913,9.764732360839844,-0.009499999694526196,-0.008999999612569809,-0.04879999905824661,-0.01700000066872456,0.03999999902313467,0.05099999867112037
-0.059299588203430176,0.05680961534380913,9.764732360839844,-0.009499999694526196,-0.008999999612569809,-0.04879999905824661,-0.01700000066872456,0.03999999902313467,0.05099999867112037
-0.05431006848812103,0.055842362344264984,9.770057678222656,0.00029999998514540493,-0.008799999952316284,-0.039000000804662704,-0.07799999992939192,-0.019999999511567335,-0.008999999863581633
-0.05476975813508034,0.058428097516298294,9.76694393157959,0.00029999998514540493,0.0009999999310821295,-0.04879999905824661,0.0429999995335041,-0.019999999511567335,0.05099999867112037
-0.0610138364136219,0.05170518159866333,9.757137298583984,-0.009399999864399433,-0.008700000122189522,-0.05859999731183052,0.0429999995335041,0.03999999902313467,-0.008999999863581633
-0.047788266092538834,0.06743986904621124,9.761897087097168,0.010099999606609344,0.0008999999845400453,-0.039000000804662704,-0.01700000066872456,0.03999999902313467,0.05099999867112037
-0.032905906438827515,0.06400179862976074,9.759542465209961,0.009999999776482582,0.010599999688565731,-0.04879999905824661,0.0429999995335041,-0.019999999511567335,-0.008999999863581633
-0.052854396402835846,0.06685569137334824,9.754819869995117,0,0.000699999975040555,-0.05859999731183052,-0.01700000066872456,0.03999999902313467,0.05099999867112037
-0.054185573011636734,0.06130113825201988,9.744439125061035,0,0.000699999975040555,-0.06839999556541443,-0.01700000066872456,0.03999999902313467,-0.008999999863581633
-0.05813121795654297,0.07182604819536209,9.752531051635742,-0.009499999694526196,0.010400000028312206,-0.05859999731183052,0.0429999995335041,-0.08100000043976135,-0.008999999863581633
-0.05408022552728653,0.058523863554000854,9.765900611877441,0,0.0004999999655410647,-0.04879999905824661,0.0429999995335041,-0.019999999511567335,-0.008999999863581633
-0.05402276664972305,0.059539008885622025,9.76264476776123,0,0.00039999998989515007,-0.04879999905824661,-0.07799999992939192,-0.08100000043976135,-0.008999999863581633
-0.050441041588783264,0.058303602039813995,9.756888389587402,-0.00019999999494757503,0.0004999999655410647,-0.05859999731183052,-0.01700000066872456,0.03999999902313467,0.05099999867112037
-0.060745686292648315,0.05906016752123833,9.768420219421387,-0.00969999935477972,0.0005999999702908099,-0.039000000804662704,-0.01700000066872456,0.03999999902313467,-0.008999999863581633
-0.050795383751392365,0.06806236505508423,9.76500129699707,0.00009999999747378752,0.010300000198185444,-0.04879999905824661,-0.01700000066872456,-0.019999999511567335,-0.008999999863581633
-0.061808712780475616,0.05877286195755005,9.769904136657715,-0.009499999694526196,0.0004999999655410647,-0.039000000804662704,-0.01700000066872456,-0.019999999511567335,0.05099999867112037
-0.050508078187704086,0.059299588203430176,9.758890151977539,0.00019999999494757503,0.0004999999655410647,-0.04879999905824661,0.0429999995335041,0.03999999902313467,-0.008999999863581633
-0.03960009664297104,0.05701073259115219,9.768908500671387,0.00989999994635582,-0.009099999442696571,-0.039000000804662704,0.0429999995335041,0.03999999902313467,-0.008999999863581633
-0.06215347722172737,0.059893347322940826,9.752885818481445,-0.009399999864399433,0.0004999999655410647,-0.05859999731183052,-0.01700000066872456,-0.019999999511567335,-0.008999999863581633
-0.047022122889757156,0.05848555639386177,9.764311790466309,0.00989999994635582,0.0004999999655410647,-0.04879999905824661,0.0429999995335041,-0.019999999511567335,-0.008999999863581633
-0.062316279858350754,0.0579492561519146,9.775152206420898,-0.009499999694526196,0.00039999998989515007,-0.039000000804662704,-0.01700000066872456,-0.019999999511567335,0.05099999867112037
-0.0459686741232872,0.06412629783153534,9.759167671203613,0.009800000116229057,0.00039999998989515007,-0.04879999905824661,-0.01700000066872456,0.03999999902313467,-0.008999999863581633
-0.06725791096687317,0.054444145411252975,9.763917922973633,-0.019099999219179153,-0.009099999442696571,-0.04879999905824661,-0.01700000066872456,-0.019999999511567335,0.05099999867112037
-0.05601474270224571,0.06618531048297882,9.766101837158203,-0.01889999955892563,0.0005999999702908099,-0.04879999905824661,0.0429999995335041,0.03999999902313467,0.05099999867112037
-0.05493256449699402,0.058351483196020126,9.759368896484375,0.000699999975040555,0.0004999999655410647,-0.04879999905824661,0.0429999995335041,-0.019999999511567335,-0.008999999863581633
-0.05622543394565582,0.0561583936214447,9.760030746459961,0.0007999999797903001,0.00039999998989515007,-0.04879999905824661,-0.07799999992939192,-0.08100000043976135,-0.008999999863581633
-0.06064033880829811,0.059539008885622025,9.752273559570312,-0.009099999442696571,0.0004999999655410647,-0.05859999731183052,0.0429999995335041,-0.019999999511567335,-0.008999999863581633
-0.04156334325671196,0.04987601190805435,9.768850326538086,0.010199999436736107,-0.009200000204145908,-0.039000000804662704,-0.01700000066872456,-0.019999999511567335,-0.008999999863581633
-0.05135083943605423,0.07290823012590408,9.763975143432617,0.00039999998989515007,0.010300000198185444,-0.04879999905824661,-0.01700000066872456,-0.019999999511567335,-0.008999999863581633
-0.04637089744210243,0.059989117085933685,9.760528564453125,0.009999999776482582,0.0004999999655410647,-0.04879999905824661,-0.01700000066872456,-0.019999999511567335,0.05099999867112037
-0.049464207142591476,0.05665638670325279,9.78005599975586,0.00009999999747378752,-0.008999999612569809,-0.029199998825788498,0.0429999995335041,-0.019999999511567335,-0.008999999863581633
-0.05172433331608772,0.05051765590906143,9.773524284362793,0.00009999999747378752,-0.008899999782443047,-0.039000000804662704,-0.01700000066872456,0.03999999902313467,-0.008999999863581633
-0.048544835299253464,0.06738241761922836,9.770354270935059,0.00019999999494757503,0.010400000028312206,-0.039000000804662704,-0.01700000066872456,0.03999999902313467,0.05099999867112037
-0.042999863624572754,0.058217406272888184,9.760135650634766,0.009999999776482582,0.000699999975040555,-0.04879999905824661,-0.07799999992939192,0.03999999902313467,-0.008999999863581633
-0.05371630936861038,0.05906974524259567,9.762787818908691,0.00029999998514540493,0.0008999999845400453,-0.04879999905824661,-0.01700000066872456,-0.019999999511567335,-0.008999999863581633
-0.07066725939512253,0.05159026011824608,9.764847755432129,-0.01899999938905239,-0.008700000122189522,-0.04879999905824661,-0.01700000066872456,0.03999999902313467,0.05099999867112037
-0.05112099274992943,0.0645764097571373,9.760566711425781,0.0005999999702908099,0.0010999999940395355,-0.04879999905824661,0.0429999995335041,-0.019999999511567335,-0.07000000079177565
-0.06095637381076813,0.062431201338768005,9.760336875915527,-0.008999999612569809,0.0008999999845400453,-0.04879999905824661,-0.01700000066872456,-0.019999999511567335,-0.008999999863581633
-0.05083369091153145,0.07077260315418243,9.764589309692383,0.000699999975040555,0.010599999688565731,-0.04879999905824661,-0.01700000066872456,-0.019999999511567335,-0.008999999863581633
-0.04981854930520058,0.06068822368979454,9.765565872192383,0.0005999999702908099,0.0008999999845400453,-0.04879999905824661,0.0429999995335041,-0.019999999511567335,-0.008999999863581633
-0.062479086220264435,0.0539078451693058,9.765230178833008,-0.008999999612569809,-0.008799999952316284,-0.04879999905824661,0.0429999995335041,-0.019999999511567335,-0.008999999863581633
-0.055248599499464035,0.06390602886676788,9.768438339233398,0.0005999999702908099,0.0007999999797903001,-0.039000000804662704,-0.07799999992939192,-0.019999999511567335,0.11200000126684104
-0.05308423936367035,0.0508241131901741,9.775486946105957,0.0004999999655410647,0.0008999999845400453,-0.039000000804662704,-0.01700000066872456,-0.019999999511567335,0.05099999867112037
-0.045039720833301544,0.06630980968475342,9.763736724853516,0.0004999999655410647,-0.008599999360740185,-0.039000000804662704,-0.01700000066872456,0.03999999902313467,-0.008999999863581633
-0.05202121287584305,0.05431006848812103,9.76761531829834,0.00039999998989515007,-0.00839999970048666,-0.04879999905824661,-0.01700000066872456,-0.019999999511567335,-0.008999999863581633
-0.04599740356206894,0.05922297388315201,9.77637767791748,0.009999999776482582,0.0013000000035390258,-0.039000000804662704,0.0429999995335041,0.10100000161885533,0.05099999867112037
-0.05069003626704216,0.06521805375814438,9.76440715789795,0.00039999998989515007,0.0011999999405816197,-0.04879999905824661,0.0429999995335041,-0.019999999511567335,-0.008999999863581633
-0.05542098358273506,0.0790373831987381,9.770325660705566,0.00039999998989515007,0.020399998873472214,-0.039000000804662704,-0.01700000066872456,-0.019999999511567335,-0.008999999863581633
-0.0494067445397377,0.06543832272291183,9.75522232055664,0.00029999998514540493,0.0007999999797903001,-0.05859999731183052,-0.01700000066872456,-0.019999999511567335,-0.008999999863581633
-0.04308605194091797,0.06443275511264801,9.769989967346191,0.00989999994635582,0.0007999999797903001,-0.039000000804662704,0.0429999995335041,-0.019999999511567335,-0.008999999863581633
-0.054041918367147446,0.056053049862384796,9.764780044555664,0.00009999999747378752,-0.008899999782443047,-0.04879999905824661,-0.01700000066872456,-0.019999999511567335,-0.008999999863581633
-0.06096595525741577,0.06818686425685883,9.758814811706543,-0.009599999524652958,0.010499999858438969,-0.04879999905824661,0.0429999995335041,-0.019999999511567335,-0.008999999863581633
-0.047050848603248596,0.0644519105553627,9.7593412399292,0.009800000116229057,0.0005999999702908099,-0.04879999905824661,-0.01700000066872456,-0.019999999511567335,0.05099999867112037
-0.05096776410937309,0.07096414268016815,9.761773109436035,0,0.010300000198185444,-0.04879999905824661,-0.07799999992939192,0.03999999902313467,-0.008999999863581633
-0.04618893936276436,0.06226839870214462,9.772432327270508,0.009599999524652958,0.000699999975040555,-0.039000000804662704,-0.01700000066872456,-0.019999999511567335,-0.008999999863581633
-0.05359181389212608,0.07058106362819672,9.770306587219238,-0.00009999999747378752,0.010300000198185444,-0.039000000804662704,0.0429999995335041,-0.019999999511567335,-0.008999999863581633
-0.05025908350944519,0.062239665538072586,9.768974304199219,-0.00019999999494757503,0.00039999998989515007,-0.039000000804662704,0.0429999995335041,-0.08100000043976135,-0.008999999863581633
-0.03981078788638115,0.056244585663080215,9.76302719116211,0.009200000204145908,-0.00930000003427267,-0.04879999905824661,-0.01700000066872456,-0.019999999511567335,0.05099999867112037
-0.04932055622339249,0.053994037210941315,9.756266593933105,-0.0005999999702908099,-0.009099999442696571,-0.05859999731183052,-0.07799999992939192,-0.019999999511567335,-0.008999999863581633
-0.054041918367147446,0.06392518430948257,9.764062881469727,-0.0005999999702908099,0.000699999975040555,-0.04879999905824661,-0.01700000066872456,0.03999999902313467,-0.008999999863581633
-0.04365108534693718,0.05566997826099396,9.764885902404785,0.009099999442696571,-0.008799999952316284,-0.04879999905824661,-0.01700000066872456,0.03999999902313467,-0.008999999863581633
-0.06075526028871536,0.06993941962718964,9.76543140411377,-0.010199999436736107,0.010599999688565731,-0.04879999905824661,-0.01700000066872456,-0.019999999511567335,0.05099999867112037
-0.05793968215584755,0.05358223244547844,9.761639595031738,-0.00039999998989515007,0.0007999999797903001,-0.04879999905824661,0.0429999995335041,-0.019999999511567335,0.05099999867112037
-0.040078938007354736,0.07025545835494995,9.756850242614746,0.009200000204145908,0.010699999518692493,-0.05859999731183052,0.0429999995335041,0.03899999996469596,-0.07000000079177565
-0.04818091541528702,0.06688442081212997,9.768563270568848,-0.00039999998989515007,0.000699999975040555,-0.039000000804662704,-0.01700000066872456,-0.019999999511567335,-0.008999999863581633
-0.04567179083824158,0.06347507238388062,9.770498275756836,0.009099999442696571,0.0007999999797903001,-0.039000000804662704,-0.01700000066872456,0.03999999902313467,-0.07000000079177565
-0.056081779301166534,0.07277415692806244,9.770306587219238,-0.0004999999655410647,0.010400000028312206,-0.039000000804662704,0.0429999995335041,-0.019999999511567335,-0.008999999863581633
-0.05726930499076843,0.0612628310918808,9.757281303405762,-0.0004999999655410647,0.0004999999655410647,-0.05859999731183052,-0.01700000066872456,0.03999999902313467,-0.008999999863581633
-0.05211698263883591,0.06575435400009155,9.772345542907715,-0.00039999998989515007,0.0004999999655410647,-0.039000000804662704,-0.01700000066872456,-0.019999999511567335,-0.008999999863581633
-0.04773080348968506,0.0489279069006443,9.77659797668457,0.009099999442696571,-0.008999999612569809,-0.039000000804662704,0.0429999995335041,0.03999999902313467,-0.07000000079177565
-0.04773080348968506,0.0489279069006443,9.77659797668457,0.009099999442696571,-0.008999999612569809,-0.039000000804662704,0.0429999995335041,0.03999999902313467,-0.07000000079177565
-0.05388868972659111,0.04435976967215538,9.772768020629883,0.009099999442696571,0.0005999999702908099,-0.04879999905824661,-0.01700000066872456,0.03999999902313467,-0.008999999863581633
-0.05499960482120514,0.06840712577104568,9.77175235748291,-0.0004999999655410647,0.010599999688565731,-0.039000000804662704,-0.01700000066872456,-0.019999999511567335,-0.008999999863581633
-0.05499960482120514,0.06840712577104568,9.77175235748291,-0.0004999999655410647,0.010599999688565731,-0.039000000804662704,-0.01700000066872456,-0.019999999511567335,-0.008999999863581633
-0.06108087673783302,0.05851428955793381,9.775659561157227,-0.010199999436736107,0.0007999999797903001,-0.039000000804662704,-0.01700000066872456,-0.08100000043976135,0.05099999867112037
-0.05556463077664375,0.05952943116426468,9.751592636108398,-0.010300000198185444,-0.008700000122189522,-0.04879999905824661,-0.01700000066872456,-0.019999999511567335,-0.008999999863581633
-0.052145712077617645,0.061837442219257355,9.756342887878418,-0.0005999999702908099,0.0008999999845400453,-0.05859999731183052,-0.07799999992939192,-0.019999999511567335,-0.008999999863581633
-0.052145712077617645,0.061837442219257355,9.756342887878418,-0.0005999999702908099,0.0008999999845400453,-0.05859999731183052,-0.07799999992939192,-0.019999999511567335,-0.008999999863581633
-0.05573701485991478,0.0523659773170948,9.765833854675293,0.008999999612569809,0.0010999999940395355,-0.04879999905824661,0.0429999995335041,0.03999999902313467,0.05099999867112037
-0.06737283617258072,0.05758533999323845,9.76269245147705,-0.019999999552965164,0.0013000000035390258,-0.04879999905824661,0.0429999995335041,-0.019999999511567335,-0.008999999863581633
-0.04815218225121498,0.0719313994050026,9.764521598815918,-0.00039999998989515007,0.010799999348819256,-0.04879999905824661,-0.07799999992939192,0.03999999902313467,-0.008999999863581633
-0.05825571343302727,0.06406883895397186,9.761102676391602,-0.009999999776482582,0.0011999999405816197,-0.04879999905824661,-0.07799999992939192,0.10100000161885533,0.05099999867112037
-0.07046613842248917,0.05258624628186226,9.760442733764648,-0.009999999776482582,0.0011999999405816197,-0.04879999905824661,-0.01700000066872456,0.03999999902313467,0.05099999867112037
-0.05137956887483597,0.05816952511668205,9.76335334777832,0.00039999998989515007,0.0015999999595806003,-0.04879999905824661,-0.01700000066872456,0.03999999902313467,0.05099999867112037
-0.05490383133292198,0.06156928837299347,9.768074989318848,0.0004999999655410647,0.0015999999595806003,-0.04879999905824661,0.10400000212922476,-0.019999999511567335,-0.008999999863581633
-0.046600744128227234,0.056790463626384735,9.76917552947998,0.010099999606609344,-0.008299999870359898,-0.039000000804662704,0.10400000212922476,-0.019999999511567335,-0.008999999863581633
-0.046888045966625214,0.06843586266040802,9.763803482055664,0.00989999994635582,0.010799999348819256,-0.04879999905824661,-0.01700000066872456,-0.08100000043976135,0.05099999867112037
-0.057240575551986694,0.0631590411067009,9.77464485168457,-0.00009999999747378752,0.0009999999310821295,-0.039000000804662704,-0.07799999992939192,0.03999999902313467,-0.008999999863581633
-0.0481138750910759,0.06597462296485901,9.76712703704834,0,0.0011999999405816197,-0.04879999905824661,-0.01700000066872456,-0.019999999511567335,0.05099999867112037
-0.052672434598207474,0.0657639279961586,9.753317832946777,0,0.0011999999405816197,-0.05859999731183052,-0.01700000066872456,0.03899999996469596,0.05099999867112037
-0.047453079372644424,0.06310158222913742,9.762347221374512,0.00969999935477972,0.0011999999405816197,-0.04879999905824661,-0.01700000066872456,-0.019999999511567335,-0.008999999863581633
-0.06549578160047531,0.059041015803813934,9.761189460754395,-0.009800000116229057,0.0013000000035390258,-0.04879999905824661,-0.01700000066872456,0.03999999902313467,-0.07000000079177565
-0.05101565271615982,0.05831317603588104,9.76276969909668,0.00009999999747378752,0.0013000000035390258,-0.04879999905824661,-0.01700000066872456,-0.019999999511567335,-0.008999999863581633
-0.05056554079055786,0.05954858288168907,9.759886741638184,0,0.0013000000035390258,-0.04879999905824661,-0.07799999992939192,-0.019999999511567335,-0.008999999863581633
-0.05026865750551224,0.06296750903129578,9.770468711853027,0,0.001500000013038516,-0.039000000804662704,0.0429999995335041,0.03999999902313467,0.05099999867112037
-0.05702031031250954,0.06612785160541534,9.765220642089844,0.00009999999747378752,0.00139999995008111,-0.04879999905824661,-0.01700000066872456,-0.019999999511567335,-0.07000000079177565
-0.04932055622339249,0.0584089420735836,9.763439178466797,0,0.00139999995008111,-0.04879999905824661,-0.07799999992939192,-0.08100000043976135,-0.008999999863581633
-0.06627149879932404,0.06107129529118538,9.772662162780762,-0.009800000116229057,0.0015999999595806003,-0.039000000804662704,-0.07799999992939192,-0.019999999511567335,-0.008999999863581633
-0.05343858152627945,0.05419514700770378,9.769454002380371,0,-0.007799999788403511,-0.039000000804662704,-0.01700000066872456,-0.019999999511567335,-0.008999999863581633
-0.06782294809818268,0.061741672456264496,9.776081085205078,-0.01939999870955944,0.001999999862164259,-0.039000000804662704,-0.01700000066872456,0.03999999902313467,-0.008999999863581633
-0.05087199807167053,0.06857950985431671,9.771791458129883,0.00019999999494757503,0.001999999862164259,-0.039000000804662704,-0.01700000066872456,-0.019999999511567335,-0.008999999863581633
-0.05087199807167053,0.06857950985431671,9.771791458129883,0.00019999999494757503,0.011599999852478504,-0.039000000804662704,-0.01700000066872456,-0.019999999511567335,-0.008999999863581633
-0.053639695048332214,0.06792829185724258,9.751190185546875,0.00009999999747378752,-0.007699999958276749,-0.05859999731183052,0.0429999995335041,-0.019999999511567335,-0.008999999863581633
-0.0522606335580349,0.05434837564826012,9.765700340270996,0.00019999999494757503,0.011500000022351742,-0.05859999731183052,0.0429999995335041,-0.021000000237532696,0.05099999867112037
-0.05791094899177551,0.05417599529027939,9.758517265319824,-0.009499999694526196,-0.007999999448657036,-0.05859999731183052,0.0429999995335041,-0.019999999511567335,-0.008999999863581633
-0.052758630365133286,0.059539008885622025,9.761801719665527,0.00019999999494757503,0.001500000013038516,-0.04879999905824661,-0.07799999992939192,0.03999999902313467,-0.07000000079177565
-0.05012500658631325,0.053141701966524124,9.765996932983398,0.00019999999494757503,0.001500000013038516,-0.04879999905824661,-0.01700000066872456,0.03899999996469596,-0.008999999863581633
-0.05685750022530556,0.06012319028377533,9.779691696166992,0.00039999998989515007,0.0018999999156221747,-0.029199998825788498,-0.01700000066872456,-0.019999999511567335,-0.07000000079177565
-0.053515199571847916,0.06421248614788055,9.769598007202148,0.00029999998514540493,0.0018999999156221747,-0.039000000804662704,-0.01700000066872456,-0.019999999511567335,-0.008999999863581633
-0.06475836783647537,0.06686526536941528,9.779318809509277,-0.00930000003427267,0.0018999999156221747,-0.029199998825788498,-0.01700000066872456,0.03999999902313467,-0.008999999863581633
-0.06155013665556908,0.0680144801735878,9.769003868103027,-0.008999999612569809,0.011599999852478504,-0.039000000804662704,-0.01700000066872456,0.03999999902313467,0.05099999867112037
-0.06285258382558823,0.06358042359352112,9.775784492492676,-0.008799999952316284,0.0017999999690800905,-0.039000000804662704,0.0429999995335041,-0.019999999511567335,-0.008999999863581633
-0.04807556793093681,0.06723876297473907,9.774893760681152,0.0008999999845400453,0.011299999430775642,-0.039000000804662704,-0.01700000066872456,-0.019999999511567335,-0.008999999863581633
-0.05101565271615982,0.05382165685296059,9.763506889343262,0.0007999999797903001,-0.007999999448657036,-0.04879999905824661,-0.01700000066872456,-0.019999999511567335,-0.008999999863581633
-0.05073792114853859,0.06569689512252808,9.759647369384766,0.0007999999797903001,0.0016999999061226845,-0.04879999905824661,-0.01700000066872456,-0.019999999511567335,-0.008999999863581633
-0.04924394190311432,0.06426995247602463,9.765507698059082,0.000699999975040555,0.0016999999061226845,-0.04879999905824661,-0.01700000066872456,-0.019999999511567335,-0.008999999863581633
-0.05016331374645233,0.05857175216078758,9.758268356323242,0.0005999999702908099,0.0016999999061226845,-0.05859999731183052,0.0429999995335041,-0.019999999511567335,-0.07000000079177565
-0.05435795709490776,0.06289089471101761,9.765690803527832,0.0005999999702908099,0.0015999999595806003,-0.04879999905824661,0.0429999995335041,-0.019999999511567335,0.05099999867112037
-0.05362053960561752,0.056436121463775635,9.754629135131836,0.0004999999655410647,-0.008100000210106373,-0.05859999731183052,0.0429999995335041,-0.019999999511567335,-0.008999999863581633
-0.06756436824798584,0.06348465383052826,9.75375747680664,-0.018799999728798866,0.00139999995008111,-0.05859999731183052,-0.01700000066872456,0.03999999902313467,-0.008999999863581633
-0.06742072105407715,0.05716396123170853,9.768160820007324,-0.01850000023841858,-0.008100000210106373,-0.04879999905824661,-0.01700000066872456,0.03899999996469596,-0.008999999863581633
-0.0592421256005764,0.04964616894721985,9.7642822265625,-0.00839999970048666,-0.007999999448657036,-0.04879999905824661,-0.07799999992939192,-0.019999999511567335,-0.008999999863581633
-0.04616978392004967,0.07420109212398529,9.766905784606934,0.010900000110268593,0.011599999852478504,-0.04879999905824661,-0.01700000066872456,-0.019999999511567335,-0.008999999863581633
-0.06814856082201004,0.054539911448955536,9.77397346496582,-0.018199998885393143,-0.007799999788403511,-0.039000000804662704,-0.01700000066872456,0.03999999902313467,-0.008999999863581633
-0.061808712780475616,0.06554366648197174,9.771454811096191,0.00139999995008111,-0.007599999662488699,-0.039000000804662704,0.0429999995335041,0.03999999902313467,-0.008999999863581633
-0.061808712780475616,0.06554366648197174,9.771454811096191,-0.008100000210106373,0.0018999999156221747,-0.039000000804662704,0.0429999995335041,0.03999999902313467,-0.008999999863581633
-0.0491769015789032,0.05503791198134422,9.761783599853516,0.0016999999061226845,-0.007499999832361937,-0.04879999905824661,-0.01700000066872456,-0.019999999511567335,-0.008999999863581633
-0.055009178817272186,0.07529285550117493,9.762654304504395,0.0015999999595806003,0.011899999342858791,-0.04879999905824661,-0.01700000066872456,-0.019999999511567335,-0.008999999863581633
-0.0454898327589035,0.05637866258621216,9.756342887878418,0.01119999960064888,-0.007499999832361937,-0.05859999731183052,-0.01700000066872456,0.03999999902313467,-0.008999999863581633
-0.06056372448801994,0.05689580738544464,9.763343811035156,-0.008100000210106373,-0.0072999997064471245,-0.04879999905824661,-0.07799999992939192,-0.019999999511567335,-0.008999999863581633
-0.051149725914001465,0.06317819654941559,9.759303092956543,-0.008100000210106373,-0.0072999997064471245,-0.04879999905824661,0.0429999995335041,-0.08100000043976135,0.05099999867112037
-0.059586890041828156,0.05032612010836601,9.762520790100098,-0.008200000040233135,-0.0071000000461936,-0.04879999905824661,-0.01700000066872456,0.03999999902313467,-0.008999999863581633
-0.05533478781580925,0.07113651931285858,9.764616966247559,0.0015999999595806003,0.012299999594688416,-0.04879999905824661,0.0429999995335041,-0.019999999511567335,-0.008999999863581633
-0.058973975479602814,0.06425079703330994,9.761849403381348,-0.008100000210106373,0.002300000051036477,-0.04879999905824661,-0.01700000066872456,-0.08100000043976135,-0.008999999863581633
-0.053065087646245956,0.0559285506606102,9.757722854614258,0.00139999995008111,-0.0072999997064471245,-0.05859999731183052,0.0429999995335041,0.03899999996469596,0.05099999867112037
-0.05850471183657646,0.05582320690155029,9.76733684539795,-0.008100000210106373,-0.0072999997064471245,-0.04879999905824661,-0.01700000066872456,-0.019999999511567335,-0.07000000079177565
-0.052193596959114075,0.06251739710569382,9.77258586883545,0.001500000013038516,0.0023999998811632395,-0.039000000804662704,-0.01700000066872456,-0.019999999511567335,-0.008999999863581633
-0.03786669671535492,0.06770802289247513,9.762893676757812,0.020800000056624413,0.01209999993443489,-0.04879999905824661,-0.01700000066872456,0.03999999902313467,0.05099999867112037
-0.053093817085027695,0.05527732893824577,9.757214546203613,0.0013000000035390258,-0.0072999997064471245,-0.05859999731183052,-0.01700000066872456,-0.021000000237532696,-0.008999999863581633
-0.03619075566530228,0.07626011222600937,9.768936157226562,0.020600000396370888,0.012000000104308128,-0.039000000804662704,-0.01700000066872456,-0.021000000237532696,-0.008999999863581633
-0.05705861747264862,0.05431006848812103,9.759407997131348,0.0008999999845400453,-0.0072999997064471245,-0.04879999905824661,-0.01700000066872456,0.03999999902313467,-0.07000000079177565
-0.05466441437602043,0.06910623610019684,9.764789581298828,0.0008999999845400453,0.01209999993443489,-0.04879999905824661,0.0429999995335041,-0.019999999511567335,-0.008999999863581633
-0.05265328288078308,0.06698018312454224,9.763066291809082,0.0008999999845400453,0.002099999925121665,-0.04879999905824661,-0.01700000066872456,-0.021000000237532696,0.05099999867112037
-0.054329223930835724,0.0669514536857605,9.751909255981445,0.0007999999797903001,0.002099999925121665,-0.05859999731183052,-0.07799999992939192,-0.021000000237532696,0.05099999867112037
-0.04974193498492241,0.047309424728155136,9.75792407989502,0.000699999975040555,-0.016999999061226845,-0.05859999731183052,-0.01700000066872456,0.03999999902313467,-0.008999999863581633
-0.05302678048610687,0.05499960482120514,9.76538372039795,0.0008999999845400453,-0.00699999975040555,-0.04879999905824661,-0.01700000066872456,-0.019999999511567335,-0.008999999863581633
-0.059108052402734756,0.05343858152627945,9.761207580566406,-0.008799999952316284,-0.006899999920278788,-0.04879999905824661,-0.01700000066872456,-0.019999999511567335,-0.008999999863581633
-0.05032612010836601,0.05271074175834656,9.766676902770996,-0.008700000122189522,0.01249999925494194,-0.04879999905824661,-0.01700000066872456,0.03999999902313467,-0.07000000079177565
-0.06182786449790001,0.04907156154513359,9.771187782287598,0.0008999999845400453,-0.0066999997943639755,-0.04879999905824661,-0.01700000066872456,0.03999999902313467,-0.07000000079177565
-0.04900452122092247,0.04955039918422699,9.767021179199219,-0.008499999530613422,-0.006599999964237213,-0.039000000804662704,-0.01700000066872456,-0.021000000237532696,0.05099999867112037
-0.043852198868989944,0.07063852995634079,9.756122589111328,0.010599999688565731,0.012799999676644802,-0.05859999731183052,0.0429999995335041,-0.019999999511567335,-0.07000000079177565
-0.06333142518997192,0.06411672383546829,9.766656875610352,-0.008899999782443047,0.00279999990016222,-0.04879999905824661,-0.01700000066872456,-0.019999999511567335,-0.008999999863581633
-0.05543055757880211,0.06360915303230286,9.75833511352539,0.0007999999797903001,0.00279999990016222,-0.05859999731183052,-0.01700000066872456,-0.021000000237532696,-0.008999999863581633
-0.042856208980083466,0.0612628310918808,9.762625694274902,0.010400000028312206,0.00279999990016222,-0.04879999905824661,-0.01700000066872456,-0.019999999511567335,-0.008999999863581633
-0.04568136855959892,0.061808712780475616,9.762337684631348,0.010199999436736107,0.00279999990016222,-0.04879999905824661,0.0429999995335041,-0.019999999511567335,0.05099999867112037
-0.04215710610151291,0.056273315101861954,9.760030746459961,0.009999999776482582,-0.006899999920278788,-0.04879999905824661,0.0429999995335041,-0.019999999511567335,-0.008999999863581633
-0.05528690665960312,0.06286215782165527,9.756975173950195,0.00009999999747378752,0.002699999837204814,-0.05859999731183052,-0.01700000066872456,-0.019999999511567335,-0.008999999863581633
-0.05906974524259567,0.052854396402835846,9.763506889343262,-0.009499999694526196,-0.006899999920278788,-0.04879999905824661,-0.01700000066872456,-0.021000000237532696,-0.008999999863581633
-0.048142608255147934,0.06448063999414444,9.763104438781738,0.00019999999494757503,0.00279999990016222,-0.04879999905824661,-0.01700000066872456,0.03899999996469596,-0.008999999863581633
-0.054539911448955536,0.04983770474791527,9.753469467163086,0.00029999998514540493,-0.006799999624490738,-0.05859999731183052,-0.07799999992939192,-0.019999999511567335,-0.008999999863581633
-0.04220498725771904,0.07362648844718933,9.76193618774414,0.00989999994635582,0.012799999676644802,-0.04879999905824661,-0.01700000066872456,-0.019999999511567335,-0.008999999863581633
-0.06902004778385162,0.05589982122182846,9.763736724853516,-0.019199999049305916,-0.006599999964237213,-0.04879999905824661,-0.01700000066872456,-0.021000000237532696,-0.008999999863581633
-0.051791369915008545,0.06889554858207703,9.773524284362793,0.00019999999494757503,0.01269999984651804,-0.039000000804662704,0.0429999995335041,-0.019999999511567335,0.05099999867112037
-0.0588877871632576,0.06360915303230286,9.76472282409668,-0.009399999864399433,0.00279999990016222,-0.04879999905824661,0.0429999995335041,0.03899999996469596,-0.008999999863581633
-0.05376419425010681,0.06567773967981339,9.774433135986328,0.00039999998989515007,0.0026000000070780516,-0.039000000804662704,-0.01700000066872456,0.03899999996469596,0.05099999867112037
-0.06509356200695038,0.07448840141296387,9.768458366394043,-0.008999999612569809,0.012199999764561653,-0.039000000804662704,-0.01700000066872456,-0.021000000237532696,-0.008999999863581633
-0.04997177794575691,0.06662584841251373,9.76099681854248,0.0005999999702908099,0.0023999998811632395,-0.04879999905824661,-0.01700000066872456,-0.019999999511567335,0.05099999867112037
-0.045987825840711594,0.06064991652965546,9.767577171325684,0.010199999436736107,0.0023999998811632395,-0.04879999905824661,0.0429999995335041,0.03999999902313467,-0.008999999863581633
-0.039513904601335526,0.06691315025091171,9.764196395874023,0.010199999436736107,0.002300000051036477,-0.04879999905824661,-0.01700000066872456,0.03899999996469596,-0.07000000079177565
-0.06071695312857628,0.06142564117908478,9.767643928527832,0.010199999436736107,0.021699998527765274,-0.04879999905824661,-0.01700000066872456,-0.021000000237532696,0.05099999867112037
-0.0584089420735836,0.06661626696586609,9.761189460754395,-0.009200000204145908,0.0018999999156221747,-0.04879999905824661,0.0429999995335041,-0.021000000237532696,-0.008999999863581633
-0.051082685589790344,0.0726209282875061,9.763669967651367,0.0004999999655410647,0.011399999260902405,-0.04879999905824661,-0.01700000066872456,0.03999999902313467,-0.008999999863581633
-0.05443457141518593,0.06412629783153534,9.76107406616211,0.0005999999702908099,0.0016999999061226845,-0.04879999905824661,-0.01700000066872456,0.03899999996469596,-0.008999999863581633
-0.05476018041372299,0.05547844246029854,9.761783599853516,0.0005999999702908099,0.0016999999061226845,-0.04879999905824661,-0.01700000066872456,-0.019999999511567335,-0.008999999863581633
-0.050555963069200516,0.06491159647703171,9.762002944946289,0.0005999999702908099,0.0017999999690800905,-0.04879999905824661,-0.01700000066872456,-0.019999999511567335,-0.008999999863581633
-0.056905388832092285,0.06225882098078728,9.772010803222656,0.0005999999702908099,0.0017999999690800905,-0.039000000804662704,-0.01700000066872456,-0.019999999511567335,-0.008999999863581633
-0.05455906689167023,0.053429003804922104,9.770401954650879,0.0004999999655410647,-0.007699999958276749,-0.039000000804662704,-0.07799999992939192,-0.021000000237532696,-0.008999999863581633
-0.05250963196158409,0.05151364579796791,9.774079322814941,0.00039999998989515007,-0.007400000002235174,-0.039000000804662704,-0.01700000066872456,-0.021000000237532696,0.05099999867112037
-0.06244077906012535,0.06924030929803848,9.774012565612793,-0.009200000204145908,0.012000000104308128,-0.039000000804662704,-0.01700000066872456,0.03899999996469596,-0.07000000079177565
-0.05027823522686958,0.06424121558666229,9.774797439575195,0.0005999999702908099,0.002199999988079071,-0.039000000804662704,-0.01700000066872456,-0.019999999511567335,-0.008999999863581633
-0.04858314245939255,0.05812164023518562,9.752790451049805,0.0005999999702908099,0.002199999988079071,-0.05859999731183052,-0.01700000066872456,-0.019999999511567335,0.05099999867112037
-0.05431964993476868,0.046198517084121704,9.753335952758789,0.0004999999655410647,-0.017099998891353607,-0.05859999731183052,-0.01700000066872456,-0.019999999511567335,0.05099999867112037
-0.04077804088592529,0.06283342838287354,9.760604858398438,0.010099999606609344,0.0024999999441206455,-0.04879999905824661,-0.07799999992939192,0.03899999996469596,-0.008999999863581633
-0.046648625284433365,0.061818286776542664,9.761849403381348,0.010099999606609344,0.002699999837204814,-0.04879999905824661,-0.01700000066872456,0.03999999902313467,-0.07000000079177565
-0.057527877390384674,0.055938128381967545,9.762060165405273,-0.009200000204145908,-0.006899999920278788,-0.04879999905824661,-0.01700000066872456,-0.021000000237532696,-0.008999999863581633
-0.05870582535862923,0.05427176132798195,9.768171310424805,-0.009099999442696571,-0.006799999624490738,-0.04879999905824661,-0.01700000066872456,0.03899999996469596,-0.07000000079177565
-0.05838979035615921,0.052787356078624725,9.762548446655273,-0.008899999782443047,-0.0066999997943639755,-0.04879999905824661,-0.01700000066872456,0.03899999996469596,-0.008999999863581633
-0.0617225207388401,0.06546705216169357,9.764463424682617,-0.008700000122189522,0.0030999998562037945,-0.04879999905824661,0.0429999995335041,0.03899999996469596,-0.008999999863581633
-0.04725196585059166,0.06135860085487366,9.766676902770996,0.0011999999405816197,-0.0066999997943639755,-0.04879999905824661,-0.01700000066872456,-0.019999999511567335,-0.008999999863581633
-0.04279874637722969,0.06667372584342957,9.76651382446289,0.010900000110268593,0.003000000026077032,-0.04879999905824661,-0.01700000066872456,-0.019999999511567335,-0.008999999863581633
-0.056579772382974625,0.055507171899080276,9.772518157958984,0.0007999999797903001,-0.0064999996684491634,-0.039000000804662704,0.0429999995335041,-0.019999999511567335,-0.008999999863581633
-0.05031654238700867,0.062096014618873596,9.763861656188965,0.0007999999797903001,0.003000000026077032,-0.04879999905824661,0.0429999995335041,-0.08200000283325337,-0.07000000079177565
-0.06173209846019745,0.06001785025000572,9.764589309692383,0.0007999999797903001,0.003000000026077032,-0.04879999905824661,0.0429999995335041,0.03999999902313467,-0.008999999863581633
-0.04734773188829422,0.05748957023024559,9.766695022583008,0.010400000028312206,0.002699999837204814,-0.04879999905824661,-0.01700000066872456,-0.021000000237532696,-0.07000000079177565
-0.05448245257139206,0.06697060912847519,9.761275291442871,0.0004999999655410647,0.002699999837204814,-0.04879999905824661,-0.01700000066872456,0.03899999996469596,0.05099999867112037
-0.056761734187603,0.052547939121723175,9.762568473815918,0.000699999975040555,-0.006899999920278788,-0.04879999905824661,-0.07799999992939192,-0.021000000237532696,-0.008999999863581633
-0.06250781565904617,0.05051765590906143,9.757128715515137,-0.008999999612569809,-0.006599999964237213,-0.05859999731183052,-0.01700000066872456,-0.019999999511567335,0.05099999867112037
-0.052950166165828705,0.06947973370552063,9.763736724853516,0.0005999999702908099,0.012799999676644802,-0.04879999905824661,-0.01700000066872456,-0.021000000237532696,-0.008999999863581633
-0.05456864461302757,0.06703764945268631,9.756610870361328,0.0005999999702908099,0.01269999984651804,-0.05859999731183052,-0.01700000066872456,0.03899999996469596,-0.008999999863581633
-0.04744350165128708,0.06597462296485901,9.759129524230957,0.010400000028312206,0.002899999963119626,-0.04879999905824661,-0.01700000066872456,0.03899999996469596,-0.008999999863581633
-0.046102747321128845,0.06830178946256638,9.762127876281738,0.010300000198185444,0.01249999925494194,-0.04879999905824661,0.0429999995335041,-0.021000000237532696,-0.008999999863581633
-0.058092910796403885,0.06293877214193344,9.765106201171875,-0.009099999442696571,0.0026000000070780516,-0.04879999905824661,0.0429999995335041,0.03999999902313467,-0.07000000079177565
-0.049540821462869644,0.06462428718805313,9.775382041931152,0.000699999975040555,0.0023999998811632395,-0.039000000804662704,-0.07799999992939192,-0.021000000237532696,0.05099999867112037
-0.04807556793093681,0.07200801372528076,9.744152069091797,0.000699999975040555,0.012299999594688416,-0.06839999556541443,0.0429999995335041,-0.021000000237532696,0.05099999867112037
-0.04767334461212158,0.05057511478662491,9.76749038696289,0.010300000198185444,-0.0072999997064471245,-0.04879999905824661,0.0429999995335041,0.03899999996469596,0.05099999867112037
-0.04623682424426079,0.06437529623508453,9.757081031799316,0.010300000198185444,0.002300000051036477,-0.05859999731183052,-0.01700000066872456,-0.08200000283325337,-0.008999999863581633
-0.04733815789222717,0.06835924834012985,9.767959594726562,0.00989999994635582,0.012000000104308128,-0.04879999905824661,0.0429999995335041,-0.021000000237532696,0.05099999867112037
-0.04762545973062515,0.058830320835113525,9.762711524963379,0.00969999935477972,0.001999999862164259,-0.04879999905824661,0.0429999995335041,-0.021000000237532696,-0.008999999863581633
-0.04673481732606888,0.05106353387236595,9.75797176361084,0.009599999524652958,-0.007699999958276749,-0.05859999731183052,0.0429999995335041,-0.021000000237532696,-0.008999999863581633
-0.052787356078624725,0.0536780022084713,9.764253616333008,-0.00019999999494757503,-0.007699999958276749,-0.04879999905824661,-0.01700000066872456,-0.021000000237532696,-0.008999999863581633
-0.05513367801904678,0.05553590506315231,9.764426231384277,-0.00019999999494757503,-0.01730000041425228,-0.04879999905824661,-0.01700000066872456,-0.021000000237532696,0.05099999867112037
-0.05744168907403946,0.06035303324460983,9.755845069885254,-0.00009999999747378752,-0.0072999997064471245,-0.04879999905824661,0.0429999995335041,-0.08200000283325337,-0.008999999863581633
-0.05582320690155029,0.06601293385028839,9.758086204528809,-0.00039999998989515007,0.002300000051036477,-0.05859999731183052,-0.01700000066872456,-0.021000000237532696,-0.008999999863581633
-0.04710831493139267,0.050153736025094986,9.767251014709473,0.009200000204145908,-0.0072999997064471245,-0.04879999905824661,-0.01700000066872456,-0.021000000237532696,-0.008999999863581633
-0.056531891226768494,0.06308242678642273,9.771283149719238,-0.0005999999702908099,0.0023999998811632395,-0.039000000804662704,-0.01700000066872456,0.09999999922536333,-0.008999999863581633
-0.0636187270283699,0.0528448186814785,9.773275375366211,-0.00989999994635582,-0.0071000000461936,-0.039000000804662704,-0.01700000066872456,-0.021000000237532696,-0.008999999863581633
-0.062498241662979126,0.06612785160541534,9.766350746154785,-0.00989999994635582,0.0026000000070780516,-0.04879999905824661,0.0429999995335041,-0.021000000237532696,-0.008999999863581633
-0.05495171621441841,0.05417599529027939,9.755461692810059,-0.00009999999747378752,-0.007199999876320362,-0.05859999731183052,-0.01700000066872456,-0.019999999511567335,-0.008999999863581633
-0.04277002066373825,0.06396349519491196,9.756467819213867,0.009399999864399433,0.0026000000070780516,-0.05859999731183052,-0.01700000066872456,-0.021000000237532696,-0.008999999863581633
-0.05527732893824577,0.057192690670490265,9.75992488861084,-0.00029999998514540493,-0.00699999975040555,-0.04879999905824661,-0.01700000066872456,-0.021000000237532696,-0.008999999863581633
-0.05656062066555023,0.06426995247602463,9.756601333618164,-0.00039999998989515007,0.002699999837204814,-0.05859999731183052,0.0429999995335041,-0.021000000237532696,-0.07000000079177565
-0.05981673300266266,0.05385996401309967,9.750980377197266,-0.010099999606609344,-0.0071000000461936,-0.05859999731183052,-0.07799999992939192,-0.021000000237532696,-0.008999999863581633
-0.05855259671807289,0.06118621677160263,9.768745422363281,-0.010099999606609344,-0.0071000000461936,-0.05859999731183052,0.0429999995335041,0.03899999996469596,0.05099999867112037
-0.06661626696586609,0.060630764812231064,9.767796516418457,-0.00969999935477972,0.0026000000070780516,-0.04879999905824661,-0.01700000066872456,-0.019999999511567335,-0.008999999863581633
-0.053515199571847916,0.05810248479247093,9.755547523498535,-0.00969999935477972,0.0026000000070780516,-0.04879999905824661,-0.01700000066872456,0.03899999996469596,-0.008999999863581633
-0.06290046870708466,0.06405925750732422,9.753843307495117,-0.009599999524652958,0.0026000000070780516,-0.05859999731183052,0.0429999995335041,-0.021000000237532696,-0.008999999863581633
-0.058715399354696274,0.07329130917787552,9.759761810302734,-0.009499999694526196,0.01209999993443489,-0.04879999905824661,-0.01700000066872456,-0.021000000237532696,-0.008999999863581633
-0.070389524102211,0.05446329712867737,9.754342079162598,-0.019099999219179153,-0.007199999876320362,-0.05859999731183052,-0.01700000066872456,-0.021000000237532696,-0.008999999863581633
-0.05051765590906143,0.061674635857343674,9.758440017700195,0.00029999998514540493,0.0024999999441206455,-0.05859999731183052,0.0429999995335041,-0.021000000237532696,0.05099999867112037
-0.05919424444437027,0.059088896960020065,9.765575408935547,-0.00930000003427267,0.002300000051036477,-0.04879999905824661,-0.01700000066872456,-0.021000000237532696,-0.008999999863581633
-0.046696510165929794,0.07080133259296417,9.767298698425293,0.009999999776482582,0.012000000104308128,-0.04879999905824661,0.0429999995335041,0.03899999996469596,-0.008999999863581633
-0.04694550856947899,0.05874413251876831,9.764741897583008,0.009999999776482582,0.001999999862164259,-0.04879999905824661,0.0429999995335041,0.03899999996469596,-0.07000000079177565
-0.04796064645051956,0.06309200078248978,9.760519027709961,0.00029999998514540493,0.0018999999156221747,-0.04879999905824661,0.0429999995335041,-0.021000000237532696,0.05099999867112037
-0.04789361357688904,0.054990023374557495,9.760173797607422,0.00019999999494757503,-0.007799999788403511,-0.04879999905824661,-0.01700000066872456,-0.021000000237532696,-0.008999999863581633
-0.04884171113371849,0.05085284262895584,9.758392333984375,0.00019999999494757503,-0.007699999958276749,-0.05859999731183052,0.0429999995335041,0.03899999996469596,-0.008999999863581633
-0.04542279615998268,0.06253654509782791,9.747159004211426,0.009999999776482582,0.0018999999156221747,-0.06839999556541443,-0.01700000066872456,0.03899999996469596,-0.008999999863581633
-0.05478890985250473,0.06651092320680618,9.758325576782227,0.00029999998514540493,0.0018999999156221747,-0.05859999731183052,-0.01700000066872456,-0.021000000237532696,-0.008999999863581633
-0.04987601190805435,0.05207867547869682,9.762434005737305,0.00029999998514540493,-0.007699999958276749,-0.04879999905824661,0.0429999995335041,-0.021000000237532696,-0.008999999863581633
-0.051245495676994324,0.06336972862482071,9.759407997131348,0.00019999999494757503,0.0018999999156221747,-0.04879999905824661,-0.01700000066872456,-0.021000000237532696,-0.008999999863581633
-0.055555056780576706,0.06283342838287354,9.756074905395508,0.00019999999494757503,0.0018999999156221747,-0.05859999731183052,-0.01700000066872456,0.03899999996469596,-0.008999999863581633
-0.0437181256711483,0.059232551604509354,9.751287460327148,0.009999999776482582,0.0018999999156221747,-0.05859999731183052,-0.01700000066872456,-0.021000000237532696,0.05099999867112037
-0.04298070818185806,0.07404786348342896,9.770095825195312,0.00969999935477972,0.011599999852478504,-0.039000000804662704,0.0429999995335041,-0.021000000237532696,-0.008999999863581633
-0.04408204182982445,0.06494990736246109,9.761313438415527,0.009599999524652958,0.0016999999061226845,-0.04879999905824661,-0.01700000066872456,-0.021000000237532696,-0.008999999863581633
-0.06001785025000572,0.05647442862391472,9.755911827087402,-0.00989999994635582,-0.007899999618530273,-0.05859999731183052,-0.01700000066872456,0.03899999996469596,0.05099999867112037
-0.05141787603497505,0.058351483196020126,9.75397777557373,0,-0.007799999788403511,-0.05859999731183052,0.10400000212922476,-0.08200000283325337,-0.07000000079177565
-0.0558040551841259,0.056196700781583786,9.764540672302246,0,0.002099999925121665,-0.05859999731183052,0.10400000212922476,-0.08200000283325337,-0.07000000079177565
-0.06461471319198608,0.06821559369564056,9.757051467895508,-0.009999999776482582,0.011599999852478504,-0.05859999731183052,0.0429999995335041,-0.08200000283325337,0.05099999867112037
-0.04376600682735443,0.06380068510770798,9.761878967285156,0.009200000204145908,0.0015999999595806003,-0.04879999905824661,-0.01700000066872456,0.03899999996469596,-0.008999999863581633
-0.05366842821240425,0.06686526536941528,9.761590957641602,-0.00039999998989515007,0.0015999999595806003,-0.04879999905824661,-0.01700000066872456,0.03899999996469596,-0.008999999863581633
-0.052614975720644,0.06295792758464813,9.748950004577637,-0.00029999998514540493,0.0016999999061226845,-0.06839999556541443,-0.01700000066872456,-0.021000000237532696,0.05099999867112037
-0.040059782564640045,0.0667024627327919,9.759886741638184,-0.00029999998514540493,0.0016999999061226845,-0.06839999556541443,-0.01700000066872456,-0.021000000237532696,-0.008999999863581633
-0.05308423936367035,0.06211517006158829,9.756583213806152,-0.0004999999655410647,0.0016999999061226845,-0.05859999731183052,0.0429999995335041,-0.021000000237532696,-0.07000000079177565
-0.05798756331205368,0.06313031166791916,9.755970001220703,-0.010199999436736107,0.0015999999595806003,-0.05859999731183052,-0.01700000066872456,0.03899999996469596,-0.008999999863581633
-0.04782657325267792,0.06140648573637009,9.760040283203125,0.00930000003427267,0.0015999999595806003,-0.04879999905824661,0.0429999995335041,-0.021000000237532696,-0.008999999863581633
-0.061674635857343674,0.05026865750551224,9.755434036254883,-0.010199999436736107,-0.008100000210106373,-0.05859999731183052,0.0429999995335041,-0.021000000237532696,0.05099999867112037
-0.05512410029768944,0.06455725431442261,9.757826805114746,-0.00039999998989515007,0.00139999995008111,-0.05859999731183052,-0.01700000066872456,0.03899999996469596,0.05099999867112037
-0.04427357763051987,0.06320692598819733,9.753297805786133,0.00930000003427267,0.00139999995008111,-0.05859999731183052,0.0429999995335041,-0.021000000237532696,-0.07000000079177565
