Accelerometer_Gx,Accelerometer_Gy,Accelerometer_Gz,Accelerometer_X,Accelerometer_Y,Accelerometer_Z,Gyroscope_Z,Gyroscope_X,Gyroscope_Y
-0.05607220530509949,0.04416823014616966,9.543009757995605,-0.01119999960064888,-0.01769999973475933,-0.274399995803833,-0.023000000021936765,-0.0039999999856897995,0.05300000012305109
-0.06572562456130981,0.06600335240364075,9.552098274230957,-0.009800000116229057,-0.00699999975040555,-0.2645999789237976,-0.021999999295971403,-0.0039999999856897995,0.0539999991814898
-0.03924575448036194,0.05067088454961777,9.5612154006958,-0.016999999061226845,0.002199999988079071,-0.2645999789237976,0.038000000906257256,-0.0039999999856897995,0.0539999991814898
-0.05841852352023125,0.06535212695598602,9.556092262268066,0.002300000051036477,-0.006599999964237213,-0.2547999918460846,0.038000000906257256,-0.0039999999856897995,-0.006000000186975531
-0.0693265050649643,0.042923249304294586,9.560382843017578,-0.021299999207258224,-0.014999999664723873,-0.2547999918460846,-0.08299999855663877,-0.0039999999856897995,-0.006000000186975531
-0.05562209337949753,0.05895482376217842,9.5537748336792,-0.00139999995008111,0.0038999998942017555,-0.2645999789237976,-0.021999999295971403,-0.004999999877891834,-0.006000000186975531
-0.04895663633942604,0.06725791096687317,9.564644813537598,-0.0010999999940395355,0.011799999512732029,-0.2547000050544739,-0.021999999295971403,-0.004999999877891834,0.0539999991814898
-0.05318000912666321,0.05732676759362221,9.568896293640137,-0.0007999999797903001,-0.0066999997943639755,-0.24489998817443848,-0.021999999295971403,0.05499999823992851,-0.006000000186975531
-0.05907932296395302,0.060678645968437195,9.556819915771484,-0.010400000028312206,0.003000000026077032,-0.2644999921321869,-0.021000000237532696,0.05499999823992851,0.0539999991814898
-0.061368178576231,0.06559155136346817,9.564519882202148,-0.010300000198185444,0.0030999998562037945,-0.2547000050544739,-0.021000000237532696,-0.004999999877891834,-0.006000000186975531
-0.06482540816068649,0.061368178576231,9.576059341430664,-0.010300000198185444,0.0030999998562037945,-0.24489998817443848,-0.021000000237532696,0.05499999823992851,-0.06700000028140622
-0.059539008885622025,0.0643274113535881,9.567527770996094,-0.010099999606609344,0.0031999999191612005,-0.24489998817443848,0.09999999922536333,-0.004999999877891834,-0.004999999877891834
-0.0517817959189415,0.0521361343562603,9.56983470916748,-0.00039999998989515007,-0.006799999624490738,-0.24489998817443848,-0.021000000237532696,0.05499999823992851,-0.006000000186975531
-0.04969405010342598,0.05157110467553139,9.567785263061523,-0.00019999999494757503,-0.0066999997943639755,-0.24489998817443848,0.03899999996469596,-0.004999999877891834,-0.006000000186975531
-0.052787356078624725,0.07319553196430206,9.570237159729004,-0.00019999999494757503,0.01269999984651804,-0.24489998817443848,-0.021000000237532696,-0.004999999877891834,-0.004999999877891834
-0.046313438564538956,0.0599508099257946,9.57338809967041,0.009499999694526196,0.002899999963119626,-0.24489998817443848,0.03899999996469596,-0.006000000186975531,-0.004999999877891834
-0.0559285506606102,0.0598263144493103,9.585224151611328,-0.00019999999494757503,0.00279999990016222,-0.23510000109672546,-0.021000000237532696,0.0539999991814898,0.05499999823992851
-0.04985685646533966,0.0656394362449646,9.581490516662598,-0.00009999999747378752,0.002899999963119626,-0.23510000109672546,-0.08200000283325337,0.0539999991814898,-0.004999999877891834
-0.05234682559967041,0.0586579404771328,9.58432388305664,0,0.0030999998562037945,-0.23510000109672546,-0.021000000237532696,0.0539999991814898,-0.004999999877891834
-0.05969223752617836,0.06544789671897888,9.587742805480957,-0.009599999524652958,0.0031999999191612005,-0.22529999911785126,0.03899999996469596,-0.06700000028140622,-0.004999999877891834
-0.05366842821240425,0.06729622185230255,9.594379425048828,0,0.012799999676644802,-0.22529999911785126,-0.019999999511567335,0.0539999991814898,-0.004999999877891834
-0.044963106513023376,0.07055233418941498,9.601831436157227,0.00989999994635582,0.012899999506771564,-0.21549999713897705,-0.019999999511567335,-0.006000000186975531,-0.004999999877891834
-0.054041918367147446,0.07496725022792816,9.5951566696167,0,0.012899999506771564,-0.22529999911785126,-0.019999999511567335,-0.006000000186975531,-0.0659999978879142
-0.056742578744888306,0.052595820277929306,9.599177360534668,0,-0.0064999996684491634,-0.21549999713897705,-0.019999999511567335,0.0539999991814898,-0.004999999877891834
-0.04351700842380524,0.06691315025091171,9.59512710571289,0.009999999776482582,0.0031999999191612005,-0.22529999911785126,0.03999999902313467,-0.006000000186975531,-0.004999999877891834
-0.04637089744210243,0.058284446597099304,9.60200309753418,0.00989999994635582,0.0030999998562037945,-0.21549999713897705,-0.019999999511567335,-0.006000000186975531,-0.0659999978879142
-0.035510800778865814,0.05583278089761734,9.599896430969238,-0.009599999524652958,0.0031999999191612005,-0.21549999713897705,-0.019999999511567335,-0.007000000079177565,0.05499999823992851
-0.04926309734582901,0.06927862018346786,9.592771530151367,0.019700000062584877,-0.0064999996684491634,-0.21549999713897705,-0.019999999511567335,0.05300000012305109,-0.0659999978879142
-0.05791094899177551,0.05382165685296059,9.592330932617188,-0.009499999694526196,-0.006399999838322401,-0.22529999911785126,-0.019999999511567335,0.05300000012305109,-0.004999999877891834
-0.05791094899177551,0.05382165685296059,9.592330932617188,-0.009499999694526196,-0.006399999838322401,-0.22529999911785126,-0.019999999511567335,0.05300000012305109,-0.004999999877891834
-0.05746084079146385,0.05120718851685524,9.611589431762695,0.00039999998989515007,0.003399999812245369,-0.21549999713897705,0.03999999902313467,-0.007000000079177565,-0.0039999999856897995
-0.05465483292937279,0.06794743984937668,9.61524772644043,0.00029999998514540493,0.013299999758601189,-0.19589999318122864,-0.019999999511567335,-0.007000000079177565,-0.0039999999856897995
-0.06223009154200554,0.05646485090255737,9.617058753967285,-0.009399999864399433,-0.006199999712407589,-0.19589999318122864,-0.019000000453128628,-0.007000000079177565,-0.06500000216452881
-0.06223009154200554,0.05646485090255737,9.617058753967285,-0.009399999864399433,-0.006199999712407589,-0.19589999318122864,-0.019000000453128628,-0.007000000079177565,-0.06500000216452881
-0.048880018293857574,0.05824613943696022,9.61801528930664,0.00029999998514540493,0.003599999938160181,-0.19589999318122864,0.041000001416626686,-0.007000000079177565,-0.0039999999856897995
-0.06274724006652832,0.06766971945762634,9.623982429504395,-0.009399999864399433,0.013299999758601189,-0.19589999318122864,0.041000001416626686,-0.007000000079177565,-0.0039999999856897995
-0.05808333307504654,0.051647718995809555,9.618331909179688,-0.009399999864399433,-0.006399999838322401,-0.19589999318122864,-0.019000000453128628,-0.007000000079177565,-0.0039999999856897995
-0.07035122066736221,0.056100934743881226,9.613792419433594,-0.019199999049305916,-0.006300000008195639,-0.20569999516010284,-0.019000000453128628,-0.007000000079177565,0.05600000063342052
-0.0600753091275692,0.0531991608440876,9.613974571228027,0.010099999606609344,-0.006199999712407589,-0.18609999120235443,-0.07999999804626934,-0.007000000079177565,0.05600000063342052
-0.05194459855556488,0.05424303561449051,9.6199312210083,0.00029999998514540493,-0.006099999882280827,-0.19589999318122864,-0.019000000453128628,0.05300000012305109,-0.0039999999856897995
-0.049732357263565063,0.06715257465839386,9.617680549621582,0.00039999998989515007,0.013399999588727951,-0.19589999318122864,-0.07999999804626934,0.05200000106461238,-0.0039999999856897995
-0.04783615097403526,0.04154418781399727,9.619403839111328,0.010400000028312206,-0.015599999576807022,-0.19589999318122864,-0.019000000453128628,0.05200000106461238,-0.0039999999856897995
-0.06748775392770767,0.07011180371046066,9.625725746154785,-0.018799999728798866,0.013700000010430813,-0.18609999120235443,-0.019000000453128628,-0.06899999839828364,-0.0039999999856897995
-0.05137956887483597,0.05062299966812134,9.625935554504395,0.0004999999655410647,-0.005699999630451202,-0.18609999120235443,-0.019000000453128628,-0.007999999971379599,-0.0039999999856897995
-0.047309424728155136,0.06175125017762184,9.63155746459961,0.010300000198185444,0.003999999724328518,-0.18609999120235443,-0.019000000453128628,0.05200000106461238,-0.0039999999856897995
-0.05547844246029854,0.05587109178304672,9.622363090515137,0.0005999999702908099,-0.00559999980032444,-0.19589999318122864,-0.019000000453128628,-0.007999999971379599,-0.0039999999856897995
-0.06012319028377533,0.06225882098078728,9.641900062561035,-0.009099999442696571,0.004100000020116568,-0.17629998922348022,-0.019000000453128628,-0.06899999839828364,-0.0039999999856897995
-0.062124744057655334,0.04772122949361801,9.649389266967773,-0.009200000204145908,-0.01529999915510416,-0.1665000021457672,-0.019000000453128628,-0.007999999971379599,-0.0039999999856897995
-0.057451263070106506,0.06265147030353546,9.634363174438477,0.00039999998989515007,0.00419999985024333,-0.17629998922348022,-0.019000000453128628,0.05200000106461238,0.05600000063342052
-0.06395391374826431,0.06549578160047531,9.642417907714844,-0.009099999442696571,0.004299999680370092,-0.17629998922348022,0.04200000047506539,-0.007999999971379599,-0.0030000000934877653
-0.05660850554704666,0.07036080211400986,9.660872459411621,0.0005999999702908099,0.013899999670684338,-0.156700000166893,-0.017999999727163266,-0.007999999971379599,0.057000003026912535
-0.05786306783556938,0.05493256449699402,9.643835067749023,-0.009099999442696571,-0.005499999970197678,-0.17629998922348022,-0.017999999727163266,-0.007999999971379599,-0.0030000000934877653
-0.04926309734582901,0.06506482511758804,9.648154258728027,0.0005999999702908099,0.00419999985024333,-0.1665000021457672,-0.017999999727163266,-0.007999999971379599,-0.06399999977103679
-0.057192690670490265,0.05559336394071579,9.654962539672852,0.0004999999655410647,-0.005399999674409628,-0.156700000166893,-0.017999999727163266,-0.007999999971379599,-0.0030000000934877653
-0.04713704437017441,0.048659756779670715,9.659636497497559,0.010300000198185444,-0.005399999674409628,-0.156700000166893,-0.017999999727163266,-0.007999999971379599,-0.0030000000934877653
-0.04823837801814079,0.04687846824526787,9.657769203186035,0.0004999999655410647,-0.015099999494850636,-0.156700000166893,-0.017999999727163266,0.11299999699022645,-0.0030000000934877653
-0.04383304715156555,0.05527732893824577,9.652454376220703,0.010599999688565731,-0.005200000014156103,-0.1665000021457672,-0.017999999727163266,0.05200000106461238,-0.0030000000934877653
-0.04157291725277901,0.06642472743988037,9.654522895812988,0.010699999518692493,0.0044999998062849045,-0.156700000166893,0.04200000047506539,0.05099999867112037,-0.0030000000934877653
-0.05891651660203934,0.04887044429779053,9.655326843261719,-0.008700000122189522,-0.0052999998442828655,-0.156700000166893,0.04200000047506539,-0.007999999971379599,-0.06399999977103679
-0.04367023706436157,0.058073755353689194,9.664567947387695,-0.018400000408291817,0.004299999680370092,-0.1370999962091446,0.04200000047506539,0.05099999867112037,-0.0030000000934877653
-0.04549941048026085,0.06472006440162659,9.665191650390625,0.010999999940395355,0.00419999985024333,-0.1468999981880188,-0.017999999727163266,-0.008999999863581633,-0.0030000000934877653
-0.06121494993567467,0.0522606335580349,9.674548149108887,0.011099999770522118,0.00419999985024333,-0.1468999981880188,-0.017999999727163266,-0.008999999863581633,-0.0030000000934877653
-0.059366628527641296,0.06097552925348282,9.678397178649902,-0.00839999970048666,-0.005399999674409628,-0.1370999962091446,-0.017999999727163266,-0.008999999863581633,-0.0030000000934877653
-0.061598021537065506,0.05109226703643799,9.682352066040039,-0.00839999970048666,0.004299999680370092,-0.1370999962091446,-0.017999999727163266,-0.008999999863581633,-0.0030000000934877653
-0.0611383356153965,0.06395391374826431,9.678598403930664,-0.00839999970048666,0.004399999976158142,-0.1370999962091446,-0.017999999727163266,-0.008999999863581633,0.057000003026912535
-0.051858410239219666,0.06368576735258102,9.672239303588867,0.0013000000035390258,0.004399999976158142,-0.1468999981880188,0.04200000047506539,-0.07000000079177565,0.057000003026912535
-0.03743573650717735,0.05713523179292679,9.688127517700195,0.020600000396370888,-0.005399999674409628,-0.12729999423027039,0.04200000047506539,-0.008999999863581633,-0.0030000000934877653
-0.05844724923372269,0.0677654892206192,9.686661720275879,-0.008700000122189522,0.0139999995008111,-0.12729999423027039,0.0429999995335041,0.05099999867112037,-0.0030000000934877653
-0.06025726720690727,0.06016149744391441,9.679048538208008,-0.008499999530613422,0.003999999724328518,-0.1370999962091446,0.0429999995335041,-0.008999999863581633,-0.0030000000934877653
-0.05274904891848564,0.06815813481807709,9.676491737365723,0.0011999999405816197,0.013700000010430813,-0.1370999962091446,-0.01700000066872456,0.05099999867112037,-0.0030000000934877653
-0.0489279069006443,0.06324522942304611,9.678837776184082,0.0013000000035390258,0.0038999998942017555,-0.1370999962091446,0.04200000047506539,-0.008999999863581633,-0.0030000000934877653
-0.04246356338262558,0.06805279105901718,9.683310508728027,0.011099999770522118,0.013499999418854713,-0.12719999253749847,-0.01700000066872456,0.05099999867112037,-0.0030000000934877653
-0.05766195431351662,0.05797798931598663,9.684412002563477,-0.008299999870359898,0.003700000001117587,-0.12719999253749847,-0.01700000066872456,0.05099999867112037,-0.06399999977103679
-0.05621585622429848,0.06367618590593338,9.6921968460083,0.0015999999595806003,0.0037999998312443495,-0.11739999800920486,0.0429999995335041,0.05099999867112037,-0.0030000000934877653
-0.05739380419254303,0.06673119217157364,9.693768501281738,0.0016999999061226845,0.003599999938160181,-0.11739999800920486,-0.01700000066872456,-0.008999999863581633,-0.0030000000934877653
-0.06262274086475372,0.05698200315237045,9.694878578186035,-0.007999999448657036,-0.006000000052154064,-0.11739999800920486,-0.01700000066872456,-0.008999999863581633,-0.0030000000934877653
-0.06330269575119019,0.05902186036109924,9.698480606079102,-0.007999999448657036,0.003700000001117587,-0.11739999800920486,0.0429999995335041,0.05099999867112037,-0.0030000000934877653
-0.05291185900568962,0.05919424444437027,9.707615852355957,0.0018999999156221747,0.003599999938160181,-0.10759999603033066,-0.07799999992939192,-0.008999999863581633,0.057000003026912535
-0.056407392024993896,0.050632577389478683,9.70617961883545,0.0017999999690800905,-0.0058999997563660145,-0.10759999603033066,0.0429999995335041,-0.008999999863581633,0.057000003026912535
-0.05634992942214012,0.0634942278265953,9.697876930236816,0.0017999999690800905,0.003700000001117587,-0.11739999800920486,0.0429999995335041,-0.008999999863581633,-0.0019999999928448997
-0.05543055757880211,0.059893347322940826,9.706170082092285,0.0017999999690800905,0.003499999875202775,-0.10759999603033066,0.0429999995335041,-0.008999999863581633,-0.0019999999928448997
-0.06557239592075348,0.06369534134864807,9.703632354736328,-0.007899999618530273,0.003399999812245369,-0.10759999603033066,-0.07799999992939192,0.05099999867112037,-0.0030000000934877653
-0.05136999115347862,0.06498821079730988,9.705366134643555,0.0018999999156221747,0.003599999938160181,-0.10759999603033066,0.0429999995335041,-0.008999999863581633,-0.0030000000934877653
-0.05698200315237045,0.07963114976882935,9.693098068237305,-0.007799999788403511,-0.006199999712407589,-0.11739999800920486,-0.07799999992939192,-0.008999999863581633,-0.0030000000934877653
-0.05698200315237045,0.07963114976882935,9.693098068237305,0.0018999999156221747,0.02319999970495701,-0.11739999800920486,-0.07799999992939192,-0.008999999863581633,-0.0030000000934877653
-0.0447811484336853,0.07629841566085815,9.709799766540527,0.011599999852478504,0.0037999998312443495,-0.11739999800920486,0.0429999995335041,-0.008999999863581633,-0.0019999999928448997
-0.04992389306426048,0.0710790604352951,9.713112831115723,0.011500000022351742,0.013599999248981476,-0.10759999603033066,-0.01700000066872456,-0.008999999863581633,-0.0019999999928448997
-0.053189586848020554,0.06211517006158829,9.71223258972168,0.0016999999061226845,0.003599999938160181,-0.09779999405145645,-0.01700000066872456,-0.009999999755783667,-0.0019999999928448997
-0.04888959974050522,0.05167644843459129,9.721799850463867,0.0015999999595806003,-0.006000000052154064,-0.08799999952316284,-0.07799999992939192,-0.009999999755783667,0.05799999875029794
-0.04334462806582451,0.05477933585643768,9.719443321228027,0.011299999430775642,-0.005799999926239252,-0.09779999405145645,-0.07799999992939192,-0.009999999755783667,-0.0019999999928448997
-0.05276820436120033,0.060429647564888,9.725630760192871,0.001500000013038516,0.004100000020116568,-0.08799999952316284,-0.01700000066872456,-0.07099999651516105,-0.0019999999928448997
-0.06173209846019745,0.05922297388315201,9.72672176361084,-0.008299999870359898,0.004100000020116568,-0.08799999952316284,0.0429999995335041,0.049999999612681666,-0.0019999999928448997
-0.05040273442864418,0.06205770745873451,9.725573539733887,0.001500000013038516,0.003999999724328518,-0.08799999952316284,0.0429999995335041,-0.07099999651516105,-0.0019999999928448997
-0.06354211270809174,0.05930916592478752,9.725831031799316,-0.008299999870359898,0.0037999998312443495,-0.08799999952316284,-0.01700000066872456,-0.009999999755783667,0.05799999875029794
-0.038115691393613815,0.05559336394071579,9.721234321594238,0.020800000056624413,-0.005799999926239252,-0.08799999952316284,-0.01700000066872456,-0.009999999755783667,0.05799999875029794
-0.050910305231809616,0.06651092320680618,9.710288047790527,0.0011999999405816197,0.0038999998942017555,-0.10759999603033066,-0.01700000066872456,-0.009999999755783667,-0.0019999999928448997
-0.05748957023024559,0.06887639313936234,9.71904182434082,-0.008499999530613422,0.013700000010430813,-0.09779999405145645,0.0429999995335041,-0.009999999755783667,-0.0019999999928448997
-0.06829220801591873,0.05033569782972336,9.716924667358398,-0.018199998885393143,-0.0058999997563660145,-0.09779999405145645,-0.01700000066872456,0.049999999612681666,-0.0019999999928448997
-0.05951985716819763,0.055890243500471115,9.728580474853516,-0.008200000040233135,-0.005799999926239252,-0.08799999952316284,-0.01700000066872456,-0.009999999755783667,-0.06299999737754478
-0.06115749105811119,0.05602432042360306,9.733224868774414,-0.008200000040233135,-0.005699999630451202,-0.07819999754428864,-0.01700000066872456,0.049999999612681666,-0.0019999999928448997
-0.04209006577730179,0.07042783498764038,9.732027053833008,0.011399999260902405,0.013700000010430813,-0.07819999754428864,-0.01700000066872456,-0.009999999755783667,0.05799999875029794
-0.05966350436210632,0.06059245765209198,9.738319396972656,-0.008100000210106373,0.0038999998942017555,-0.07819999754428864,-0.01700000066872456,0.049999999612681666,-0.0019999999928448997
-0.06176082789897919,0.051082685589790344,9.744908332824707,-0.007899999618530273,-0.005699999630451202,-0.06839999556541443,0.0429999995335041,0.049999999612681666,-0.0019999999928448997
-0.0629291981458664,0.055344369262456894,9.741881370544434,-0.007699999958276749,-0.005799999926239252,-0.06839999556541443,-0.01700000066872456,0.049999999612681666,-0.0019999999928448997
-0.06604165583848953,0.056100934743881226,9.73886489868164,-0.007499999832361937,-0.005699999630451202,-0.07819999754428864,-0.01700000066872456,-0.009999999755783667,-0.0019999999928448997
-0.045125916600227356,0.05795883387327194,9.739171981811523,0.011899999342858791,0.003999999724328518,-0.07819999754428864,0.0429999995335041,-0.009999999755783667,0.05799999875029794
-0.038517918437719345,0.07287950068712234,9.728934288024902,0.011799999512732029,0.013599999248981476,-0.08799999952316284,-0.01700000066872456,0.049999999612681666,-0.0019999999928448997
-0.05240428447723389,0.05258624628186226,9.732056617736816,0.002099999925121665,-0.025299999862909317,-0.08799999952316284,-0.01700000066872456,0.049999999612681666,-0.06299999737754478
-0.04673481732606888,0.059251703321933746,9.734681129455566,0.002199999988079071,-0.00559999980032444,-0.07819999754428864,0.0429999995335041,-0.009999999755783667,-0.0019999999928448997
-0.054396264255046844,0.06236416473984718,9.735963821411133,0.01209999993443489,0.00419999985024333,-0.07819999754428864,0.0429999995335041,-0.009999999755783667,0.05799999875029794
-0.060918066650629044,0.05514325201511383,9.741307258605957,0.002199999988079071,0.003999999724328518,-0.07819999754428864,-0.01700000066872456,0.049999999612681666,-0.0019999999928448997
-0.05127422511577606,0.051695603877305984,9.750473022460938,-0.007400000002235174,-0.005799999926239252,-0.06839999556541443,0.0429999995335041,0.049999999612681666,-0.0019999999928448997
-0.04701254144310951,0.05363012105226517,9.739401817321777,0.012199999764561653,-0.005699999630451202,-0.07819999754428864,0.0429999995335041,-0.009999999755783667,-0.0019999999928448997
-0.05397488549351692,0.060180652886629105,9.737908363342285,0.0023999998811632395,0.0037999998312443495,-0.07819999754428864,-0.07699999753589991,-0.009999999755783667,0.05799999875029794
-0.05519114062190056,0.04977066442370415,9.747330665588379,0.002300000051036477,-0.00559999980032444,-0.06839999556541443,-0.01700000066872456,-0.009999999755783667,-0.0019999999928448997
-0.044062890112400055,0.06463386863470078,9.7588529586792,0.012000000104308128,0.004100000020116568,-0.04879999905824661,-0.01700000066872456,0.049999999612681666,-0.0019999999928448997
-0.05081453546881676,0.04755842313170433,9.745377540588379,0.002300000051036477,-0.015199999324977398,-0.06839999556541443,-0.07699999753589991,0.049999999612681666,0.05799999875029794
-0.051954176276922226,0.05921339616179466,9.74156665802002,0.0023999998811632395,0.004399999976158142,-0.06839999556541443,-0.015999999942759198,-0.009999999755783667,0.05799999875029794
-0.048305410891771317,0.06438487023115158,9.751267433166504,0.002300000051036477,0.004399999976158142,-0.05859999731183052,-0.01700000066872456,0.11099999887334903,-0.0019999999928448997
-0.04206133633852005,0.05626374110579491,9.755471229553223,0.012299999594688416,-0.005200000014156103,-0.05859999731183052,-0.015999999942759198,-0.009999999755783667,-0.0019999999928448997
-0.05395573005080223,0.058897361159324646,9.74504280090332,0.0024999999441206455,0.0044999998062849045,-0.06839999556541443,-0.07799999992939192,0.049999999612681666,-0.0019999999928448997
-0.05192544683814049,0.06416460126638412,9.745607376098633,0.0026000000070780516,0.004699999932199717,-0.06839999556541443,-0.01700000066872456,-0.009999999755783667,0.05799999875029794
-0.047778692096471786,0.059366628527641296,9.739956855773926,0.012299999594688416,0.004699999932199717,-0.06839999556541443,-0.015999999942759198,-0.009999999755783667,0.05799999875029794
-0.06025726720690727,0.05781518295407295,9.739468574523926,-0.007199999876320362,0.004699999932199717,-0.07819999754428864,-0.01700000066872456,-0.009999999755783667,-0.0019999999928448997
-0.04937801882624626,0.06066907197237015,9.75375747680664,0.0023999998811632395,0.004699999932199717,-0.05859999731183052,-0.07799999992939192,0.049999999612681666,0.05799999875029794
-0.05122634023427963,0.059969961643218994,9.744209289550781,0.0024999999441206455,0.004799999762326479,-0.06839999556541443,0.043999998591942806,0.049999999612681666,-0.0019999999928448997
-0.05210740491747856,0.06485413014888763,9.750452995300293,0.0026000000070780516,0.004600000102072954,-0.05859999731183052,-0.01700000066872456,-0.009999999755783667,-0.06299999737754478
-0.04500141367316246,0.05951985716819763,9.753020286560059,0.012299999594688416,0.004600000102072954,-0.05859999731183052,-0.015999999942759198,-0.07099999651516105,-0.0019999999928448997
-0.061530981212854385,0.055698707699775696,9.754150390625,-0.0072999997064471245,-0.004999999888241291,-0.05859999731183052,-0.015999999942759198,0.049999999612681666,-0.0019999999928448997
-0.06262274086475372,0.062239665538072586,9.749984741210938,-0.0071000000461936,0.004699999932199717,-0.05859999731183052,0.043999998591942806,-0.009999999755783667,0.05799999875029794
-0.05189671739935875,0.07065768539905548,9.759254455566406,0.0024999999441206455,0.0142000000923872,-0.04879999905824661,-0.07699999753589991,0.049999999612681666,-0.0019999999928448997
-0.05583278089761734,0.06179913505911827,9.760173797607422,0.0026000000070780516,0.0044999998062849045,-0.04879999905824661,0.043999998591942806,-0.009999999755783667,-0.0019999999928448997
-0.055373094975948334,0.06431782990694046,9.754188537597656,0.0026000000070780516,-0.01489999983459711,-0.04879999905824661,0.043999998591942806,0.049999999612681666,-0.0019999999928448997
-0.05141787603497505,0.07167281955480576,9.747139930725098,0.0024999999441206455,0.004600000102072954,-0.05859999731183052,-0.015999999942759198,0.049999999612681666,-0.06299999737754478
-0.04914817586541176,0.04839160665869713,9.744583129882812,0.00279999990016222,-0.0052999998442828655,-0.06839999556541443,-0.07799999992939192,0.049999999612681666,0.05799999875029794
-0.04847779497504234,0.049349285662174225,9.740761756896973,0.002899999963119626,-0.004999999888241291,-0.06839999556541443,-0.015999999942759198,-0.07099999651516105,-0.0019999999928448997
-0.05182010307908058,0.06924989074468613,9.73889446258545,0.0026000000070780516,0.014399999752640724,-0.07819999754428864,-0.015999999942759198,-0.009999999755783667,-0.0019999999928448997
-0.04916732758283615,0.04521210491657257,9.74438190460205,0.0026000000070780516,-0.014699999243021011,-0.06839999556541443,-0.015999999942759198,0.11099999887334903,-0.0019999999928448997
-0.04916732758283615,0.04521210491657257,9.74438190460205,0.0026000000070780516,-0.014699999243021011,-0.06839999556541443,-0.015999999942759198,0.11099999887334903,-0.0019999999928448997
-0.059376202523708344,0.0606594942510128,9.749016761779785,-0.0064999996684491634,0.004600000102072954,-0.06839999556541443,-0.010999999647985701,0.04600000004387353,-0.008999999863581633
-0.055248599499464035,0.061808712780475616,9.756573677062988,0.0032999999821186066,0.004600000102072954,-0.05859999731183052,-0.010999999647985701,0.04600000004387353,-0.008999999863581633
-0.05407065153121948,0.05027823522686958,9.75960922241211,0.003399999812245369,-0.004999999888241291,-0.04879999905824661,-0.07199999890865307,0.04600000004387353,-0.008999999863581633
-0.0483437180519104,0.052011638879776,9.752340316772461,0.003499999875202775,-0.004799999762326479,-0.05859999731183052,-0.010999999647985701,-0.0749999994190225,0.05099999867112037
-0.056551042944192886,0.06815813481807709,9.760403633117676,0.0031999999191612005,0.014599999412894249,-0.04879999905824661,-0.010999999647985701,-0.01400000015835513,0.05200000106461238
-0.06189490109682083,0.06671203672885895,9.756535530090332,-0.0064999996684491634,0.004699999932199717,-0.05859999731183052,-0.010999999647985701,-0.01400000015835513,-0.008999999863581633
-0.05211698263883591,0.06481582671403885,9.758392333984375,-0.006399999838322401,0.004699999932199717,-0.04879999905824661,0.04900000055424296,0.04600000004387353,-0.008999999863581633
-0.05144660547375679,0.06688442081212997,9.75361442565918,0.003499999875202775,0.004600000102072954,-0.05859999731183052,-0.010999999647985701,-0.01400000015835513,-0.07000000079177565
-0.04752969369292259,0.07000645250082016,9.754082679748535,0.003499999875202775,0.004600000102072954,-0.05859999731183052,-0.010999999647985701,-0.01400000015835513,-0.007999999971379599
-0.06479667872190475,0.050441041588783264,9.758009910583496,-0.006399999838322401,-0.0050999997183680534,-0.05859999731183052,-0.010999999647985701,-0.01400000015835513,-0.008999999863581633
-0.06060203164815903,0.05611051246523857,9.751066207885742,-0.006399999838322401,-0.004999999888241291,-0.05859999731183052,-0.010999999647985701,-0.01400000015835513,-0.008999999863581633
-0.04880340397357941,0.06758352369070053,9.753106117248535,0.0032999999821186066,0.014299999922513962,-0.05859999731183052,0.04900000055424296,0.04600000004387353,-0.008999999863581633
-0.06924989074468613,0.06419333815574646,9.752368927001953,-0.01589999906718731,0.004299999680370092,-0.05859999731183052,0.04900000055424296,0.1070000026395942,-0.007999999971379599
-0.06269935518503189,0.06017107889056206,9.750175476074219,-0.005699999630451202,0.004100000020116568,-0.05859999731183052,-0.07199999890865307,0.1070000026395942,0.05099999867112037
-0.04776911064982414,0.05898355320096016,9.75202465057373,0.013899999670684338,0.00419999985024333,-0.05859999731183052,-0.010999999647985701,-0.01400000015835513,-0.06899999839828364
-0.05658935010433197,0.06168421357870102,9.752636909484863,0.003999999724328518,0.00419999985024333,-0.05859999731183052,-0.010999999647985701,0.04600000004387353,-0.008999999863581633
-0.04509718343615532,0.07236234843730927,9.759360313415527,0.013700000010430813,0.013799999840557575,-0.04879999905824661,-0.010999999647985701,0.04600000004387353,0.05200000106461238
-0.06089891493320465,0.07988014072179794,9.763237953186035,-0.00559999980032444,0.02329999953508377,-0.04879999905824661,-0.010999999647985701,-0.13600000534979648,-0.008999999863581633
-0.05090072751045227,0.06346549838781357,9.752110481262207,0.003700000001117587,0.003700000001117587,-0.05859999731183052,-0.010999999647985701,0.1070000026395942,-0.008999999863581633
-0.05197333171963692,0.061291564255952835,9.754342079162598,0.0038999998942017555,0.003700000001117587,-0.05859999731183052,0.04900000055424296,-0.01400000015835513,-0.06899999839828364
-0.05797798931598663,0.06787082552909851,9.763497352600098,-0.005799999926239252,0.013100000098347664,-0.04879999905824661,-0.010999999647985701,-0.0749999994190225,-0.007999999971379599
-0.043593622744083405,0.06253654509782791,9.755499839782715,0.013399999588727951,0.0032999999821186066,-0.05859999731183052,-0.010999999647985701,-0.01400000015835513,-0.007999999971379599
-0.0471561960875988,0.06132987141609192,9.75490665435791,0.013199999928474426,0.0032999999821186066,-0.05859999731183052,-0.010999999647985701,-0.01400000015835513,-0.008999999863581633
-0.044091615825891495,0.057049039751291275,9.761552810668945,0.012899999506771564,-0.006300000008195639,-0.04879999905824661,-0.010999999647985701,0.04600000004387353,-0.008999999863581633
-0.04363192990422249,0.05575616657733917,9.753718376159668,0.012899999506771564,-0.006199999712407589,-0.05859999731183052,-0.010999999647985701,0.04600000004387353,-0.008999999863581633
-0.05543055757880211,0.04421611875295639,9.754868507385254,0.0031999999191612005,-0.015799999237060547,-0.05859999731183052,-0.010999999647985701,-0.01400000015835513,-0.007999999971379599
-0.06182786449790001,0.06786125153303146,9.757157325744629,-0.0064999996684491634,0.013399999588727951,-0.05859999731183052,-0.010999999647985701,0.04600000004387353,-0.06899999839828364
-0.04269340634346008,0.05678088590502739,9.7454833984375,0.012999999336898327,-0.006000000052154064,-0.06839999556541443,-0.010999999647985701,-0.01400000015835513,-0.008999999863581633
-0.06094679981470108,0.05846640467643738,9.753662109375,-0.0064999996684491634,0.003700000001117587,-0.05859999731183052,-0.07199999890865307,0.04600000004387353,-0.007999999971379599
-0.061971515417099,0.05374504253268242,9.745301246643066,-0.006300000008195639,-0.005799999926239252,-0.06839999556541443,-0.07199999890865307,0.04600000004387353,-0.007999999971379599
-0.061224523931741714,0.060745686292648315,9.74606704711914,-0.006099999882280827,0.004100000020116568,-0.06839999556541443,-0.010999999647985701,-0.01400000015835513,-0.007999999971379599
-0.050891149789094925,0.0603051520884037,9.758517265319824,0.003499999875202775,0.003999999724328518,-0.05859999731183052,0.04900000055424296,-0.01400000015835513,-0.008999999863581633
-0.04630386084318161,0.06307285279035568,9.76810359954834,0.003499999875202775,0.013499999418854713,-0.05859999731183052,-0.010999999647985701,-0.01400000015835513,-0.007999999971379599
-0.06334099918603897,0.05606262758374214,9.75899600982666,-0.006199999712407589,-0.0058999997563660145,-0.04879999905824661,0.04900000055424296,-0.01400000015835513,-0.007999999971379599
-0.06995857506990433,0.049349285662174225,9.751909255981445,-0.01589999906718731,-0.006000000052154064,-0.05859999731183052,-0.07199999890865307,-0.01400000015835513,-0.007999999971379599
-0.050891149789094925,0.054616525769233704,9.762223243713379,0.003599999938160181,-0.005699999630451202,-0.04879999905824661,0.04900000055424296,-0.01400000015835513,-0.06899999839828364
-0.07245812565088272,0.06306327134370804,9.75877571105957,-0.015699999406933784,0.0037999998312443495,-0.04879999905824661,0.04900000055424296,0.04600000004387353,0.05200000106461238
-0.04597824811935425,0.05922297388315201,9.7694730758667,0.013499999418854713,0.003599999938160181,-0.039000000804662704,0.10999999647985702,-0.01400000015835513,-0.007999999971379599
-0.04170699417591095,0.07039910554885864,9.751219749450684,0.013299999758601189,0.012999999336898327,-0.05859999731183052,-0.010999999647985701,0.04600000004387353,-0.007999999971379599
-0.05405149981379509,0.06467217206954956,9.759034156799316,0.003599999938160181,0.0031999999191612005,-0.04879999905824661,-0.010999999647985701,0.04600000004387353,-0.008999999863581633
-0.05379292368888855,0.06629065424203873,9.755970001220703,0.003599999938160181,0.0031999999191612005,-0.04879999905824661,-0.010999999647985701,-0.0749999994190225,-0.007999999971379599
-0.0509486123919487,0.05348646640777588,9.750367164611816,0.003399999812245369,-0.006399999838322401,-0.05859999731183052,-0.07199999890865307,0.1070000026395942,-0.007999999971379599
-0.045298296958208084,0.053926996886730194,9.766016006469727,0.013299999758601189,-0.006099999882280827,-0.04879999905824661,-0.010999999647985701,-0.01400000015835513,-0.007999999971379599
-0.044848185032606125,0.06433699280023575,9.770066261291504,0.013100000098347664,0.003499999875202775,-0.039000000804662704,0.04900000055424296,-0.13600000534979648,-0.007999999971379599
-0.054798487573862076,0.05161898955702782,9.77405071258545,0.00279999990016222,-0.006199999712407589,-0.039000000804662704,0.04900000055424296,0.04600000004387353,-0.007999999971379599
-0.05352477356791496,0.05885905399918556,9.763879776000977,0.002899999963119626,0.0032999999821186066,-0.04879999905824661,-0.07199999890865307,-0.01400000015835513,-0.007999999971379599
-0.06070737913250923,0.06769844889640808,9.772029876708984,-0.0066999997943639755,0.013100000098347664,-0.039000000804662704,0.04900000055424296,-0.19699999794035722,-0.06899999839828364
-0.043900080025196075,0.07250600308179855,9.766054153442383,-0.0066999997943639755,0.013100000098347664,-0.039000000804662704,0.04900000055424296,-0.01400000015835513,-0.007999999971379599
-0.03829764947295189,0.04435976967215538,9.775545120239258,0.02149999886751175,-0.01640000008046627,-0.039000000804662704,0.04900000055424296,-0.0749999994190225,-0.007999999971379599
-0.042147524654865265,0.058543018996715546,9.775343894958496,0.01119999960064888,0.002899999963119626,-0.039000000804662704,-0.010999999647985701,0.04600000004387353,-0.007999999971379599
-0.046763546764850616,0.05886863172054291,9.773064613342285,0.01119999960064888,0.002899999963119626,-0.039000000804662704,-0.07199999890865307,-0.0749999994190225,0.05200000106461238
-0.04969405010342598,0.05710649862885475,9.76374626159668,0.0011999999405816197,-0.0064999996684491634,-0.04879999905824661,-0.07199999890865307,0.04600000004387353,-0.007999999971379599
-0.043181825429201126,0.05786306783556938,9.768725395202637,0.010900000110268593,0.0032999999821186066,-0.039000000804662704,-0.010999999647985701,-0.01400000015835513,-0.007999999971379599
-0.05623500794172287,0.049914319068193436,9.756017684936523,0.0010999999940395355,-0.006300000008195639,-0.05859999731183052,-0.010999999647985701,0.04600000004387353,-0.007999999971379599
-0.053754616528749466,0.044177811592817307,9.759809494018555,0.0011999999405816197,-0.015799999237060547,-0.04879999905824661,-0.010999999647985701,0.04600000004387353,0.05200000106461238
-0.05056554079055786,0.05816952511668205,9.760969161987305,0.0013000000035390258,0.003700000001117587,-0.04879999905824661,-0.010999999647985701,-0.01400000015835513,-0.007999999971379599
-0.05556463077664375,0.06570647656917572,9.768802642822266,0.0011999999405816197,0.003599999938160181,-0.039000000804662704,-0.07199999890865307,-0.0749999994190225,-0.007999999971379599
-0.07105990499258041,0.06052541732788086,9.764042854309082,-0.018199998885393143,0.0037999998312443495,-0.04879999905824661,-0.010999999647985701,0.1070000026395942,-0.007999999971379599
-0.04874594509601593,0.06362830102443695,9.768438339233398,0.001500000013038516,0.0037999998312443495,-0.039000000804662704,0.04900000055424296,-0.01400000015835513,-0.007999999971379599
-0.05952943116426468,0.06401137262582779,9.768027305603027,-0.008100000210106373,0.003599999938160181,-0.04879999905824661,0.04900000055424296,-0.01400000015835513,0.05200000106461238
-0.053285352885723114,0.04950251430273056,9.76242446899414,0.001500000013038516,-0.006199999712407589,-0.04879999905824661,-0.010999999647985701,-0.01400000015835513,-0.007999999971379599
-0.04980897158384323,0.06157886981964111,9.771397590637207,0.001500000013038516,0.003499999875202775,-0.039000000804662704,0.04900000055424296,-0.01400000015835513,0.05200000106461238
-0.0412377305328846,0.05013458430767059,9.770113945007324,0.010999999940395355,-0.006300000008195639,-0.039000000804662704,0.10999999647985702,-0.01400000015835513,-0.008999999863581633
-0.04421611875295639,0.07215166836977005,9.766695022583008,0.0011999999405816197,0.0030999998562037945,-0.039000000804662704,-0.07199999890865307,-0.0749999994190225,-0.007999999971379599
-0.03394978120923042,0.06134902685880661,9.771273612976074,0.010599999688565731,0.012999999336898327,-0.04879999905824661,-0.07199999890865307,0.04600000004387353,-0.007999999971379599
-0.04802768677473068,0.043421242386102676,9.752694129943848,0.0007999999797903001,-0.01599999889731407,-0.05859999731183052,-0.010999999647985701,-0.01400000015835513,-0.007999999971379599
-0.05464525893330574,0.0664534643292427,9.768926620483398,0.0007999999797903001,-0.01599999889731407,-0.05859999731183052,-0.010999999647985701,0.04600000004387353,-0.007999999971379599
-0.04981854930520058,0.05689580738544464,9.767021179199219,0.0007999999797903001,-0.006099999882280827,-0.04879999905824661,-0.010999999647985701,0.04600000004387353,-0.007999999971379599
-0.05582320690155029,0.05938578024506569,9.775506973266602,0.0008999999845400453,0.003499999875202775,-0.039000000804662704,-0.010999999647985701,0.04600000004387353,-0.007999999971379599
-0.04961743578314781,0.06640557944774628,9.7771635055542,0.0009999999310821295,0.003499999875202775,-0.039000000804662704,-0.010999999647985701,-0.01400000015835513,0.05200000106461238
-0.03499365225434303,0.06571605056524277,9.770401954650879,0.02029999904334545,0.003499999875202775,-0.039000000804662704,-0.010999999647985701,-0.01400000015835513,-0.007999999971379599
-0.06002742424607277,0.05931873992085457,9.772729873657227,-0.008899999782443047,0.003499999875202775,-0.039000000804662704,0.04900000055424296,0.04600000004387353,-0.007999999971379599
-0.06473921239376068,0.06316861510276794,9.77322769165039,-0.008700000122189522,0.0032999999821186066,-0.039000000804662704,-0.010999999647985701,0.04600000004387353,-0.007999999971379599
-0.05387911573052406,0.0646817535161972,9.779519081115723,0.0010999999940395355,0.0032999999821186066,-0.029199998825788498,0.04900000055424296,0.04600000004387353,-0.007999999971379599
-0.0579492561519146,0.051695603877305984,9.766887664794922,-0.008299999870359898,-0.0064999996684491634,-0.04879999905824661,-0.010999999647985701,0.04600000004387353,-0.007999999971379599
-0.05225105583667755,0.05329493060708046,9.77366828918457,0.001500000013038516,-0.006399999838322401,-0.039000000804662704,0.04900000055424296,0.04600000004387353,-0.007999999971379599
-0.049847278743982315,0.05712565407156944,9.771235466003418,0.0015999999595806003,-0.006399999838322401,-0.039000000804662704,0.04900000055424296,-0.01400000015835513,-0.007999999971379599
-0.05691496282815933,0.0600753091275692,9.765288352966309,0.001500000013038516,0.0030999998562037945,-0.04879999905824661,-0.010999999647985701,-0.01400000015835513,-0.007999999971379599
-0.0507187694311142,0.06173209846019745,9.762654304504395,0.001500000013038516,0.0030999998562037945,-0.04879999905824661,0.04900000055424296,0.04600000004387353,0.05200000106461238
-0.0586579404771328,0.05290227755904198,9.780964851379395,-0.007899999618530273,-0.006599999964237213,-0.029199998825788498,0.04900000055424296,0.04600000004387353,-0.007999999971379599
-0.05395573005080223,0.05154237523674965,9.76597785949707,0.0018999999156221747,-0.0066999997943639755,-0.04879999905824661,-0.13300000483942703,0.1070000026395942,-0.007999999971379599
-0.060056157410144806,0.06316861510276794,9.757444381713867,-0.007400000002235174,0.003399999812245369,-0.05859999731183052,-0.010999999647985701,0.04600000004387353,0.05200000106461238
-0.05454949289560318,0.05844724923372269,9.77120590209961,0.0023999998811632395,0.003399999812245369,-0.039000000804662704,-0.07199999890865307,0.04600000004387353,-0.007999999971379599
-0.05519114062190056,0.056196700781583786,9.760173797607422,0.0024999999441206455,-0.006000000052154064,-0.04879999905824661,0.04900000055424296,0.04600000004387353,-0.007999999971379599
-0.040107667446136475,0.06504566967487335,9.777641296386719,0.012199999764561653,0.003499999875202775,-0.039000000804662704,-0.010999999647985701,0.04600000004387353,-0.007999999971379599
-0.05599559098482132,0.06411672383546829,9.77600383758545,0.0024999999441206455,0.003399999812245369,-0.039000000804662704,-0.07199999890865307,0.04600000004387353,-0.007999999971379599
-0.06703764945268631,0.061100028455257416,9.780343055725098,-0.016599999740719795,0.003599999938160181,-0.029199998825788498,-0.010999999647985701,0.1070000026395942,-0.007999999971379599
-0.05990292876958847,0.05042188614606857,9.778982162475586,0.0031999999191612005,-0.006000000052154064,-0.039000000804662704,-0.07199999890865307,-0.01400000015835513,-0.007999999971379599
-0.058140791952610016,0.062431201338768005,9.767280578613281,-0.006399999838322401,-0.005699999630451202,-0.029199998825788498,0.04900000055424296,0.04600000004387353,-0.06899999839828364
-0.03357628732919693,0.06271850317716599,9.768171310424805,-0.006399999838322401,0.0037999998312443495,-0.04879999905824661,-0.010999999647985701,-0.01400000015835513,-0.008999999863581633
-0.05175306275486946,0.05326620116829872,9.777593612670898,0.02279999852180481,0.003599999938160181,-0.04879999905824661,0.04900000055424296,-0.01400000015835513,-0.007999999971379599
-0.04797980189323425,0.05491340905427933,9.768908500671387,0.003000000026077032,-0.006000000052154064,-0.039000000804662704,-0.010999999647985701,0.04600000004387353,0.05200000106461238
-0.052480898797512054,0.06194278597831726,9.771407127380371,0.0030999998562037945,0.003700000001117587,-0.039000000804662704,-0.010999999647985701,0.04600000004387353,-0.007999999971379599
-0.047807417809963226,0.06345592439174652,9.766753196716309,0.012799999676644802,0.003700000001117587,-0.04879999905824661,-0.010999999647985701,-0.01400000015835513,0.05200000106461238
-0.04966532066464424,0.06482540816068649,9.76020336151123,0.002899999963119626,0.003700000001117587,-0.04879999905824661,-0.010999999647985701,-0.01400000015835513,-0.06899999839828364
-0.05347689241170883,0.06398265063762665,9.768458366394043,0.002899999963119626,0.003599999938160181,-0.039000000804662704,-0.010999999647985701,0.1070000026395942,-0.007999999971379599
-0.06336972862482071,0.062239665538072586,9.766887664794922,-0.0064999996684491634,0.003599999938160181,-0.04879999905824661,0.04900000055424296,0.04600000004387353,-0.06899999839828364
-0.05241386592388153,0.06497863680124283,9.766493797302246,0.0032999999821186066,0.003399999812245369,-0.04879999905824661,0.04900000055424296,-0.01400000015835513,-0.007999999971379599
-0.05018246918916702,0.06675034016370773,9.76313304901123,0.0031999999191612005,0.0032999999821186066,-0.04879999905824661,-0.010999999647985701,0.04600000004387353,-0.007999999971379599
-0.05902186036109924,0.05831317603588104,9.767481803894043,-0.006300000008195639,0.0031999999191612005,-0.04879999905824661,-0.010999999647985701,-0.01400000015835513,-0.007999999971379599
-0.06598419696092606,0.05017289146780968,9.772911071777344,-0.006199999712407589,-0.006300000008195639,-0.039000000804662704,-0.010999999647985701,0.1070000026395942,-0.007999999971379599
-0.052758630365133286,0.06550535559654236,9.777996063232422,0.003700000001117587,0.0032999999821186066,-0.029199998825788498,-0.010999999647985701,-0.01400000015835513,-0.007999999971379599
-0.05566040053963661,0.053515199571847916,9.77415657043457,0.003599999938160181,-0.006300000008195639,-0.039000000804662704,0.04900000055424296,0.04600000004387353,-0.008999999863581633
-0.05171475559473038,0.06379111111164093,9.76663875579834,0.003700000001117587,0.0032999999821186066,-0.04879999905824661,-0.010999999647985701,0.1070000026395942,-0.008999999863581633
-0.05919424444437027,0.07383718341588974,9.765077590942383,-0.005699999630451202,0.012899999506771564,-0.04879999905824661,-0.010999999647985701,0.1070000026395942,-0.007999999971379599
-0.058428097516298294,0.06551493704319,9.775199890136719,-0.0052999998442828655,0.0030999998562037945,-0.039000000804662704,-0.010999999647985701,0.1070000026395942,-0.007999999971379599
-0.046342168003320694,0.0639922246336937,9.769349098205566,0.014299999922513962,0.0030999998562037945,-0.039000000804662704,-0.010999999647985701,0.04600000004387353,-0.007999999971379599
-0.05000050738453865,0.061598021537065506,9.76978874206543,0.0044999998062849045,0.0030999998562037945,-0.039000000804662704,0.04900000055424296,-0.01400000015835513,-0.007999999971379599
-0.05535394325852394,0.06300581246614456,9.768601417541504,0.004399999976158142,0.002899999963119626,-0.039000000804662704,-0.07199999890865307,0.04600000004387353,-0.007999999971379599
-0.04329674690961838,0.0566372349858284,9.76640796661377,0.0142000000923872,-0.0064999996684491634,-0.04879999905824661,-0.010999999647985701,-0.01400000015835513,-0.007999999971379599
-0.05087199807167053,0.07004476338624954,9.762414932250977,0.00419999985024333,0.01249999925494194,-0.04879999905824661,-0.07199999890865307,0.04600000004387353,0.05200000106461238
-0.055392250418663025,0.054492030292749405,9.772833824157715,0.00419999985024333,0.01249999925494194,-0.04879999905824661,-0.07199999890865307,-0.01400000015835513,-0.007999999971379599
-0.05300762504339218,0.057527877390384674,9.765939712524414,0.00419999985024333,0.0031999999191612005,-0.04879999905824661,0.04900000055424296,-0.01400000015835513,-0.007999999971379599
-0.05002924054861069,0.06116706505417824,9.779902458190918,0.003999999724328518,0.003000000026077032,-0.029199998825788498,-0.010999999647985701,0.04600000004387353,-0.06899999839828364
-0.05282566323876381,0.058332327753305435,9.7694730758667,0.003999999724328518,0.003000000026077032,-0.029199998825788498,-0.010999999647985701,-0.01400000015835513,-0.007999999971379599
-0.046198517084121704,0.05371630936861038,9.775602340698242,0.013700000010430813,-0.006599999964237213,-0.039000000804662704,-0.010999999647985701,-0.01400000015835513,-0.07000000079177565
-0.06047753617167473,0.06912539154291153,9.781319618225098,-0.005699999630451202,0.01269999984651804,-0.029199998825788498,-0.010999999647985701,-0.01400000015835513,0.05200000106461238
-0.03962882608175278,0.0543866828083992,9.778772354125977,0.013499999418854713,-0.0066999997943639755,-0.029199998825788498,-0.010999999647985701,-0.0749999994190225,-0.008999999863581633
-0.04711788892745972,0.07349241524934769,9.775459289550781,0.013100000098347664,0.01269999984651804,-0.039000000804662704,-0.13300000483942703,0.04600000004387353,0.05200000106461238
-0.03773261979222298,0.065055251121521,9.779681205749512,0.022599998861551285,0.0031999999191612005,-0.029199998825788498,-0.010999999647985701,0.1070000026395942,-0.07000000079177565
-0.047884032130241394,0.05069003626704216,9.768860816955566,0.0031999999191612005,-0.006399999838322401,-0.039000000804662704,0.10999999647985702,-0.13600000534979648,-0.007999999971379599
-0.06196194142103195,0.06096595525741577,9.762961387634277,-0.006799999624490738,0.003000000026077032,-0.04879999905824661,-0.010999999647985701,-0.01400000015835513,-0.007999999971379599
-0.04458961263298988,0.05990292876958847,9.77027702331543,0.01249999925494194,0.003000000026077032,-0.039000000804662704,0.10999999647985702,0.04600000004387353,-0.007999999971379599
-0.04168783873319626,0.06591715663671494,9.76597785949707,0.01249999925494194,0.0026000000070780516,-0.04879999905824661,0.04900000055424296,0.04600000004387353,-0.008999999863581633
-0.05837063491344452,0.07412447780370712,9.75904369354248,-0.006799999624490738,0.01209999993443489,-0.04879999905824661,-0.07199999890865307,-0.01400000015835513,0.05200000106461238
-0.054329223930835724,0.07447882741689682,9.768352508544922,0.00279999990016222,0.01209999993443489,-0.039000000804662704,-0.07199999890865307,-0.01400000015835513,-0.008999999863581633
-0.057709839195013046,0.0681198239326477,9.768860816955566,-0.006799999624490738,0.01209999993443489,-0.039000000804662704,-0.010999999647985701,0.04600000004387353,-0.007999999971379599
-0.0574704185128212,0.07445009797811508,9.769559860229492,-0.006599999964237213,0.012000000104308128,-0.039000000804662704,0.04900000055424296,-0.01400000015835513,0.05099999867112037
-0.047146622091531754,0.05336196720600128,9.780352592468262,0.012600000016391277,-0.007499999832361937,-0.029199998825788498,-0.010999999647985701,0.04600000004387353,-0.007999999971379599
-0.04791276529431343,0.06031472608447075,9.778905868530273,0.012600000016391277,0.002199999988079071,-0.039000000804662704,-0.010999999647985701,-0.01400000015835513,-0.06899999839828364
-0.05495171621441841,0.05337154492735863,9.779787063598633,0.0026000000070780516,-0.007499999832361937,-0.029199998825788498,-0.010999999647985701,-0.01400000015835513,-0.007999999971379599
-0.06307285279035568,0.06002742424607277,9.770478248596191,-0.00699999975040555,0.002199999988079071,-0.039000000804662704,-0.010999999647985701,-0.01400000015835513,0.05200000106461238
-0.05476018041372299,0.06140648573637009,9.772432327270508,0.0026000000070780516,0.002199999988079071,-0.039000000804662704,-0.010999999647985701,-0.01400000015835513,-0.007999999971379599
-0.051293376833200455,0.06002742424607277,9.757645606994629,0.0026000000070780516,0.002199999988079071,-0.039000000804662704,0.04900000055424296,0.04600000004387353,-0.007999999971379599
-0.05077622830867767,0.06471048295497894,9.772537231445312,0.0026000000070780516,0.001999999862164259,-0.039000000804662704,-0.010999999647985701,-0.0749999994190225,-0.007999999971379599
-0.049847278743982315,0.0634942278265953,9.77774715423584,0.0023999998811632395,0.001999999862164259,-0.039000000804662704,-0.010999999647985701,-0.01400000015835513,-0.007999999971379599
-0.042530596256256104,0.05771941319108009,9.770344734191895,0.012000000104308128,0.001999999862164259,-0.039000000804662704,-0.010999999647985701,-0.01400000015835513,-0.008999999863581633
-0.056148819625377655,0.06430825591087341,9.754714965820312,0.002099999925121665,0.001999999862164259,-0.05859999731183052,-0.010999999647985701,0.04600000004387353,-0.06899999839828364
-0.05081453546881676,0.07232404500246048,9.756438255310059,0.002199999988079071,0.011699999682605267,-0.05859999731183052,-0.010999999647985701,0.04600000004387353,-0.008999999863581633
-0.06977660953998566,0.06418376415967941,9.760298728942871,-0.016999999061226845,0.0018999999156221747,-0.04879999905824661,0.04900000055424296,0.04600000004387353,-0.008999999863581633
-0.052500054240226746,0.06109045073390007,9.753393173217773,0.0026000000070780516,0.0017999999690800905,-0.05859999731183052,0.04900000055424296,-0.01400000015835513,-0.008999999863581633
-0.05776729807257652,0.05898355320096016,9.770574569702148,-0.00699999975040555,0.0015999999595806003,-0.039000000804662704,-0.010999999647985701,-0.01400000015835513,-0.007999999971379599
-0.05680004134774208,0.057901374995708466,9.779882431030273,0.0026000000070780516,0.0015999999595806003,-0.029199998825788498,-0.010999999647985701,-0.01400000015835513,0.05099999867112037
-0.05374504253268242,0.05448245257139206,9.763975143432617,0.0024999999441206455,-0.007999999448657036,-0.04879999905824661,-0.010999999647985701,-0.01400000015835513,0.05099999867112037
-0.06116706505417824,0.07314765453338623,9.777125358581543,-0.0071000000461936,0.011399999260902405,-0.039000000804662704,0.04900000055424296,-0.01400000015835513,-0.008999999863581633
-0.04977066442370415,0.05379292368888855,9.768284797668457,0.0026000000070780516,-0.008100000210106373,-0.04879999905824661,0.04900000055424296,0.04600000004387353,0.05200000106461238
-0.06446148455142975,0.061530981212854385,9.744065284729004,-0.00699999975040555,0.00139999995008111,-0.06839999556541443,-0.010999999647985701,0.04600000004387353,-0.007999999971379599
-0.06350380927324295,0.05917508900165558,9.743232727050781,-0.006799999624490738,0.00139999995008111,-0.06839999556541443,-0.010999999647985701,0.04600000004387353,-0.007999999971379599
-0.04888959974050522,0.05806417763233185,9.744879722595215,0.0030999998562037945,0.00139999995008111,-0.06839999556541443,-0.07199999890865307,-0.01400000015835513,0.05099999867112037
-0.05784391239285469,0.05634992942214012,9.761141777038574,-0.006599999964237213,-0.007999999448657036,-0.04879999905824661,-0.010999999647985701,-0.01400000015835513,-0.008999999863581633
-0.052883125841617584,0.06417418271303177,9.760346412658691,-0.006599999964237213,-0.007899999618530273,-0.04879999905824661,-0.010999999647985701,-0.01400000015835513,-0.008999999863581633
-0.05822698771953583,0.06772717833518982,9.768122673034668,0.0030999998562037945,0.0017999999690800905,-0.04879999905824661,-0.010999999647985701,-0.01400000015835513,-0.007999999971379599
-0.05866751819849014,0.0701405331492424,9.752963066101074,-0.006599999964237213,0.011500000022351742,-0.04879999905824661,-0.07199999890865307,-0.01400000015835513,-0.008999999863581633
-0.04942589998245239,0.06804320961236954,9.745952606201172,0.0031999999191612005,0.011599999852478504,-0.06839999556541443,-0.010999999647985701,0.04600000004387353,-0.008999999863581633
-0.05255751311779022,0.06865613162517548,9.767509460449219,0.0032999999821186066,0.011399999260902405,-0.04879999905824661,0.04900000055424296,-0.01400000015835513,-0.008999999863581633
-0.05549759790301323,0.058523863554000854,9.762290000915527,0.0031999999191612005,0.001500000013038516,-0.04879999905824661,0.04900000055424296,-0.01400000015835513,-0.07000000079177565
-0.05197333171963692,0.06942227482795715,9.76418685913086,0.0031999999191612005,0.010999999940395355,-0.04879999905824661,-0.010999999647985701,-0.01400000015835513,-0.007999999971379599
-0.04408204182982445,0.066721610724926,9.764225006103516,0.012799999676644802,0.0011999999405816197,-0.04879999905824661,-0.010999999647985701,-0.01400000015835513,-0.007999999971379599
-0.05018246918916702,0.06241204962134361,9.742475509643555,0.002899999963119626,0.0011999999405816197,-0.06839999556541443,0.10999999647985702,0.04600000004387353,-0.008999999863581633
-0.04545152559876442,0.06542874127626419,9.755816459655762,0.01269999984651804,0.0008999999845400453,-0.05859999731183052,0.04900000055424296,0.1070000026395942,-0.007999999971379599
-0.04858314245939255,0.05781518295407295,9.76002025604248,0.0031999999191612005,0.0007999999797903001,-0.04879999905824661,0.04900000055424296,-0.01400000015835513,-0.007999999971379599
-0.058763287961483,0.05231809616088867,9.784374237060547,-0.0064999996684491634,-0.008899999782443047,-0.029199998825788498,-0.07199999890865307,-0.0749999994190225,0.05200000106461238
-0.04408204182982445,0.05591897666454315,9.789613723754883,0.01249999925494194,-0.008499999530613422,-0.01939999870955944,-0.010999999647985701,-0.0749999994190225,-0.007999999971379599
-0.06463386863470078,0.06807194650173187,9.778656959533691,-0.00699999975040555,0.010900000110268593,-0.029199998825788498,-0.07199999890865307,0.04600000004387353,0.05200000106461238
-0.057527877390384674,0.05431006848812103,9.728493690490723,-0.006899999920278788,-0.00839999970048666,-0.08799999952316284,-0.010999999647985701,-0.01400000015835513,-0.007999999971379599
-0.046121902763843536,0.054616525769233704,9.78005599975586,0.012399999424815178,-0.008200000040233135,-0.029199998825788498,0.04900000055424296,-0.0749999994190225,-0.007999999971379599
-0.056761734187603,0.05068046227097511,9.75855541229248,0.0023999998811632395,-0.008299999870359898,-0.05859999731183052,-0.010999999647985701,-0.01400000015835513,-0.007999999971379599
-0.053208738565444946,0.07620265334844589,9.739191055297852,0.002300000051036477,0.01119999960064888,-0.07819999754428864,-0.010999999647985701,0.04600000004387353,-0.007999999971379599
-0.05932832136750221,0.05964435264468193,9.776166915893555,-0.007199999876320362,0.00139999995008111,-0.039000000804662704,0.10999999647985702,-0.0749999994190225,-0.007999999971379599
-0.0649307444691658,0.054846372455358505,9.757349014282227,-0.0072999997064471245,-0.008599999360740185,-0.05859999731183052,-0.07199999890865307,0.16800000190026157,-0.06899999839828364
-0.05495171621441841,0.05250963196158409,9.757338523864746,0.00279999990016222,-0.008299999870359898,-0.05859999731183052,0.04900000055424296,0.04600000004387353,-0.06899999839828364
-0.0542621873319149,0.05665638670325279,9.771034240722656,0.002899999963119626,-0.008299999870359898,-0.039000000804662704,0.10999999647985702,0.04600000004387353,-0.007999999971379599
-0.05506663769483566,0.061368178576231,9.753020286560059,0.003499999875202775,0.0013000000035390258,-0.05859999731183052,-0.010999999647985701,0.04600000004387353,-0.007999999971379599
-0.05506663769483566,0.061368178576231,9.753020286560059,0.003499999875202775,0.0013000000035390258,-0.05859999731183052,-0.010999999647985701,0.04600000004387353,-0.007999999971379599
-0.059041015803813934,0.060985106974840164,9.763018608093262,-0.006000000052154064,0.0011999999405816197,-0.04879999905824661,-0.010999999647985701,0.04600000004387353,-0.007999999971379599
-0.059041015803813934,0.060985106974840164,9.763018608093262,-0.006000000052154064,0.0011999999405816197,-0.04879999905824661,-0.010999999647985701,0.04600000004387353,-0.007999999971379599
-0.05535394325852394,0.06915412098169327,9.763190269470215,0.0037999998312443495,0.010900000110268593,-0.04879999905824661,-0.010999999647985701,-0.01400000015835513,-0.008999999863581633
-0.05519114062190056,0.05943366140127182,9.759617805480957,0.0038999998942017555,0.0011999999405816197,-0.04879999905824661,0.04900000055424296,-0.01400000015835513,-0.007999999971379599
-0.065055251121521,0.06160759553313255,9.754188537597656,-0.005699999630451202,0.0009999999310821295,-0.05859999731183052,0.04900000055424296,0.04600000004387353,-0.007999999971379599
-0.065055251121521,0.06160759553313255,9.754188537597656,-0.005699999630451202,0.0009999999310821295,-0.05859999731183052,0.04900000055424296,0.04600000004387353,-0.007999999971379599
-0.05961562320590019,0.06106172129511833,9.75792407989502,-0.005499999970197678,0.0008999999845400453,-0.05859999731183052,0.04900000055424296,-0.01400000015835513,-0.06899999839828364
-0.050603847950696945,0.06419333815574646,9.754629135131836,0.004100000020116568,0.000699999975040555,-0.05859999731183052,-0.010999999647985701,-0.01400000015835513,0.05200000106461238
-0.050603847950696945,0.06419333815574646,9.754629135131836,0.004100000020116568,0.000699999975040555,-0.05859999731183052,-0.010999999647985701,-0.01400000015835513,0.05200000106461238
-0.04710831493139267,0.06222051382064819,9.766149520874023,0.013799999840557575,0.0008999999845400453,-0.04879999905824661,0.04900000055424296,0.04600000004387353,-0.007999999971379599
-0.04900452122092247,0.07413406670093536,9.75894832611084,0.003999999724328518,0.010400000028312206,-0.04879999905824661,0.10999999647985702,-0.01400000015835513,-0.06899999839828364
-0.05363012105226517,0.050584692507982254,9.761245727539062,0.003999999724328518,-0.00930000003427267,-0.04879999905824661,0.04900000055424296,-0.0749999994190225,-0.007999999971379599
-0.055698707699775696,0.0565127357840538,9.761533737182617,0.003999999724328518,-0.00930000003427267,-0.04879999905824661,-0.010999999647985701,-0.01400000015835513,-0.007999999971379599
-0.05022077634930611,0.061530981212854385,9.779336929321289,0.003599999938160181,0.00039999998989515007,-0.029199998825788498,-0.010999999647985701,0.04600000004387353,-0.007999999971379599
-0.04772122949361801,0.07496725022792816,9.765087127685547,0.013399999588727951,0.010099999606609344,-0.04879999905824661,-0.010999999647985701,-0.01400000015835513,0.05099999867112037
-0.05388868972659111,0.053639695048332214,9.774491310119629,0.003499999875202775,-0.009200000204145908,-0.039000000804662704,-0.07199999890865307,-0.01400000015835513,-0.008999999863581633
-0.04767334461212158,0.05670427158474922,9.776148796081543,0.012999999336898327,-0.008899999782443047,-0.039000000804662704,-0.010999999647985701,-0.01400000015835513,-0.007999999971379599
-0.05542098358273506,0.06332184374332428,9.78232479095459,0.0030999998562037945,0.0007999999797903001,-0.029199998825788498,-0.010999999647985701,0.04600000004387353,-0.007999999971379599
-0.05187756195664406,0.061981093138456345,9.766236305236816,0.0031999999191612005,0.0007999999797903001,-0.04879999905824661,-0.07199999890865307,-0.01400000015835513,-0.008999999863581633
-0.05187756195664406,0.061981093138456345,9.766236305236816,0.0030999998562037945,0.0009999999310821295,-0.04879999905824661,-0.010999999647985701,-0.01400000015835513,0.05099999867112037
-0.04921520873904228,0.05941450968384743,9.752809524536133,0.0030999998562037945,0.0009999999310821295,-0.05859999731183052,-0.010999999647985701,0.04600000004387353,-0.007999999971379599
-0.04723281040787697,0.057834334671497345,9.75774097442627,0.012799999676644802,0.0009999999310821295,-0.04879999905824661,0.10999999647985702,-0.01400000015835513,-0.007999999971379599
-0.05766195431351662,0.05644569918513298,9.77187728881836,-0.006799999624490738,-0.008799999952316284,-0.039000000804662704,0.04900000055424296,0.04600000004387353,-0.007999999971379599
-0.05766195431351662,0.05644569918513298,9.77187728881836,-0.006799999624490738,-0.008799999952316284,-0.039000000804662704,0.04900000055424296,0.04600000004387353,-0.007999999971379599
-0.04865017533302307,0.059749700129032135,9.764138221740723,0.003000000026077032,0.0007999999797903001,-0.04879999905824661,-0.010999999647985701,-0.01400000015835513,-0.07000000079177565
-0.05725015327334404,0.06259401142597198,9.769989967346191,0.012600000016391277,0.0007999999797903001,-0.04879999905824661,-0.010999999647985701,-0.01400000015835513,0.05200000106461238
-0.05725015327334404,0.06259401142597198,9.769989967346191,0.00279999990016222,0.0007999999797903001,-0.039000000804662704,-0.010999999647985701,0.04600000004387353,-0.008999999863581633
-0.05523902177810669,0.06758352369070053,9.771551132202148,0.002899999963119626,0.010499999858438969,-0.039000000804662704,0.04900000055424296,-0.01400000015835513,-0.007999999971379599
-0.051954176276922226,0.07377971708774567,9.774663925170898,0.00279999990016222,0.010199999436736107,-0.039000000804662704,0.04900000055424296,-0.01400000015835513,-0.07000000079177565
-0.05803544819355011,0.06121494993567467,9.775142669677734,-0.006799999624490738,0.00029999998514540493,-0.039000000804662704,-0.010999999647985701,-0.01400000015835513,0.05200000106461238
-0.05457821860909462,0.06155013665556908,9.765316009521484,0.00279999990016222,0.00029999998514540493,-0.04879999905824661,-0.07199999890865307,0.04600000004387353,-0.008999999863581633
-0.055267754942178726,0.05607220530509949,9.765632629394531,0.002899999963119626,-0.009099999442696571,-0.04879999905824661,-0.07199999890865307,-0.01400000015835513,-0.008999999863581633
-0.06453809887170792,0.06921158730983734,9.769061088562012,-0.006799999624490738,0.010499999858438969,-0.039000000804662704,0.04900000055424296,-0.0749999994190225,-0.007999999971379599
-0.0560338981449604,0.06358042359352112,9.776732444763184,0.002699999837204814,0.0004999999655410647,-0.039000000804662704,0.04900000055424296,-0.01400000015835513,-0.007999999971379599
-0.06700892001390457,0.05986462160944939,9.767040252685547,0.002699999837204814,-0.009200000204145908,-0.039000000804662704,-0.07199999890865307,0.04600000004387353,0.05200000106461238
-0.06163632869720459,0.05493256449699402,9.76646614074707,-0.006799999624490738,0.000699999975040555,-0.04879999905824661,-0.010999999647985701,0.04600000004387353,-0.007999999971379599
-0.05441541597247124,0.06811024993658066,9.77949047088623,-0.006599999964237213,-0.008899999782443047,-0.04879999905824661,-0.13300000483942703,0.04600000004387353,-0.008999999863581633
-0.0607839934527874,0.06051584333181381,9.757281303405762,-0.0064999996684491634,0.0011999999405816197,-0.05859999731183052,0.04900000055424296,-0.01400000015835513,-0.06899999839828364
-0.03693774342536926,0.06317819654941559,9.781357765197754,0.022299999371170998,0.0009999999310821295,-0.029199998825788498,0.04900000055424296,-0.01400000015835513,0.05200000106461238
-0.054329223930835724,0.0610138364136219,9.766532897949219,0.0026000000070780516,0.0008999999845400453,-0.04879999905824661,-0.010999999647985701,0.04600000004387353,-0.008999999863581633
-0.06379111111164093,0.05826529487967491,9.773801803588867,-0.006799999624490738,0.0008999999845400453,-0.039000000804662704,-0.07199999890865307,0.04600000004387353,-0.007999999971379599
-0.050603847950696945,0.06886681914329529,9.773188591003418,0.003000000026077032,0.010699999518692493,-0.039000000804662704,0.04900000055424296,-0.01400000015835513,-0.007999999971379599
-0.06115749105811119,0.05419514700770378,9.755491256713867,-0.0066999997943639755,-0.008799999952316284,-0.05859999731183052,-0.010999999647985701,-0.01400000015835513,-0.06899999839828364
-0.056292470544576645,0.0588877871632576,9.764578819274902,0.002899999963119626,0.0008999999845400453,-0.04879999905824661,-0.07199999890865307,-0.01400000015835513,-0.007999999971379599
-0.06189490109682083,0.06808152049779892,9.768314361572266,-0.0066999997943639755,0.010799999348819256,-0.04879999905824661,0.04900000055424296,0.04600000004387353,-0.007999999971379599
-0.055957283824682236,0.051504068076610565,9.759273529052734,0.0030999998562037945,-0.008799999952316284,-0.04879999905824661,-0.07199999890865307,-0.01400000015835513,-0.008999999863581633
-0.047261543571949005,0.060037001967430115,9.766647338867188,0.01269999984651804,0.0011999999405816197,-0.04879999905824661,0.04900000055424296,0.04600000004387353,-0.007999999971379599
-0.057499147951602936,0.0628046989440918,9.761245727539062,-0.006599999964237213,0.0009999999310821295,-0.04879999905824661,-0.07199999890865307,0.04600000004387353,-0.008999999863581633
-0.047596730291843414,0.060841452330350876,9.774950981140137,0.012799999676644802,0.0011999999405816197,-0.039000000804662704,0.04900000055424296,-0.01400000015835513,-0.008999999863581633
-0.04599740356206894,0.052500054240226746,9.773801803588867,0.012600000016391277,-0.008499999530613422,-0.039000000804662704,-0.07199999890865307,-0.0749999994190225,-0.008999999863581633
-0.05815037339925766,0.05760449171066284,9.775334358215332,-0.00699999975040555,0.00139999995008111,-0.039000000804662704,-0.010999999647985701,0.04600000004387353,-0.007999999971379599
-0.04545152559876442,0.058025870472192764,9.777910232543945,0.012399999424815178,0.00139999995008111,-0.039000000804662704,0.04900000055424296,-0.0749999994190225,-0.008999999863581633
-0.05905058979988098,0.05956773832440376,9.786883354187012,-0.0071000000461936,0.0013000000035390258,-0.029199998825788498,0.04900000055424296,-0.13600000534979648,-0.008999999863581633
-0.05266286060214043,0.05453033745288849,9.784126281738281,0.002199999988079071,-0.00839999970048666,-0.029199998825788498,-0.010999999647985701,-0.01400000015835513,-0.008999999863581633
-0.044062890112400055,0.05582320690155029,9.774846076965332,0.011799999512732029,-0.008299999870359898,-0.039000000804662704,-0.010999999647985701,-0.0749999994190225,0.05099999867112037
-0.04675397276878357,0.05996038764715195,9.7756986618042,0.011399999260902405,0.001500000013038516,-0.039000000804662704,-0.010999999647985701,-0.0749999994190225,-0.008999999863581633
-0.060084883123636246,0.05196375399827957,9.781367301940918,-0.008200000040233135,-0.008100000210106373,-0.029199998825788498,-0.010999999647985701,0.04600000004387353,0.05099999867112037
-0.05798756331205368,0.04748180881142616,9.780208587646484,-0.007899999618530273,-0.017500000074505806,-0.029199998825788498,-0.010999999647985701,-0.01400000015835513,-0.008999999863581633
-0.05352477356791496,0.0579492561519146,9.766226768493652,-0.007799999788403511,0.001999999862164259,-0.039000000804662704,-0.010999999647985701,0.1070000026395942,-0.008999999863581633
-0.05352477356791496,0.0579492561519146,9.766226768493652,0.001999999862164259,0.001999999862164259,-0.04879999905824661,-0.010999999647985701,0.1070000026395942,-0.008999999863581633
-0.0521361343562603,0.05712565407156944,9.765700340270996,0.002199999988079071,-0.007599999662488699,-0.04879999905824661,-0.010999999647985701,-0.01400000015835513,-0.008999999863581633
-0.047568000853061676,0.059653930366039276,9.777527809143066,0.0023999998811632395,-0.007599999662488699,-0.04879999905824661,0.04900000055424296,-0.01400000015835513,-0.008999999863581633
-0.05546886473894119,0.056771308183670044,9.772221565246582,0.002099999925121665,-0.007699999958276749,-0.039000000804662704,-0.010999999647985701,-0.01400000015835513,0.05099999867112037
-0.05654146522283554,0.07257304340600967,9.778791427612305,0.001999999862164259,0.011599999852478504,-0.029199998825788498,0.04900000055424296,-0.01400000015835513,0.05099999867112037
-0.04997177794575691,0.05649358406662941,9.773695945739746,0.0018999999156221747,-0.007899999618530273,-0.039000000804662704,0.04900000055424296,-0.01400000015835513,-0.007999999971379599
-0.053994037210941315,0.06642472743988037,9.792332649230957,0.0017999999690800905,0.0015999999595806003,-0.01939999870955944,-0.010999999647985701,-0.01400000015835513,-0.008999999863581633
-0.05926128104329109,0.06322608143091202,9.779576301574707,-0.007799999788403511,0.0015999999595806003,-0.029199998825788498,-0.07199999890865307,-0.0749999994190225,-0.008999999863581633
-0.04683058708906174,0.054089806973934174,9.789813995361328,0.011299999430775642,-0.007699999958276749,-0.01939999870955944,-0.010999999647985701,-0.01400000015835513,-0.008999999863581633
-0.04153461009263992,0.06010403856635094,9.774462699890137,0.011099999770522118,0.001999999862164259,-0.039000000804662704,-0.010999999647985701,0.04600000004387353,-0.008999999863581633
-0.05102522671222687,0.05940493568778038,9.771646499633789,0.00139999995008111,0.001999999862164259,-0.039000000804662704,-0.010999999647985701,-0.01400000015835513,-0.008999999863581633
-0.04193683713674545,0.07459375262260437,9.789613723754883,0.010900000110268593,0.011599999852478504,-0.01939999870955944,-0.010999999647985701,-0.01400000015835513,0.05099999867112037
-0.048382025212049484,0.06522762775421143,9.770172119140625,0.0009999999310821295,0.0016999999061226845,-0.039000000804662704,0.04900000055424296,-0.01400000015835513,-0.008999999863581633
-0.05061342194676399,0.06288131326436996,9.781099319458008,0.0009999999310821295,0.0015999999595806003,-0.029199998825788498,-0.010999999647985701,0.1070000026395942,-0.008999999863581633
-0.05760449171066284,0.057834334671497345,9.77469253540039,-0.008299999870359898,0.0015999999595806003,-0.039000000804662704,-0.07199999890865307,-0.01400000015835513,-0.008999999863581633
-0.03595133125782013,0.06838797777891159,9.780323028564453,0.020600000396370888,0.011399999260902405,-0.029199998825788498,-0.010999999647985701,-0.01400000015835513,-0.007999999971379599
-0.053448159247636795,0.07324341684579849,9.773150444030762,0.0008999999845400453,0.011299999430775642,-0.039000000804662704,0.04900000055424296,-0.0749999994190225,-0.008999999863581633
-0.0528448186814785,0.06520847976207733,9.776023864746094,0.0007999999797903001,0.0013000000035390258,-0.039000000804662704,-0.07199999890865307,0.04600000004387353,0.05099999867112037
-0.046150632202625275,0.053285352885723114,9.76242446899414,0.010599999688565731,-0.008100000210106373,-0.04879999905824661,-0.010999999647985701,-0.01400000015835513,-0.07000000079177565
-0.05681919306516647,0.06585970520973206,9.775525093078613,0.000699999975040555,0.0015999999595806003,-0.039000000804662704,-0.010999999647985701,-0.01400000015835513,-0.008999999863581633
-0.050747498869895935,0.05492299050092697,9.77927017211914,0.000699999975040555,-0.007899999618530273,-0.029199998825788498,0.04900000055424296,0.04600000004387353,0.05099999867112037
-0.050603847950696945,0.0779743567109108,9.783445358276367,0.0007999999797903001,0.020899999886751175,-0.029199998825788498,-0.010999999647985701,0.04600000004387353,-0.008999999863581633
-0.047022122889757156,0.05850471183657646,9.770880699157715,0.0008999999845400453,-0.008299999870359898,-0.039000000804662704,-0.07199999890865307,-0.01400000015835513,-0.008999999863581633
-0.043469127267599106,0.06423164159059525,9.770852088928223,0.010499999858438969,0.0015999999595806003,-0.039000000804662704,-0.07199999890865307,0.04600000004387353,0.05099999867112037
-0.06382941454648972,0.0636187270283699,9.780783653259277,0.010499999858438969,0.0016999999061226845,-0.039000000804662704,-0.010999999647985701,-0.01400000015835513,0.05099999867112037
-0.048449065536260605,0.062498241662979126,9.773917198181152,-0.008700000122189522,0.0018999999156221747,-0.029199998825788498,-0.010999999647985701,0.04600000004387353,-0.07000000079177565
-0.036794088780879974,0.06523720920085907,9.765374183654785,0.020399998873472214,0.0018999999156221747,-0.04879999905824661,-0.010999999647985701,-0.01400000015835513,0.05099999867112037
-0.04656243696808815,0.062239665538072586,9.76516342163086,0.010400000028312206,0.0018999999156221747,-0.04879999905824661,-0.010999999647985701,-0.01400000015835513,-0.008999999863581633
-0.05231809616088867,0.06076483801007271,9.758584022521973,0.0005999999702908099,0.0018999999156221747,-0.05859999731183052,0.04900000055424296,-0.01400000015835513,-0.008999999863581633
-0.04537491127848625,0.06510313600301743,9.76210880279541,0.010199999436736107,0.0017999999690800905,-0.04879999905824661,0.04900000055424296,-0.01400000015835513,-0.008999999863581633
-0.051312532275915146,0.06272808462381363,9.755682945251465,0.00039999998989515007,0.0015999999595806003,-0.05859999731183052,0.04900000055424296,-0.01400000015835513,-0.007999999971379599
-0.05017289146780968,0.060439229011535645,9.766427993774414,0.00029999998514540493,0.00139999995008111,-0.04879999905824661,0.04900000055424296,-0.01400000015835513,-0.007999999971379599
-0.047884032130241394,0.05906016752123833,9.774577140808105,0.00029999998514540493,0.0013000000035390258,-0.039000000804662704,-0.07199999890865307,0.04600000004387353,0.05099999867112037
-0.06534255295991898,0.05287355184555054,9.777326583862305,-0.009099999442696571,-0.008100000210106373,-0.039000000804662704,0.04900000055424296,-0.01400000015835513,-0.07000000079177565
-0.056196700781583786,0.05277778208255768,9.762520790100098,0.0004999999655410647,-0.008100000210106373,-0.04879999905824661,-0.010999999647985701,-0.01400000015835513,-0.008999999863581633
-0.05103480443358421,0.061626750975847244,9.772088050842285,0.0004999999655410647,0.0015999999595806003,-0.039000000804662704,-0.010999999647985701,0.1070000026395942,-0.008999999863581633
-0.040414124727249146,0.05684792250394821,9.769290924072266,0.010400000028312206,-0.007999999448657036,-0.039000000804662704,0.04900000055424296,-0.01400000015835513,-0.008999999863581633
-0.0637432262301445,0.04935886338353157,9.764128684997559,-0.009099999442696571,-0.007999999448657036,-0.04879999905824661,-0.010999999647985701,-0.01400000015835513,-0.008999999863581633
-0.05566997826099396,0.06763140857219696,9.774826049804688,0.0005999999702908099,0.011299999430775642,-0.039000000804662704,-0.010999999647985701,0.04600000004387353,-0.008999999863581633
-0.04992389306426048,0.06869443506002426,9.764349937438965,0.000699999975040555,0.01119999960064888,-0.04879999905824661,0.17100000241063099,-0.0749999994190225,0.05099999867112037
-0.054013192653656006,0.0686178207397461,9.76651382446289,0.0004999999655410647,0.010599999688565731,-0.04879999905824661,-0.07199999890865307,0.04600000004387353,-0.008999999863581633
-0.04938759282231331,0.06416460126638412,9.774596214294434,0.0005999999702908099,0.0008999999845400453,-0.039000000804662704,-0.010999999647985701,-0.01400000015835513,-0.008999999863581633
-0.05706819146871567,0.06909666210412979,9.762127876281738,0.0004999999655410647,0.010599999688565731,-0.04879999905824661,-0.010999999647985701,-0.0749999994190225,0.05099999867112037
-0.052691590040922165,0.05443457141518593,9.770669937133789,0.00029999998514540493,-0.008799999952316284,-0.05859999731183052,-0.07199999890865307,0.1070000026395942,-0.008999999863581633
-0.051810525357723236,0.05701073259115219,9.770133972167969,0.0004999999655410647,-0.008599999360740185,-0.039000000804662704,-0.07199999890865307,-0.0749999994190225,-0.008999999863581633
-0.0710982158780098,0.06504566967487335,9.762242317199707,-0.018699999898672104,0.0015999999595806003,-0.04879999905824661,-0.010999999647985701,-0.01400000015835513,-0.07000000079177565
-0.037071820348501205,0.056771308183670044,9.777364730834961,0.020099999383091927,-0.007999999448657036,-0.039000000804662704,-0.010999999647985701,0.04600000004387353,-0.008999999863581633
-0.043967120349407196,0.06734410673379898,9.789374351501465,0.010199999436736107,0.011299999430775642,-0.01939999870955944,-0.010999999647985701,0.04600000004387353,0.05099999867112037
-0.0514274537563324,0.07098329067230225,9.781923294067383,0.0004999999655410647,0.011099999770522118,-0.029199998825788498,-0.010999999647985701,0.04600000004387353,-0.008999999863581633
-0.051666874438524246,0.060889340937137604,9.77126407623291,0.0005999999702908099,0.0013000000035390258,-0.039000000804662704,-0.010999999647985701,-0.01400000015835513,0.05099999867112037
-0.06431782990694046,0.07218039035797119,9.766629219055176,-0.008999999612569809,0.010999999940395355,-0.04879999905824661,0.04900000055424296,-0.01400000015835513,0.05099999867112037
-0.05046019330620766,0.06440402567386627,9.762798309326172,0.000699999975040555,0.0010999999940395355,-0.04879999905824661,0.04900000055424296,-0.0749999994190225,-0.008999999863581633
-0.048286259174346924,0.06429868191480637,9.769865036010742,0.0004999999655410647,0.0008999999845400453,-0.039000000804662704,-0.07199999890865307,0.16800000190026157,-0.008999999863581633
-0.049943044781684875,0.05462610721588135,9.770421028137207,0.0008999999845400453,-0.008499999530613422,-0.039000000804662704,0.04900000055424296,-0.0749999994190225,0.05099999867112037
-0.05751830339431763,0.06698976457118988,9.762453079223633,-0.008899999782443047,0.0010999999940395355,-0.04879999905824661,0.04900000055424296,-0.0749999994190225,-0.008999999863581633
-0.04891832917928696,0.049253515899181366,9.768141746520996,0.0005999999702908099,-0.008700000122189522,-0.04879999905824661,-0.07199999890865307,-0.01400000015835513,-0.008999999863581633
-0.053237468004226685,0.06821559369564056,9.775630950927734,0.0005999999702908099,0.010900000110268593,-0.039000000804662704,0.04900000055424296,0.04600000004387353,-0.008999999863581633
-0.050038814544677734,0.06006573140621185,9.772604942321777,0.000699999975040555,0.0008999999845400453,-0.039000000804662704,-0.07199999890865307,0.04600000004387353,0.05099999867112037
-0.06045838072896004,0.06359957158565521,9.776033401489258,-0.008799999952316284,0.0010999999940395355,-0.039000000804662704,-0.010999999647985701,0.04600000004387353,-0.008999999863581633
-0.0501154288649559,0.0622013583779335,9.773619651794434,0.0010999999940395355,0.0010999999940395355,-0.039000000804662704,-0.010999999647985701,-0.01400000015835513,-0.008999999863581633
-0.03847961127758026,0.06051584333181381,9.776588439941406,0.010699999518692493,0.0010999999940395355,-0.039000000804662704,0.04900000055424296,-0.01400000015835513,0.05099999867112037
-0.045844174921512604,0.05765237659215927,9.768237113952637,0.010499999858438969,0.0009999999310821295,-0.04879999905824661,0.04900000055424296,-0.01400000015835513,-0.008999999863581633
-0.051906291395425797,0.058073755353689194,9.778331756591797,0.0005999999702908099,0.0007999999797903001,-0.029199998825788498,0.04900000055424296,-0.01400000015835513,-0.008999999863581633
-0.054683566093444824,0.05775772035121918,9.763927459716797,0.010300000198185444,0.010300000198185444,-0.039000000804662704,-0.010999999647985701,0.04600000004387353,0.05099999867112037
-0.054683566093444824,0.05775772035121918,9.763927459716797,0,0.00039999998989515007,-0.04879999905824661,-0.010999999647985701,0.04600000004387353,0.05099999867112037
-0.06239289417862892,0.06750690937042236,9.770362854003906,0.00019999999494757503,0.00039999998989515007,-0.039000000804662704,-0.07199999890865307,-0.01400000015835513,-0.07000000079177565
-0.054635681211948395,0.0625748559832573,9.764713287353516,-0.009599999524652958,0.00989999994635582,-0.039000000804662704,-0.07199999890865307,-0.01400000015835513,0.05099999867112037
-0.05512410029768944,0.07040868699550629,9.770028114318848,0,0.010099999606609344,-0.039000000804662704,0.04900000055424296,-0.01400000015835513,-0.008999999863581633
-0.054846372455358505,0.043277591466903687,9.772958755493164,0,0.010099999606609344,-0.039000000804662704,-0.07199999890865307,0.04600000004387353,-0.008999999863581633
-0.039398983120918274,0.06097552925348282,9.776196479797363,0.009800000116229057,0.0005999999702908099,-0.039000000804662704,-0.010999999647985701,-0.01400000015835513,-0.008999999863581633
-0.058428097516298294,0.06132029369473457,9.762903213500977,-0.00969999935477972,0.0005999999702908099,-0.04879999905824661,-0.010999999647985701,-0.01400000015835513,-0.008999999863581633
-0.05448245257139206,0.06087975949048996,9.77507495880127,0,0.000699999975040555,-0.039000000804662704,0.04900000055424296,-0.01400000015835513,-0.008999999863581633
-0.04666777700185776,0.06318777054548264,9.775334358215332,0.009599999524652958,0.0004999999655410647,-0.039000000804662704,-0.010999999647985701,-0.01400000015835513,-0.008999999863581633
-0.04943547770380974,0.06817728281021118,9.779595375061035,-0.00009999999747378752,0.010199999436736107,-0.029199998825788498,-0.010999999647985701,0.04600000004387353,-0.008999999863581633
-0.04818091541528702,0.06236416473984718,9.775630950927734,0,0.00039999998989515007,-0.039000000804662704,-0.010999999647985701,-0.01400000015835513,0.05099999867112037
-0.05654146522283554,0.06300581246614456,9.785025596618652,0,0.00039999998989515007,-0.029199998825788498,-0.010999999647985701,0.04600000004387353,-0.008999999863581633
-0.046600744128227234,0.05197333171963692,9.782785415649414,0.009599999524652958,-0.009099999442696571,-0.029199998825788498,0.04900000055424296,0.04600000004387353,-0.008999999863581633
-0.04059608280658722,0.0643274113535881,9.776033401489258,0.009599999524652958,0.00039999998989515007,-0.039000000804662704,-0.010999999647985701,-0.0749999994190225,-0.008999999863581633
-0.04646666720509529,0.0632643848657608,9.772931098937988,0.009200000204145908,0.0004999999655410647,-0.039000000804662704,0.04900000055424296,0.04600000004387353,-0.008999999863581633
-0.05103480443358421,0.059797581285238266,9.765277862548828,-0.00039999998989515007,0.00029999998514540493,-0.04879999905824661,-0.07199999890865307,-0.01400000015835513,-0.008999999863581633
-0.06155013665556908,0.0561583936214447,9.767394065856934,-0.010099999606609344,-0.009099999442696571,-0.04879999905824661,-0.010999999647985701,-0.0749999994190225,-0.008999999863581633
-0.05632119998335838,0.05408022552728653,9.776300430297852,-0.0004999999655410647,-0.008899999782443047,-0.039000000804662704,-0.010999999647985701,-0.01400000015835513,-0.008999999863581633
-0.05974011868238449,0.07057148963212967,9.774624824523926,-0.010199999436736107,0.010499999858438969,-0.039000000804662704,-0.010999999647985701,0.04600000004387353,-0.008999999863581633
-0.061483100056648254,0.06797617673873901,9.77993106842041,-0.009800000116229057,0.010300000198185444,-0.029199998825788498,-0.010999999647985701,0.04600000004387353,0.05099999867112037
-0.05843767523765564,0.06608954817056656,9.773323059082031,-0.009599999524652958,0.0004999999655410647,-0.039000000804662704,0.04900000055424296,0.04600000004387353,-0.008999999863581633
-0.04588248208165169,0.06466259807348251,9.7848539352417,0.00989999994635582,0.00039999998989515007,-0.029199998825788498,-0.010999999647985701,0.04600000004387353,-0.008999999863581633
-0.050891149789094925,0.056244585663080215,9.797792434692383,0.00019999999494757503,-0.008899999782443047,-0.009599999524652958,-0.010999999647985701,-0.0749999994190225,-0.008999999863581633
-0.03812526538968086,0.05189671739935875,9.776750564575195,0.00019999999494757503,-0.008899999782443047,-0.009599999524652958,0.04900000055424296,-0.01400000015835513,-0.07000000079177565
-0.06724833697080612,0.06355168670415878,9.772700309753418,-0.019600000232458115,0.0007999999797903001,-0.039000000804662704,-0.010999999647985701,-0.01400000015835513,-0.07000000079177565
-0.04389050602912903,0.07417237013578415,9.768027305603027,0.009599999524652958,0.010499999858438969,-0.04879999905824661,-0.010999999647985701,0.04600000004387353,-0.008999999863581633
-0.0579492561519146,0.06164590269327164,9.761486053466797,-0.00969999935477972,0.000699999975040555,-0.04879999905824661,0.04900000055424296,0.04600000004387353,-0.008999999863581633
-0.053208738565444946,0.061387334018945694,9.762041091918945,0.00009999999747378752,0.0005999999702908099,-0.04879999905824661,-0.010999999647985701,-0.01400000015835513,-0.008999999863581633
-0.0569915771484375,0.05681919306516647,9.773055076599121,0.00009999999747378752,0.0005999999702908099,-0.04879999905824661,0.04900000055424296,-0.01400000015835513,-0.008999999863581633
-0.04426399990916252,0.06335058063268661,9.765393257141113,0.00969999935477972,0.0005999999702908099,-0.04879999905824661,-0.07199999890865307,0.04600000004387353,-0.008999999863581633
-0.06614699959754944,0.060343459248542786,9.768908500671387,-0.009499999694526196,0.0007999999797903001,-0.039000000804662704,0.04900000055424296,-0.01400000015835513,0.05099999867112037
-0.05870582535862923,0.06429868191480637,9.785150527954102,-0.009399999864399433,0.0005999999702908099,-0.029199998825788498,-0.010999999647985701,-0.01400000015835513,-0.008999999863581633
-0.05801629647612572,0.06688442081212997,9.774280548095703,-0.00930000003427267,0.0005999999702908099,-0.039000000804662704,0.04900000055424296,0.1079999983629796,-0.008999999863581633
-0.06051584333181381,0.056273315101861954,9.783703804016113,-0.008799999952316284,-0.008999999612569809,-0.029199998825788498,-0.010999999647985701,0.04600000004387353,-0.008999999863581633
-0.05985504016280174,0.062316279858350754,9.77758502960205,-0.008499999530613422,0.000699999975040555,-0.039000000804662704,-0.010999999647985701,0.16800000190026157,0.05099999867112037
-0.05382165685296059,0.06518932431936264,9.769166946411133,0.0015999999595806003,0.000699999975040555,-0.039000000804662704,-0.07199999890865307,-0.01400000015835513,-0.008999999863581633
-0.05685750022530556,0.05941450968384743,9.781874656677246,0.001500000013038516,0.0008999999845400453,-0.029199998825788498,-0.010999999647985701,0.04600000004387353,0.05099999867112037
-0.04666777700185776,0.06190447881817818,9.7761869430542,0.011299999430775642,0.0008999999845400453,-0.039000000804662704,-0.07199999890865307,-0.01400000015835513,0.05099999867112037
-0.04479072615504265,0.07785943895578384,9.787898063659668,0.010999999940395355,0.02019999921321869,-0.01939999870955944,0.04900000055424296,0.04600000004387353,-0.008999999863581633
-0.04842991381883621,0.046715665608644485,9.777326583862305,0.0013000000035390258,-0.018699999898672104,-0.039000000804662704,-0.010999999647985701,0.046999999102312236,-0.07000000079177565
-0.05637866258621216,0.05220317468047142,9.785313606262207,0.00139999995008111,-0.008799999952316284,-0.029199998825788498,-0.010999999647985701,-0.01400000015835513,-0.008999999863581633
-0.03754108399152756,0.054846372455358505,9.780793190002441,0.020600000396370888,-0.008599999360740185,-0.029199998825788498,-0.010999999647985701,-0.0749999994190225,-0.008999999863581633
-0.053926996886730194,0.05172433331608772,9.773524284362793,0.0007999999797903001,-0.00839999970048666,-0.039000000804662704,-0.010999999647985701,0.046999999102312236,-0.008999999863581633
-0.05026865750551224,0.07185478508472443,9.77187728881836,0.010599999688565731,0.0013000000035390258,-0.039000000804662704,-0.010999999647985701,0.046999999102312236,-0.008999999863581633
-0.0537833496928215,0.06698976457118988,9.775104522705078,0.0009999999310821295,0.0013000000035390258,-0.039000000804662704,-0.010999999647985701,-0.01400000015835513,-0.008999999863581633
-0.0542621873319149,0.062383320182561874,9.765795707702637,0.0008999999845400453,0.0013000000035390258,-0.04879999905824661,-0.010999999647985701,0.1070000026395942,-0.008999999863581633
-0.06591715663671494,0.05483679473400116,9.767452239990234,-0.00839999970048666,-0.008299999870359898,-0.04879999905824661,-0.012000000373951061,-0.013000000266153095,-0.008999999863581633
-0.06032430753111839,0.06614699959754944,9.782899856567383,-0.008299999870359898,0.001500000013038516,-0.029199998825788498,0.04900000055424296,0.04600000004387353,-0.008999999863581633
-0.05363012105226517,0.059471968561410904,9.777421951293945,0.001500000013038516,0.0013000000035390258,-0.039000000804662704,-0.010999999647985701,-0.01400000015835513,-0.008999999863581633
-0.05471229553222656,0.05613924190402031,9.780495643615723,0.001500000013038516,-0.008200000040233135,-0.029199998825788498,-0.010999999647985701,0.046999999102312236,-0.008999999863581633
-0.04729027301073074,0.05601474270224571,9.781367301940918,0.01119999960064888,-0.007999999448657036,-0.029199998825788498,0.04900000055424296,0.04600000004387353,0.05099999867112037
-0.05391742289066315,0.059845466166734695,9.786768913269043,0.001500000013038516,0.001500000013038516,-0.029199998825788498,-0.07199999890865307,0.04600000004387353,-0.07000000079177565
-0.04559517651796341,0.05483679473400116,9.78908634185791,0.01119999960064888,-0.007799999788403511,-0.01939999870955944,-0.010999999647985701,-0.07399999702553048,-0.07000000079177565
-0.04559517651796341,0.05483679473400116,9.78908634185791,0.01119999960064888,-0.007799999788403511,-0.01939999870955944,-0.010999999647985701,-0.07399999702553048,-0.07000000079177565
-0.05246174708008766,0.0533236600458622,9.775285720825195,0.0011999999405816197,-0.007699999958276749,-0.039000000804662704,-0.010999999647985701,-0.013000000266153095,-0.008999999863581633
-0.04563348367810249,0.07224743068218231,9.77126407623291,0.020499998703598976,0.011699999682605267,-0.04879999905824661,-0.010999999647985701,-0.013000000266153095,-0.008999999863581633
-0.06045838072896004,0.05562209337949753,9.771637916564941,0.010499999858438969,0.011599999852478504,-0.039000000804662704,-0.012000000373951061,-0.013000000266153095,-0.008999999863581633
-0.06339845806360245,0.06745903193950653,9.769912719726562,-0.008899999782443047,-0.007799999788403511,-0.039000000804662704,-0.012000000373951061,-0.013000000266153095,-0.008999999863581633
-0.05087199807167053,0.062000248581171036,9.768936157226562,0.000699999975040555,0.0016999999061226845,-0.039000000804662704,0.04900000055424296,-0.0749999994190225,-0.008999999863581633
-0.048382025212049484,0.05347689241170883,9.778292655944824,0.0004999999655410647,-0.007999999448657036,-0.029199998825788498,-0.07199999890865307,0.1079999983629796,-0.008999999863581633
-0.055765748023986816,0.06732495129108429,9.776626586914062,0.0007999999797903001,0.011500000022351742,-0.039000000804662704,0.04900000055424296,0.046999999102312236,-0.008999999863581633
-0.0588877871632576,0.06653965264558792,9.778274536132812,-0.008599999360740185,0.001500000013038516,-0.029199998825788498,-0.07199999890865307,0.1070000026395942,-0.008999999863581633
-0.06605123728513718,0.06165548413991928,9.78477668762207,-0.008200000040233135,0.0016999999061226845,-0.029199998825788498,-0.010999999647985701,-0.01400000015835513,-0.008999999863581633
-0.043258439749479294,0.053112972527742386,9.79148006439209,0.011099999770522118,-0.007799999788403511,-0.01939999870955944,0.048000001495804245,-0.07399999702553048,-0.008999999863581633
-0.054511185735464096,0.06688442081212997,9.782210350036621,0.0009999999310821295,0.0017999999690800905,-0.029199998825788498,-0.010999999647985701,-0.0749999994190225,-0.008999999863581633
-0.051954176276922226,0.06517017632722855,9.790024757385254,0.0007999999797903001,0.0017999999690800905,-0.01939999870955944,-0.07300000130214508,0.046999999102312236,-0.008999999863581633
-0.05157110467553139,0.05909847468137741,9.789076805114746,0.0008999999845400453,0.0018999999156221747,-0.01939999870955944,0.04900000055424296,0.046999999102312236,-0.008999999863581633
-0.060228537768125534,0.05971139296889305,9.70148754119873,-0.008599999360740185,0.0016999999061226845,-0.10759999603033066,-0.07199999890865307,0.04600000004387353,0.05099999867112037
-0.04623682424426079,0.052672434598207474,9.795493125915527,0.010799999348819256,-0.007599999662488699,-0.01939999870955944,-0.012000000373951061,0.1079999983629796,-0.07000000079177565
-0.05471229553222656,0.06583096832036972,9.808756828308105,0.0013000000035390258,0.001999999862164259,0.00009999999747378752,-0.012000000373951061,0.046999999102312236,-0.008999999863581633
-0.055267754942178726,0.0700351893901825,9.816523551940918,0.0013000000035390258,0.011399999260902405,0.00009999999747378752,-0.07300000130214508,-0.013000000266153095,-0.008999999863581633
-0.04228160157799721,0.07111737132072449,9.79295539855957,0.010900000110268593,0.011399999260902405,-0.01939999870955944,-0.012000000373951061,-0.013000000266153095,0.05099999867112037
-0.04990473762154579,0.07369352877140045,9.791183471679688,0.0009999999310821295,0.01119999960064888,-0.01939999870955944,-0.010999999647985701,-0.013000000266153095,-0.008999999863581633
-0.05578489974141121,0.0724102333188057,9.775975227355957,0.0009999999310821295,0.011099999770522118,-0.039000000804662704,-0.012000000373951061,-0.013000000266153095,-0.008999999863581633
-0.05076665058732033,0.06456683576107025,9.7608060836792,0.0009999999310821295,0.0013000000035390258,-0.04879999905824661,0.10999999647985702,-0.013000000266153095,-0.008999999863581633
-0.04673481732606888,0.05070919170975685,9.770890235900879,0.010599999688565731,-0.008599999360740185,-0.039000000804662704,0.10900000075647161,-0.013000000266153095,-0.008999999863581633
-0.06537128239870071,0.06095637381076813,9.778350830078125,-0.008799999952316284,0.0007999999797903001,-0.029199998825788498,-0.07300000130214508,0.1079999983629796,-0.008999999863581633
-0.04708915948867798,0.06268977373838425,9.778704643249512,0.010900000110268593,0.0009999999310821295,-0.029199998825788498,-0.012000000373951061,-0.013000000266153095,-0.008999999863581633
-0.0507187694311142,0.04987601190805435,9.787802696228027,0.010699999518692493,0.0009999999310821295,-0.039000000804662704,-0.010999999647985701,-0.013000000266153095,-0.008999999863581633
-0.048305410891771317,0.06788040697574615,9.797351837158203,0.0009999999310821295,-0.008599999360740185,-0.01939999870955944,0.10900000075647161,-0.013000000266153095,0.05099999867112037
-0.052289362996816635,0.053237468004226685,9.78602123260498,0.0009999999310821295,0.010599999688565731,-0.009599999524652958,-0.012000000373951061,0.046999999102312236,-0.008999999863581633
-0.056551042944192886,0.05511452630162239,9.77184772491455,0.0008999999845400453,-0.009099999442696571,-0.029199998825788498,-0.07300000130214508,0.046999999102312236,-0.008999999863581633
-0.06218220666050911,0.06021896004676819,9.77600383758545,-0.00839999970048666,0.0008999999845400453,-0.039000000804662704,-0.010999999647985701,0.046999999102312236,-0.008999999863581633
-0.0524904802441597,0.04665820300579071,9.766035079956055,0.00139999995008111,-0.018400000408291817,-0.04879999905824661,-0.010999999647985701,-0.013000000266153095,-0.008999999863581633
-0.047500960528850555,0.06791871786117554,9.768677711486816,0.010999999940395355,0.010900000110268593,-0.039000000804662704,-0.012000000373951061,-0.013000000266153095,-0.008999999863581633
-0.05720226839184761,0.07456501573324203,9.777143478393555,0.0011999999405816197,0.010799999348819256,-0.039000000804662704,-0.012000000373951061,-0.013000000266153095,-0.008999999863581633
-0.05441541597247124,0.06711426377296448,9.787908554077148,0.0010999999940395355,0.010599999688565731,-0.01939999870955944,-0.012000000373951061,-0.013000000266153095,-0.008999999863581633
-0.059471968561410904,0.06256527453660965,9.783034324645996,-0.008499999530613422,0.0007999999797903001,-0.029199998825788498,-0.010999999647985701,-0.013000000266153095,-0.008999999863581633
-0.04165910929441452,0.06430825591087341,9.797964096069336,0.010699999518692493,0.0007999999797903001,-0.009599999524652958,0.048000001495804245,-0.013000000266153095,-0.07000000079177565
-0.06348465383052826,0.05136999115347862,9.779997825622559,-0.008700000122189522,-0.008899999782443047,-0.029199998825788498,0.048000001495804245,-0.013000000266153095,-0.008999999863581633
-0.06265147030353546,0.056675542145967484,9.789220809936523,-0.008599999360740185,-0.008899999782443047,-0.01939999870955944,0.048000001495804245,0.046999999102312236,-0.008999999863581633
-0.05652231350541115,0.05826529487967491,9.795158386230469,0.0011999999405816197,0.000699999975040555,-0.01939999870955944,0.048000001495804245,-0.07399999702553048,-0.008999999863581633
-0.07105033099651337,0.0509486123919487,9.788549423217773,-0.01809999905526638,-0.008999999612569809,-0.01939999870955944,0.048000001495804245,-0.013000000266153095,-0.008999999863581633
-0.05581362918019295,0.05948155000805855,9.787008285522461,0.0013000000035390258,0.0005999999702908099,-0.029199998825788498,0.048000001495804245,-0.013000000266153095,-0.008999999863581633
-0.05637866258621216,0.06572562456130981,9.779203414916992,0.0013000000035390258,0.00039999998989515007,-0.029199998825788498,0.048000001495804245,0.046999999102312236,-0.07000000079177565
-0.059989117085933685,0.06182786449790001,9.7949857711792,-0.008100000210106373,0.00029999998514540493,-0.01939999870955944,-0.07300000130214508,-0.013000000266153095,-0.008999999863581633
-0.03739742934703827,0.06640557944774628,9.775688171386719,0.020899999886751175,0.0004999999655410647,-0.039000000804662704,-0.07300000130214508,-0.013000000266153095,-0.008999999863581633
-0.05706819146871567,0.06902962177991867,9.769539833068848,0.0011999999405816197,0.010400000028312206,-0.039000000804662704,0.048000001495804245,-0.013000000266153095,-0.008999999863581633
-0.04947378486394882,0.06320692598819733,9.775927543640137,0.0011999999405816197,0.00039999998989515007,-0.039000000804662704,-0.012000000373951061,-0.013000000266153095,-0.008999999863581633
-0.06421248614788055,0.05844724923372269,9.781932830810547,-0.00839999970048666,0.0004999999655410647,-0.029199998825788498,-0.012000000373951061,-0.013000000266153095,-0.07000000079177565
-0.06052541732788086,0.06526593863964081,9.787525177001953,-0.008299999870359898,0.0004999999655410647,-0.01939999870955944,0.048000001495804245,-0.013000000266153095,-0.008999999863581633
-0.05417599529027939,0.05372588708996773,9.787631034851074,0.0013000000035390258,-0.009200000204145908,-0.01939999870955944,0.048000001495804245,0.1079999983629796,-0.008999999863581633
-0.061032988131046295,0.0674302950501442,9.778916358947754,-0.007999999448657036,0.009999999776482582,-0.029199998825788498,0.048000001495804245,0.046999999102312236,-0.008999999863581633
-0.06028600037097931,0.06687483936548233,9.78353214263916,0.0017999999690800905,0.00009999999747378752,-0.01939999870955944,0.048000001495804245,-0.07399999702553048,-0.008999999863581633
-0.0468018539249897,0.06901046633720398,9.786787986755371,-0.007799999788403511,0,-0.029199998825788498,-0.012000000373951061,-0.013000000266153095,-0.008999999863581633
-0.058188680559396744,0.06288131326436996,9.791404724121094,0.011299999430775642,0.009499999694526196,-0.029199998825788498,0.048000001495804245,-0.013000000266153095,-0.008999999863581633
-0.05736507475376129,0.05926128104329109,9.787631034851074,0.0015999999595806003,-0.00029999998514540493,-0.01939999870955944,-0.012000000373951061,-0.013000000266153095,-0.008999999863581633
-0.04551856219768524,0.055555056780576706,9.776607513427734,0.01119999960064888,-0.00989999994635582,-0.039000000804662704,0.048000001495804245,0.046999999102312236,-0.008999999863581633
-0.06439444422721863,0.056100934743881226,9.789880752563477,-0.007999999448657036,-0.00989999994635582,-0.01939999870955944,-0.012000000373951061,-0.013000000266153095,0.05099999867112037
-0.051101841032505035,0.06542874127626419,9.785408973693848,0.0015999999595806003,0,-0.029199998825788498,-0.012000000373951061,-0.013000000266153095,0.05099999867112037
-0.0466773584485054,0.06566816568374634,9.796689987182617,0.01119999960064888,0,-0.01939999870955944,-0.07300000130214508,-0.013000000266153095,-0.07000000079177565
-0.05618712678551674,0.06653965264558792,9.78805160522461,0.0013000000035390258,0.00009999999747378752,-0.01939999870955944,-0.012000000373951061,0.046999999102312236,-0.008999999863581633
-0.06009446457028389,0.057221420109272,9.784250259399414,-0.008100000210106373,-0.009499999694526196,-0.029199998825788498,-0.012000000373951061,-0.013000000266153095,0.05099999867112037
-0.07041826099157333,0.04781699925661087,9.78428840637207,-0.01730000041425228,-0.019099999219179153,-0.029199998825788498,0.10900000075647161,-0.013000000266153095,-0.008999999863581633
-0.07041826099157333,0.04781699925661087,9.78428840637207,-0.01730000041425228,-0.019099999219179153,-0.029199998825788498,0.10900000075647161,-0.013000000266153095,-0.008999999863581633
-0.05591897666454315,0.055842362344264984,9.802839279174805,0.002099999925121665,-0.009399999864399433,-0.009499999694526196,-0.07300000130214508,0.1079999983629796,-0.008999999863581633
-0.04589205980300903,0.07279331237077713,9.784700393676758,0.012000000104308128,0.010099999606609344,-0.029199998825788498,0.048000001495804245,-0.013000000266153095,-0.008999999863581633
-0.05536352097988129,0.05530606210231781,9.779653549194336,0.002099999925121665,-0.00930000003427267,-0.029199998825788498,-0.012000000373951061,-0.013000000266153095,-0.008999999863581633
-0.05906974524259567,0.06166505813598633,9.79094409942627,-0.007499999832361937,0.00039999998989515007,-0.01939999870955944,0.048000001495804245,-0.013000000266153095,-0.008999999863581633
-0.047194503247737885,0.05376419425010681,9.776694297790527,0.011899999342858791,-0.00930000003427267,-0.039000000804662704,-0.012000000373951061,-0.07399999702553048,-0.008999999863581633
-0.05106353387236595,0.05035484954714775,9.776559829711914,0.0017999999690800905,-0.009200000204145908,-0.039000000804662704,-0.012000000373951061,0.046999999102312236,-0.07000000079177565
-0.06082230061292648,0.05549759790301323,9.780265808105469,-0.007599999662488699,-0.008999999612569809,-0.029199998825788498,-0.012000000373951061,-0.013000000266153095,-0.008999999863581633
-0.05371630936861038,0.06717172265052795,9.780658721923828,0.001999999862164259,0.010400000028312206,-0.029199998825788498,0.048000001495804245,-0.013000000266153095,-0.008999999863581633
-0.060276418924331665,0.05906016752123833,9.789191246032715,-0.007599999662488699,0.00039999998989515007,-0.01939999870955944,-0.012000000373951061,-0.013000000266153095,0.05099999867112037
-0.06227797269821167,0.046935927122831345,9.78996753692627,-0.007499999832361937,-0.018699999898672104,-0.01939999870955944,0.048000001495804245,-0.07399999702553048,-0.008999999863581633
-0.06166505813598633,0.056196700781583786,9.786921501159668,-0.007599999662488699,-0.008899999782443047,-0.029199998825788498,-0.13400000056281244,0.046999999102312236,-0.008999999863581633
-0.04426399990916252,0.053448159247636795,9.775899887084961,0.011899999342858791,-0.00839999970048666,-0.039000000804662704,-0.012000000373951061,0.046999999102312236,-0.008999999863581633
-0.05242343991994858,0.0805600956082344,9.784632682800293,-0.017099998891353607,-0.008299999870359898,-0.039000000804662704,-0.012000000373951061,-0.013000000266153095,-0.008999999863581633
-0.05784391239285469,0.05623500794172287,9.78713321685791,0.0026000000070780516,0.020499998703598976,-0.029199998825788498,-0.012000000373951061,-0.07399999702553048,-0.07000000079177565
-0.05176264047622681,0.059941235929727554,9.791614532470703,-0.0071000000461936,-0.008599999360740185,-0.029199998825788498,-0.012000000373951061,-0.013000000266153095,-0.07000000079177565
-0.05159026011824608,0.057240575551986694,9.78891372680664,0.002300000051036477,-0.00839999970048666,-0.01939999870955944,-0.012000000373951061,-0.013000000266153095,-0.008999999863581633
-0.05935704708099365,0.0547410286962986,9.77518081665039,-0.007400000002235174,-0.008200000040233135,-0.039000000804662704,0.048000001495804245,-0.013000000266153095,-0.008999999863581633
-0.06041049584746361,0.059874195605516434,9.786347389221191,-0.0072999997064471245,0.0013000000035390258,-0.029199998825788498,-0.012000000373951061,-0.07399999702553048,-0.008999999863581633
-0.053352389484643936,0.05571785941720009,9.791011810302734,0.002199999988079071,-0.008200000040233135,-0.01939999870955944,-0.012000000373951061,-0.013000000266153095,0.05099999867112037
-0.05961562320590019,0.06412629783153534,9.783052444458008,-0.007499999832361937,0.001500000013038516,-0.029199998825788498,-0.012000000373951061,-0.013000000266153095,-0.008999999863581633
-0.061693791300058365,0.069182850420475,9.775228500366211,-0.007400000002235174,0.01119999960064888,-0.039000000804662704,-0.012000000373951061,-0.07399999702553048,-0.008999999863581633
-0.04291366785764694,0.058993130922317505,9.778350830078125,0.011699999682605267,0.00139999995008111,-0.029199998825788498,-0.012000000373951061,-0.013000000266153095,-0.008999999863581633
-0.058303602039813995,0.0642220675945282,9.77530574798584,-0.007699999958276749,0.00139999995008111,-0.039000000804662704,-0.012000000373951061,-0.013000000266153095,-0.07000000079177565
-0.058495137840509415,0.05591897666454315,9.7769136428833,-0.007599999662488699,-0.008100000210106373,-0.039000000804662704,-0.012000000373951061,-0.013000000266153095,-0.008999999863581633
-0.050699613988399506,0.06342719495296478,9.782995223999023,0.001999999862164259,0.0015999999595806003,-0.029199998825788498,-0.012000000373951061,-0.013000000266153095,-0.008999999863581633
-0.06568731367588043,0.055698707699775696,9.778992652893066,-0.007599999662488699,-0.007999999448657036,-0.029199998825788498,-0.012000000373951061,-0.013000000266153095,-0.008999999863581633
-0.060582879930734634,0.0580546036362648,9.779719352722168,-0.007499999832361937,0.0016999999061226845,-0.029199998825788498,-0.07300000130214508,-0.013000000266153095,-0.008999999863581633
-0.06299623847007751,0.05763322487473488,9.787371635437012,-0.007400000002235174,0.0018999999156221747,-0.029199998825788498,-0.012000000373951061,0.046999999102312236,-0.008999999863581633
-0.059539008885622025,0.061626750975847244,9.78353214263916,-0.007199999876320362,0.0018999999156221747,-0.029199998825788498,-0.07300000130214508,0.046999999102312236,-0.008999999863581633
-0.044369347393512726,0.06221093609929085,9.778341293334961,0.012299999594688416,0.002099999925121665,-0.029199998825788498,0.048000001495804245,-0.07399999702553048,-0.07000000079177565
-0.06017107889056206,0.05253836140036583,9.790446281433105,-0.007199999876320362,-0.007400000002235174,-0.01939999870955944,-0.012000000373951061,-0.013000000266153095,-0.008999999863581633
-0.05076665058732033,0.05879201367497444,9.789679527282715,0.0024999999441206455,0.002300000051036477,-0.01939999870955944,-0.012000000373951061,0.046999999102312236,-0.008999999863581633
-0.05727888271212578,0.05892609432339668,9.783838272094727,0.0024999999441206455,0.002300000051036477,-0.029199998825788498,-0.07300000130214508,-0.013000000266153095,-0.07000000079177565
-0.05784391239285469,0.06554366648197174,9.783828735351562,0.0024999999441206455,0.002300000051036477,-0.029199998825788498,-0.012000000373951061,-0.07399999702553048,-0.008999999863581633
-0.05476975813508034,0.060745686292648315,9.784680366516113,0.0023999998811632395,0.0023999998811632395,-0.029199998825788498,0.048000001495804245,-0.013000000266153095,-0.07000000079177565
-0.048640601336956024,0.07328172028064728,9.775362014770508,0.002300000051036477,0.012000000104308128,-0.039000000804662704,0.048000001495804245,-0.013000000266153095,-0.07000000079177565
-0.04175487905740738,0.06010403856635094,9.77796745300293,0.011899999342858791,0.001999999862164259,-0.029199998825788498,-0.012000000373951061,-0.013000000266153095,-0.008999999863581633
-0.05132210999727249,0.06276638805866241,9.763832092285156,0.002099999925121665,0.001999999862164259,-0.04879999905824661,0.048000001495804245,-0.07399999702553048,0.05099999867112037
-0.05976885184645653,0.07289864867925644,9.883599281311035,-0.007799999788403511,0.011599999852478504,0.06879999488592148,-0.012000000373951061,0.046999999102312236,-0.07000000079177565
-0.06276638805866241,0.05566997826099396,9.808775901794434,-0.007400000002235174,-0.007599999662488699,0.00019999999494757503,-0.012000000373951061,-0.013000000266153095,-0.008999999863581633
-0.06287173926830292,0.06862739473581314,9.795148849487305,-0.007400000002235174,0.011699999682605267,-0.01939999870955944,-0.012000000373951061,-0.07399999702553048,-0.07000000079177565
-0.05324704572558403,0.05657019838690758,9.772192001342773,0.002099999925121665,-0.007699999958276749,-0.039000000804662704,-0.012000000373951061,-0.07399999702553048,0.05099999867112037
-0.035798102617263794,0.05636908486485481,9.759675979614258,0.021299999207258224,-0.007599999662488699,-0.04879999905824661,-0.012000000373951061,-0.013000000266153095,-0.008999999863581633
-0.03917871415615082,0.06376238167285919,9.750548362731934,0.011299999430775642,0.002099999925121665,-0.05859999731183052,-0.012000000373951061,-0.013000000266153095,-0.008999999863581633
-0.05391742289066315,0.06251739710569382,9.753632545471191,0.001500000013038516,0.002099999925121665,-0.05859999731183052,-0.012000000373951061,-0.013000000266153095,0.05099999867112037
-0.05647442862391472,0.056579772382974625,9.76418685913086,0.00139999995008111,-0.007499999832361937,-0.04879999905824661,0.048000001495804245,-0.013000000266153095,-0.008999999863581633
-0.04571009799838066,0.059299588203430176,9.771714210510254,0.010999999940395355,0.001999999862164259,-0.039000000804662704,-0.012000000373951061,-0.013000000266153095,0.05099999867112037
-0.03950433060526848,0.056196700781583786,9.770956993103027,0.010799999348819256,-0.007599999662488699,-0.039000000804662704,0.048000001495804245,0.046999999102312236,-0.008999999863581633
-0.06983407586812973,0.05477933585643768,9.772931098937988,-0.018199998885393143,-0.007599999662488699,-0.039000000804662704,-0.012000000373951061,-0.013000000266153095,-0.008999999863581633
-0.04532702639698982,0.03903506323695183,9.779528617858887,0.010999999940395355,-0.01719999872148037,-0.029199998825788498,-0.012000000373951061,-0.013000000266153095,-0.008999999863581633
-0.045125916600227356,0.06170336529612541,9.773102760314941,0.010799999348819256,-0.0072999997064471245,-0.039000000804662704,0.048000001495804245,-0.013000000266153095,-0.008999999863581633
-0.06489244103431702,0.039140406996011734,9.768342971801758,0.010599999688565731,0.002199999988079071,-0.039000000804662704,-0.012000000373951061,0.046999999102312236,0.05099999867112037
-0.05290227755904198,0.06051584333181381,9.778053283691406,-0.008700000122189522,-0.017099998891353607,-0.039000000804662704,-0.012000000373951061,-0.013000000266153095,-0.008999999863581633
-0.04085465520620346,0.06738241761922836,9.777076721191406,0.010599999688565731,0.012000000104308128,-0.039000000804662704,-0.012000000373951061,0.046999999102312236,-0.008999999863581633
-0.05702031031250954,0.05916551128029823,9.76069164276123,0.0008999999845400453,0.002199999988079071,-0.04879999905824661,-0.012000000373951061,-0.013000000266153095,-0.07000000079177565
-0.059874195605516434,0.06155013665556908,9.76374626159668,-0.008799999952316284,0.002199999988079071,-0.04879999905824661,0.048000001495804245,0.046999999102312236,-0.008999999863581633
-0.05862921103835106,0.06076483801007271,9.768372535705566,-0.008599999360740185,0.001999999862164259,-0.039000000804662704,-0.012000000373951061,0.046999999102312236,-0.008999999863581633
-0.04924394190311432,0.07581958174705505,9.766350746154785,0.0011999999405816197,0.011699999682605267,-0.04879999905824661,-0.012000000373951061,0.046999999102312236,-0.07000000079177565
-0.0477403849363327,0.06475836783647537,9.757761001586914,0.010999999940395355,0.0018999999156221747,-0.05859999731183052,-0.012000000373951061,-0.013000000266153095,0.05099999867112037
-0.06047753617167473,0.06365703791379929,9.772920608520508,-0.00839999970048666,0.0018999999156221747,-0.039000000804662704,0.10900000075647161,-0.13499999628619785,-0.008999999863581633
-0.043497856706380844,0.060774415731430054,9.763381958007812,0.010599999688565731,0.0015999999595806003,-0.04879999905824661,-0.012000000373951061,0.046999999102312236,0.05099999867112037
-0.045039720833301544,0.06064991652965546,9.766312599182129,0.010599999688565731,0.0015999999595806003,-0.04879999905824661,0.10900000075647161,-0.013000000266153095,-0.008999999863581633
-0.04580586776137352,0.059232551604509354,9.765708923339844,0.010400000028312206,0.0011999999405816197,-0.04879999905824661,-0.012000000373951061,0.046999999102312236,-0.07000000079177565
-0.05417599529027939,0.06259401142597198,9.751487731933594,0.000699999975040555,0.0011999999405816197,-0.05859999731183052,-0.07300000130214508,-0.013000000266153095,0.05099999867112037
-0.06076483801007271,0.059184666723012924,9.769396781921387,-0.008999999612569809,0.00139999995008111,-0.039000000804662704,0.048000001495804245,-0.07399999702553048,-0.008999999863581633
-0.0498855859041214,0.06979577243328094,9.762835502624512,0.0004999999655410647,0.010900000110268593,-0.04879999905824661,-0.012000000373951061,-0.07399999702553048,0.05099999867112037
-0.05197333171963692,0.05538267642259598,9.756458282470703,0.00029999998514540493,-0.008499999530613422,-0.05859999731183052,-0.07300000130214508,0.1079999983629796,0.05099999867112037
-0.0561583936214447,0.06561069935560226,9.762548446655273,0.0005999999702908099,0.00139999995008111,-0.04879999905824661,-0.012000000373951061,-0.013000000266153095,-0.008999999863581633
-0.05553590506315231,0.05827486887574196,9.759330749511719,0.0004999999655410647,0.00139999995008111,-0.04879999905824661,-0.012000000373951061,-0.013000000266153095,0.05099999867112037
-0.05912720412015915,0.07456501573324203,9.753843307495117,-0.009099999442696571,0.01119999960064888,-0.05859999731183052,-0.012000000373951061,-0.013000000266153095,-0.008999999863581633
-0.054108958691358566,0.05877286195755005,9.787190437316895,0.0004999999655410647,0.00139999995008111,-0.029199998825788498,-0.012000000373951061,0.046999999102312236,-0.008999999863581633
-0.06525636464357376,0.06230670586228371,9.794794082641602,-0.008899999782443047,0.00139999995008111,-0.01939999870955944,0.10900000075647161,0.046999999102312236,-0.07000000079177565
-0.044800300151109695,0.06213432177901268,9.79690170288086,0.010499999858438969,0.0009999999310821295,-0.01939999870955944,0.048000001495804245,0.046999999102312236,-0.008999999863581633
-0.055842362344264984,0.06336972862482071,9.770737648010254,0.0010999999940395355,0.0008999999845400453,-0.039000000804662704,-0.012000000373951061,-0.07399999702553048,-0.07000000079177565
-0.048257529735565186,0.052739474922418594,9.760825157165527,0.0010999999940395355,0.0008999999845400453,-0.039000000804662704,-0.07300000130214508,-0.013000000266153095,-0.008999999863581633
-0.04749138653278351,0.06816770881414413,9.759675979614258,0.010499999858438969,0.010900000110268593,-0.04879999905824661,-0.012000000373951061,-0.07399999702553048,-0.008999999863581633
-0.04794149473309517,0.07005434483289719,9.758498191833496,0.010499999858438969,0.010900000110268593,-0.04879999905824661,-0.07300000130214508,-0.013000000266153095,0.05099999867112037
-0.04606444016098976,0.056646812707185745,9.759416580200195,0.010099999606609344,-0.008499999530613422,-0.04879999905824661,-0.012000000373951061,0.046999999102312236,-0.008999999863581633
-0.049540821462869644,0.05199248343706131,9.756190299987793,0.00039999998989515007,-0.00839999970048666,-0.05859999731183052,-0.012000000373951061,-0.013000000266153095,-0.008999999863581633
-0.046150632202625275,0.049512092024087906,9.762787818908691,0.009999999776482582,-0.008299999870359898,-0.04879999905824661,-0.012000000373951061,-0.013000000266153095,-0.008999999863581633
-0.0658692792057991,0.06414545327425003,9.76646614074707,-0.009399999864399433,0.00139999995008111,-0.04879999905824661,0.048000001495804245,0.046999999102312236,-0.008999999863581633
-0.0658692792057991,0.06414545327425003,9.76646614074707,-0.009399999864399433,0.00139999995008111,-0.04879999905824661,0.048000001495804245,0.046999999102312236,-0.008999999863581633
-0.05997954308986664,0.06156928837299347,9.776626586914062,-0.009399999864399433,0.00139999995008111,-0.039000000804662704,0.048000001495804245,-0.013000000266153095,-0.008999999863581633
-0.05997954308986664,0.06156928837299347,9.776626586914062,-0.009399999864399433,0.00139999995008111,-0.039000000804662704,0.048000001495804245,-0.013000000266153095,-0.008999999863581633
-0.062335435301065445,0.056100934743881226,9.776799201965332,-0.00930000003427267,-0.00839999970048666,-0.039000000804662704,-0.012000000373951061,-0.013000000266153095,0.05099999867112037
-0.048544835299253464,0.07791689783334732,9.77202033996582,-0.01899999938905239,0.010999999940395355,-0.039000000804662704,-0.012000000373951061,0.046999999102312236,-0.008999999863581633
-0.048544835299253464,0.07791689783334732,9.77202033996582,0.0005999999702908099,0.020800000056624413,-0.039000000804662704,-0.012000000373951061,0.046999999102312236,-0.008999999863581633
-0.05242343991994858,0.06334099918603897,9.77938461303711,0.0007999999797903001,-0.00839999970048666,-0.039000000804662704,0.048000001495804245,-0.013000000266153095,0.05099999867112037
-0.052452173084020615,0.05801629647612572,9.7734375,0.0004999999655410647,0.0013000000035390258,-0.029199998825788498,-0.012000000373951061,0.046999999102312236,0.05099999867112037
-0.057049039751291275,0.06047753617167473,9.780400276184082,0.0005999999702908099,0.0010999999940395355,-0.029199998825788498,0.10900000075647161,-0.013000000266153095,-0.008999999863581633
