Accelerometer_Gx,Accelerometer_Gy,Accelerometer_Gz,Accelerometer_X,Accelerometer_Y,Accelerometer_Z,Gyroscope_Z,Gyroscope_X,Gyroscope_Y
-0.06721960753202438,0.0483437180519104,9.698269844055176,-0.010499999858438969,-0.008799999952316284,-0.11739999800920486,-0.007999999971379599,0,0.04500000098543482
-0.0549708716571331,0.05774814635515213,9.708171844482422,0.007400000002235174,0.0005999999702908099,-0.10759999603033066,-0.004999999877891834,0.05600000063342052,-0.013000000266153095
-0.060487110167741776,0.0706193745136261,9.71735668182373,-0.0015999999595806003,0.008100000210106373,-0.09779999405145645,-0.004999999877891834,-0.0039999999856897995,0.046999999102312236
-0.05139872431755066,0.050603847950696945,9.704906463623047,0.006599999964237213,-0.00930000003427267,-0.10759999603033066,-0.0659999978879142,-0.0039999999856897995,-0.012000000373951061
-0.06376238167285919,0.06336972862482071,9.708660125732422,-0.0023999998811632395,0.00039999998989515007,-0.10759999603033066,-0.004999999877891834,-0.06500000216452881,-0.012000000373951061
-0.056790463626384735,0.05808333307504654,9.721933364868164,0.00559999980032444,0.00019999999494757503,-0.08799999952316284,-0.004999999877891834,-0.0039999999856897995,-0.012000000373951061
-0.04987601190805435,0.06440402567386627,9.71987533569336,0.004600000102072954,0.00009999999747378752,-0.09779999405145645,0.05499999823992851,-0.0039999999856897995,-0.07300000130214508
-0.054750602692365646,0.06560112535953522,9.70845890045166,0.0037999998312443495,-0.00009999999747378752,-0.10759999603033066,-0.0039999999856897995,-0.0039999999856897995,-0.012000000373951061
-0.046629469841718674,0.052643708884716034,9.70486831665039,0.011099999770522118,-0.008100000210106373,-0.10759999603033066,-0.0039999999856897995,0.05600000063342052,-0.012000000373951061
-0.061128757894039154,0.058303602039813995,9.702971458435059,0.0011999999405816197,0.008999999612569809,-0.09779999405145645,-0.0039999999856897995,-0.0039999999856897995,0.048000001495804245
-0.054089806973934174,0.04931097850203514,9.708621978759766,-0.008499999530613422,-0.000699999975040555,-0.10759999603033066,-0.0039999999856897995,-0.0039999999856897995,0.048000001495804245
-0.049157749861478806,0.06534255295991898,9.714693069458008,0.0013000000035390258,-0.010699999518692493,-0.10759999603033066,-0.0039999999856897995,-0.0039999999856897995,-0.012000000373951061
-0.054702721536159515,0.06551493704319,9.714597702026367,0.0013000000035390258,-0.0008999999845400453,-0.09779999405145645,0.05600000063342052,-0.06500000216452881,-0.012000000373951061
-0.04948335886001587,0.05348646640777588,9.71957778930664,0.0013000000035390258,-0.0007999999797903001,-0.09779999405145645,-0.0039999999856897995,-0.0039999999856897995,-0.012000000373951061
-0.05689580738544464,0.06259401142597198,9.723782539367676,0.0010999999940395355,-0.0009999999310821295,-0.08799999952316284,-0.0039999999856897995,-0.0039999999856897995,-0.012000000373951061
-0.05978800728917122,0.060056157410144806,9.720803260803223,-0.008599999360740185,-0.0009999999310821295,-0.08799999952316284,-0.0039999999856897995,-0.0039999999856897995,0.048000001495804245
-0.058734554797410965,0.05694369599223137,9.735360145568848,-0.008599999360740185,-0.010699999518692493,-0.07819999754428864,-0.0039999999856897995,-0.06500000216452881,-0.012000000373951061
-0.06177997961640358,0.05052723363041878,9.727669715881348,-0.008700000122189522,-0.010699999518692493,-0.08799999952316284,-0.0039999999856897995,-0.0039999999856897995,-0.012000000373951061
-0.06476794183254242,0.06663542240858078,9.737198829650879,-0.008700000122189522,-0.0008999999845400453,-0.07819999754428864,-0.0039999999856897995,-0.0039999999856897995,-0.07300000130214508
-0.06475836783647537,0.059366628527641296,9.732621192932129,-0.008700000122189522,-0.0008999999845400453,-0.07819999754428864,-0.06500000216452881,0.05600000063342052,-0.012000000373951061
-0.059653930366039276,0.06359957158565521,9.736480712890625,-0.008599999360740185,-0.000699999975040555,-0.07819999754428864,-0.0039999999856897995,-0.06500000216452881,-0.012000000373951061
-0.05917508900165558,0.04743392392992973,9.73179817199707,-0.008700000122189522,-0.02029999904334545,-0.07819999754428864,0.05600000063342052,0.05600000063342052,-0.012000000373951061
-0.0555742122232914,0.05986462160944939,9.741576194763184,0.0010999999940395355,-0.0007999999797903001,-0.06839999556541443,0.05600000063342052,-0.0039999999856897995,-0.012000000373951061
-0.056455276906490326,0.04749138653278351,9.731624603271484,0.0010999999940395355,-0.020499998703598976,-0.07819999754428864,0.05600000063342052,-0.0039999999856897995,-0.012000000373951061
-0.050603847950696945,0.05146576091647148,9.731414794921875,0.0010999999940395355,-0.010900000110268593,-0.07819999754428864,-0.0039999999856897995,-0.0039999999856897995,-0.012000000373951061
-0.07062894850969315,0.06073610857129097,9.730084419250488,-0.018400000408291817,-0.0009999999310821295,-0.07819999754428864,-0.0039999999856897995,-0.06500000216452881,0.048000001495804245
-0.0528448186814785,0.06342719495296478,9.730208396911621,0.0009999999310821295,-0.0009999999310821295,-0.07819999754428864,-0.0039999999856897995,-0.0039999999856897995,0.048000001495804245
-0.06230670586228371,0.06256527453660965,9.739104270935059,-0.008700000122189522,-0.0009999999310821295,-0.07819999754428864,-0.0039999999856897995,-0.0039999999856897995,-0.012000000373951061
-0.06581181287765503,0.06494033336639404,9.736404418945312,-0.008700000122189522,-0.0009999999310821295,-0.07819999754428864,-0.0039999999856897995,-0.0039999999856897995,0.048000001495804245
-0.07169197499752045,0.05171475559473038,9.737974166870117,-0.01850000023841858,-0.010799999348819256,-0.07819999754428864,-0.0039999999856897995,-0.0039999999856897995,0.048000001495804245
-0.05920381844043732,0.06004657596349716,9.738932609558105,-0.008700000122189522,-0.0009999999310821295,-0.07819999754428864,0.05600000063342052,-0.0039999999856897995,0.048000001495804245
-0.06146394833922386,0.05570828542113304,9.740187644958496,-0.008599999360740185,-0.010900000110268593,-0.06839999556541443,0.05600000063342052,-0.0039999999856897995,0.048000001495804245
-0.048496946692466736,0.06270892918109894,9.7417573928833,0.0009999999310821295,-0.0011999999405816197,-0.06839999556541443,0.05600000063342052,-0.0039999999856897995,0.048000001495804245
-0.05841852352023125,0.062124744057655334,9.752838134765625,-0.008599999360740185,-0.00139999995008111,-0.05859999731183052,-0.06500000216452881,-0.0039999999856897995,-0.012000000373951061
-0.060678645968437195,0.0607839934527874,9.753230094909668,-0.008599999360740185,-0.0011999999405816197,-0.06839999556541443,0.05600000063342052,0.05600000063342052,-0.012000000373951061
-0.05271074175834656,0.054204728454351425,9.755721092224121,-0.008599999360740185,-0.0011999999405816197,-0.05859999731183052,-0.0039999999856897995,-0.0039999999856897995,0.048000001495804245
-0.0669323056936264,0.06631939113140106,9.752636909484863,0.0013000000035390258,-0.011099999770522118,-0.05859999731183052,-0.0039999999856897995,-0.06500000216452881,-0.012000000373951061
-0.0509486123919487,0.0536780022084713,9.757109642028809,-0.00839999970048666,-0.0013000000035390258,-0.05859999731183052,-0.0039999999856897995,-0.06500000216452881,0.048000001495804245
-0.051954176276922226,0.06431782990694046,9.747992515563965,0.0008999999845400453,-0.0011999999405816197,-0.06839999556541443,-0.0039999999856897995,-0.0039999999856897995,0.048000001495804245
-0.06544789671897888,0.05546886473894119,9.748183250427246,-0.008799999952316284,-0.010900000110268593,-0.06839999556541443,0.05600000063342052,-0.0039999999856897995,-0.012000000373951061
-0.04553771764039993,0.06819643825292587,9.743069648742676,0.010699999518692493,0.00839999970048666,-0.06839999556541443,0.05600000063342052,-0.0039999999856897995,-0.012000000373951061
-0.05725015327334404,0.054233454167842865,9.741096496582031,0.0008999999845400453,-0.01119999960064888,-0.06839999556541443,-0.0039999999856897995,0.05600000063342052,-0.012000000373951061
-0.062335435301065445,0.06115749105811119,9.7434720993042,-0.008599999360740185,-0.00139999995008111,-0.06839999556541443,0.05600000063342052,-0.0039999999856897995,-0.012000000373951061
-0.05961562320590019,0.05253836140036583,9.73717975616455,-0.008599999360740185,-0.011299999430775642,-0.07819999754428864,-0.06500000216452881,-0.0039999999856897995,-0.012000000373951061
-0.06312073767185211,0.06464345008134842,9.75987720489502,-0.008499999530613422,-0.0013000000035390258,-0.04879999905824661,-0.06500000216452881,-0.0039999999856897995,0.10900000075647161
-0.052595820277929306,0.06275681406259537,9.754399299621582,0.0010999999940395355,-0.0010999999940395355,-0.05859999731183052,-0.06500000216452881,-0.0039999999856897995,-0.07300000130214508
-0.05465483292937279,0.0681389793753624,9.758430480957031,0.0010999999940395355,0.008700000122189522,-0.05859999731183052,-0.06500000216452881,-0.0039999999856897995,-0.012000000373951061
-0.04744350165128708,0.06428910046815872,9.752474784851074,0.010900000110268593,-0.0007999999797903001,-0.05859999731183052,-0.0039999999856897995,0.05600000063342052,0.048000001495804245
-0.05411853268742561,0.05860047787427902,9.762337684631348,0.0011999999405816197,-0.0007999999797903001,-0.04879999905824661,0.05600000063342052,-0.0039999999856897995,-0.012000000373951061
-0.054492030292749405,0.057096924632787704,9.76340103149414,0.0011999999405816197,-0.010699999518692493,-0.04879999905824661,0.05600000063342052,-0.0039999999856897995,-0.012000000373951061
-0.05886863172054291,0.06187574937939644,9.761917114257812,-0.008499999530613422,-0.0009999999310821295,-0.04879999905824661,-0.0039999999856897995,-0.0039999999856897995,-0.012000000373951061
-0.052385132759809494,0.06404010951519012,9.761438369750977,0.0011999999405816197,-0.0009999999310821295,-0.04879999905824661,-0.06500000216452881,0.05600000063342052,-0.012000000373951061
-0.05253836140036583,0.06118621677160263,9.754437446594238,0.00139999995008111,-0.0007999999797903001,-0.05859999731183052,-0.0039999999856897995,-0.0039999999856897995,-0.012000000373951061
-0.046409204602241516,0.05831317603588104,9.757826805114746,0.011099999770522118,-0.0007999999797903001,-0.05859999731183052,0.05600000063342052,-0.06500000216452881,-0.012000000373951061
-0.06095637381076813,0.055373094975948334,9.753365516662598,0.0010999999940395355,-0.0008999999845400453,-0.04879999905824661,-0.0039999999856897995,-0.0039999999856897995,-0.012000000373951061
-0.05277778208255768,0.06109045073390007,9.762310028076172,-0.008599999360740185,-0.010699999518692493,-0.05859999731183052,-0.0039999999856897995,-0.0039999999856897995,-0.012000000373951061
-0.05566040053963661,0.055631671100854874,9.75064468383789,0.0010999999940395355,-0.0007999999797903001,-0.04879999905824661,-0.0039999999856897995,0.05600000063342052,-0.012000000373951061
-0.0640975683927536,0.05007712170481682,9.752129554748535,-0.008200000040233135,-0.010499999858438969,-0.05859999731183052,-0.0039999999856897995,0.05600000063342052,-0.012000000373951061
-0.061952363699674606,0.06393475830554962,9.769042015075684,-0.007999999448657036,-0.000699999975040555,-0.039000000804662704,-0.0039999999856897995,-0.0039999999856897995,-0.012000000373951061
-0.05786306783556938,0.0645764097571373,9.758679389953613,-0.007899999618530273,-0.000699999975040555,-0.05859999731183052,-0.0039999999856897995,-0.0039999999856897995,-0.012000000373951061
-0.06662584841251373,0.05176264047622681,9.756352424621582,-0.007899999618530273,-0.010400000028312206,-0.05859999731183052,-0.0039999999856897995,-0.0039999999856897995,-0.012000000373951061
-0.05623500794172287,0.06472006440162659,9.765957832336426,0.0017999999690800905,-0.0005999999702908099,-0.04879999905824661,-0.0039999999856897995,-0.0039999999856897995,-0.012000000373951061
-0.05047934874892235,0.06602250784635544,9.767184257507324,0.0017999999690800905,-0.0004999999655410647,-0.04879999905824661,-0.0039999999856897995,-0.0039999999856897995,-0.012000000373951061
-0.06092764809727669,0.058686673641204834,9.76700210571289,-0.007899999618530273,-0.0004999999655410647,-0.04879999905824661,0.05600000063342052,-0.0039999999856897995,0.048000001495804245
-0.055373094975948334,0.06092764809727669,9.765192031860352,0.0017999999690800905,-0.000699999975040555,-0.04879999905824661,-0.06500000216452881,-0.004999999877891834,0.048000001495804245
-0.04291366785764694,0.06484455615282059,9.769243240356445,0.011500000022351742,-0.0004999999655410647,-0.039000000804662704,-0.06500000216452881,-0.0039999999856897995,0.048000001495804245
-0.05755661055445671,0.04497268423438072,9.76090145111084,-0.007999999448657036,-0.019700000062584877,-0.04879999905824661,-0.0039999999856897995,-0.0039999999856897995,-0.012000000373951061
-0.06894343346357346,0.0505942702293396,9.768113136291504,-0.01759999990463257,-0.009800000116229057,-0.04879999905824661,-0.0039999999856897995,-0.0039999999856897995,-0.012000000373951061
-0.06155013665556908,0.057709839195013046,9.753891944885254,-0.007799999788403511,0,-0.05859999731183052,-0.06500000216452881,-0.0039999999856897995,0.048000001495804245
-0.0511784553527832,0.05125506967306137,9.759647369384766,0.0018999999156221747,-0.009599999524652958,-0.04879999905824661,-0.0039999999856897995,-0.0039999999856897995,-0.012000000373951061
-0.05422388017177582,0.050651729106903076,9.757587432861328,0.0018999999156221747,-0.009499999694526196,-0.05859999731183052,-0.06500000216452881,-0.0039999999856897995,-0.07300000130214508
-0.05301720276474953,0.06333142518997192,9.75779914855957,0.0017999999690800905,0.00039999998989515007,-0.05859999731183052,0.05600000063342052,-0.0039999999856897995,0.048000001495804245
-0.04880340397357941,0.060295574367046356,9.764359474182129,0.0017999999690800905,0.00029999998514540493,-0.04879999905824661,0.05600000063342052,-0.0039999999856897995,0.048000001495804245
-0.06256527453660965,0.049847278743982315,9.757473945617676,-0.007799999788403511,-0.009499999694526196,-0.05859999731183052,-0.06500000216452881,-0.0039999999856897995,-0.012000000373951061
-0.06583096832036972,0.05406107380986214,9.762663841247559,-0.007699999958276749,-0.009099999442696571,-0.04879999905824661,-0.0039999999856897995,-0.06500000216452881,-0.012000000373951061
-0.07094498723745346,0.059989117085933685,9.772594451904297,-0.017500000074505806,0.0005999999702908099,-0.039000000804662704,-0.0039999999856897995,-0.0039999999856897995,0.048000001495804245
-0.05789179727435112,0.062143899500370026,9.768707275390625,-0.007599999662488699,0.0005999999702908099,-0.039000000804662704,-0.0039999999856897995,0.05600000063342052,-0.012000000373951061
-0.05761406943202019,0.06889554858207703,9.77579402923584,-0.007400000002235174,0.010300000198185444,-0.039000000804662704,-0.0039999999856897995,-0.0659999978879142,0.048000001495804245
-0.05708734691143036,0.05139872431755066,9.773917198181152,0.002099999925121665,-0.009099999442696571,-0.039000000804662704,-0.0039999999856897995,-0.0039999999856897995,-0.012000000373951061
-0.053496044129133224,0.05660850554704666,9.761322975158691,0.002099999925121665,-0.008999999612569809,-0.04879999905824661,-0.06500000216452881,-0.004999999877891834,0.048000001495804245
-0.06121494993567467,0.05874413251876831,9.766264915466309,-0.007499999832361937,0.0008999999845400453,-0.04879999905824661,0.05600000063342052,0.05600000063342052,-0.012000000373951061
-0.07121313363313675,0.062498241662979126,9.753949165344238,-0.017099998891353607,0.0007999999797903001,-0.05859999731183052,-0.0039999999856897995,0.05499999823992851,0.048000001495804245
-0.06469132751226425,0.05846640467643738,9.769262313842773,-0.00699999975040555,0.0007999999797903001,-0.039000000804662704,-0.0039999999856897995,-0.004999999877891834,0.048000001495804245
-0.04757757484912872,0.05493256449699402,9.762223243713379,0.012399999424815178,-0.008799999952316284,-0.04879999905824661,-0.0039999999856897995,-0.0039999999856897995,-0.012000000373951061
-0.05271074175834656,0.0558040551841259,9.763468742370605,0.0024999999441206455,-0.008700000122189522,-0.04879999905824661,0.05600000063342052,-0.0039999999856897995,-0.07300000130214508
-0.052931010723114014,0.059749700129032135,9.765632629394531,0.0024999999441206455,0.0007999999797903001,-0.04879999905824661,-0.0039999999856897995,-0.0039999999856897995,-0.012000000373951061
-0.050843264907598495,0.058590903878211975,9.770622253417969,0.0023999998811632395,0.0007999999797903001,-0.039000000804662704,-0.0039999999856897995,-0.0039999999856897995,-0.012000000373951061
-0.06602250784635544,0.06754522025585175,9.760470390319824,-0.007199999876320362,0.010499999858438969,-0.04879999905824661,-0.0039999999856897995,-0.0039999999856897995,-0.012000000373951061
-0.06111918389797211,0.06128198653459549,9.77087116241455,-0.0071000000461936,0.000699999975040555,-0.039000000804662704,-0.0039999999856897995,-0.0039999999856897995,-0.07300000130214508
-0.05478890985250473,0.06142564117908478,9.768773078918457,0.0026000000070780516,0.000699999975040555,-0.039000000804662704,0.05600000063342052,-0.0039999999856897995,-0.012000000373951061
-0.05227021127939224,0.04450342059135437,9.775247573852539,0.0024999999441206455,-0.018699999898672104,-0.039000000804662704,0.05600000063342052,-0.004999999877891834,-0.012000000373951061
-0.04950251430273056,0.049914319068193436,9.755290031433105,0.0024999999441206455,-0.008999999612569809,-0.05859999731183052,-0.0039999999856897995,-0.0659999978879142,-0.012000000373951061
-0.04872678965330124,0.06402094662189484,9.766236305236816,0.002300000051036477,0.000699999975040555,-0.04879999905824661,-0.0039999999856897995,-0.06500000216452881,-0.012000000373951061
-0.05774814635515213,0.06312073767185211,9.772931098937988,-0.007499999832361937,0.000699999975040555,-0.039000000804662704,-0.0039999999856897995,-0.0039999999856897995,-0.07300000130214508
-0.04723281040787697,0.061100028455257416,9.773351669311523,0.011799999512732029,0.000699999975040555,-0.039000000804662704,-0.0039999999856897995,-0.06500000216452881,-0.07300000130214508
-0.0495312474668026,0.06491159647703171,9.765594482421875,0.0017999999690800905,0.000699999975040555,-0.04879999905824661,-0.06500000216452881,-0.004999999877891834,-0.012000000373951061
-0.048851292580366135,0.062479086220264435,9.768716812133789,0.0017999999690800905,0.0008999999845400453,-0.039000000804662704,-0.0039999999856897995,-0.06500000216452881,0.048000001495804245
-0.06321649998426437,0.06267062574625015,9.761466979980469,-0.007999999448657036,-0.008700000122189522,-0.039000000804662704,-0.0039999999856897995,0.05600000063342052,0.048000001495804245
-0.06808152049779892,0.06310158222913742,9.780332565307617,-0.017099998891353607,0.0009999999310821295,-0.029199998825788498,0.05600000063342052,-0.0039999999856897995,-0.012000000373951061
-0.06808152049779892,0.06310158222913742,9.780332565307617,-0.017099998891353607,0.0009999999310821295,-0.029199998825788498,0.05600000063342052,-0.0039999999856897995,-0.012000000373951061
-0.054894257336854935,0.061952363699674606,9.77993106842041,0.0024999999441206455,0.0008999999845400453,-0.029199998825788498,-0.0039999999856897995,-0.0039999999856897995,-0.07300000130214508
-0.05656062066555023,0.06218220666050911,9.759015083312988,0.0023999998811632395,0.0008999999845400453,-0.04879999905824661,-0.0039999999856897995,-0.06500000216452881,-0.012000000373951061
-0.05882074683904648,0.05762364715337753,9.776607513427734,-0.007400000002235174,0.0008999999845400453,-0.039000000804662704,-0.0039999999856897995,-0.0039999999856897995,0.048000001495804245
-0.047864880412817,0.05927085876464844,9.777688980102539,0.012000000104308128,0.0008999999845400453,-0.039000000804662704,-0.0039999999856897995,-0.0039999999856897995,-0.012000000373951061
-0.045939940959215164,0.050939034670591354,9.774721145629883,0.011799999512732029,-0.008700000122189522,-0.039000000804662704,0.11699999322398127,-0.0039999999856897995,-0.012000000373951061
-0.04672523960471153,0.05282566323876381,9.771283149719238,0.011599999852478504,-0.008799999952316284,-0.039000000804662704,-0.0039999999856897995,-0.06500000216452881,-0.07300000130214508
-0.06316861510276794,0.05114014819264412,9.7771635055542,-0.007899999618530273,-0.008700000122189522,-0.039000000804662704,-0.0039999999856897995,-0.06500000216452881,0.048000001495804245
-0.06461471319198608,0.06550535559654236,9.771953582763672,-0.007999999448657036,0.0009999999310821295,-0.039000000804662704,-0.0039999999856897995,-0.0039999999856897995,-0.07300000130214508
-0.04884171113371849,0.0568670779466629,9.764004707336426,0.0016999999061226845,-0.008599999360740185,-0.04879999905824661,-0.0039999999856897995,-0.0039999999856897995,-0.012000000373951061
-0.06726749241352081,0.052950166165828705,9.763152122497559,-0.01759999990463257,-0.008499999530613422,-0.04879999905824661,-0.0039999999856897995,-0.0039999999856897995,-0.012000000373951061
-0.05892609432339668,0.05339069664478302,9.769702911376953,-0.007699999958276749,-0.00839999970048666,-0.039000000804662704,-0.0039999999856897995,-0.0039999999856897995,0.048000001495804245
-0.0649307444691658,0.05553590506315231,9.771915435791016,-0.007599999662488699,-0.008200000040233135,-0.039000000804662704,0.05600000063342052,-0.06500000216452881,-0.012000000373951061
-0.058428097516298294,0.053285352885723114,9.777804374694824,-0.007699999958276749,-0.008299999870359898,-0.039000000804662704,-0.0039999999856897995,-0.0039999999856897995,0.048000001495804245
-0.05144660547375679,0.06904877722263336,9.773293495178223,0.001999999862164259,0.011099999770522118,-0.039000000804662704,-0.0039999999856897995,0.05600000063342052,-0.012000000373951061
-0.06137775257229805,0.07480443269014359,9.771646499633789,-0.007499999832361937,0.010900000110268593,-0.039000000804662704,-0.0039999999856897995,-0.0039999999856897995,-0.07300000130214508
-0.0517817959189415,0.05647442862391472,9.773935317993164,0.002199999988079071,-0.008499999530613422,-0.039000000804662704,0.05600000063342052,-0.0039999999856897995,-0.012000000373951061
-0.05321831628680229,0.06230670586228371,9.776138305664062,0.002199999988079071,0.0010999999940395355,-0.039000000804662704,-0.0039999999856897995,-0.0039999999856897995,-0.012000000373951061
-0.06654923409223557,0.0661182701587677,9.774405479431152,-0.007400000002235174,0.0010999999940395355,-0.039000000804662704,-0.06500000216452881,-0.0039999999856897995,-0.012000000373951061
-0.05223190411925316,0.05822698771953583,9.771330833435059,0.002199999988079071,0.0011999999405816197,-0.039000000804662704,-0.0039999999856897995,-0.06500000216452881,0.048000001495804245
-0.0595964714884758,0.05646485090255737,9.78788948059082,-0.007499999832361937,-0.008299999870359898,-0.01939999870955944,-0.0039999999856897995,0.05600000063342052,0.048000001495804245
-0.06881893426179886,0.05874413251876831,9.77725887298584,0.002300000051036477,-0.008100000210106373,-0.039000000804662704,-0.0039999999856897995,-0.0039999999856897995,-0.012000000373951061
-0.044465113431215286,0.06277596950531006,9.782737731933594,-0.017099998891353607,0.0015999999595806003,-0.039000000804662704,-0.06500000216452881,0.05600000063342052,0.048000001495804245
-0.05312254652380943,0.0553252138197422,9.768189430236816,0.002300000051036477,-0.007899999618530273,-0.04879999905824661,-0.0039999999856897995,-0.06500000216452881,0.048000001495804245
-0.05971139296889305,0.05091987922787666,9.782114028930664,0.002300000051036477,-0.007899999618530273,-0.04879999905824661,-0.0039999999856897995,-0.0039999999856897995,0.048000001495804245
-0.05159026011824608,0.06061160936951637,9.773543357849121,0.002199999988079071,0.0018999999156221747,-0.039000000804662704,-0.0039999999856897995,-0.06500000216452881,-0.012000000373951061
-0.057432111352682114,0.05421430245041847,9.780707359313965,0.001999999862164259,-0.007599999662488699,-0.029199998825788498,0.05600000063342052,-0.0039999999856897995,-0.012000000373951061
-0.07158663123846054,0.05914635956287384,9.771990776062012,-0.01730000041425228,0.0018999999156221747,-0.039000000804662704,0.05600000063342052,0.05600000063342052,0.048000001495804245
-0.0610138364136219,0.06050626188516617,9.772709846496582,-0.007199999876320362,0.0016999999061226845,-0.039000000804662704,-0.06500000216452881,0.05600000063342052,-0.07300000130214508
-0.060937222093343735,0.06661626696586609,9.780065536499023,-0.006899999920278788,0.0018999999156221747,-0.029199998825788498,0.05600000063342052,-0.0039999999856897995,-0.012000000373951061
-0.060937222093343735,0.06661626696586609,9.780065536499023,-0.006899999920278788,0.0018999999156221747,-0.029199998825788498,0.05600000063342052,-0.0039999999856897995,-0.012000000373951061
-0.07010222971439362,0.051484912633895874,9.783963203430176,-0.006799999624490738,0.0016999999061226845,-0.01939999870955944,0.05600000063342052,-0.0039999999856897995,0.048000001495804245
-0.05798756331205368,0.06416460126638412,9.774481773376465,-0.006399999838322401,0.0016999999061226845,-0.039000000804662704,-0.0039999999856897995,-0.0039999999856897995,-0.012000000373951061
-0.05348646640777588,0.0603051520884037,9.78858757019043,-0.006399999838322401,0.0016999999061226845,-0.039000000804662704,-0.0039999999856897995,-0.0039999999856897995,-0.012000000373951061
-0.05866751819849014,0.06793786585330963,9.78713321685791,0.0031999999191612005,0.0015999999595806003,-0.01939999870955944,-0.0039999999856897995,0.05600000063342052,-0.012000000373951061
-0.05930916592478752,0.06300581246614456,9.789689064025879,-0.006099999882280827,0.00139999995008111,-0.01939999870955944,-0.0039999999856897995,-0.0039999999856897995,-0.012000000373951061
-0.03798161819577217,0.050508078187704086,9.782028198242188,0.02279999852180481,-0.008100000210106373,-0.029199998825788498,-0.0039999999856897995,0.05600000063342052,0.048000001495804245
-0.05746084079146385,0.06949888914823532,9.768946647644043,-0.006300000008195639,0.01119999960064888,-0.039000000804662704,0.05600000063342052,0.05600000063342052,-0.012000000373951061
-0.05191586911678314,0.06176082789897919,9.78184700012207,0.003499999875202775,0.0011999999405816197,-0.029199998825788498,-0.0039999999856897995,-0.0039999999856897995,-0.012000000373951061
-0.04903325065970421,0.06816770881414413,9.778848648071289,0.003499999875202775,0.010900000110268593,-0.029199998825788498,0.11699999322398127,-0.0039999999856897995,-0.012000000373951061
-0.06283342838287354,0.05660850554704666,9.776761054992676,-0.006199999712407589,-0.008799999952316284,-0.039000000804662704,-0.0039999999856897995,0.05600000063342052,0.048000001495804245
-0.057144805788993835,0.06057330220937729,9.77187728881836,0.003599999938160181,0.0008999999845400453,-0.039000000804662704,0.17799999915475526,-0.0039999999856897995,-0.012000000373951061
-0.05588066950440407,0.0657639279961586,9.78166389465332,0.003599999938160181,0.00039999998989515007,-0.029199998825788498,0.05600000063342052,-0.0039999999856897995,-0.012000000373951061
-0.059539008885622025,0.05182010307908058,9.77551555633545,-0.006099999882280827,-0.00930000003427267,-0.039000000804662704,-0.06500000216452881,0.05600000063342052,-0.012000000373951061
-0.05031654238700867,0.05786306783556938,9.780313491821289,0.003700000001117587,0.0005999999702908099,-0.029199998825788498,0.05600000063342052,0.05600000063342052,-0.012000000373951061
-0.05511452630162239,0.062000248581171036,9.788942337036133,0.0037999998312443495,0.00039999998989515007,-0.019299998879432678,0.05600000063342052,-0.0039999999856897995,-0.012000000373951061
-0.049205634742975235,0.0662427768111229,9.775190353393555,0.003700000001117587,0.00029999998514540493,-0.039000000804662704,0.05600000063342052,-0.0039999999856897995,-0.012000000373951061
-0.05448245257139206,0.0785393938422203,9.778676986694336,0.003700000001117587,0.01939999870955944,-0.029199998825788498,0.05600000063342052,-0.0039999999856897995,-0.012000000373951061
-0.06026684492826462,0.06348465383052826,9.771809577941895,-0.006000000052154064,-0.00029999998514540493,-0.039000000804662704,0.05600000063342052,-0.0039999999856897995,-0.07300000130214508
-0.060429647564888,0.06297708302736282,9.788799285888672,-0.005799999926239252,-0.0004999999655410647,-0.019299998879432678,-0.06500000216452881,-0.0039999999856897995,-0.012000000373951061
-0.057029884308576584,0.06631939113140106,9.78908634185791,0.0037999998312443495,-0.00029999998514540493,-0.019299998879432678,-0.0039999999856897995,-0.0039999999856897995,-0.012000000373951061
-0.061310719698667526,0.055267754942178726,9.772576332092285,-0.0058999997563660145,-0.009999999776482582,-0.039000000804662704,-0.0039999999856897995,-0.0039999999856897995,-0.012000000373951061
-0.06483498215675354,0.06114790961146355,9.774022102355957,-0.005799999926239252,-0.00019999999494757503,-0.039000000804662704,-0.0039999999856897995,-0.0039999999856897995,-0.012000000373951061
-0.059251703321933746,0.0618470199406147,9.77956771850586,-0.005699999630451202,-0.00009999999747378752,-0.029199998825788498,-0.0039999999856897995,0.05600000063342052,-0.012000000373951061
-0.05068046227097511,0.06806236505508423,9.771407127380371,-0.005499999970197678,-0.00009999999747378752,-0.04879999905824661,-0.06500000216452881,0.05600000063342052,-0.012000000373951061
-0.0558040551841259,0.059682659804821014,9.772843360900879,0.004299999680370092,0.009599999524652958,-0.039000000804662704,-0.12599999475508955,-0.0039999999856897995,-0.012000000373951061
-0.051053959876298904,0.0636187270283699,9.770727157592773,0.00419999985024333,0.00009999999747378752,-0.039000000804662704,-0.06500000216452881,-0.0039999999856897995,-0.012000000373951061
-0.056771308183670044,0.04853525385260582,9.781539916992188,0.004100000020116568,-0.009200000204145908,-0.029199998825788498,-0.0039999999856897995,-0.06500000216452881,0.048000001495804245
-0.04805641621351242,0.05781518295407295,9.772307395935059,0.004100000020116568,-0.009200000204145908,-0.029199998825788498,0.11699999322398127,-0.0039999999856897995,-0.012000000373951061
-0.045231256633996964,0.06400179862976074,9.78325366973877,0.013399999588727951,0.00019999999494757503,-0.029199998825788498,-0.06500000216452881,0.05600000063342052,-0.012000000373951061
-0.05578489974141121,0.06632896512746811,9.7816162109375,0.003700000001117587,0.00039999998989515007,-0.029199998825788498,-0.0039999999856897995,-0.0039999999856897995,0.048000001495804245
-0.059471968561410904,0.05680004134774208,9.787084579467773,-0.0058999997563660145,-0.009200000204145908,-0.029199998825788498,0.05600000063342052,-0.0039999999856897995,-0.012000000373951061
-0.05517198517918587,0.0597209669649601,9.778571128845215,0.003700000001117587,0.00039999998989515007,-0.029199998825788498,-0.0039999999856897995,-0.0039999999856897995,-0.012000000373951061
-0.04876509681344032,0.06748775392770767,9.78428840637207,0.003599999938160181,0.009999999776482582,-0.029199998825788498,-0.0039999999856897995,-0.0039999999856897995,-0.012000000373951061
-0.04872678965330124,0.06336015462875366,9.772345542907715,0.003599999938160181,0.00019999999494757503,-0.039000000804662704,-0.0039999999856897995,-0.06500000216452881,-0.07300000130214508
-0.050230350345373154,0.06411672383546829,9.764253616333008,0.003399999812245369,0.00019999999494757503,-0.04879999905824661,-0.0039999999856897995,-0.0039999999856897995,-0.012000000373951061
-0.05013458430767059,0.06104256957769394,9.770842552185059,0.0032999999821186066,0.00019999999494757503,-0.039000000804662704,-0.0039999999856897995,-0.0039999999856897995,-0.012000000373951061
-0.05860047787427902,0.04125688597559929,9.780783653259277,-0.006300000008195639,-0.01899999938905239,-0.029199998825788498,-0.06500000216452881,-0.0039999999856897995,-0.012000000373951061
-0.050105854868888855,0.05826529487967491,9.781912803649902,0.003399999812245369,0.000699999975040555,-0.029199998825788498,0.05600000063342052,-0.0039999999856897995,-0.012000000373951061
-0.0550953708589077,0.04045243188738823,9.76738452911377,0.0032999999821186066,-0.018699999898672104,-0.04879999905824661,-0.0039999999856897995,-0.06500000216452881,-0.012000000373951061
-0.04796064645051956,0.06356126815080643,9.774242401123047,0.0030999998562037945,0.0007999999797903001,-0.039000000804662704,-0.0039999999856897995,-0.06500000216452881,-0.012000000373951061
-0.05170518159866333,0.06070737913250923,9.781042098999023,0.002899999963119626,0.0007999999797903001,-0.029199998825788498,-0.0039999999856897995,-0.0039999999856897995,-0.012000000373951061
-0.04507802799344063,0.05961562320590019,9.773571968078613,0.01249999925494194,0.0007999999797903001,-0.039000000804662704,0.05600000063342052,-0.0039999999856897995,0.048000001495804245
-0.051791369915008545,0.0565127357840538,9.78490161895752,0.0026000000070780516,-0.008899999782443047,-0.029199998825788498,0.05600000063342052,-0.0039999999856897995,0.048000001495804245
-0.05792052671313286,0.06066907197237015,9.777737617492676,-0.00699999975040555,0.0005999999702908099,-0.039000000804662704,-0.0039999999856897995,-0.0039999999856897995,-0.012000000373951061
-0.05725972726941109,0.05241386592388153,9.778772354125977,0.002699999837204814,-0.008899999782443047,-0.029199998825788498,-0.0039999999856897995,0.05600000063342052,0.048000001495804245
-0.05049850046634674,0.05357265844941139,9.786797523498535,0.00279999990016222,-0.008799999952316284,-0.029199998825788498,0.05600000063342052,-0.06500000216452881,-0.012000000373951061
-0.05446329712867737,0.05159026011824608,9.784815788269043,0.0024999999441206455,-0.008799999952316284,-0.029199998825788498,0.05600000063342052,0.05600000063342052,-0.012000000373951061
-0.0612628310918808,0.05194459855556488,9.761476516723633,-0.006899999920278788,0.0007999999797903001,-0.029199998825788498,-0.0039999999856897995,0.05600000063342052,-0.012000000373951061
-0.0517817959189415,0.06483498215675354,9.785236358642578,-0.006799999624490738,-0.008700000122189522,-0.04879999905824661,-0.0039999999856897995,0.05600000063342052,-0.012000000373951061
-0.04950251430273056,0.06156928837299347,9.779997825622559,0.003000000026077032,0.0009999999310821295,-0.029199998825788498,-0.0039999999856897995,0.05600000063342052,-0.012000000373951061
-0.04950251430273056,0.06156928837299347,9.779997825622559,0.0030999998562037945,0.0009999999310821295,-0.029199998825788498,-0.0039999999856897995,0.05600000063342052,-0.012000000373951061
-0.06389645487070084,0.05903143808245659,9.77551555633545,-0.006399999838322401,0.0008999999845400453,-0.039000000804662704,-0.006000000186975531,0,-0.009999999755783667
-0.0476350374519825,0.05952943116426468,9.775985717773438,0.012899999506771564,0.0008999999845400453,-0.039000000804662704,0.0539999991814898,-0.05999999686717535,-0.009999999755783667
-0.06273765861988068,0.06560112535953522,9.781435012817383,-0.006599999964237213,0.0007999999797903001,-0.029199998825788498,-0.006000000186975531,-0.05999999686717535,0.049999999612681666
-0.057901374995708466,0.06487329304218292,9.779068946838379,-0.0066999997943639755,0.0007999999797903001,-0.029199998825788498,-0.06700000028140622,0,-0.009999999755783667
-0.04466622695326805,0.057288460433483124,9.778388977050781,0.012600000016391277,-0.008599999360740185,-0.029199998825788498,-0.006000000186975531,0,-0.009999999755783667
-0.05101565271615982,0.06535212695598602,9.789392471313477,0.00279999990016222,0.0010999999940395355,-0.01939999870955944,0.0539999991814898,0,-0.009999999755783667
-0.05506663769483566,0.04779784381389618,9.795770645141602,0.002699999837204814,-0.01809999905526638,-0.01939999870955944,-0.006000000186975531,0.06099999926066736,0.049999999612681666
-0.05975927412509918,0.059184666723012924,9.787640571594238,-0.0066999997943639755,0.00139999995008111,-0.01939999870955944,0.0539999991814898,0,0.049999999612681666
-0.05983588844537735,0.055746592581272125,9.772144317626953,-0.006599999964237213,-0.00839999970048666,-0.039000000804662704,-0.006000000186975531,0,-0.009999999755783667
-0.06833051145076752,0.059874195605516434,9.790532112121582,-0.01599999889731407,0.0013000000035390258,-0.01939999870955944,0.0539999991814898,0.12199999852133472,0.049999999612681666
-0.059088896960020065,0.07199843227863312,9.781424522399902,-0.005699999630451202,0.010799999348819256,-0.029199998825788498,0.0539999991814898,0,-0.009999999755783667
-0.054990023374557495,0.06353253871202469,9.781587600708008,0.0038999998942017555,0.0007999999797903001,-0.029199998825788498,-0.006000000186975531,0.12199999852133472,0.049999999612681666
-0.05090072751045227,0.0736839547753334,9.78374195098877,0.00419999985024333,0.010499999858438969,-0.029199998825788498,-0.006000000186975531,0,-0.07099999651516105
-0.04219541326165199,0.05385996401309967,9.774577140808105,0.013799999840557575,-0.008899999782443047,-0.039000000804662704,-0.006000000186975531,-0.05999999686717535,0.049999999612681666
-0.06104256957769394,0.06125325709581375,9.776981353759766,-0.005799999926239252,0.0007999999797903001,-0.039000000804662704,-0.006000000186975531,0,-0.009999999755783667
-0.06308242678642273,0.052164867520332336,9.769865036010742,-0.005699999630451202,-0.008799999952316284,-0.039000000804662704,0.0539999991814898,0,0.049999999612681666
-0.060037001967430115,0.06086060777306557,9.769243240356445,-0.005699999630451202,0.0007999999797903001,-0.039000000804662704,-0.006000000186975531,0,-0.009999999755783667
-0.062431201338768005,0.05384080857038498,9.770545959472656,-0.00559999980032444,-0.008799999952316284,-0.039000000804662704,0.0539999991814898,0,-0.07099999651516105
-0.05391742289066315,0.056838348507881165,9.78384780883789,0.004100000020116568,-0.008799999952316284,-0.029199998825788498,0.0539999991814898,0.06099999926066736,-0.009999999755783667
-0.05806417763233185,0.06329311430454254,9.780956268310547,-0.005399999674409628,0.0007999999797903001,-0.029199998825788498,-0.006000000186975531,0.12199999852133472,0.049999999612681666
-0.04345954954624176,0.054702721536159515,9.776664733886719,0.004600000102072954,-0.008799999952316284,-0.039000000804662704,-0.006000000186975531,0,-0.009999999755783667
-0.04351700842380524,0.05753745511174202,9.78122329711914,0.014299999922513962,-0.008700000122189522,-0.039000000804662704,-0.006000000186975531,0,-0.009999999755783667
-0.0597209669649601,0.05300762504339218,9.775879859924316,0.0139999995008111,0.0008999999845400453,-0.029199998825788498,-0.006000000186975531,0,-0.009999999755783667
-0.058217406272888184,0.06652049720287323,9.775247573852539,-0.0052999998442828655,0.0009999999310821295,-0.039000000804662704,-0.06700000028140622,0,-0.009999999755783667
-0.05232767015695572,0.05938578024506569,9.783100128173828,-0.0052999998442828655,0.0009999999310821295,-0.039000000804662704,0.0539999991814898,0,-0.07099999651516105
-0.06485413014888763,0.07045656442642212,9.77992057800293,-0.0052999998442828655,0.010699999518692493,-0.029199998825788498,-0.006000000186975531,0,-0.07099999651516105
-0.05988377332687378,0.06879020482301712,9.770525932312012,-0.005200000014156103,0.010499999858438969,-0.039000000804662704,0.0539999991814898,0,-0.07099999651516105
-0.053352389484643936,0.06014234572649002,9.773207664489746,0.004399999976158142,0.0005999999702908099,-0.039000000804662704,-0.006000000186975531,0,-0.009999999755783667
-0.06109045073390007,0.05898355320096016,9.77192497253418,-0.005200000014156103,0.0005999999702908099,-0.039000000804662704,0.0539999991814898,0,-0.009999999755783667
-0.05187756195664406,0.05417599529027939,9.766983032226562,0.004399999976158142,-0.009200000204145908,-0.04879999905824661,-0.006000000186975531,0.06099999926066736,-0.009999999755783667
-0.06566816568374634,0.050536807626485825,9.776339530944824,-0.0050999997183680534,-0.009099999442696571,-0.039000000804662704,-0.06700000028140622,0,0.049999999612681666
-0.04966532066464424,0.0669514536857605,9.771761894226074,0.004600000102072954,0.0007999999797903001,-0.039000000804662704,-0.006000000186975531,0,-0.009999999755783667
-0.04813303053379059,0.06175125017762184,9.770727157592773,0.0044999998062849045,0.0007999999797903001,-0.039000000804662704,-0.006000000186975531,0.06099999926066736,-0.009999999755783667
-0.07685387134552002,0.05613924190402031,9.761734962463379,-0.024299999698996544,-0.008799999952316284,-0.04879999905824661,-0.06700000028140622,0,-0.009999999755783667
-0.04800853505730629,0.05746084079146385,9.762826919555664,0.004900000058114529,0.0010999999940395355,-0.04879999905824661,0.0539999991814898,0,-0.009999999755783667
-0.048832137137651443,0.0656585842370987,9.76516342163086,0.004900000058114529,0.0009999999310821295,-0.04879999905824661,-0.006000000186975531,0,0.049999999612681666
-0.04760630801320076,0.05776729807257652,9.767040252685547,0.014499999582767487,0.0009999999310821295,-0.04879999905824661,-0.006000000186975531,-0.05999999686717535,-0.009999999755783667
-0.0656585842370987,0.059539008885622025,9.766331672668457,-0.0050999997183680534,0.0009999999310821295,-0.04879999905824661,0.0539999991814898,0,-0.009999999755783667
-0.06086060777306557,0.058610059320926666,9.77294921875,-0.004999999888241291,0.0007999999797903001,-0.039000000804662704,-0.006000000186975531,0.06099999926066736,-0.009999999755783667
-0.06108087673783302,0.06796659529209137,9.771129608154297,0.004799999762326479,-0.01850000023841858,-0.04879999905824661,-0.006000000186975531,0,-0.009999999755783667
-0.05604347214102745,0.06293877214193344,9.76659107208252,-0.004799999762326479,0.010699999518692493,-0.039000000804662704,-0.006000000186975531,-0.05999999686717535,0.049999999612681666
-0.06080314517021179,0.05260540172457695,9.768295288085938,0.004799999762326479,0.0008999999845400453,-0.04879999905824661,0.0539999991814898,0,-0.009999999755783667
-0.05931873992085457,0.04787445813417435,9.769779205322266,-0.004999999888241291,-0.008700000122189522,-0.04879999905824661,-0.006000000186975531,0,-0.009999999755783667
-0.046763546764850616,0.05647442862391472,9.75676441192627,-0.004900000058114529,-0.018400000408291817,-0.039000000804662704,-0.006000000186975531,0.06099999926066736,-0.009999999755783667
-0.047242388129234314,0.056388236582279205,9.764694213867188,0.014399999752640724,-0.00839999970048666,-0.04879999905824661,-0.06700000028140622,-0.05999999686717535,-0.07099999651516105
-0.06094679981470108,0.057547032833099365,9.761159896850586,-0.005200000014156103,0.001500000013038516,-0.04879999905824661,-0.006000000186975531,0,-0.009999999755783667
-0.062479086220264435,0.061224523931741714,9.763649940490723,-0.0050999997183680534,0.001500000013038516,-0.04879999905824661,-0.006000000186975531,0.06099999926066736,-0.009999999755783667
-0.06924030929803848,0.05096776410937309,9.770000457763672,-0.014499999582767487,-0.008100000210106373,-0.039000000804662704,-0.006000000186975531,-0.05999999686717535,0.049999999612681666
-0.05671384930610657,0.062124744057655334,9.759235382080078,0.004699999932199717,0.0015999999595806003,-0.04879999905824661,0.0539999991814898,0,-0.009999999755783667
-0.06428910046815872,0.050891149789094925,9.766226768493652,-0.004900000058114529,-0.008100000210106373,-0.04879999905824661,0.0539999991814898,-0.05999999686717535,-0.009999999755783667
-0.062124744057655334,0.053515199571847916,9.770009994506836,-0.004999999888241291,-0.008200000040233135,-0.039000000804662704,-0.06700000028140622,0,-0.009999999755783667
-0.04733815789222717,0.05395573005080223,9.764110565185547,0.014299999922513962,-0.007899999618530273,-0.04879999905824661,0.0539999991814898,0,-0.009999999755783667
-0.06284300982952118,0.05570828542113304,9.756410598754883,-0.0050999997183680534,-0.007999999448657036,-0.05859999731183052,-0.006000000186975531,0,-0.009999999755783667
-0.04847779497504234,0.05967308580875397,9.756505966186523,0.0044999998062849045,0.0016999999061226845,-0.05859999731183052,-0.006000000186975531,0,-0.009999999755783667
-0.05013458430767059,0.049397170543670654,9.761486053466797,0.0044999998062849045,-0.007899999618530273,-0.04879999905824661,-0.006000000186975531,-0.05999999686717535,-0.009999999755783667
-0.05409938097000122,0.057355497032403946,9.764589309692383,0.004299999680370092,-0.007699999958276749,-0.04879999905824661,-0.06700000028140622,0.06099999926066736,0.049999999612681666
-0.06080314517021179,0.07256346195936203,9.761265754699707,-0.005200000014156103,0.011799999512732029,-0.04879999905824661,-0.006000000186975531,-0.12100000279794933,0.049999999612681666
-0.05417599529027939,0.060439229011535645,9.760834693908691,0.004100000020116568,0.001999999862164259,-0.04879999905824661,-0.006000000186975531,0,-0.009999999755783667
-0.044206537306308746,0.054204728454351425,9.759119987487793,0.013799999840557575,-0.007599999662488699,-0.04879999905824661,-0.06700000028140622,0,-0.009999999755783667
-0.05892609432339668,0.05736507475376129,9.757434844970703,-0.005699999630451202,-0.007400000002235174,-0.05859999731183052,-0.06700000028140622,0,-0.009999999755783667
-0.04827668517827988,0.05167644843459129,9.771197319030762,0.003999999724328518,-0.0071000000461936,-0.039000000804662704,-0.06700000028140622,0,-0.009999999755783667
-0.061032988131046295,0.06365703791379929,9.762251853942871,0.0038999998942017555,-0.006799999624490738,-0.04879999905824661,0.0539999991814898,0.06099999926066736,-0.009999999755783667
-0.06372407078742981,0.06419333815574646,9.77028751373291,-0.005499999970197678,0.002699999837204814,-0.04879999905824661,-0.006000000186975531,0.06099999926066736,-0.009999999755783667
-0.06282385438680649,0.05464525893330574,9.762884140014648,-0.005200000014156103,-0.0066999997943639755,-0.04879999905824661,0.0539999991814898,0,0.049999999612681666
-0.045556869357824326,0.06311115622520447,9.75828742980957,0.014099999330937862,0.00279999990016222,-0.05859999731183052,-0.006000000186975531,0,0.049999999612681666
-0.05952943116426468,0.05642654374241829,9.776320457458496,-0.0052999998442828655,-0.006799999624490738,-0.039000000804662704,-0.006000000186975531,0,0.049999999612681666
-0.05641696974635124,0.05850471183657646,9.764492988586426,0.004299999680370092,0.002899999963119626,-0.04879999905824661,-0.06700000028140622,0.06099999926066736,-0.009999999755783667
-0.061176642775535583,0.053946152329444885,9.756093978881836,-0.0050999997183680534,-0.006599999964237213,-0.05859999731183052,0.0539999991814898,0.06099999926066736,-0.009999999755783667
-0.058428097516298294,0.058045025914907455,9.77090072631836,-0.004900000058114529,0.003000000026077032,-0.039000000804662704,0.11500000177721047,-0.05999999686717535,-0.009999999755783667
-0.06840712577104568,0.052452173084020615,9.757214546203613,-0.014699999243021011,-0.00699999975040555,-0.05859999731183052,0.11500000177721047,-0.05999999686717535,-0.009999999755783667
-0.05357265844941139,0.06032430753111839,9.770191192626953,0.004600000102072954,0.0023999998811632395,-0.039000000804662704,-0.06700000028140622,0,-0.009999999755783667
-0.05357265844941139,0.06032430753111839,9.770191192626953,0.004600000102072954,0.0023999998811632395,-0.039000000804662704,-0.06700000028140622,0,-0.009999999755783667
-0.060429647564888,0.05742253363132477,9.76162052154541,-0.0050999997183680534,-0.0071000000461936,-0.04879999905824661,-0.006000000186975531,0,-0.009999999755783667
-0.05154237523674965,0.06856035441160202,9.764062881469727,0.0044999998062849045,0.012299999594688416,-0.04879999905824661,-0.006000000186975531,0.06099999926066736,-0.009999999755783667
-0.0415920726954937,0.057575762271881104,9.763113975524902,0.014299999922513962,0.0024999999441206455,-0.04879999905824661,-0.006000000186975531,0,-0.009999999755783667
-0.06041049584746361,0.05586151406168938,9.772164344787598,-0.0050999997183680534,-0.0071000000461936,-0.039000000804662704,0.0539999991814898,0,-0.009999999755783667
-0.06713341176509857,0.05276820436120033,9.764664649963379,-0.014699999243021011,-0.007199999876320362,-0.04879999905824661,-0.006000000186975531,0,0.049999999612681666
-0.05244259163737297,0.06023811176419258,9.76318073272705,0.004699999932199717,0.0024999999441206455,-0.04879999905824661,0.0539999991814898,0,-0.009999999755783667
-0.05038357898592949,0.058303602039813995,9.779691696166992,0.004600000102072954,0.002300000051036477,-0.029199998825788498,-0.006000000186975531,-0.05999999686717535,-0.009999999755783667
-0.04914817586541176,0.060084883123636246,9.760547637939453,0.004399999976158142,0.002300000051036477,-0.04879999905824661,-0.06700000028140622,0,-0.07099999651516105
-0.07266880571842194,0.06469132751226425,9.76591968536377,0.004399999976158142,0.01209999993443489,-0.039000000804662704,-0.06700000028140622,0,0.049999999612681666
-0.050488926470279694,0.05588066950440407,9.781625747680664,-0.014800000004470348,0.002300000051036477,-0.04879999905824661,0.0539999991814898,-0.05999999686717535,-0.009999999755783667
-0.0598263144493103,0.057144805788993835,9.772221565246582,0.004600000102072954,-0.0071000000461936,-0.029199998825788498,-0.006000000186975531,0,-0.009999999755783667
-0.06147352233529091,0.06173209846019745,9.777670860290527,-0.0050999997183680534,0.0026000000070780516,-0.039000000804662704,-0.006000000186975531,-0.05999999686717535,-0.009999999755783667
-0.05412811413407326,0.06265147030353546,9.768831253051758,0.004399999976158142,0.0026000000070780516,-0.039000000804662704,-0.006000000186975531,0.12199999852133472,-0.009999999755783667
-0.059136781841516495,0.05207867547869682,9.771378517150879,-0.004900000058114529,-0.00699999975040555,-0.039000000804662704,-0.06700000028140622,0,-0.009999999755783667
-0.05336196720600128,0.0611383356153965,9.780610084533691,-0.004900000058114529,-0.00699999975040555,-0.039000000804662704,-0.06700000028140622,-0.05999999686717535,-0.009999999755783667
-0.05000050738453865,0.04902367293834686,9.77672290802002,0.0044999998062849045,-0.006599999964237213,-0.039000000804662704,-0.06700000028140622,0.06099999926066736,-0.009999999755783667
-0.047596730291843414,0.059749700129032135,9.772384643554688,0.014299999922513962,0.0031999999191612005,-0.039000000804662704,-0.006000000186975531,0,-0.009999999755783667
-0.055555056780576706,0.05698200315237045,9.785140991210938,0.004399999976158142,-0.006399999838322401,-0.029199998825788498,0.0539999991814898,0,0.049999999612681666
-0.05566997826099396,0.0586579404771328,9.775334358215332,0.004299999680370092,0.0031999999191612005,-0.039000000804662704,-0.006000000186975531,-0.12100000279794933,-0.009999999755783667
-0.04228160157799721,0.06097552925348282,9.777776718139648,0.013599999248981476,0.0030999998562037945,-0.039000000804662704,-0.006000000186975531,-0.05999999686717535,-0.009999999755783667
-0.04228160157799721,0.06097552925348282,9.777776718139648,0.013599999248981476,0.0030999998562037945,-0.039000000804662704,-0.006000000186975531,-0.05999999686717535,-0.009999999755783667
-0.053208738565444946,0.059232551604509354,9.775477409362793,0.003599999938160181,0.0030999998562037945,-0.039000000804662704,0.0539999991814898,0,-0.009999999755783667
-0.05838979035615921,0.07243896275758743,9.776971817016602,-0.006099999882280827,0.01249999925494194,-0.039000000804662704,0.0539999991814898,0.06099999926066736,-0.009999999755783667
-0.0627855435013771,0.056771308183670044,9.784297943115234,-0.005799999926239252,-0.00699999975040555,-0.029199998825788498,-0.006000000186975531,-0.05999999686717535,-0.009999999755783667
-0.06235458701848984,0.06165548413991928,9.771857261657715,-0.0058999997563660145,0.002699999837204814,-0.039000000804662704,-0.06700000028140622,0.06099999926066736,0.049999999612681666
-0.06451894342899323,0.05815037339925766,9.77796745300293,-0.00559999980032444,0.00279999990016222,-0.029199998825788498,0.11500000177721047,0,-0.009999999755783667
-0.04997177794575691,0.0611383356153965,9.766656875610352,0.003999999724328518,0.0023999998811632395,-0.04879999905824661,0.0539999991814898,-0.05999999686717535,-0.07099999651516105
-0.059108052402734756,0.04801810905337334,9.775678634643555,-0.005699999630451202,-0.0072999997064471245,-0.039000000804662704,0.0539999991814898,0,-0.009999999755783667
-0.050728343427181244,0.053850382566452026,9.792150497436523,0.0038999998942017555,-0.0072999997064471245,-0.01939999870955944,-0.006000000186975531,-0.05999999686717535,-0.009999999755783667
-0.049042828381061554,0.06834966689348221,9.780332565307617,0.003599999938160181,0.012000000104308128,-0.029199998825788498,-0.006000000186975531,0.06099999926066736,-0.009999999755783667
-0.06414545327425003,0.05075707659125328,9.778016090393066,-0.005799999926239252,-0.0072999997064471245,-0.029199998825788498,-0.006000000186975531,0.06099999926066736,-0.009999999755783667
-0.04980897158384323,0.06933607906103134,9.780917167663574,0.003999999724328518,0.012000000104308128,-0.029199998825788498,0.0539999991814898,-0.05999999686717535,-0.009999999755783667
-0.05561251938343048,0.0657639279961586,9.772297859191895,0.0037999998312443495,0.001999999862164259,-0.039000000804662704,0.0539999991814898,0,-0.009999999755783667
-0.0560338981449604,0.05927085876464844,9.780381202697754,0.003700000001117587,0.0017999999690800905,-0.029199998825788498,-0.12799999954207358,-0.05999999686717535,-0.07099999651516105
-0.05895482376217842,0.06309200078248978,9.778609275817871,-0.006099999882280827,0.002199999988079071,-0.029199998825788498,-0.006000000186975531,-0.12100000279794933,-0.009999999755783667
-0.05433880165219307,0.05698200315237045,9.769539833068848,0.0032999999821186066,-0.007400000002235174,-0.039000000804662704,0.0539999991814898,-0.05999999686717535,-0.009999999755783667
-0.062096014618873596,0.04926309734582901,9.77022933959961,-0.0064999996684491634,-0.007499999832361937,-0.039000000804662704,-0.006000000186975531,-0.05999999686717535,0.049999999612681666
-0.06795702129602432,0.06213432177901268,9.771590232849121,-0.016200000420212746,0.002199999988079071,-0.039000000804662704,0.0539999991814898,0,-0.009999999755783667
-0.06721002608537674,0.045413218438625336,9.765028953552246,-0.01599999889731407,-0.01719999872148037,-0.04879999905824661,0.0539999991814898,0.06099999926066736,-0.009999999755783667
-0.060487110167741776,0.06260358542203903,9.77677059173584,-0.006000000052154064,0.002099999925121665,-0.039000000804662704,-0.006000000186975531,0,0.049999999612681666
-0.05113057419657707,0.06623319536447525,9.778982162475586,0.003700000001117587,0.001999999862164259,-0.029199998825788498,-0.006000000186975531,0,-0.07099999651516105
-0.059280432760715485,0.05895482376217842,9.764752388000488,-0.006000000052154064,0.001999999862164259,-0.04879999905824661,-0.006000000186975531,0,-0.07099999651516105
-0.04961743578314781,0.05522944778203964,9.766331672668457,0.003700000001117587,-0.007599999662488699,-0.04879999905824661,0.0539999991814898,0,-0.009999999755783667
-0.06375280022621155,0.06237374246120453,9.775047302246094,-0.0058999997563660145,0.001999999862164259,-0.039000000804662704,-0.06700000028140622,0,-0.009999999755783667
-0.05258624628186226,0.06426995247602463,9.780715942382812,0.0037999998312443495,0.002099999925121665,-0.039000000804662704,0.0539999991814898,-0.05999999686717535,-0.009999999755783667
-0.04842033237218857,0.06678865104913712,9.77561092376709,0.0037999998312443495,0.002199999988079071,-0.029199998825788498,-0.006000000186975531,-0.05999999686717535,-0.009999999755783667
-0.06298665702342987,0.06591715663671494,9.770833015441895,-0.006199999712407589,0.001999999862164259,-0.039000000804662704,-0.006000000186975531,0,0.049999999612681666
-0.05606262758374214,0.06926904618740082,9.791221618652344,0.003499999875202775,0.011599999852478504,-0.01939999870955944,0.0539999991814898,-0.12100000279794933,0.049999999612681666
-0.06095637381076813,0.06389645487070084,9.775640487670898,0.003499999875202775,0.011599999852478504,-0.01939999870955944,-0.006000000186975531,-0.05999999686717535,-0.07099999651516105
-0.061502255499362946,0.045959096401929855,9.774385452270508,-0.006599999964237213,-0.01769999973475933,-0.039000000804662704,-0.006000000186975531,-0.05999999686717535,-0.009999999755783667
-0.05967308580875397,0.06163632869720459,9.783090591430664,-0.006599999964237213,0.0017999999690800905,-0.029199998825788498,-0.06700000028140622,0,-0.009999999755783667
-0.05337154492735863,0.06852205097675323,9.776617050170898,0.0030999998562037945,0.011599999852478504,-0.039000000804662704,0.0539999991814898,0.06099999926066736,-0.07099999651516105
-0.06595546752214432,0.06724833697080612,9.784575462341309,-0.006399999838322401,0.011299999430775642,-0.029199998825788498,-0.006000000186975531,0,-0.009999999755783667
-0.05027823522686958,0.06127241253852844,9.779729843139648,0.0032999999821186066,0.001500000013038516,-0.029199998825788498,-0.006000000186975531,0,-0.009999999755783667
-0.06035303324460983,0.06054457277059555,9.7749605178833,-0.006300000008195639,0.001500000013038516,-0.039000000804662704,-0.006000000186975531,-0.05999999686717535,-0.009999999755783667
-0.07245812565088272,0.056627657264471054,9.79322338104248,-0.01589999906718731,-0.007999999448657036,-0.01939999870955944,-0.006000000186975531,0,-0.009999999755783667
-0.04255932942032814,0.06382941454648972,9.779864311218262,0.013199999928474426,0.0016999999061226845,-0.029199998825788498,-0.006000000186975531,0,-0.009999999755783667
-0.05784391239285469,0.06009446457028389,9.78378963470459,-0.006199999712407589,0.0015999999595806003,-0.029199998825788498,-0.006000000186975531,0,0.049999999612681666
-0.0533236600458622,0.0703703761100769,9.782487869262695,0.003399999812245369,0.011299999430775642,-0.029199998825788498,0.0539999991814898,0,0.049999999612681666
-0.07236234843730927,0.05511452630162239,9.785638809204102,-0.015799999237060547,-0.008200000040233135,-0.029199998825788498,0.0539999991814898,0.06099999926066736,-0.009999999755783667
-0.06912539154291153,0.05466441437602043,9.786846160888672,-0.01529999915510416,-0.008200000040233135,-0.029199998825788498,-0.06700000028140622,0,-0.009999999755783667
-0.054827217012643814,0.05103480443358421,9.781942367553711,0.004100000020116568,-0.007899999618530273,-0.029199998825788498,-0.006000000186975531,-0.05999999686717535,-0.009999999755783667
-0.06742072105407715,0.04977066442370415,9.774433135986328,-0.015399999916553497,-0.007799999788403511,-0.039000000804662704,-0.06700000028140622,-0.05999999686717535,0.049999999612681666
-0.06405925750732422,0.0649307444691658,9.786423683166504,-0.00559999980032444,0.002099999925121665,-0.029199998825788498,-0.12799999954207358,0,0.049999999612681666
-0.057336341589689255,0.06482540816068649,9.784153938293457,0.003999999724328518,0.002300000051036477,-0.029199998825788498,-0.006000000186975531,-0.05999999686717535,-0.009999999755783667
-0.048880018293857574,0.055152833461761475,9.769625663757324,0.0037999998312443495,-0.0072999997064471245,-0.039000000804662704,-0.06700000028140622,0.06099999926066736,-0.009999999755783667
-0.05718311294913292,0.05318000912666321,9.770727157592773,0.0038999998942017555,-0.00699999975040555,-0.039000000804662704,0.0539999991814898,0.06099999926066736,0.049999999612681666
-0.04748180881142616,0.06139690801501274,9.76694393157959,0.013700000010430813,0.0026000000070780516,-0.04879999905824661,0.0539999991814898,-0.05999999686717535,-0.009999999755783667
-0.05935704708099365,0.04985685646533966,9.780257225036621,-0.0058999997563660145,-0.007199999876320362,-0.029199998825788498,-0.006000000186975531,0,0.049999999612681666
-0.04679227992892265,0.05988377332687378,9.784374237060547,-0.005799999926239252,-0.0071000000461936,-0.029199998825788498,-0.006000000186975531,-0.05999999686717535,-0.009999999755783667
-0.045700524002313614,0.050230350345373154,9.788252830505371,0.013199999928474426,0.002300000051036477,-0.029199998825788498,-0.006000000186975531,-0.05999999686717535,0.049999999612681666
-0.06151182949542999,0.05606262758374214,9.78828239440918,0.01269999984651804,-0.007199999876320362,-0.01939999870955944,-0.006000000186975531,-0.05999999686717535,0.049999999612681666
-0.06213432177901268,0.056053049862384796,9.78423023223877,-0.006799999624490738,-0.00699999975040555,-0.01939999870955944,-0.006000000186975531,0,0.049999999612681666
-0.052030790597200394,0.05673300102353096,9.779107093811035,0.0026000000070780516,-0.006799999624490738,-0.029199998825788498,-0.006000000186975531,-0.12100000279794933,0.049999999612681666
-0.05480806529521942,0.05798756331205368,9.779864311218262,0.002199999988079071,0.002899999963119626,-0.029199998825788498,-0.006000000186975531,-0.05999999686717535,-0.009999999755783667
-0.0694318488240242,0.0650360956788063,9.767203330993652,-0.01719999872148037,0.002899999963119626,-0.04879999905824661,-0.006000000186975531,-0.05999999686717535,-0.009999999755783667
-0.05128380283713341,0.06511270999908447,9.77784252166748,0.002099999925121665,0.00279999990016222,-0.039000000804662704,-0.006000000186975531,0,-0.009999999755783667
-0.06817728281021118,0.05336196720600128,9.769625663757324,-0.01719999872148037,-0.006799999624490738,-0.039000000804662704,0.0539999991814898,-0.05999999686717535,0.049999999612681666
-0.050843264907598495,0.0755993127822876,9.775803565979004,0.002199999988079071,0.01249999925494194,-0.039000000804662704,-0.006000000186975531,-0.05999999686717535,-0.009999999755783667
-0.058217406272888184,0.05639781430363655,9.773695945739746,-0.007599999662488699,-0.006899999920278788,-0.039000000804662704,0.0539999991814898,0.06099999926066736,-0.009999999755783667
-0.05175306275486946,0.059136781841516495,9.779251098632812,0.002199999988079071,0.0026000000070780516,-0.029199998825788498,-0.06700000028140622,0,0.049999999612681666
-0.050795383751392365,0.07079175859689713,9.78254508972168,0.002199999988079071,0.012299999594688416,-0.029199998825788498,-0.006000000186975531,0,-0.009999999755783667
-0.046763546764850616,0.06430825591087341,9.784317016601562,0.011799999512732029,0.0024999999441206455,-0.029199998825788498,-0.006000000186975531,0.06099999926066736,-0.009999999755783667
-0.05112099274992943,0.07306145876646042,9.788741111755371,0.002099999925121665,0.012000000104308128,-0.01939999870955944,-0.06700000028140622,-0.05999999686717535,-0.009999999755783667
-0.05681919306516647,0.057288460433483124,9.784709930419922,0.0018999999156221747,-0.007199999876320362,-0.029199998825788498,-0.006000000186975531,0.06099999926066736,-0.009999999755783667
-0.055746592581272125,0.06439444422721863,9.783914566040039,0.001999999862164259,0.002300000051036477,-0.029199998825788498,0.0539999991814898,-0.05999999686717535,0.049999999612681666
-0.055746592581272125,0.06439444422721863,9.783914566040039,0.001999999862164259,0.002300000051036477,-0.029199998825788498,0.0539999991814898,-0.05999999686717535,0.049999999612681666
-0.0447811484336853,0.05758533999323845,9.787515640258789,0.011299999430775642,0.002099999925121665,-0.01939999870955944,-0.006000000186975531,-0.05999999686717535,-0.009999999755783667
-0.04752011597156525,0.06649176776409149,9.782123565673828,0.010999999940395355,0.002099999925121665,-0.029199998825788498,-0.007000000079177565,0.0009999999964224499,-0.009999999755783667
-0.05258624628186226,0.04921520873904228,9.782793998718262,0.0011999999405816197,-0.007499999832361937,-0.029199998825788498,-0.006000000186975531,0,-0.009999999755783667
-0.05625416338443756,0.05341942980885506,9.782928466796875,0.0011999999405816197,-0.0072999997064471245,-0.029199998825788498,0.0539999991814898,0,-0.009999999755783667
-0.06070737913250923,0.060247693210840225,9.783263206481934,-0.00839999970048666,0.002199999988079071,-0.029199998825788498,0.0539999991814898,0,-0.009999999755783667
-0.059558164328336716,0.05657019838690758,9.773130416870117,-0.008299999870359898,0.011699999682605267,-0.039000000804662704,-0.06700000028140622,-0.05999999686717535,-0.009999999755783667
-0.06436571478843689,0.07432559877634048,9.781942367553711,-0.008299999870359898,-0.007599999662488699,-0.039000000804662704,-0.06800000267489824,0.0009999999964224499,-0.009999999755783667
-0.07427770644426346,0.07126101851463318,9.783780097961426,-0.008100000210106373,0.011899999342858791,-0.029199998825788498,-0.007000000079177565,0,-0.009999999755783667
-0.056053049862384796,0.06649176776409149,9.787343978881836,0.0017999999690800905,0.001999999862164259,-0.029199998825788498,-0.12799999954207358,0.06099999926066736,0.049999999612681666
-0.047778692096471786,0.054606951773166656,9.776827812194824,0.0017999999690800905,0.001999999862164259,-0.029199998825788498,0.05300000012305109,0,0.049999999612681666
-0.04761588200926781,0.06644388288259506,9.780898094177246,0.011500000022351742,0.002300000051036477,-0.029199998825788498,-0.007000000079177565,0,-0.009999999755783667
-0.06019023060798645,0.07270711660385132,9.79535961151123,-0.007799999788403511,0.011899999342858791,-0.01939999870955944,0.0539999991814898,0,-0.009999999755783667
-0.05162856727838516,0.05932832136750221,9.790828704833984,0.0017999999690800905,0.0018999999156221747,-0.01939999870955944,0.0539999991814898,-0.05999999686717535,-0.009999999755783667
-0.05113057419657707,0.06453809887170792,9.784259796142578,0.0015999999595806003,0.0016999999061226845,-0.029199998825788498,-0.006000000186975531,-0.05999999686717535,-0.009999999755783667
-0.05867709219455719,0.06291962414979935,9.787208557128906,-0.008100000210106373,0.0016999999061226845,-0.029199998825788498,-0.06800000267489824,0.06200000165415938,-0.009999999755783667
-0.0661182701587677,0.06459555774927139,9.781261444091797,-0.007799999788403511,0.0017999999690800905,-0.029199998825788498,-0.007000000079177565,-0.05900000114378995,-0.009999999755783667
-0.06459555774927139,0.06020938605070114,9.770267486572266,-0.007899999618530273,0.0017999999690800905,-0.039000000804662704,-0.007000000079177565,0.0009999999964224499,-0.009999999755783667
-0.047692496329545975,0.06821559369564056,9.779959678649902,0.011399999260902405,0.011399999260902405,-0.029199998825788498,-0.007000000079177565,0.0009999999964224499,0.049999999612681666
-0.053831230849027634,0.06254612654447556,9.767873764038086,0.0015999999595806003,0.0015999999595806003,-0.04879999905824661,-0.06800000267489824,0.0009999999964224499,0.049999999612681666
-0.06252697110176086,0.052614975720644,9.769530296325684,-0.007999999448657036,-0.007799999788403511,-0.039000000804662704,-0.007000000079177565,0.0009999999964224499,-0.009999999755783667
-0.06269935518503189,0.060084883123636246,9.77099609375,-0.007899999618530273,0.0018999999156221747,-0.039000000804662704,0.0539999991814898,-0.12100000279794933,-0.009999999755783667
-0.052385132759809494,0.060812726616859436,9.78166389465332,0.001500000013038516,0.0016999999061226845,-0.029199998825788498,0.0539999991814898,-0.05999999686717535,0.049999999612681666
-0.05517198517918587,0.06729622185230255,9.782210350036621,0.0013000000035390258,0.01119999960064888,-0.029199998825788498,-0.006000000186975531,0,-0.009999999755783667
-0.058207832276821136,0.04974193498492241,9.780495643615723,-0.008299999870359898,-0.008200000040233135,-0.029199998825788498,-0.007000000079177565,-0.05900000114378995,-0.009999999755783667
-0.0513029545545578,0.06089891493320465,9.782286643981934,0.0011999999405816197,0.001500000013038516,-0.029199998825788498,0.11400000605382507,0.0009999999964224499,-0.009999999755783667
-0.05402276664972305,0.059443242847919464,9.780898094177246,0.0011999999405816197,0.0013000000035390258,-0.029199998825788498,0.11400000605382507,0.0009999999964224499,-0.009999999755783667
-0.05481764301657677,0.0536780022084713,9.779318809509277,-0.017999999225139618,-0.008700000122189522,-0.039000000804662704,-0.06800000267489824,0.0009999999964224499,-0.009999999755783667
-0.05358223244547844,0.060132771730422974,9.758498191833496,0.001500000013038516,-0.00839999970048666,-0.029199998825788498,-0.007000000079177565,0.0009999999964224499,-0.07099999651516105
-0.051197610795497894,0.05402276664972305,9.774778366088867,0.0013000000035390258,0.0013000000035390258,-0.05859999731183052,0.05300000012305109,0.0009999999964224499,-0.009999999755783667
-0.05864836648106575,0.05322789400815964,9.769463539123535,-0.008299999870359898,-0.008299999870359898,-0.039000000804662704,-0.007000000079177565,0.06200000165415938,-0.009999999755783667
-0.06876147538423538,0.07648037374019623,9.784537315368652,-0.01769999973475933,0.011099999770522118,-0.029199998825788498,0.05300000012305109,-0.05900000114378995,-0.009999999755783667
-0.05812164023518562,0.0624503567814827,9.775372505187988,-0.007899999618530273,0.0010999999940395355,-0.039000000804662704,-0.007000000079177565,0.0009999999964224499,-0.009999999755783667
-0.04877467826008797,0.05302678048610687,9.767068862915039,0.0017999999690800905,-0.008499999530613422,-0.04879999905824661,0.05300000012305109,0.0009999999964224499,-0.009999999755783667
-0.05600516498088837,0.06192363426089287,9.792993545532227,0.0017999999690800905,0.0009999999310821295,-0.01939999870955944,0.05300000012305109,0.06200000165415938,-0.07099999651516105
-0.05885905399918556,0.06106172129511833,9.786088943481445,-0.007699999958276749,0.0008999999845400453,-0.029199998825788498,-0.007000000079177565,0,-0.009999999755783667
-0.0568670779466629,0.05340985208749771,9.786846160888672,0.001999999862164259,-0.008700000122189522,-0.029199998825788498,-0.06800000267489824,-0.05900000114378995,-0.009999999755783667
-0.054616525769233704,0.06651092320680618,9.784326553344727,0.0017999999690800905,0.0011999999405816197,-0.029199998825788498,-0.007000000079177565,0.0009999999964224499,-0.07099999651516105
-0.05675215646624565,0.05631162226200104,9.784326553344727,0.0017999999690800905,-0.008299999870359898,-0.029199998825788498,-0.007000000079177565,0.0009999999964224499,-0.009999999755783667
-0.05516240745782852,0.06336015462875366,9.78766918182373,0.0016999999061226845,0.0013000000035390258,-0.01939999870955944,-0.007000000079177565,0.0009999999964224499,0.049999999612681666
-0.05149449035525322,0.044800300151109695,9.78117561340332,0.0016999999061226845,-0.017899999395012856,-0.029199998825788498,0.05300000012305109,0.0009999999964224499,-0.009999999755783667
-0.06791871786117554,0.053898271173238754,9.771368980407715,-0.01759999990463257,-0.008100000210106373,-0.039000000804662704,0.05300000012305109,0.0009999999964224499,-0.009999999755783667
-0.05290227755904198,0.058897361159324646,9.773093223571777,0.0018999999156221747,0.001500000013038516,-0.039000000804662704,0.05300000012305109,-0.05900000114378995,-0.009999999755783667
-0.05564124509692192,0.054961297661066055,9.778350830078125,0.0017999999690800905,-0.008299999870359898,-0.029199998825788498,-0.007000000079177565,0.06200000165415938,0.049999999612681666
-0.05437710881233215,0.05607220530509949,9.78281307220459,0.0018999999156221747,-0.008100000210106373,-0.029199998825788498,0.05300000012305109,0.0009999999964224499,-0.009999999755783667
-0.05513367801904678,0.062239665538072586,9.782401084899902,0.0018999999156221747,0.00139999995008111,-0.029199998825788498,-0.007000000079177565,0.0009999999964224499,-0.009999999755783667
-0.05766195431351662,0.05414726585149765,9.770747184753418,-0.007699999958276749,-0.008100000210106373,-0.039000000804662704,-0.007000000079177565,-0.05900000114378995,-0.009999999755783667
-0.05768110603094101,0.06489244103431702,9.774079322814941,-0.007799999788403511,0.0015999999595806003,-0.039000000804662704,-0.007000000079177565,0.06200000165415938,0.049999999612681666
-0.0569915771484375,0.05472187325358391,9.779777526855469,0.002099999925121665,-0.007999999448657036,-0.029199998825788498,-0.007000000079177565,0.0009999999964224499,-0.07099999651516105
-0.039398983120918274,0.05927085876464844,9.781578063964844,0.011799999512732029,0.0015999999595806003,-0.029199998825788498,-0.007000000079177565,-0.05900000114378995,-0.009999999755783667
-0.059969961643218994,0.06596504151821136,9.780553817749023,-0.007699999958276749,0.001500000013038516,-0.029199998825788498,0.05300000012305109,-0.1199999937343507,0.049999999612681666
-0.052595820277929306,0.06082230061292648,9.782574653625488,0.0015999999595806003,0.00139999995008111,-0.029199998825788498,0.05300000012305109,-0.05900000114378995,-0.009999999755783667
-0.0462176688015461,0.06912539154291153,9.777776718139648,0.011099999770522118,0.010900000110268593,-0.039000000804662704,0.1749999986443858,-0.05900000114378995,-0.07099999651516105
-0.06452852487564087,0.051006071269512177,9.776435852050781,-0.008499999530613422,-0.008999999612569809,-0.039000000804662704,0.05300000012305109,-0.05900000114378995,-0.009999999755783667
-0.06804320961236954,0.05633077770471573,9.77584171295166,-0.018199998885393143,-0.009099999442696571,-0.039000000804662704,0.05300000012305109,-0.05900000114378995,-0.009999999755783667
-0.06295792758464813,0.06391561031341553,9.782086372375488,-0.00839999970048666,0.0004999999655410647,-0.029199998825788498,0.05300000012305109,-0.05900000114378995,-0.009999999755783667
-0.05564124509692192,0.0574704185128212,9.782219886779785,0.0010999999940395355,0.00029999998514540493,-0.029199998825788498,-0.007000000079177565,0.0009999999964224499,-0.009999999755783667
-0.05007712170481682,0.06108087673783302,9.778724670410156,0.0010999999940395355,0.00029999998514540493,-0.029199998825788498,-0.007000000079177565,-0.05900000114378995,0.049999999612681666
-0.06343676894903183,0.04236779361963272,9.777688980102539,-0.008599999360740185,-0.01889999955892563,-0.039000000804662704,0.05300000012305109,0.0009999999964224499,-0.009999999755783667
-0.06135860085487366,0.053237468004226685,9.78320598602295,-0.008499999530613422,-0.009099999442696571,-0.029199998825788498,0.05300000012305109,0.0009999999964224499,-0.010999999647985701
-0.0645764097571373,0.05265328288078308,9.79018783569336,-0.008299999870359898,-0.008999999612569809,-0.01939999870955944,-0.007000000079177565,0.12299999424472013,0.049999999612681666
-0.05760449171066284,0.06318777054548264,9.78019905090332,-0.007799999788403511,0.000699999975040555,-0.029199998825788498,0.05300000012305109,0.0009999999964224499,-0.009999999755783667
-0.0708492174744606,0.05337154492735863,9.77922248840332,-0.01730000041425228,-0.008999999612569809,-0.029199998825788498,0.05300000012305109,-0.05900000114378995,-0.009999999755783667
-0.053429003804922104,0.053946152329444885,9.78441333770752,0.001999999862164259,-0.008999999612569809,-0.029199998825788498,-0.007000000079177565,0.0009999999964224499,-0.009999999755783667
-0.059366628527641296,0.060534995049238205,9.775726318359375,-0.007599999662488699,0.000699999975040555,-0.039000000804662704,-0.007000000079177565,-0.05900000114378995,-0.009999999755783667
-0.05618712678551674,0.05850471183657646,9.783617973327637,0.0018999999156221747,0.000699999975040555,-0.029199998825788498,-0.06800000267489824,0.0009999999964224499,-0.009999999755783667
-0.047951072454452515,0.06239289417862892,9.76651382446289,0.0018999999156221747,0.0008999999845400453,-0.04879999905824661,0.05300000012305109,-0.05900000114378995,0.049999999612681666
-0.046121902763843536,0.05091987922787666,9.778772354125977,0.011299999430775642,-0.008799999952316284,-0.029199998825788498,0.05300000012305109,0.0009999999964224499,-0.07099999651516105
-0.05263412743806839,0.05478890985250473,9.778417587280273,0.001500000013038516,0.000699999975040555,-0.039000000804662704,-0.007000000079177565,0.0009999999964224499,-0.010999999647985701
-0.0528448186814785,0.05263412743806839,9.770362854003906,0.0013000000035390258,-0.008999999612569809,-0.029199998825788498,-0.007000000079177565,0.0009999999964224499,-0.010999999647985701
-0.05582320690155029,0.07437348365783691,9.783158302307129,0.0013000000035390258,0.010499999858438969,-0.029199998825788498,0.05300000012305109,0.0009999999964224499,0.049999999612681666
-0.04886086657643318,0.0640975683927536,9.780016899108887,0.0013000000035390258,0.0005999999702908099,-0.029199998825788498,-0.007000000079177565,0.06200000165415938,-0.009999999755783667
-0.05766195431351662,0.05609135702252388,9.786347389221191,0.0013000000035390258,0.0005999999702908099,-0.029199998825788498,0.05300000012305109,0.0009999999964224499,-0.010999999647985701
-0.05141787603497505,0.05726930499076843,9.780074119567871,0.0015999999595806003,-0.008899999782443047,-0.029199998825788498,0.05300000012305109,0.06200000165415938,-0.009999999755783667
-0.05902186036109924,0.06381026655435562,9.786471366882324,-0.007799999788403511,0.0005999999702908099,-0.029199998825788498,0.11400000605382507,-0.05900000114378995,-0.009999999755783667
-0.06355168670415878,0.04571967571973801,9.78374195098877,-0.007799999788403511,-0.01889999955892563,-0.029199998825788498,0.05300000012305109,0.0009999999964224499,0.04900000055424296
-0.0585334450006485,0.05137956887483597,9.791289329528809,-0.007599999662488699,-0.008999999612569809,-0.01939999870955944,0.05300000012305109,0.0009999999964224499,0.049999999612681666
-0.0662427768111229,0.05985504016280174,9.776895523071289,-0.007499999832361937,0.0004999999655410647,-0.039000000804662704,-0.007000000079177565,0.06200000165415938,-0.010999999647985701
-0.05658935010433197,0.05656062066555023,9.785226821899414,0.002300000051036477,-0.008999999612569809,-0.029199998825788498,0.05300000012305109,0.0009999999964224499,-0.009999999755783667
-0.05582320690155029,0.0540323443710804,9.781587600708008,0.002300000051036477,-0.008999999612569809,-0.029199998825788498,0.05300000012305109,0.0009999999964224499,-0.010999999647985701
-0.053994037210941315,0.05811206251382828,9.7796630859375,0.002199999988079071,0.0004999999655410647,-0.029199998825788498,-0.06800000267489824,-0.05900000114378995,-0.07199999890865307
-0.056340355426073074,0.05680961534380913,9.771963119506836,0.001999999862164259,-0.008899999782443047,-0.039000000804662704,-0.007000000079177565,-0.05900000114378995,-0.010999999647985701
-0.04308605194091797,0.06562986224889755,9.772126197814941,0.011500000022351742,0.0007999999797903001,-0.039000000804662704,-0.007000000079177565,0.0009999999964224499,-0.009999999755783667
-0.04852567985653877,0.06720045208930969,9.777948379516602,0.0016999999061226845,0.010499999858438969,-0.029199998825788498,0.05300000012305109,-0.05900000114378995,-0.010999999647985701
-0.05755661055445671,0.056627657264471054,9.779308319091797,-0.007999999448657036,-0.008999999612569809,-0.029199998825788498,-0.007000000079177565,0.06200000165415938,-0.009999999755783667
-0.06767929345369339,0.05681919306516647,9.78183650970459,-0.017400000244379044,-0.008899999782443047,-0.029199998825788498,-0.007000000079177565,0.06200000165415938,-0.010999999647985701
-0.0627855435013771,0.06619488447904587,9.78991985321045,-0.007199999876320362,0.0008999999845400453,-0.01939999870955944,-0.007000000079177565,-0.05900000114378995,0.049999999612681666
-0.061176642775535583,0.06665457040071487,9.789019584655762,0.002199999988079071,0.0007999999797903001,-0.01939999870955944,-0.007000000079177565,0.0009999999964224499,-0.009999999755783667
-0.061176642775535583,0.06665457040071487,9.789019584655762,-0.0072999997064471245,0.0007999999797903001,-0.01939999870955944,-0.007000000079177565,0.0009999999964224499,0.049999999612681666
-0.061626750975847244,0.053850382566452026,9.785428047180176,-0.007199999876320362,0.0007999999797903001,-0.039000000804662704,-0.06800000267489824,0.0009999999964224499,-0.010999999647985701
-0.045911211520433426,0.06295792758464813,9.784728050231934,0.012299999594688416,0.0009999999310821295,-0.029199998825788498,-0.06800000267489824,0.0009999999964224499,0.04900000055424296
-0.06926904618740082,0.05237555876374245,9.775947570800781,0.012299999594688416,0.0009999999310821295,-0.029199998825788498,-0.007000000079177565,-0.05900000114378995,-0.010999999647985701
-0.06926904618740082,0.05237555876374245,9.775947570800781,-0.01679999940097332,-0.00839999970048666,-0.039000000804662704,-0.007000000079177565,-0.05900000114378995,-0.010999999647985701
-0.04461834207177162,0.06724833697080612,9.781587600708008,0.01209999993443489,0.010999999940395355,-0.029199998825788498,0.11400000605382507,-0.05900000114378995,0.049999999612681666
-0.05045061931014061,0.0633888840675354,9.779394149780273,0.002300000051036477,0.0007999999797903001,-0.029199998825788498,-0.007000000079177565,0.0009999999964224499,-0.07199999890865307
-0.05045061931014061,0.0633888840675354,9.779394149780273,0.002300000051036477,0.0007999999797903001,-0.029199998825788498,-0.007000000079177565,0.0009999999964224499,-0.07199999890865307
-0.06465302407741547,0.0663672685623169,9.784499168395996,-0.0072999997064471245,0.0007999999797903001,-0.029199998825788498,-0.007000000079177565,0.0009999999964224499,-0.010999999647985701
-0.04757757484912872,0.05582320690155029,9.775755882263184,0.012000000104308128,-0.008700000122189522,-0.039000000804662704,-0.007000000079177565,-0.05900000114378995,-0.010999999647985701
-0.05501875653862953,0.05448245257139206,9.785513877868652,0.002099999925121665,-0.008599999360740185,-0.029199998825788498,-0.06800000267489824,0.06200000165415938,-0.010999999647985701
-0.06296750903129578,0.057336341589689255,9.780284881591797,-0.0072999997064471245,-0.008200000040233135,-0.029199998825788498,-0.007000000079177565,-0.05900000114378995,-0.07099999651516105
-0.05295974388718605,0.06011361628770828,9.78989028930664,0.002199999988079071,0.00139999995008111,-0.01939999870955944,0.05300000012305109,-0.05900000114378995,-0.009999999755783667
-0.06213432177901268,0.05970181152224541,9.781386375427246,-0.007599999662488699,0.0013000000035390258,-0.029199998825788498,0.05300000012305109,0.0009999999964224499,-0.009999999755783667
-0.05762364715337753,0.056484006345272064,9.785859107971191,0.002099999925121665,-0.008499999530613422,-0.029199998825788498,-0.06800000267489824,0.0009999999964224499,0.04900000055424296
-0.05612008646130562,0.073473259806633,9.78183650970459,-0.007499999832361937,-0.008200000040233135,-0.029199998825788498,0.05300000012305109,0.06200000165415938,-0.010999999647985701
-0.06459555774927139,0.06066907197237015,9.792486190795898,-0.006899999920278788,0.0011999999405816197,-0.01939999870955944,-0.007000000079177565,-0.05900000114378995,-0.010999999647985701
-0.052308518439531326,0.05585193634033203,9.777996063232422,0.0026000000070780516,-0.008299999870359898,-0.029199998825788498,-0.007000000079177565,0.06200000165415938,-0.010999999647985701
-0.046524129807949066,0.06610869616270065,9.784958839416504,0.0026000000070780516,-0.008299999870359898,-0.029199998825788498,0.05300000012305109,0.0009999999964224499,-0.010999999647985701
-0.055440135300159454,0.05922297388315201,9.790053367614746,0.0026000000070780516,0.0011999999405816197,-0.01939999870955944,-0.06800000267489824,0.06200000165415938,-0.010999999647985701
-0.06291962414979935,0.05795883387327194,9.78793716430664,-0.006799999624490738,0.0013000000035390258,-0.01939999870955944,-0.007000000079177565,-0.05900000114378995,-0.010999999647985701
-0.04568136855959892,0.06548620760440826,9.7759370803833,0.012399999424815178,0.0013000000035390258,-0.039000000804662704,0.11400000605382507,-0.05900000114378995,0.04900000055424296
-0.058763287961483,0.055909398943185806,9.77574634552002,-0.007199999876320362,-0.008599999360740185,-0.039000000804662704,-0.007000000079177565,-0.1199999937343507,-0.010999999647985701
-0.046437934041023254,0.04727111756801605,9.778839111328125,0.011799999512732029,-0.01809999905526638,-0.029199998825788498,-0.007000000079177565,-0.05900000114378995,-0.010999999647985701
-0.0537833496928215,0.059969961643218994,9.773361206054688,0.0017999999690800905,0.001500000013038516,-0.039000000804662704,-0.06800000267489824,0.18400000017549412,-0.010999999647985701
-0.0498855859041214,0.06495948135852814,9.784757614135742,0.002300000051036477,0.0015999999595806003,-0.029199998825788498,-0.06800000267489824,0.06200000165415938,0.04900000055424296
-0.07113651931285858,0.05566997826099396,9.775592803955078,-0.016899999231100082,-0.007799999788403511,-0.039000000804662704,-0.007000000079177565,0.0009999999964224499,-0.010999999647985701
-0.05970181152224541,0.05028781294822693,9.783943176269531,-0.006899999920278788,-0.007699999958276749,-0.029199998825788498,-0.007000000079177565,-0.1199999937343507,-0.010999999647985701
-0.05903143808245659,0.06435614079236984,9.78002643585205,-0.007199999876320362,0.001999999862164259,-0.029199998825788498,0.05300000012305109,0.0009999999964224499,0.04900000055424296
-0.047692496329545975,0.06341761350631714,9.791115760803223,0.01209999993443489,0.0018999999156221747,-0.01939999870955944,0.05300000012305109,0.0009999999964224499,-0.010999999647985701
-0.056771308183670044,0.06250781565904617,9.777460098266602,0.002199999988079071,0.0016999999061226845,-0.039000000804662704,0.05300000012305109,-0.05900000114378995,-0.010999999647985701
-0.05310339480638504,0.05713523179292679,9.770986557006836,0.001999999862164259,-0.008100000210106373,-0.039000000804662704,-0.007000000079177565,0.0009999999964224499,0.04900000055424296
-0.047644615173339844,0.06570647656917572,9.778867721557617,0.011699999682605267,0.0015999999595806003,-0.029199998825788498,-0.007000000079177565,0.0009999999964224499,-0.010999999647985701
-0.062028978019952774,0.06395391374826431,9.780755043029785,-0.007699999958276749,0.0015999999595806003,-0.029199998825788498,-0.007000000079177565,-0.05900000114378995,-0.010999999647985701
-0.059558164328336716,0.058284446597099304,9.781414985656738,-0.007699999958276749,0.0015999999595806003,-0.029199998825788498,-0.007000000079177565,0.0009999999964224499,-0.010999999647985701
-0.057384226471185684,0.0571160763502121,9.773016929626465,0.001999999862164259,-0.007999999448657036,-0.039000000804662704,-0.007000000079177565,0.0009999999964224499,-0.010999999647985701
-0.05857175216078758,0.0726400837302208,9.778341293334961,-0.007799999788403511,0.011399999260902405,-0.029199998825788498,0.05300000012305109,0.0009999999964224499,0.04900000055424296
-0.05857175216078758,0.0726400837302208,9.778341293334961,-0.007799999788403511,0.011399999260902405,-0.029199998825788498,0.05300000012305109,0.0009999999964224499,0.04900000055424296
-0.04861186817288399,0.07324341684579849,9.770057678222656,0.0018999999156221747,0.00139999995008111,-0.039000000804662704,-0.06800000267489824,0.06200000165415938,-0.010999999647985701
-0.06014234572649002,0.054942142218351364,9.78325366973877,0.001999999862164259,0.01119999960064888,-0.039000000804662704,0.05300000012305109,0.0009999999964224499,-0.010999999647985701
-0.05501875653862953,0.05786306783556938,9.785130500793457,-0.007599999662488699,-0.008299999870359898,-0.029199998825788498,0.05300000012305109,0.0009999999964224499,0.10999999647985702
-0.06194278597831726,0.06012319028377533,9.784748077392578,-0.007499999832361937,0.0009999999310821295,-0.029199998825788498,-0.007000000079177565,0.06200000165415938,-0.07199999890865307
-0.05252878740429878,0.05490383133292198,9.789737701416016,-0.007499999832361937,0.0009999999310821295,-0.029199998825788498,-0.128999995265459,0.0009999999964224499,0.04900000055424296
-0.05582320690155029,0.06378152966499329,9.791595458984375,0.002300000051036477,0.001500000013038516,-0.01939999870955944,-0.007000000079177565,-0.05900000114378995,-0.010999999647985701
-0.06462428718805313,0.06372407078742981,9.784680366516113,-0.007400000002235174,0.001500000013038516,-0.029199998825788498,-0.007000000079177565,-0.05900000114378995,-0.010999999647985701
-0.05692454054951668,0.0405290462076664,9.775774002075195,0.002099999925121665,-0.017799999564886093,-0.039000000804662704,0.05300000012305109,0.0009999999964224499,-0.010999999647985701
-0.07644207030534744,0.05234682559967041,9.772719383239746,-0.01719999872148037,-0.007999999448657036,-0.039000000804662704,0.05300000012305109,0.0009999999964224499,-0.010999999647985701
-0.058332327753305435,0.07130890339612961,9.774950981140137,-0.0072999997064471245,0.01119999960064888,-0.039000000804662704,0.05300000012305109,0.0009999999964224499,-0.010999999647985701
-0.048640601336956024,0.04358404874801636,9.782774925231934,0.0023999998811632395,-0.017899999395012856,-0.029199998825788498,0.11400000605382507,-0.05900000114378995,-0.010999999647985701
-0.05786306783556938,0.05793968215584755,9.781281471252441,-0.007400000002235174,0.0011999999405816197,-0.029199998825788498,-0.06800000267489824,0.0009999999964224499,-0.010999999647985701
-0.05960604548454285,0.0689721629023552,9.789019584655762,-0.007199999876320362,0.010999999940395355,-0.01939999870955944,0.11400000605382507,-0.1199999937343507,0.04900000055424296
-0.05434837564826012,0.05668511986732483,9.77900218963623,0.002099999925121665,-0.008700000122189522,-0.029199998825788498,-0.007000000079177565,0.0009999999964224499,-0.010999999647985701
-0.05822698771953583,0.0735786035656929,9.777288436889648,-0.007499999832361937,0.010699999518692493,-0.039000000804662704,-0.06800000267489824,-0.05900000114378995,-0.010999999647985701
-0.05510494485497475,0.06453809887170792,9.786710739135742,0.002099999925121665,0.0009999999310821295,-0.029199998825788498,0.05300000012305109,0.0009999999964224499,-0.010999999647985701
-0.048065993934869766,0.06307285279035568,9.78287124633789,0.001999999862164259,0.0008999999845400453,-0.029199998825788498,0.05300000012305109,0.0009999999964224499,-0.010999999647985701
-0.045298296958208084,0.05970181152224541,9.77802562713623,0.011699999682605267,0.000699999975040555,-0.029199998825788498,0.05300000012305109,0.0009999999964224499,-0.010999999647985701
-0.05660850554704666,0.055957283824682236,9.782267570495605,0.0017999999690800905,-0.008999999612569809,-0.029199998825788498,0.05300000012305109,0.0009999999964224499,0.04900000055424296
-0.044465113431215286,0.0595964714884758,9.782660484313965,0.011399999260902405,0.0004999999655410647,-0.029199998825788498,0.11400000605382507,0.0009999999964224499,-0.07199999890865307
-0.05146576091647148,0.07128974795341492,9.78325366973877,0.0015999999595806003,0.00989999994635582,-0.029199998825788498,-0.007000000079177565,0.0009999999964224499,-0.010999999647985701
-0.06223009154200554,0.06604165583848953,9.784786224365234,-0.007899999618530273,0.00009999999747378752,-0.029199998825788498,0.11400000605382507,-0.05900000114378995,0.04900000055424296
-0.047500960528850555,0.06823474913835526,9.7811279296875,0.01119999960064888,0.009399999864399433,-0.029199998825788498,0.05300000012305109,0.0009999999964224499,-0.010999999647985701
-0.06020938605070114,0.0527203232049942,9.781099319458008,-0.008200000040233135,-0.010099999606609344,-0.029199998825788498,0.05300000012305109,-0.05900000114378995,-0.010999999647985701
-0.060467954725027084,0.054875101894140244,9.773427963256836,-0.008200000040233135,-0.010099999606609344,-0.039000000804662704,0.05300000012305109,0.0009999999964224499,0.04900000055424296
-0.07459375262260437,0.058590903878211975,9.781137466430664,-0.008100000210106373,-0.010099999606609344,-0.039000000804662704,0.05300000012305109,0.0009999999964224499,0.04900000055424296
-0.06579266488552094,0.05856217071413994,9.77961540222168,-0.01759999990463257,-0.00029999998514540493,-0.029199998825788498,-0.007000000079177565,0.06200000165415938,0.04900000055424296
-0.0590122826397419,0.049330130219459534,9.78561019897461,-0.007400000002235174,-0.009999999776482582,-0.029199998825788498,-0.06800000267489824,-0.05900000114378995,0.04900000055424296
-0.05227978900074959,0.06852205097675323,9.786011695861816,-0.007400000002235174,-0.009999999776482582,-0.029199998825788498,-0.007000000079177565,0.06200000165415938,-0.010999999647985701
-0.04218583181500435,0.07209420204162598,9.784126281738281,0.011899999342858791,0.009399999864399433,-0.029199998825788498,-0.007000000079177565,-0.1199999937343507,-0.010999999647985701
-0.04568136855959892,0.07081091403961182,9.78996753692627,0.011299999430775642,0.009200000204145908,-0.01939999870955944,-0.007000000079177565,-0.05900000114378995,-0.010999999647985701
-0.05761406943202019,0.06302496790885925,9.783723831176758,-0.008299999870359898,-0.0004999999655410647,-0.029199998825788498,-0.06800000267489824,-0.05900000114378995,-0.010999999647985701
-0.052241481840610504,0.07840532064437866,9.777344703674316,0.0013000000035390258,0.01899999938905239,-0.039000000804662704,0.05300000012305109,-0.1199999937343507,-0.010999999647985701
-0.04808514937758446,0.05617754906415939,9.778656959533691,0.0008999999845400453,-0.010400000028312206,-0.029199998825788498,-0.007000000079177565,0.0009999999964224499,-0.010999999647985701
-0.06499778479337692,0.06430825591087341,9.788924217224121,-0.008599999360740185,-0.0004999999655410647,-0.01939999870955944,-0.007000000079177565,0.0009999999964224499,0.04900000055424296
-0.05336196720600128,0.06607996672391891,9.787735939025879,0.0010999999940395355,-0.0004999999655410647,-0.01939999870955944,-0.007000000079177565,0.0009999999964224499,-0.010999999647985701
-0.05606262758374214,0.06004657596349716,9.782161712646484,0.0009999999310821295,-0.0004999999655410647,-0.029199998825788498,0.11400000605382507,0.06200000165415938,-0.010999999647985701
-0.04466622695326805,0.06619488447904587,9.773427963256836,0.010900000110268593,-0.0007999999797903001,-0.039000000804662704,-0.007000000079177565,0.0009999999964224499,0.04900000055424296
-0.05192544683814049,0.053610965609550476,9.772614479064941,0.0010999999940395355,-0.010400000028312206,-0.039000000804662704,-0.007000000079177565,0.0009999999964224499,-0.07199999890865307
-0.06851247698068619,0.05495171621441841,9.78024673461914,-0.01809999905526638,-0.010199999436736107,-0.029199998825788498,-0.06800000267489824,0.0009999999964224499,-0.010999999647985701
-0.05499960482120514,0.05162856727838516,9.78357982635498,0.00139999995008111,-0.00989999994635582,-0.029199998825788498,0.05300000012305109,0.06200000165415938,-0.010999999647985701
-0.050632577389478683,0.05983588844537735,9.781405448913574,0.001500000013038516,-0.00019999999494757503,-0.029199998825788498,-0.007000000079177565,0.0009999999964224499,0.04900000055424296
-0.055440135300159454,0.05223190411925316,9.775545120239258,0.001500000013038516,-0.00989999994635582,-0.039000000804662704,-0.007000000079177565,0.0009999999964224499,-0.010999999647985701
-0.05566997826099396,0.06327396631240845,9.78499698638916,0.001500000013038516,-0.00009999999747378752,-0.029199998825788498,-0.007000000079177565,0.0009999999964224499,-0.010999999647985701
-0.05621585622429848,0.0591176301240921,9.782679557800293,0.00139999995008111,0,-0.029199998825788498,0.05300000012305109,0.0009999999964224499,-0.07199999890865307
-0.04880340397357941,0.06522762775421143,9.778159141540527,-0.008100000210106373,-0.00989999994635582,-0.039000000804662704,-0.007000000079177565,0.0009999999964224499,-0.010999999647985701
-0.047002967447042465,0.06279512494802475,9.772040367126465,0.01119999960064888,-0.00019999999494757503,-0.039000000804662704,0.05300000012305109,0.06200000165415938,-0.010999999647985701
-0.06448063999414444,0.05787264183163643,9.773035049438477,0.01119999960064888,-0.00019999999494757503,-0.039000000804662704,-0.007000000079177565,0.0009999999964224499,0.04900000055424296
-0.050651729106903076,0.05727888271212578,9.771215438842773,0.0016999999061226845,-0.009999999776482582,-0.039000000804662704,-0.007000000079177565,0.0009999999964224499,0.04900000055424296
-0.05402276664972305,0.06222051382064819,9.77206802368164,0.0016999999061226845,-0.00019999999494757503,-0.039000000804662704,0.05300000012305109,0.0009999999964224499,-0.010999999647985701
-0.061052143573760986,0.046198517084121704,9.769779205322266,-0.007899999618530273,-0.019700000062584877,-0.039000000804662704,-0.007000000079177565,0.0009999999964224499,-0.010999999647985701
-0.058897361159324646,0.0643465667963028,9.776272773742676,-0.007799999788403511,-0.00009999999747378752,-0.039000000804662704,-0.007000000079177565,0.0009999999964224499,-0.010999999647985701
-0.0634942278265953,0.06268977373838425,9.781598091125488,-0.007699999958276749,0,-0.029199998825788498,0.05300000012305109,0.0009999999964224499,-0.010999999647985701
-0.051006071269512177,0.06032430753111839,9.775152206420898,0.001999999862164259,-0.00019999999494757503,-0.039000000804662704,-0.007000000079177565,0.0009999999964224499,-0.010999999647985701
-0.08001422137022018,0.0651605874300003,9.778101921081543,-0.026799999177455902,-0.00009999999747378752,-0.029199998825788498,0.05200000106461238,0.0019999999928448997,-0.010999999647985701
-0.06317819654941559,0.05831317603588104,9.784440994262695,-0.0071000000461936,-0.00029999998514540493,-0.029199998825788498,-0.007000000079177565,0.0009999999964224499,-0.010999999647985701
-0.05391742289066315,0.06353253871202469,9.785849571228027,0.0026000000070780516,-0.00029999998514540493,-0.029199998825788498,0.05200000106461238,0.0019999999928448997,0.04900000055424296
-0.05454949289560318,0.06754522025585175,9.780649185180664,0.0024999999441206455,0.009099999442696571,-0.029199998825788498,0.05300000012305109,0.06200000165415938,-0.010999999647985701
-0.05282566323876381,0.05091987922787666,9.771378517150879,0.0026000000070780516,-0.010400000028312206,-0.039000000804662704,0.05300000012305109,0.0009999999964224499,-0.010999999647985701
-0.05507621914148331,0.05137956887483597,9.77028751373291,0.0026000000070780516,-0.010400000028312206,-0.039000000804662704,0.05300000012305109,0.0009999999964224499,-0.010999999647985701
-0.0569915771484375,0.06135860085487366,9.763535499572754,0.0026000000070780516,-0.000699999975040555,-0.04879999905824661,0.05300000012305109,0.0009999999964224499,-0.010999999647985701
-0.06049668788909912,0.06871359050273895,9.766629219055176,-0.00699999975040555,0.008700000122189522,-0.04879999905824661,-0.007000000079177565,0.0009999999964224499,-0.010999999647985701
-0.05448245257139206,0.05448245257139206,9.77028751373291,0.0026000000070780516,-0.010599999688565731,-0.039000000804662704,0.05300000012305109,0.06200000165415938,-0.010999999647985701
-0.06163632869720459,0.04851610213518143,9.765077590942383,-0.006799999624490738,-0.010599999688565731,-0.04879999905824661,0.05300000012305109,0.06200000165415938,-0.010999999647985701
-0.053687579929828644,0.052002061158418655,9.77846622467041,-0.006599999964237213,-0.0008999999845400453,-0.04879999905824661,0.05300000012305109,0.0009999999964224499,-0.07199999890865307
-0.06421248614788055,0.0654095932841301,9.77856159210205,0.0031999999191612005,-0.010499999858438969,-0.029199998825788498,0.05300000012305109,0.0009999999964224499,-0.07199999890865307
-0.06200982257723808,0.062076862901449203,9.772768020629883,-0.006399999838322401,-0.0008999999845400453,-0.029099998995661736,-0.007000000079177565,0.0009999999964224499,-0.010999999647985701
-0.06336972862482071,0.06511270999908447,9.772153854370117,-0.006300000008195639,-0.0007999999797903001,-0.039000000804662704,-0.007000000079177565,0.06200000165415938,0.04900000055424296
-0.05741295590996742,0.05715438351035118,9.770545959472656,-0.006199999712407589,-0.0007999999797903001,-0.039000000804662704,0.05300000012305109,0.0009999999964224499,0.04900000055424296
-0.05746084079146385,0.057029884308576584,9.76722240447998,-0.006000000052154064,-0.010499999858438969,-0.04879999905824661,-0.007000000079177565,0.0009999999964224499,-0.010999999647985701
-0.06108087673783302,0.06016149744391441,9.76984691619873,-0.0058999997563660145,-0.0005999999702908099,-0.039000000804662704,-0.06800000267489824,0.0009999999964224499,-0.010999999647985701
-0.05212656036019325,0.0625557005405426,9.764291763305664,0.0037999998312443495,-0.00039999998989515007,-0.04879999905824661,0.05300000012305109,0.0009999999964224499,-0.010999999647985701
-0.044512998312711716,0.06237374246120453,9.761495590209961,0.013499999418854713,-0.0005999999702908099,-0.04879999905824661,0.05200000106461238,0.0019999999928448997,-0.010999999647985701
-0.04762545973062515,0.06992026418447495,9.767970085144043,0.013299999758601189,0.008899999782443047,-0.04879999905824661,0.05300000012305109,0.0009999999964224499,-0.010999999647985701
-0.05433880165219307,0.048994943499565125,9.761725425720215,0.003499999875202775,-0.010599999688565731,-0.04879999905824661,-0.007000000079177565,0.0009999999964224499,0.04900000055424296
-0.05488467961549759,0.058973975479602814,9.770172119140625,0.003399999812245369,-0.0007999999797903001,-0.039000000804662704,-0.007999999971379599,0.0019999999928448997,-0.010999999647985701
-0.05480806529521942,0.06602250784635544,9.755884170532227,0.003399999812245369,-0.0007999999797903001,-0.05859999731183052,-0.007000000079177565,0.0009999999964224499,-0.010999999647985701
-0.05861963331699371,0.06775590777397156,9.757884979248047,-0.006199999712407589,0.008899999782443047,-0.05859999731183052,-0.06800000267489824,0.0009999999964224499,0.04900000055424296
-0.05182010307908058,0.061339445412158966,9.76313304901123,0.003399999812245369,-0.000699999975040555,-0.04879999905824661,-0.007000000079177565,0.0009999999964224499,-0.07199999890865307
-0.059558164328336716,0.057288460433483124,9.757655143737793,-0.006199999712407589,-0.010300000198185444,-0.05859999731183052,0.05300000012305109,0.0009999999964224499,0.04900000055424296
-0.0502399280667305,0.06417418271303177,9.76171588897705,0.003499999875202775,-0.000699999975040555,-0.04879999905824661,-0.007000000079177565,0.0009999999964224499,-0.010999999647985701
-0.05291185900568962,0.060372188687324524,9.772088050842285,0.003399999812245369,-0.0005999999702908099,-0.039000000804662704,0.05300000012305109,-0.05900000114378995,-0.07199999890865307
-0.05143703147768974,0.06300581246614456,9.765833854675293,0.0031999999191612005,-0.0007999999797903001,-0.04879999905824661,0.05300000012305109,0.0009999999964224499,0.04900000055424296
-0.05978800728917122,0.06158844381570816,9.762510299682617,-0.006399999838322401,-0.0008999999845400453,-0.04879999905824661,0.05300000012305109,-0.05900000114378995,-0.010999999647985701
-0.06331226974725723,0.06584054231643677,9.755538940429688,-0.0064999996684491634,-0.0009999999310821295,-0.05859999731183052,-0.007000000079177565,0.06200000165415938,-0.010999999647985701
-0.0716823935508728,0.06244077906012535,9.761333465576172,-0.01589999906718731,-0.0009999999310821295,-0.04879999905824661,0.05300000012305109,-0.05900000114378995,-0.010999999647985701
-0.052480898797512054,0.06021896004676819,9.77175235748291,0.003399999812245369,-0.0011999999405816197,-0.039000000804662704,0.05300000012305109,0.0009999999964224499,-0.010999999647985701
-0.06002742424607277,0.04646666720509529,9.760279655456543,-0.006300000008195639,-0.010999999940395355,-0.04879999905824661,0.05300000012305109,-0.05900000114378995,0.04900000055424296
-0.06373365223407745,0.06042007356882095,9.764521598815918,-0.006199999712407589,-0.020800000056624413,-0.04879999905824661,0.05300000012305109,0.06200000165415938,0.04900000055424296
-0.05270116776227951,0.053304508328437805,9.75801944732666,-0.006300000008195639,-0.00139999995008111,-0.04879999905824661,0.05300000012305109,0.06200000165415938,-0.010999999647985701
-0.044398076832294464,0.050891149789094925,9.747025489807129,0.003599999938160181,-0.01119999960064888,-0.05859999731183052,-0.007000000079177565,0.06200000165415938,-0.010999999647985701
-0.058523863554000854,0.06002742424607277,9.761016845703125,-0.005799999926239252,-0.00139999995008111,-0.04879999905824661,0.05300000012305109,-0.05900000114378995,0.04900000055424296
-0.05274904891848564,0.04948335886001587,9.763477325439453,0.003700000001117587,-0.011299999430775642,-0.04879999905824661,-0.06800000267489824,0.06200000165415938,-0.010999999647985701
-0.05353435128927231,0.0638485699892044,9.76112174987793,0.0037999998312443495,-0.0013000000035390258,-0.04879999905824661,-0.007999999971379599,0.0019999999928448997,0.04900000055424296
-0.06191405653953552,0.056761734187603,9.764924049377441,-0.005799999926239252,-0.010900000110268593,-0.04879999905824661,-0.007000000079177565,0.0009999999964224499,-0.010999999647985701
-0.06469132751226425,0.05180094763636589,9.7667818069458,-0.005799999926239252,-0.010799999348819256,-0.04879999905824661,0.05300000012305109,0.06200000165415938,-0.010999999647985701
-0.05400361120700836,0.06467217206954956,9.758699417114258,0.004100000020116568,-0.0010999999940395355,-0.05859999731183052,0.05300000012305109,0.0009999999964224499,-0.010999999647985701
-0.05400361120700836,0.06467217206954956,9.758699417114258,0.004100000020116568,-0.0010999999940395355,-0.05859999731183052,0.05300000012305109,0.0009999999964224499,-0.010999999647985701
-0.059376202523708344,0.03916914016008377,9.763237953186035,-0.00559999980032444,-0.020399998873472214,-0.04879999905824661,-0.007000000079177565,0.0009999999964224499,-0.010999999647985701
-0.0521361343562603,0.06714299321174622,9.761993408203125,0.003999999724328518,0.008799999952316284,-0.04879999905824661,-0.06800000267489824,-0.05900000114378995,-0.010999999647985701
-0.07028418779373169,0.05997954308986664,9.765939712524414,0.003999999724328518,0.008799999952316284,-0.04879999905824661,0.05300000012305109,0.0009999999964224499,-0.010999999647985701
-0.06001785025000572,0.053735461086034775,9.755184173583984,-0.00559999980032444,-0.010499999858438969,-0.05859999731183052,0.05300000012305109,-0.05900000114378995,-0.010999999647985701
-0.054492030292749405,0.07473740726709366,9.764741897583008,0.0038999998942017555,0.008700000122189522,-0.04879999905824661,-0.007000000079177565,0.0009999999964224499,-0.010999999647985701
-0.060774415731430054,0.063973069190979,9.766839981079102,-0.005699999630451202,-0.0008999999845400453,-0.04879999905824661,0.05300000012305109,-0.05900000114378995,-0.010999999647985701
-0.058495137840509415,0.06514143943786621,9.764952659606934,-0.005799999926239252,-0.0010999999940395355,-0.04879999905824661,0.11400000605382507,0.0009999999964224499,-0.010999999647985701
-0.05813121795654297,0.04886086657643318,9.760700225830078,-0.005699999630451202,-0.011099999770522118,-0.04879999905824661,0.05300000012305109,0.0009999999964224499,-0.010999999647985701
-0.05556463077664375,0.06041049584746361,9.76223373413086,0.0038999998942017555,-0.00139999995008111,-0.04879999905824661,-0.06800000267489824,0.06200000165415938,-0.010999999647985701
-0.05483679473400116,0.05867709219455719,9.770037651062012,0.003999999724328518,-0.0011999999405816197,-0.039000000804662704,-0.007000000079177565,0.0009999999964224499,-0.010999999647985701
-0.07110778987407684,0.06259401142597198,9.765230178833008,-0.01529999915510416,-0.0011999999405816197,-0.04879999905824661,-0.06800000267489824,0.0009999999964224499,-0.010999999647985701
-0.05184883251786232,0.05327577516436577,9.769070625305176,0.00419999985024333,-0.010599999688565731,-0.039000000804662704,0.05300000012305109,0.06200000165415938,-0.010999999647985701
-0.054204728454351425,0.06463386863470078,9.768707275390625,0.004299999680370092,-0.0009999999310821295,-0.039000000804662704,-0.007000000079177565,0.06200000165415938,-0.010999999647985701
-0.05616797134280205,0.07415321469306946,9.772709846496582,0.004399999976158142,0.008599999360740185,-0.039000000804662704,-0.007000000079177565,0.0009999999964224499,-0.010999999647985701
-0.06675034016370773,0.05875370651483536,9.764847755432129,-0.005200000014156103,-0.0010999999940395355,-0.04879999905824661,-0.06800000267489824,0.06200000165415938,0.04900000055424296
-0.062028978019952774,0.05096776410937309,9.764838218688965,-0.004999999888241291,-0.010599999688565731,-0.04879999905824661,0.11400000605382507,0.06200000165415938,-0.010999999647985701
-0.05419514700770378,0.058303602039813995,9.77458667755127,0.004799999762326479,-0.0009999999310821295,-0.03889999911189079,-0.007000000079177565,0.0009999999964224499,-0.010999999647985701
-0.05861963331699371,0.05780560523271561,9.777326583862305,-0.004799999762326479,-0.0009999999310821295,-0.03889999911189079,-0.007000000079177565,0.0009999999964224499,-0.010999999647985701
-0.0501154288649559,0.06404968351125717,9.779787063598633,0.004799999762326479,-0.0009999999310821295,-0.029099998995661736,0.05300000012305109,0.0009999999964224499,-0.010999999647985701
-0.05844724923372269,0.04902367293834686,9.766858100891113,-0.004799999762326479,-0.010799999348819256,-0.04879999905824661,0.05300000012305109,0.0009999999964224499,0.04900000055424296
-0.042358215898275375,0.07232404500246048,9.77507495880127,0.014399999752640724,0.008499999530613422,-0.03889999911189079,0.05300000012305109,0.0009999999964224499,-0.07199999890865307
-0.054616525769233704,0.050086699426174164,9.776205062866211,0.004600000102072954,-0.010999999940395355,-0.03889999911189079,-0.007000000079177565,-0.05900000114378995,0.04900000055424296
-0.06263231486082077,0.06132029369473457,9.7652587890625,-0.005200000014156103,-0.0011999999405816197,-0.04879999905824661,0.05300000012305109,0.0009999999964224499,-0.010999999647985701
-0.04888959974050522,0.04718492925167084,9.7764253616333,0.004399999976158142,-0.020600000396370888,-0.039000000804662704,-0.007000000079177565,0.0009999999964224499,0.04900000055424296
-0.07013095915317535,0.055679552257061005,9.770105361938477,0.004399999976158142,-0.010699999518692493,-0.039000000804662704,-0.007000000079177565,0.0009999999964224499,-0.010999999647985701
-0.06811024993658066,0.07908527553081512,9.772882461547852,-0.015099999494850636,-0.010599999688565731,-0.039000000804662704,-0.007000000079177565,0.0009999999964224499,-0.010999999647985701
-0.055248599499464035,0.06177040562033653,9.780879020690918,-0.014800000004470348,0.018400000408291817,-0.03889999911189079,-0.007000000079177565,0.0009999999964224499,-0.010999999647985701
-0.05027823522686958,0.061387334018945694,9.778973579406738,0.0044999998062849045,-0.0011999999405816197,-0.029099998995661736,-0.007000000079177565,0.06200000165415938,-0.07199999890865307
-0.047644615173339844,0.06745903193950653,9.783761978149414,0.014299999922513962,0.00839999970048666,-0.029099998995661736,-0.007000000079177565,0.0009999999964224499,0.04900000055424296
-0.055057063698768616,0.05978800728917122,9.774663925170898,0.004399999976158142,-0.0011999999405816197,-0.039000000804662704,-0.007000000079177565,0.06200000165415938,-0.010999999647985701
-0.05099649727344513,0.05900270864367485,9.77033519744873,0.004600000102072954,-0.0011999999405816197,-0.03889999911189079,0.05300000012305109,-0.05900000114378995,-0.010999999647985701
-0.04085465520620346,0.06073610857129097,9.775296211242676,0.0139999995008111,-0.0013000000035390258,-0.039000000804662704,0.11400000605382507,0.06200000165415938,-0.07199999890865307
-0.05308423936367035,0.05684792250394821,9.769951820373535,0.004299999680370092,-0.01119999960064888,-0.039000000804662704,-0.128999995265459,-0.05900000114378995,0.04900000055424296
-0.04962701350450516,0.05240428447723389,9.780065536499023,0.003999999724328518,-0.010499999858438969,-0.029099998995661736,-0.007000000079177565,-0.05900000114378995,-0.010999999647985701
-0.04985685646533966,0.07066725939512253,9.763822555541992,0.0038999998942017555,0.008899999782443047,-0.04879999905824661,-0.007000000079177565,-0.05900000114378995,-0.010999999647985701
-0.05506663769483566,0.06719087809324265,9.764320373535156,0.003700000001117587,0.008799999952316284,-0.04879999905824661,-0.007000000079177565,0.0009999999964224499,-0.010999999647985701
-0.062076862901449203,0.067181296646595,9.77192497253418,-0.0058999997563660145,0.008799999952316284,-0.039000000804662704,0.05300000012305109,0.0009999999964224499,0.04900000055424296
-0.06254612654447556,0.06914454698562622,9.778925895690918,-0.005799999926239252,0.008499999530613422,-0.029099998995661736,0.05300000012305109,-0.05900000114378995,-0.010999999647985701
-0.055459290742874146,0.06743986904621124,9.775918006896973,0.003700000001117587,0.008200000040233135,-0.039000000804662704,0.11299999699022645,-0.05799999875029794,-0.010999999647985701
-0.06700892001390457,0.0713280588388443,9.78005599975586,-0.006099999882280827,0.007799999788403511,-0.029099998995661736,0.05300000012305109,-0.05900000114378995,-0.010999999647985701
-0.06452852487564087,0.05599559098482132,9.779892921447754,-0.006099999882280827,-0.011599999852478504,-0.029099998995661736,-0.007000000079177565,0.06200000165415938,-0.010999999647985701
-0.06073610857129097,0.058973975479602814,9.770392417907715,-0.005799999926239252,-0.0016999999061226845,-0.03889999911189079,0.05300000012305109,0.06200000165415938,-0.010999999647985701
-0.054539911448955536,0.05696284770965576,9.773293495178223,0.003999999724328518,-0.011500000022351742,-0.03889999911189079,-0.007000000079177565,-0.05900000114378995,-0.010999999647985701
-0.041084498167037964,0.06598419696092606,9.777469635009766,0.013499999418854713,-0.0015999999595806003,-0.039000000804662704,-0.007000000079177565,0.0009999999964224499,-0.010999999647985701
-0.05112099274992943,0.07658572494983673,9.793319702148438,0.003599999938160181,0.007899999618530273,-0.019299998879432678,-0.007999999971379599,0.0019999999928448997,-0.010999999647985701
-0.062076862901449203,0.049828123301267624,9.775735855102539,-0.006000000052154064,-0.011399999260902405,-0.039000000804662704,-0.007999999971379599,0.12400000330831876,-0.07199999890865307
-0.057690683752298355,0.060554150491952896,9.780668258666992,-0.005499999970197678,-0.001500000013038516,-0.029099998995661736,0.05200000106461238,-0.05799999875029794,-0.07199999890865307
-0.052002061158418655,0.06051584333181381,9.772316932678223,-0.00559999980032444,-0.0015999999595806003,-0.03889999911189079,-0.007000000079177565,0.0009999999964224499,-0.010999999647985701
-0.04842033237218857,0.059749700129032135,9.77502727508545,0.004100000020116568,-0.0016999999061226845,-0.03889999911189079,-0.007000000079177565,0.0009999999964224499,-0.010999999647985701
-0.05502833053469658,0.06793786585330963,9.773505210876465,0.003999999724328518,-0.0015999999595806003,-0.03889999911189079,-0.007000000079177565,0.0009999999964224499,-0.010999999647985701
-0.05502833053469658,0.06793786585330963,9.773505210876465,0.003999999724328518,0.008200000040233135,-0.039000000804662704,-0.007000000079177565,0.0009999999964224499,-0.010999999647985701
-0.05387911573052406,0.05753745511174202,9.775429725646973,0.004299999680370092,-0.0010999999940395355,-0.039000000804662704,-0.007000000079177565,0.0009999999964224499,-0.010999999647985701
-0.05454949289560318,0.05455906689167023,9.77268123626709,0.004299999680370092,-0.010699999518692493,-0.039000000804662704,0.05300000012305109,-0.1199999937343507,0.04900000055424296
-0.04504929855465889,0.062316279858350754,9.796412467956543,0.013399999588727951,-0.0009999999310821295,-0.019299998879432678,-0.007000000079177565,0.0009999999964224499,0.04900000055424296
-0.0543866828083992,0.06110960245132446,9.779509544372559,0.003599999938160181,-0.0009999999310821295,-0.029099998995661736,-0.007999999971379599,0.0019999999928448997,-0.010999999647985701
-0.051858410239219666,0.0584089420735836,9.783052444458008,0.003499999875202775,-0.0008999999845400453,-0.029099998995661736,-0.007999999971379599,0.0019999999928448997,-0.010999999647985701
-0.05654146522283554,0.05725015327334404,9.771598815917969,0.003499999875202775,-0.010499999858438969,-0.039000000804662704,0.05200000106461238,-0.05799999875029794,-0.010999999647985701
-0.05159026011824608,0.06199067085981369,9.785505294799805,0.0032999999821186066,-0.0007999999797903001,-0.029199998825788498,-0.128999995265459,0.06200000165415938,0.04900000055424296
-0.06302496790885925,0.06702806800603867,9.780601501464844,-0.006099999882280827,-0.0004999999655410647,-0.029199998825788498,-0.06899999839828364,0.0019999999928448997,-0.010999999647985701
-0.06310158222913742,0.05514325201511383,9.771522521972656,-0.006000000052154064,-0.00989999994635582,-0.039000000804662704,-0.007000000079177565,0.0009999999964224499,0.04900000055424296
-0.04519294947385788,0.055957283824682236,9.776962280273438,0.013299999758601189,-0.00969999935477972,-0.039000000804662704,0.05300000012305109,0.0009999999964224499,0.04900000055424296
-0.06627149879932404,0.05623500794172287,9.789019584655762,-0.006000000052154064,-0.009599999524652958,-0.019299998879432678,0.05200000106461238,0.0019999999928448997,-0.07199999890865307
-0.0624503567814827,0.04637089744210243,9.785120964050293,-0.0058999997563660145,-0.019199999049305916,-0.029199998825788498,-0.007000000079177565,0.0009999999964224499,-0.010999999647985701
-0.0674302950501442,0.05861963331699371,9.776071548461914,-0.01549999974668026,0.00039999998989515007,-0.039000000804662704,-0.06800000267489824,0.0009999999964224499,-0.010999999647985701
-0.059136781841516495,0.05471229553222656,9.772652626037598,-0.00559999980032444,-0.008999999612569809,-0.039000000804662704,0.05200000106461238,0.06299999737754478,-0.010999999647985701
-0.053448159247636795,0.06486371904611588,9.771819114685059,0.00419999985024333,0.0005999999702908099,-0.039000000804662704,0.05300000012305109,0.0009999999964224499,-0.010999999647985701
-0.048707637935876846,0.057575762271881104,9.771349906921387,0.00419999985024333,0.0005999999702908099,-0.039000000804662704,0.05300000012305109,-0.05900000114378995,0.04900000055424296
-0.048707637935876846,0.057575762271881104,9.771349906921387,0.00419999985024333,0.0004999999655410647,-0.039000000804662704,0.05300000012305109,-0.05900000114378995,0.04900000055424296
-0.05277778208255768,0.06360915303230286,9.782649993896484,0.003999999724328518,0.00039999998989515007,-0.029199998825788498,-0.007999999971379599,0.0019999999928448997,-0.07199999890865307
-0.058303602039813995,0.06570647656917572,9.782028198242188,-0.00559999980032444,0.00039999998989515007,-0.029199998825788498,-0.007999999971379599,0.0019999999928448997,-0.07199999890865307
-0.04678269848227501,0.0665971115231514,9.777316093444824,0.013799999840557575,0.00039999998989515007,-0.039000000804662704,-0.06800000267489824,0.0009999999964224499,0.04900000055424296
-0.05556463077664375,0.06038176640868187,9.78837776184082,-0.00559999980032444,-0.008899999782443047,-0.029199998825788498,-0.007999999971379599,0.0019999999928448997,-0.010999999647985701
-0.06803363561630249,0.05488467961549759,9.78233528137207,0.003999999724328518,0.0007999999797903001,-0.019299998879432678,-0.007999999971379599,0.0019999999928448997,-0.010999999647985701
-0.05860047787427902,0.05333323776721954,9.78490161895752,-0.015199999324977398,-0.008700000122189522,-0.029199998825788498,-0.007000000079177565,0.0009999999964224499,0.04900000055424296
-0.05774814635515213,0.06285258382558823,9.795215606689453,-0.0052999998442828655,-0.008499999530613422,-0.029199998825788498,0.11299999699022645,-0.05799999875029794,-0.010999999647985701
-0.05716396123170853,0.07175900787115097,9.778274536132812,0.004299999680370092,0.010599999688565731,-0.029199998825788498,-0.007000000079177565,0.0009999999964224499,0.04900000055424296
-0.04807556793093681,0.04729985073208809,9.784805297851562,0.004299999680370092,-0.018400000408291817,-0.029199998825788498,0.05300000012305109,0.0009999999964224499,0.04900000055424296
-0.042597636580467224,0.0499909333884716,9.781213760375977,0.013899999670684338,-0.008499999530613422,-0.029199998825788498,-0.06899999839828364,0.0019999999928448997,0.04900000055424296
-0.0580546036362648,0.06537128239870071,9.776023864746094,-0.00559999980032444,0.00139999995008111,-0.039000000804662704,-0.06899999839828364,0.0019999999928448997,0.04900000055424296
-0.05718311294913292,0.07264965772628784,9.775467872619629,0.004100000020116568,0.01119999960064888,-0.039000000804662704,0.05200000106461238,0.0019999999928448997,-0.010999999647985701
-0.0553252138197422,0.059155937284231186,9.773476600646973,0.004100000020116568,0.0013000000035390258,-0.039000000804662704,-0.007999999971379599,0.0019999999928448997,-0.010999999647985701
-0.05506663769483566,0.050986919552087784,9.7774019241333,0.003999999724328518,-0.008200000040233135,-0.039000000804662704,-0.007999999971379599,0.06299999737754478,-0.010999999647985701
