Accelerometer_Gx,Accelerometer_Gy,Accelerometer_Gz,Accelerometer_X,Accelerometer_Y,Accelerometer_Z,Gyroscope_Z,Gyroscope_X,Gyroscope_Y
-0.051245495676994324,0.06993941962718964,9.757492065429688,-0.0071000000461936,-0.013299999758601189,-0.039000000804662704,-0.03599999945432653,0.1509999945614304,-0.23900000508552924
-0.053285352885723114,0.07105033099651337,9.75459098815918,-0.0071000000461936,-0.013299999758601189,-0.039000000804662704,-0.0009999999964224499,-0.3100000082707969,-0.1390000058601659
-0.050603847950696945,0.07292738556861877,9.761955261230469,-0.0071000000461936,-0.013299999758601189,-0.039000000804662704,0.6829999738984989,-1.0989999557349714,0.3499999972887716
-0.049943044781684875,0.07631757110357285,9.76445484161377,-0.0052999998442828655,0.0030999998562037945,-0.04879999905824661,-2.213000074104349,0.6149999979040272,-0.49000001221253614
-0.04646666720509529,0.0646817535161972,9.766485214233398,0.006300000008195639,0,-0.04879999905824661,-2.847999986476084,1.8689999444341838,-0.26600000967885407
-0.04781699925661087,0.06600335240364075,9.753556251525879,0.007899999618530273,0.006199999712407589,-0.05859999731183052,-1.627000045559991,0.14300000209392072,0.06099999926066736
-0.04781699925661087,0.06600335240364075,9.753556251525879,0.007899999618530273,0.006199999712407589,-0.05859999731183052,-1.627000045559991,0.14300000209392072,0.06099999926066736
-0.041620802134275436,0.07527370750904083,9.77307415008545,0.004699999932199717,0.022199999541044235,-0.039000000804662704,-2.1009999127549492,0.15399999507179982,0.26200000010488605
-0.04435976967215538,0.08131666481494904,9.768716812133789,0.004699999932199717,0.022199999541044235,-0.039000000804662704,1.8459999227344006,1.7829999653774955,0.6810000091321545
-0.040155552327632904,0.060295574367046356,9.770699501037598,0.008999999612569809,0.00969999935477972,-0.039000000804662704,1.479999967191036,1.4249999756212142,0.21999999295971404
-0.055765748023986816,0.06614699959754944,9.756917953491211,0.0023999998811632395,0.004299999680370092,-0.05859999731183052,1.3269999945230482,1.7200000080205904,-0.5270000007201415
-0.055765748023986816,0.06614699959754944,9.756917953491211,0.0023999998811632395,0.004299999680370092,-0.05859999731183052,1.3269999945230482,1.7200000080205904,-0.5270000007201415
-0.04765418916940689,0.06765056401491165,9.764311790466309,0.01549999974668026,-0.000699999975040555,-0.03889999911189079,0.7020000127047406,-1.9389999919167058,0.19799999366374263
-0.058543018996715546,0.0685986652970314,9.764062881469727,-0.014099999330937862,0.006599999964237213,-0.04879999905824661,-2.121999969688388,1.4050000077926532,-0.2609999910412874
-0.049847278743982315,0.07197927683591843,9.748920440673828,-0.00019999999494757503,0.011799999512732029,-0.06839999556541443,-0.20800000425844953,-1.2509999460197874,-0.3559999983095105
-0.04949294030666351,0.07936299592256546,9.762194633483887,-0.00279999990016222,0.02019999921321869,-0.04879999905824661,2.7309999132108236,1.3370000317981814,-0.0749999994190225
-0.06054457277059555,0.06358042359352112,9.770450592041016,-0.007799999788403511,-0.009599999524652958,-0.03889999911189079,-1.6689999459834572,1.1240000489228048,-0.046999999102312236
-0.05303635820746422,0.07040868699550629,9.764971733093262,0.004299999680370092,0.002899999963119626,-0.0486999973654747,1.5039999712739915,0.19099999691961836,0.18099999966512467
-0.04969405010342598,0.07096414268016815,9.76859188079834,0.004799999762326479,-0.002099999925121665,-0.03889999911189079,0.12100000279794933,-0.8949999743907032,0.2499999980634083
-0.055650826543569565,0.07189308851957321,9.76161003112793,0.0024999999441206455,-0.0026000000070780516,-0.0486999973654747,-0.39599998732748526,0.3450000053316314,0.15800000464576788
-0.04808514937758446,0.06902962177991867,9.762337684631348,0.0032999999821186066,-0.0015999999595806003,-0.0486999973654747,1.75899996129454,-0.5009999785099888,-0.5679999721212884
-0.05312254652380943,0.06743986904621124,9.752714157104492,0.00139999995008111,-0.007599999662488699,-0.05849999934434891,-0.8720000060517729,1.401999953921431,0.057000003026912535
-0.03929363936185837,0.0682443231344223,9.76014518737793,0.013700000010430813,-0.00559999980032444,-0.0486999973654747,-1.8170000067355843,0.12700000381868817,-0.12299999424472013
-0.05033569782972336,0.06196194142103195,9.76437759399414,0.003999999724328518,-0.009499999694526196,-0.0486999973654747,0.43400001157911566,-0.013000000266153095,0
-0.07445009797811508,0.0649307444691658,9.772269248962402,-0.01549999974668026,-0.010199999436736107,-0.03889999911189079,1.904999950558617,0.3819999938392367,-0.14399999781730613
-0.04797980189323425,0.059232551604509354,9.751439094543457,0.004999999888241291,-0.01489999983459711,-0.05849999934434891,1.2729999853363985,0.49000001221253614,-0.1629999966029081
-0.05706819146871567,0.059653930366039276,9.770018577575684,0.0064999996684491634,-0.01860000006854534,-0.03879999741911888,-0.3459999877148036,-0.25599999908414717,-0.041000001416626686
-0.06377195566892624,0.06552451103925705,9.764388084411621,-0.003700000001117587,-0.01719999872148037,-0.0486999973654747,0.9990000098704611,0.9620000213628558,0.45300002370493087
-0.060554150491952896,0.06402094662189484,9.757463455200195,-0.0007999999797903001,-0.019500000402331352,-0.058399997651576996,-1.0789999879064105,0.17100000241063099,-0.07600000181251451
-0.05032612010836601,0.05291185900568962,9.75687026977539,0.009200000204145908,-0.02579999901354313,-0.05849999934434891,0.5540000053134664,-1.9740000156579667,-0.11099999887334903
-0.05412811413407326,0.06914454698562622,9.766044616699219,0.003700000001117587,-0.00699999975040555,-0.0486999973654747,0.7320000178084348,-2.4519999191073194,-0.5059999971475555
-0.03768473491072655,0.0661182701587677,9.759273529052734,0.014599999412894249,-0.01860000006854534,-0.0486999973654747,0.3439999962680328,0.1939999974299878,0.28799999563461226
-0.0528448186814785,0.05978800728917122,9.761984825134277,-0.004600000102072954,-0.018699999898672104,-0.0486999973654747,-0.3049999896332302,0.32299999269544677,-0.33900000431089256
-0.05043146386742592,0.07242938876152039,9.754331588745117,-0.003700000001117587,-0.007400000002235174,-0.05849999934434891,1.2880000412490984,-0.6999999945775432,0.0030000000934877653
-0.05528690665960312,0.07273584604263306,9.75551986694336,-0.005399999674409628,-0.009999999776482582,-0.05849999934434891,0.31800000073830653,-1.9189999173664392,0.42599999243117953
-0.05025908350944519,0.06758352369070053,9.77851390838623,-0.010499999858438969,-0.010400000028312206,-0.029099998995661736,-0.5879999933107023,-0.10499999785261017,-0.42200000953763794
-0.05194459855556488,0.06658753752708435,9.755854606628418,-0.010699999518692493,-0.01759999990463257,-0.05849999934434891,0.07999999804626934,-0.3579999897562813,0.21700000578955783
-0.057144805788993835,0.07181647419929504,9.756697654724121,-0.011299999430775642,-0.007599999662488699,-0.05849999934434891,0.7999999938029067,-1.073999969268844,0.4109999898793324
-0.047453079372644424,0.06914454698562622,9.767959594726562,-0.00419999985024333,-0.009399999864399433,-0.0486999973654747,-0.13499999628619785,0.39699999639108385,-0.041000001416626686
-0.06535212695598602,0.06963296234607697,9.758622169494629,-0.022499999031424522,-0.008700000122189522,-0.05849999934434891,2.2959998925681093,-1.9740000156579667,0.2920000052085803
-0.05453033745288849,0.0646817535161972,9.765756607055664,-0.01769999973475933,-0.024299999698996544,-0.0486999973654747,-1.7430000297203736,1.2929999531649594,0.07900000232288394
-0.05469314008951187,0.07496725022792816,9.765077590942383,-0.012899999506771564,0.001500000013038516,-0.0486999973654747,-2.3269999867766815,2.1520000815137883,-0.049999999612681666
-0.04393838718533516,0.06612785160541534,9.760193824768066,-0.012799999676644802,-0.009099999442696571,-0.0486999973654747,-2.245999919635854,0.1199999937343507,-0.33000000277978425
-0.048209644854068756,0.0681198239326477,9.76636028289795,0.0037999998312443495,-0.011399999260902405,-0.0486999973654747,1.9649999607660056,-1.3260000121398758,0.5759999912692245
-0.03922659903764725,0.07009264826774597,9.761783599853516,0.0007999999797903001,-0.0013000000035390258,-0.04879999905824661,-0.6260000175623326,0.7320000178084348,0.4310000110687462
-0.03922659903764725,0.07009264826774597,9.761783599853516,0.0007999999797903001,-0.0013000000035390258,-0.04879999905824661,-0.6260000175623326,0.7320000178084348,0.4310000110687462
-0.0408833883702755,0.07017884403467178,9.776119232177734,0.002899999963119626,0.0023999998811632395,-0.039000000804662704,1.7190000256374183,0.1939999974299878,-0.4999999961268166
-0.048544835299253464,0.05656062066555023,9.768716812133789,-0.006099999882280827,-0.022199999541044235,-0.03889999911189079,-0.43799999447265725,0.9299999447711114,-0.33600000380052314
-0.05501875653862953,0.06947015225887299,9.753335952758789,-0.0037999998312443495,-0.00139999995008111,-0.05849999934434891,2.882000027834173,0.41499999945330046,0.30799999014359963
-0.06045838072896004,0.07089710235595703,9.761887550354004,-0.012299999594688416,-0.009099999442696571,-0.0486999973654747,2.2699999237188093,-1.222000030020971,-0.3369999861836953
-0.059280432760715485,0.06667372584342957,9.760490417480469,-0.012299999594688416,-0.009099999442696571,-0.0486999973654747,0.4679999728959251,-0.6330000009662436,-0.1079999983629796
-0.04971320182085037,0.0708492174744606,9.76467514038086,-0.007699999958276749,-0.01730000041425228,-0.04859999939799309,1.521999974336208,0.6879999925360656,0.48599997595814165
-0.0472806952893734,0.06971915066242218,9.76903247833252,0.004100000020116568,-0.021299999207258224,-0.03879999741911888,0.7230000162773266,-0.8110000134612122,-0.4630000076192113
-0.04369897022843361,0.06969042122364044,9.776463508605957,0.002300000051036477,-0.022699998691678047,-0.03879999741911888,1.7370000286996348,-1.4429999786834307,-0.4489999874505363
-0.05744168907403946,0.05634992942214012,9.76744270324707,-0.011299999430775642,-0.04649999737739563,-0.04859999939799309,-0.26000000865811523,-1.1419999452633156,-0.34899998822517303
-0.04294240102171898,0.06788040697574615,9.757856369018555,-0.005200000014156103,-0.02539999969303608,-0.058399997651576996,-0.21700000578955783,-0.648999985901263,0.0019999999928448997
-0.06040092185139656,0.059299588203430176,9.764225006103516,-0.02589999884366989,-0.034199997782707214,-0.04859999939799309,-2.15300006389696,2.825999947159473,0.1400000015835513
-0.05422388017177582,0.07232404500246048,9.763851165771484,-0.006199999712407589,-0.014800000004470348,-0.04859999939799309,-0.4199999914104407,-1.948000046808667,-0.5759999912692245
-0.054013192653656006,0.07445967197418213,9.754457473754883,-0.011399999260902405,-0.013199999928474426,-0.05849999934434891,-1.3639999830306535,1.8819999288588338,0.2770000026567332
-0.048784252256155014,0.06125325709581375,9.756420135498047,-0.004799999762326479,-0.017999999225139618,-0.05849999934434891,0.3950000049443131,1.1610000374304101,0.2069999951948509
-0.04743392392992973,0.062431201338768005,9.763535499572754,0.007400000002235174,-0.018400000408291817,-0.0486999973654747,-1.9169999526000947,0.017999999727163266,-0.36099999026665075
-0.05393657833337784,0.06089891493320465,9.761677742004395,-0.002199999988079071,-0.01209999993443489,-0.0486999973654747,-1.9769999628074832,-0.28199999461387343,-0.42599999243117953
-0.05149449035525322,0.06917327642440796,9.767289161682129,-0.00279999990016222,0.0026000000070780516,-0.04879999905824661,-2.9430000204247335,0.9920000264665501,-0.3349999947369245
-0.06076483801007271,0.06357084214687347,9.7665433883667,-0.009800000116229057,0.0009999999310821295,-0.04879999905824661,1.7839999477606676,-1.132000014709888,-0.390999995370345
-0.05151364579796791,0.08025363832712173,9.753824234008789,-0.0037999998312443495,0.014499999582767487,-0.05859999731183052,-2.583999941563574,1.7349999572115846,0.35899999881987993
-0.05986462160944939,0.06709510833024979,9.75522232055664,-0.00930000003427267,0.010900000110268593,-0.05859999731183052,-0.3989999878378547,-2.4649999035319694,-0.3310000118433829
-0.05879201367497444,0.058399368077516556,9.755624771118164,-0.01589999906718731,0.002199999988079071,-0.05859999731183052,-1.9149999878337503,0.321000001248676,-0.2379999960219306
-0.055909398943185806,0.06863696873188019,9.763094902038574,-0.005200000014156103,0.016499999910593033,-0.04879999905824661,0.21100000476881897,1.3649999654138256,0.5879999933107023
-0.05969223752617836,0.07589619606733322,9.76308536529541,-0.011099999770522118,0.015799999237060547,-0.04879999905824661,-1.4960000054869083,1.479999967191036,0.6239999994351354
-0.050891149789094925,0.05951027572154999,9.767796516418457,0.003700000001117587,0.010900000110268593,-0.04879999905824661,-0.9469999654501557,-0.9039999759218116,-0.7680000239328679
-0.05491340905427933,0.06533297896385193,9.762749671936035,0.0015999999595806003,0.012999999336898327,-0.04879999905824661,0.5309999836136831,-1.41000002643022,-0.09300000248123906
-0.051906291395425797,0.06815813481807709,9.752684593200684,-0.002099999925121665,0.021199999377131462,-0.05859999731183052,-0.8269999983962315,1.5029999888908194,0.33900000431089256
-0.05016331374645233,0.06544789671897888,9.755385398864746,0.00139999995008111,0.013100000098347664,-0.05859999731183052,1.3920000233680034,-2.803999907842862,-0.6320000185830715
-0.06075526028871536,0.06564901024103165,9.766427993774414,-0.01589999906718731,0.009200000204145908,-0.04879999905824661,-3.2320000518033707,-1.8260000616275454,-0.2810000122307012
-0.06085103377699852,0.06757394969463348,9.754897117614746,-0.021900000050663948,0.02979999966919422,-0.05869999900460243,1.725000026658157,-0.9519999840877224,-0.013000000266153095
-0.05019204318523407,0.07046613842248917,9.752015113830566,-0.014299999922513962,0.025299999862909317,-0.05869999900460243,3.3939999726416143,-1.0269999434861052,-0.2800000031671026
-0.056196700781583786,0.07656657695770264,9.761917114257812,-0.016899999231100082,0.015799999237060547,-0.048899997025728226,2.5430000235232804,0.5380000203784471,0.4190000090272685
-0.04599740356206894,0.07271669805049896,9.773245811462402,-0.00559999980032444,0.009499999694526196,-0.039000000804662704,-2.1680000130879544,0.9430000359174671,0.6380000196038104
-0.04935886338353157,0.06388688087463379,9.754982948303223,-0.01269999984651804,0.005399999674409628,-0.05869999900460243,4.068000051730711,-0.6540000045388297,-0.08200000283325337
-0.05869624763727188,0.07642292231321335,9.76903247833252,-0.02449999935925007,0.0010999999940395355,-0.039000000804662704,2.967000024507689,-0.711999996619021,-0.5639999892277469
-0.05258624628186226,0.07055233418941498,9.763276100158691,-0.01599999889731407,-0.004999999888241291,-0.0486999973654747,0.5140000162954916,-0.9949999736160666,0.24299998797907083
-0.05376419425010681,0.0719313994050026,9.766647338867188,-0.018799999728798866,-0.006599999964237213,-0.0486999973654747,-0.9570000027252891,-1.9490000291918392,-0.9359999457918502
-0.05327577516436577,0.0710982158780098,9.761170387268066,-0.02319999970495701,-0.004299999680370092,-0.04879999905824661,1.388999969496781,2.4830000133158916,-0.5560000234406636
-0.0444268062710762,0.06805279105901718,9.758565902709961,-0.006399999838322401,-0.008100000210106373,-0.05849999934434891,-0.13000000432905762,0.9599999498748056,0.31699999167470794
-0.05856217071413994,0.06295792758464813,9.76565170288086,-0.022499999031424522,-0.017400000244379044,-0.0486999973654747,2.0920000713063995,-1.7979999145684897,-0.8989999572842449
-0.04710831493139267,0.07496725022792816,9.763018608093262,-0.02539999969303608,-0.019700000062584877,-0.0486999973654747,-1.9950000725914057,1.9389999919167058,0.5889999756938744
-0.04556644707918167,0.06891470402479172,9.768773078918457,-0.006300000008195639,-0.011299999430775642,-0.03889999911189079,-2.448999971957803,-0.9190000318345116,0.25599999908414717
-0.048161763697862625,0.06605123728513718,9.752915382385254,-0.018400000408291817,-0.014299999922513962,-0.05859999731183052,-0.8119999958443843,-0.43400001157911566,-0.08899999957737763
-0.048161763697862625,0.06605123728513718,9.752915382385254,-0.018400000408291817,-0.014299999922513962,-0.05859999731183052,-0.8119999958443843,-0.43400001157911566,-0.08899999957737763
-0.04787445813417435,0.08159439265727997,9.765527725219727,-0.011099999770522118,0.00419999985024333,-0.04879999905824661,-0.4280000105583768,-1.5099999722947304,-0.15999999609253868
-0.05279693752527237,0.06175125017762184,9.744841575622559,-0.02539999969303608,-0.013899999670684338,-0.06839999556541443,3.0150000326736,-0.07300000130214508,-0.13000000432905762
-0.06296750903129578,0.0684933215379715,9.768065452575684,-0.035099998116493225,-0.01119999960064888,-0.0486999973654747,3.2710000050773207,-0.22299999347008345,-0.01700000066872456
-0.04326801374554634,0.06427952647209167,9.758009910583496,-0.01589999906718731,-0.02979999966919422,-0.05849999934434891,-1.1750000042382323,-0.7840000088678873,-0.2729999930827651
-0.04950251430273056,0.06708553433418274,9.76530647277832,-0.01589999906718731,-0.02979999966919422,-0.05849999934434891,0.5699999902484857,-1.3759999850721312,0.15599999985878385
-0.04707000404596329,0.0665971115231514,9.764827728271484,-0.020899999886751175,-0.026599999517202377,-0.0486999973654747,-2.822000017626784,-0.2589999995945166,-0.26600000967885407
-0.059347473084926605,0.06879977881908417,9.74636459350586,-0.04099999740719795,-0.007899999618530273,-0.06839999556541443,-2.816999892267512,0.7909999922717983,0.5489999866758997
-0.04344997555017471,0.07303272932767868,9.750845909118652,-0.019199999049305916,-0.0009999999310821295,-0.05859999731183052,0.4519999879609058,-0.7650000234224985,-0.2609999910412874
-0.04673481732606888,0.0741627886891365,9.761582374572754,-0.020999999716877937,-0.002199999988079071,-0.04879999905824661,0.1390000058601659,-0.8969999925179005,-0.733000000191607
-0.05095818638801575,0.06995857506990433,9.777277946472168,-0.020999999716877937,-0.002199999988079071,-0.04879999905824661,1.7579999789113678,-0.9430000359174671,-0.35499998924591186
-0.0469263531267643,0.0763079971075058,9.765202522277832,-0.02589999884366989,-0.00699999975040555,-0.04879999905824661,-2.2229998979360706,-1.0869999536934938,-0.3510000063523703
-0.06125325709581375,0.0727454200387001,9.770057678222656,-0.0478999987244606,-0.0013000000035390258,-0.039000000804662704,4.317000147452226,-0.28499999512424284,-0.03599999945432653
-0.04341166839003563,0.0674111396074295,9.758766174316406,-0.02589999884366989,-0.014399999752640724,-0.0486999973654747,1.4359999952795197,-0.49000001221253614,-0.08700000146050021
-0.04341166839003563,0.0674111396074295,9.758766174316406,-0.02589999884366989,-0.014399999752640724,-0.0486999973654747,1.4359999952795197,-0.49000001221253614,-0.08700000146050021
-0.05476018041372299,0.06319735199213028,9.762060165405273,-0.03709999844431877,-0.028999999165534973,-0.0486999973654747,-0.6099999792664604,-1.3359999426933036,-0.4109999898793324
-0.04278917238116264,0.0662236139178276,9.753451347351074,-0.02969999983906746,-0.027499999850988388,-0.05849999934434891,0.22100000202331266,0.12799999954207358,-0.41199999894293104
-0.05597643554210663,0.06483498215675354,9.752215385437012,-0.03579999879002571,-0.020800000056624413,-0.05849999934434891,-1.1000000448398495,0.8069999772068176,0.28699998657101367
-0.05597643554210663,0.06483498215675354,9.752215385437012,-0.03579999879002571,-0.020800000056624413,-0.05849999934434891,-1.1000000448398495,0.8069999772068176,0.28699998657101367
-0.054444145411252975,0.06922116130590439,9.758708953857422,-0.033299997448921204,-0.007799999788403511,-0.05859999731183052,1.0269999434861052,-1.2329999429575706,-0.5519999871862691
-0.055440135300159454,0.06807194650173187,9.768716812133789,-0.03709999844431877,-0.01119999960064888,-0.03889999911189079,-2.80700006843579,1.0869999536934938,0.10499999785261017
-0.041218578815460205,0.07807012647390366,9.749064445495605,-0.024799998849630356,0.004399999976158142,-0.06839999556541443,-0.2250000115972807,1.1469999639008823,0.32899999371618566
-0.06352295726537704,0.0692020058631897,9.758986473083496,-0.04050000011920929,-0.004600000102072954,-0.04879999905824661,-2.632999932112657,-1.3260000121398758,-0.45300002370493087
-0.05113057419657707,0.05488467961549759,9.758172988891602,-0.03359999880194664,-0.017799999564886093,-0.05859999731183052,-1.5649999638645522,-0.7020000127047406,-0.2039999946844815
-0.05125506967306137,0.0772465243935585,9.757962226867676,-0.035099998116493225,0.01589999906718731,-0.05859999731183052,2.067000084840272,-2.2240000937626543,-0.7799999726134927
-0.0584089420735836,0.07215166836977005,9.755328178405762,-0.05219999700784683,-0.0008999999845400453,-0.05859999731183052,0.9370000348967281,1.3579999820099147,0.8549999853727285
-0.044608764350414276,0.07175900787115097,9.762884140014648,-0.029399998486042023,-0.00279999990016222,-0.04879999905824661,0.4270000014947782,-0.5420000032719886,-0.39699999639108385
-0.043564897030591965,0.07610688358545303,9.764291763305664,-0.030700000002980232,-0.0072999997064471245,-0.04879999905824661,-0.7829999731238623,-0.3819999938392367,-0.27599999359313454
-0.05435795709490776,0.07029376178979874,9.773763656616211,-0.030700000002980232,-0.0072999997064471245,-0.04879999905824661,-0.8059999948236455,-2.3539999380091534,-0.9120000484306006
-0.05435795709490776,0.07029376178979874,9.773763656616211,-0.041200000792741776,-0.004999999888241291,-0.039000000804662704,-0.8059999948236455,-2.3539999380091534,-0.9120000484306006
-0.05725972726941109,0.055296480655670166,9.764023780822754,-0.048899997025728226,-0.012000000104308128,-0.05859999731183052,-0.46000000710884187,0.31699999167470794,0.25100000712700693
-0.05725972726941109,0.055296480655670166,9.764023780822754,-0.04649999737739563,-0.020899999886751175,-0.04879999905824661,-0.46000000710884187,0.31699999167470794,0.25100000712700693
-0.05434837564826012,0.06378152966499329,9.750251770019531,-0.044999998062849045,-0.009399999864399433,-0.04879999905824661,0.8600000040102952,-0.8299999989066009,-1.2590000185285763
-0.041055772453546524,0.06896258890628815,9.770362854003906,-0.027899999171495438,-0.0007999999797903001,-0.039000000804662704,-2.4629999387656247,0.5979999772249827,0.37200000992495624
-0.04094085097312927,0.07189308851957321,9.747647285461426,-0.03539999946951866,-0.002099999925121665,-0.05869999900460243,-0.4319999934519184,1.9439999038325666,0.5630000068445746
-0.056196700781583786,0.0670567974448204,9.759733200073242,-0.029899999499320984,0.010199999436736107,-0.048899997025728226,-1.8099999166099674,-0.11099999887334903,0.09099999769425504
-0.043373361229896545,0.061837442219257355,9.762558937072754,-0.020099999383091927,0.004699999932199717,-0.048899997025728226,-0.5179999991890332,-1.9679999079155222,-0.9930000088497223
-0.06215347722172737,0.06187574937939644,9.764148712158203,-0.04479999840259552,0.006099999882280827,-0.048899997025728226,1.453000015958564,-1.640000029984641,-0.8650000226478619
-0.06215347722172737,0.06187574937939644,9.764148712158203,-0.04479999840259552,0.006099999882280827,-0.048899997025728226,1.453000015958564,-1.640000029984641,-0.8650000226478619
-0.0528448186814785,0.08619125932455063,9.762357711791992,-0.05009999871253967,0.010900000110268593,-0.048899997025728226,-4.652999777726779,-0.21999999295971404,-0.40400000647542134
-0.053831230849027634,0.05348646640777588,9.778552055358887,-0.03889999911189079,0.0284000001847744,-0.048899997025728226,-1.9990000021240943,-0.7309999820644097,-0.4939999951060778
-0.03723462298512459,0.06286215782165527,9.760652542114258,-0.0210999995470047,0.01640000008046627,-0.048899997025728226,-1.4960000054869083,-3.020999926972633,-0.05200000106461238
-0.04651454836130142,0.07104075700044632,9.762213706970215,-0.03889999911189079,0.03019999898970127,-0.048899997025728226,-4.387999963874509,-0.39599998732748526,-0.07900000232288394
-0.060630764812231064,0.06789956241846085,9.756477355957031,-0.03889999911189079,0.03019999898970127,-0.048899997025728226,-1.290999988398615,-0.6930000111736323,-0.515999981061836
-0.043564897030591965,0.06444232910871506,9.750548362731934,-0.04099999740719795,0.03759999945759773,-0.058799996972084045,-0.6600000055595685,-3.00200004824895,-1.2859999697610482
-0.04897578805685043,0.05992208048701286,9.763813018798828,-0.059699997305870056,0.039400000125169754,-0.04899999871850014,5.091999941345594,2.3590000633684256,0.8089999953340149
-0.03936067596077919,0.06372407078742981,9.759839057922363,-0.04389999806880951,0.026999998837709427,-0.048899997025728226,-4.101999879645388,0.648999985901263,0.3570000073731091
-0.047022122889757156,0.0622013583779335,9.763497352600098,-0.04179999977350235,0.03799999877810478,-0.04899999871850014,1.1980000259380155,-0.0969999987149939,-0.24299998797907083
-0.049847278743982315,0.07339664548635483,9.753690719604492,-0.051500000059604645,0.04339999705553055,-0.058799996972084045,-5.136999788918576,0.7080000137254794,1.1159999764140158
-0.05844724923372269,0.06450936943292618,9.755136489868164,-0.05949999764561653,0.04389999806880951,-0.058799996972084045,4.62200011040503,-0.7059999955982822,-0.3259999932058162
-0.049205634742975235,0.07500555366277695,9.760931015014648,-0.051500000059604645,0.03920000046491623,-0.04899999871850014,6.700999983843368,2.2240000937626543,0.838000018054537
-0.04929182305932045,0.0618470199406147,9.772355079650879,-0.04580000042915344,0.013100000098347664,-0.03909999877214432,2.6689999382370906,3.935000046891284,0.07300000130214508
-0.044685378670692444,0.06511270999908447,9.759197235107422,-0.022199999541044235,0.003700000001117587,-0.048899997025728226,2.311000055202515,4.517000039181247,1.262999948061265
-0.03862326219677925,0.06140648573637009,9.766054153442383,-0.009599999524652958,-0.0026000000070780516,-0.04879999905824661,-1.718000043254246,-4.469000031015336,-1.6650000164507686
-0.05202121287584305,0.061741672456264496,9.771378517150879,-0.028299998492002487,0.000699999975040555,-0.03909999877214432,6.08299977198556,5.051000023305299,-0.38100001145606455
-0.05437710881233215,0.07410532981157303,9.77071762084961,-0.012600000016391277,-0.008200000040233135,-0.03889999911189079,7.5440002873397365,0.8459999838416202,0.07300000130214508
-0.05360138788819313,0.07475655525922775,9.766742706298828,-0.010400000028312206,-0.026200000196695328,-0.04859999939799309,7.660999720274762,0.24399999704266945,0.475000009660689
-0.056196700781583786,0.07104075700044632,9.764626502990723,-0.009599999524652958,-0.0471000000834465,-0.04839999973773956,-2.546999953055969,0.7620000229121291,0.6679999713466518
-0.05146576091647148,0.06467217206954956,9.756697654724121,-0.006899999920278788,-0.04809999838471413,-0.05829999968409538,-2.8830000102173448,-0.5690000078653135,-1.1959999544499653
-0.058236561715602875,0.05762364715337753,9.754226684570312,-0.01769999973475933,-0.041999999433755875,-0.05829999968409538,-1.702000004958374,-0.9169999603464615,-0.2800000031671026
-0.05625416338443756,0.07016926258802414,9.76451301574707,-0.010599999688565731,-0.02669999934732914,-0.04859999939799309,5.117999910194893,-0.2800000031671026,-0.9039999759218116
-0.051810525357723236,0.06782294809818268,9.763535499572754,-0.01119999960064888,-0.03879999741911888,-0.048499997705221176,3.8289997798409168,2.741999932869129,1.722999955170107
-0.056388236582279205,0.06620446592569351,9.768227577209473,-0.003599999938160181,-0.058799996972084045,-0.04829999804496765,4.267999943459731,-2.49999992727323,-1.3380000141813537
-0.04731900244951248,0.05673300102353096,9.775497436523438,-0.002300000051036477,-0.08289999514818192,-0.03839999809861183,-1.0220000315702444,3.5490000167976525,1.7629999975489345
-0.04978981614112854,0.06593631953001022,9.778475761413574,-0.004799999762326479,-0.0705999955534935,-0.028599999845027924,3.2920000620107595,-0.2159999967259592,-0.3280000113330135
-0.04770207777619362,0.07202716171741486,9.765336036682129,0.004299999680370092,-0.0705999955534935,-0.03830000013113022,3.9920001099491556,-3.9229998314063943,-2.1190000225388714
-0.042166680097579956,0.0628046989440918,9.754801750183105,-0.0017999999690800905,-0.07270000129938126,-0.04809999838471413,1.4900000044661694,1.8050000046941066,2.3889999617504145
-0.050843264907598495,0.06408798694610596,9.755768775939941,-0.012399999424815178,-0.09299999475479126,-0.05769999697804451,-8.750999727839478,3.547000052031308,2.4169998953660583
-0.05993165448307991,0.07961199432611465,9.768179893493652,-0.016099998727440834,-0.09759999811649323,-0.05769999697804451,6.259000086518449,-0.6099999792664604,-1.4199999569836474
-0.05689580738544464,0.06605123728513718,9.764636993408203,-0.010599999688565731,-0.09789999574422836,-0.04779999703168869,-11.562999708191128,-0.5819999922899634,-0.2259999939804529
-0.043421242386102676,0.05983588844537735,9.761256217956543,0.0030999998562037945,-0.02499999850988388,-0.04859999939799309,-14.151000219617627,-2.1819999798957768,-1.361000035881137
-0.043421242386102676,0.05983588844537735,9.761256217956543,0.0030999998562037945,-0.02499999850988388,-0.04859999939799309,-14.151000219617627,-2.1819999798957768,-1.361000035881137
-0.05547844246029854,0.06922116130590439,9.76440715789795,-0.0139999995008111,0.033399999141693115,-0.048899997025728226,-9.550000379589447,0.4649999723855557,0.7170000152565876
-0.06215347722172737,0.07569508254528046,9.778992652893066,-0.029899999499320984,0.07050000131130219,-0.02929999865591526,-0.47899999255423065,3.7919997913333114,3.754999802825706
-0.06145436689257622,0.06720045208930969,9.768257141113281,-0.02070000022649765,0.07149999588727951,-0.048899997025728226,28.154999400370947,-1.9289999546415724,-2.8519999160087726
-0.04937801882624626,0.06827305257320404,9.768783569335938,-0.016099998727440834,-0.00559999980032444,-0.03889999911189079,27.48899960723405,-2.099999930371777,-2.602000051347497
-0.058351483196020126,0.0558040551841259,9.740062713623047,-0.016099998727440834,-0.00559999980032444,-0.03889999911189079,-10.601999775933152,-2.2480000978456096,-1.0969999909686272
-0.056196700781583786,0.07267838716506958,9.751937866210938,-0.027499999850988388,-0.07759999483823776,-0.05779999867081642,-5.134999824152232,-2.6559999538124406,-1.1889999710460544
-0.0530746653676033,0.06392518430948257,9.746278762817383,-0.035499997437000275,-0.07129999995231628,-0.06790000200271606,20.40599952282974,0.46099998949201404,-1.7979999145684897
-0.0387381836771965,0.07042783498764038,9.767873764038086,-0.024299999698996544,-0.10999999940395355,-0.04749999940395355,-34.24199910188919,2.79400008401114,2.9259998930239832
-0.04654328152537346,0.08011956512928009,9.758211135864258,-0.016599999740719795,-0.006199999712407589,-0.05849999934434891,-7.8779999528479445,2.052999904589038,2.6850000832546685
-0.044110771268606186,0.06306327134370804,9.762136459350586,-0.009499999694526196,0.0011999999405816197,-0.04879999905824661,3.2220000145282377,-2.896999977025167,-0.45700000659847245
-0.043258439749479294,0.06274724006652832,9.777929306030273,-0.015399999916553497,-0.0050999997183680534,-0.029199998825788498,-16.621000675395692,3.287999919034659,7.38600008259077
-0.04677312448620796,0.0600753091275692,9.768630027770996,-0.005200000014156103,0.04600000008940697,-0.03909999877214432,9.174000173327538,-3.4209999238740862,-1.0280000325909833
-0.05875370651483536,0.06578309088945389,9.764176368713379,-0.032899998128414154,0.024000000208616257,-0.048899997025728226,23.983000327016683,-6.617999951936196,-11.923999965262045
-0.04704127460718155,0.06681738048791885,9.753891944885254,-0.031099999323487282,-0.04149999842047691,-0.058399997651576996,-27.106999079786284,1.132000014709888,3.7709999478432845
-0.05372588708996773,0.07163451611995697,9.767721176147461,-0.03689999878406525,0.060999996960163116,-0.04899999871850014,21.94399932201841,-2.259999886443676,-2.937999895065461
-0.045317452400922775,0.07009264826774597,9.768572807312012,-0.03240000084042549,0.008299999870359898,-0.039000000804662704,-20.15399969340212,2.3199998966510647,1.847999887500745
-0.055296480655670166,0.06981492042541504,9.768160820007324,-0.0357000008225441,0.06340000033378601,-0.04899999871850014,-10.12999955333942,1.9380000095335337,6.922000145949239
-0.05297889560461044,0.06612785160541534,9.754120826721191,-0.030799999833106995,0.07769999653100967,-0.05869999900460243,-3.665999876619501,1.521999974336208,11.919000266789595
-0.05049850046634674,0.07019799202680588,9.764128684997559,-0.026399999856948853,0.09719999879598618,-0.048899997025728226,6.970999923054911,-2.1339999717298657,-19.939999621421865
-0.05136999115347862,0.07134721428155899,9.763592720031738,-0.03370000049471855,0.0729999989271164,-0.04899999871850014,0.7939999927821677,1.0530000190571107,-20.802999145694855
-0.05040273442864418,0.07421068102121353,9.771014213562012,-0.03099999949336052,0.07079999893903732,-0.03920000046491623,8.508000380190643,-4.764000170136418,-15.296999240639984
-0.05027823522686958,0.0714334025979042,9.759992599487305,-0.04529999941587448,0.04079999774694443,-0.04899999871850014,5.20299990686841,-0.6459999853908935,-17.029999233085224
-0.05157110467553139,0.06581181287765503,9.767145156860352,-0.046299997717142105,0.019999999552965164,-0.048899997025728226,6.442000064290131,-9.839999966464434,17.534999514653872
-0.041362229734659195,0.06870400905609131,9.767059326171875,-0.07019999623298645,0.007699999958276749,-0.04879999905824661,-9.52200001908698,1.3039999728232647,0.669999989473849
-0.05813121795654297,0.06263231486082077,9.768745422363281,-0.08630000054836273,0.020600000396370888,-0.03909999877214432,-4.587999855603529,5.7919999892839895,-1.7300000452957238
-0.054616525769233704,0.06456683576107025,9.770747184753418,-0.06030000001192093,0.032999999821186066,-0.03909999877214432,-7.947000231390706,11.603999626231422,3.364000074259626
-0.05609135702252388,0.060697801411151886,9.760298728942871,-0.03229999914765358,0.05179999768733978,-0.04899999871850014,-0.7600000047849319,0.40599999792219216,-2.771000062311357
-0.05123591795563698,0.06509356200695038,9.76827621459961,-0.030899999663233757,0.053700000047683716,-0.04899999871850014,3.818999956009195,-15.567000033625174,0.48199999306460006
-0.056646812707185745,0.07318595796823502,9.773944854736328,-0.08389999717473984,0.050200000405311584,-0.03909999877214432,-5.021999893863072,-1.278000003973965,1.3569999996267423
-0.04842991381883621,0.07982268184423447,9.742706298828125,-0.08619999885559082,0.07009999454021454,-0.06849999725818634,-2.5019998920395747,6.453000083948436,-0.2150000010025738
-0.055775322020053864,0.06899131834506989,9.75184154510498,-0.06599999964237213,0.06769999861717224,-0.05869999900460243,0.42599999243117953,-8.539999816452152,-5.008000140498661
-0.058140791952610016,0.06325481086969376,9.757320404052734,-0.0762999951839447,0.06629999727010727,-0.05869999900460243,5.117000141255133,-24.16900003849447,-2.1680000130879544
-0.058140791952610016,0.06325481086969376,9.757320404052734,-0.12950000166893005,0.04829999804496765,-0.05849999934434891,5.117000141255133,-24.16900003849447,-2.1680000130879544
-0.051389146596193314,0.07482359558343887,9.759666442871094,-0.20179998874664307,0.030399998649954796,-0.047599997371435165,0.44800000506736415,-15.22200034845866,2.782000081969662
-0.05832275375723839,0.0610138364136219,9.757636070251465,-0.2703000009059906,0.025100000202655792,-0.056299999356269836,4.927999842297594,-12.691000326976857,1.2170000113834043
-0.05215528979897499,0.07319553196430206,9.765700340270996,-0.289900004863739,0.023000000044703484,-0.04569999873638153,1.8679999620510117,23.81600049426258,4.559000153048125
-0.05594770610332489,0.06747817993164062,9.760384559631348,-0.22360000014305115,0.017999999225139618,-0.047199998050928116,-1.1959999544499653,-23.03400018335677,-3.8819999133661
-0.05594770610332489,0.06747817993164062,9.760384559631348,-0.22360000014305115,0.017999999225139618,-0.047199998050928116,-1.1959999544499653,-23.03400018335677,-3.8819999133661
-0.05421430245041847,0.06834009289741516,9.767375946044922,-0.3084000051021576,0.023399999365210533,-0.04519999772310257,-1.641000012367813,-5.245999789675048,-2.1430000266218268
-0.05250963196158409,0.06094679981470108,9.75953197479248,-0.2888000011444092,0.018299998715519905,-0.04580000042915344,1.040000034632461,19.74100035240625,2.9829999560818554
-0.06402094662189484,0.06009446457028389,9.774654388427734,-0.22369998693466187,0.01549999974668026,-0.0568000003695488,1.4640000356168696,-0.13300000483942703,0.2800000031671026
-0.050651729106903076,0.07254431396722794,9.764827728271484,-0.2678999900817871,0.03189999982714653,-0.046299997717142105,3.020999926972633,-2.506000035015675,-0.4519999879609058
-0.05168602615594864,0.06965211778879166,9.768553733825684,-0.26489999890327454,0.02709999866783619,-0.0364999994635582,2.3059999298432423,7.759000128259752,1.4629999465119916
-0.05862921103835106,0.07235277444124222,9.762606620788574,-0.25220000743865967,0.02070000022649765,-0.046799998730421066,-0.14600000260429016,2.974999883573066,0.5470000219095553
-0.04893748089671135,0.07920019328594208,9.77071762084961,-0.23099999129772186,0.03099999949336052,-0.03720000013709068,-0.06800000267489824,2.1599999405791657,0.5720000083756829
-0.05540182814002037,0.05491340905427933,9.768237113952637,-0.22459998726844788,0.0015999999595806003,-0.047199998050928116,1.7949999674189732,9.887999974630345,1.9149999878337503
-0.0491769015789032,0.06562028080224991,9.76717472076416,-0.19269999861717224,0.00699999975040555,-0.04769999906420708,1.9380000095335337,5.867999931065545,1.4969999878700804
-0.05405149981379509,0.05393657833337784,9.775084495544434,-0.17559999227523804,-0.007999999448657036,-0.038100000470876694,1.1190000302852383,1.073999969268844,1.0309999797404998
-0.055181559175252914,0.07816589623689651,9.768553733825684,-0.17099998891353607,0.017500000074505806,-0.03819999843835831,-0.5579999882070079,-2.7480000406115734,-0.9620000213628558
-0.06064033880829811,0.061598021537065506,9.766168594360352,-0.19869999587535858,0.008499999530613422,-0.04779999703168869,-0.5699999902484857,-2.5170000546739804,-0.13499999628619785
-0.05122634023427963,0.06585012376308441,9.770421028137207,-0.1939999908208847,0.009800000116229057,-0.03790000081062317,1.4290000118756088,1.4379999600458642,0.07300000130214508
-0.05476975813508034,0.05564124509692192,9.757281303405762,-0.1891999989748001,-0.0037999998312443495,-0.057499997317790985,-1.1639999845799267,-3.2009999575947985,-0.4240000009844087
-0.0433637797832489,0.07770621031522751,9.75405502319336,-0.18940000236034393,0.029399998486042023,-0.05739999935030937,1.312000045332054,3.8680001600016896,0.8709999703077478
-0.04876509681344032,0.07309018820524216,9.763315200805664,-0.19039998948574066,0.01679999940097332,-0.04769999906420708,-2.352999955625981,-5.760999895075417,-1.4760000376583473
-0.05606262758374214,0.06654923409223557,9.770095825195312,-0.20509999990463257,0.016200000420212746,-0.037699997425079346,-1.3419999437140424,-3.733999959335679,-0.7620000229121291
-0.05606262758374214,0.06654923409223557,9.770095825195312,-0.20509999990463257,0.016200000420212746,-0.037699997425079346,-1.3419999437140424,-3.733999959335679,-0.7620000229121291
-0.05056554079055786,0.05967308580875397,9.753901481628418,-0.21439999341964722,0.01979999989271164,-0.05719999969005585,2.0839999987976103,3.584999809478674,0.6269999999455048
-0.05146576091647148,0.07388506084680557,9.768065452575684,-0.20520000159740448,0.02579999901354313,-0.04749999940395355,-0.9060000474098617,-2.640000022238274,-0.7039999774710849
-0.05146576091647148,0.07388506084680557,9.768065452575684,-0.20520000159740448,0.02579999901354313,-0.04749999940395355,-0.9060000474098617,-2.640000022238274,-0.7039999774710849
-0.05553590506315231,0.06495948135852814,9.759254455566406,-0.21239998936653137,0.018699999898672104,-0.04739999771118164,-0.12499999903170415,1.0269999434861052,0.8759999889453145
-0.04762545973062515,0.061789557337760925,9.760470390319824,-0.19919998943805695,0.01899999938905239,-0.04749999940395355,-0.21999999295971404,0.5739999731420273,0.5029999966371861
-0.04977066442370415,0.0701405331492424,9.758565902709961,-0.20659999549388885,0.02929999865591526,-0.05729999765753746,-1.6789999832585905,-2.7210000893791015,-0.5789999917795939
-0.048286259174346924,0.07250600308179855,9.761275291442871,-0.2149999886751175,0.0348999984562397,-0.04739999771118164,-1.082000041777633,-2.1329999893466938,-0.4679999728959251
-0.055200714617967606,0.06960423290729523,9.759398460388184,-0.2190999984741211,0.037299998104572296,-0.04729999974370003,0.0039999999856897995,-0.6739999723673906,-0.07099999651516105
-0.05092945694923401,0.06025726720690727,9.757664680480957,-0.22010000050067902,0.027400000020861626,-0.057099997997283936,1.7109999531286293,3.789999826566967,0.6690000070906769
-0.048305410891771317,0.05826529487967491,9.7687349319458,-0.210099995136261,0.02319999970495701,-0.037699997425079346,0.9790000420419002,1.0569999485897996,0
-0.06398265063762665,0.07848193496465683,9.768266677856445,-0.21599999070167542,0.03999999910593033,-0.04749999940395355,1.241999997849532,1.6460000310053797,0.4679999728959251
-0.05750872567296028,0.06540001928806305,9.752492904663086,-0.2094999998807907,0.016099998727440834,-0.05739999935030937,1.132000014709888,1.131000032326716,0.1629999966029081
-0.04434061422944069,0.0675356462597847,9.760221481323242,-0.18629999458789825,0.023000000044703484,-0.04769999906420708,0.7299999996812375,0.6829999738984989,-0.02800000031671026
-0.04557602480053902,0.06676950305700302,9.7642822265625,-0.19329999387264252,0.011099999770522118,-0.04769999906420708,-0.8020000119301038,-0.7309999820644097,-0.18799999640924894
-0.039274487644433975,0.06789956241846085,9.765776634216309,-0.18279999494552612,0.020499998703598976,-0.04769999906420708,-1.18700000627971,-0.9889999725953277,-0.15200000362502902
-0.039274487644433975,0.06789956241846085,9.765776634216309,-0.18279999494552612,0.020499998703598976,-0.04769999906420708,-1.18700000627971,-0.9889999725953277,-0.15200000362502902
-0.05622543394565582,0.06970957666635513,9.76591968536377,-0.18539999425411224,0.02449999935925007,-0.057499997317790985,-0.06099999926066736,-0.10100000161885533,-0.2929999875917525
-0.053065087646245956,0.06575435400009155,9.766312599182129,-0.19169999659061432,0.022699998691678047,-0.04769999906420708,-1.3740000203057867,-1.36900000166822,-0.33000000277978425
-0.04841075837612152,0.06793786585330963,9.76646614074707,-0.19370000064373016,0.02589999884366989,-0.04769999906420708,0.6789999910049573,0.6690000070906769,0.5309999836136831
-0.047165773808956146,0.07037995010614395,9.765220642089844,-0.18119999766349792,0.024000000208616257,-0.04769999906420708,0.16599999711327754,-0.2589999995945166,-0.4169999909000712
-0.05210740491747856,0.060180652886629105,9.759416580200195,-0.18119999766349792,0.024000000208616257,-0.04769999906420708,0.2570000081477458,-0.023000000021936765,0.2250000115972807
-0.05352477356791496,0.057355497032403946,9.767107009887695,-0.19039998948574066,0.0030999998562037945,-0.04769999906420708,-0.796000010909365,-1.1500000177721048,-0.33000000277978425
-0.058207832276821136,0.0623258575797081,9.765297889709473,-0.2029999941587448,0.01529999915510416,-0.04769999906420708,-0.23399998644796255,0.3759999928184979,0.08299999855663877
-0.05457821860909462,0.06523720920085907,9.752876281738281,-0.1914999932050705,0.015799999237060547,-0.0575999990105629,-0.31099999065396905,-0.3280000113330135,0.004999999877891834
-0.04731900244951248,0.053045932203531265,9.768956184387207,-0.1817999929189682,0.006799999624490738,-0.03790000081062317,0.8840000080932506,1.3250000297567037,0.31699999167470794
-0.046715665608644485,0.07020757347345352,9.767260551452637,-0.17649999260902405,0.02329999953508377,-0.04779999703168869,-0.6170000160312243,-0.25400000763737635,0.26500000061525547
-0.04770207777619362,0.07439263164997101,9.748806953430176,-0.17710000276565552,0.026399999856948853,-0.0674000009894371,0.35199998873554245,0.5029999966371861,0.11400000605382507
-0.05453033745288849,0.06571605056524277,9.768783569335938,-0.18490000069141388,0.015599999576807022,-0.03799999877810478,0.17400000292100043,0.7059999955982822,0.05600000063342052
-0.05453033745288849,0.06571605056524277,9.768783569335938,-0.18490000069141388,0.015599999576807022,-0.03799999877810478,0.17400000292100043,0.7059999955982822,0.05600000063342052
-0.04480987787246704,0.07341580092906952,9.745061874389648,-0.17249999940395355,0.024899998679757118,-0.06749999523162842,0.30700000776042746,0.8230000155026899,0.3349999947369245
-0.04997177794575691,0.07408617436885834,9.75556755065918,-0.17870000004768372,0.023799998685717583,-0.05769999697804451,-0.38999998630674637,-0.10100000161885533,0.26600000967885407
-0.045959096401929855,0.07082048803567886,9.759753227233887,-0.16509999334812164,0.022599998861551285,-0.04800000041723251,-0.36800000035098823,-0.8729999884349451,-0.15900000036915327
-0.056436121463775635,0.06221093609929085,9.768447875976562,-0.17629998922348022,0.013599999248981476,-0.03819999843835831,-0.07900000232288394,0.11200000126684104,0.24800000661663751
-0.04532702639698982,0.06478710472583771,9.758038520812988,-0.1655000001192093,0.013700000010430813,-0.05779999867081642,-0.06399999977103679,0.369999991797759,0.42599999243117953
-0.04532702639698982,0.06478710472583771,9.758038520812988,-0.1655000001192093,0.013700000010430813,-0.05779999867081642,-0.06399999977103679,0.369999991797759,0.42599999243117953
-0.06283342838287354,0.06245993450284004,9.749946594238281,-0.1816999912261963,0.012899999506771564,-0.05779999867081642,0.43600000302588643,0.7429999841058874,0.13600000534979648
-0.05287355184555054,0.07731355726718903,9.763516426086426,-0.16609999537467957,0.03009999915957451,-0.04809999838471413,-0.4280000105583768,-0.6089999968832882,-0.09500000059811649
-0.05158068239688873,0.06495948135852814,9.75841236114502,-0.1656000018119812,0.010900000110268593,-0.05790000036358833,0.6339999833494159,1.1000000448398495,0.10299999973573276
-0.04635174572467804,0.07911399751901627,9.745406150817871,-0.15320000052452087,0.029399998486042023,-0.06769999861717224,-0.37400000137172706,-0.6300000004558742,-0.16999999334703236
-0.04945463314652443,0.0663481131196022,9.757368087768555,-0.16509999334812164,0.011799999512732029,-0.05790000036358833,0.21100000476881897,0.3980000054546825,-0.012000000373951061
-0.03879564255475998,0.06775590777397156,9.765250205993652,-0.1517999917268753,0.019899999722838402,-0.04809999838471413,0.14699999832767557,0.20999999570522035,-0.041000001416626686
-0.047194503247737885,0.057901374995708466,9.77535343170166,-0.14890000224113464,0.009599999524652958,-0.03839999809861183,-0.16599999711327754,-0.25299999857377775,0.06200000165415938
-0.0469263531267643,0.07007349282503128,9.749725341796875,-0.1468999981880188,0.019099999219179153,-0.057999998331069946,-0.36499999984061876,-0.5420000032719886,0.010999999647985701
-0.05137956887483597,0.0703703761100769,9.770162582397461,-0.15779998898506165,0.019999999552965164,-0.03839999809861183,0.3409999957576634,0.3770000018820965,0.024000000747902123
-0.053610965609550476,0.06062118709087372,9.766063690185547,-0.1551000028848648,0.009499999694526196,-0.04820000007748604,0.12599999475508955,-0.02600000053230619,-0.13000000432905762
-0.04642836004495621,0.06283342838287354,9.763708114624023,-0.13519999384880066,0.01640000008046627,-0.048499997705221176,0.08899999957737763,0.28499999512424284,0.09099999769425504
-0.05751830339431763,0.072266586124897,9.76440715789795,-0.13650000095367432,0.01679999940097332,-0.04839999973773956,-0.1729999938574018,-0.36399999077702017,0.004999999877891834
-0.06605123728513718,0.055248599499464035,9.750577926635742,-0.13079999387264252,-0.004900000058114529,-0.05829999968409538,-0.05099999867112037,-0.1529999993484144,0.007000000079177565
-0.039322368800640106,0.060745686292648315,9.767605781555176,-0.09489999711513519,0.00139999995008111,-0.04859999939799309,-0.048000001495804245,0.0969999987149939,-0.11599999750059588
-0.053639695048332214,0.06678865104913712,9.7581148147583,-0.07959999889135361,0.0010999999940395355,-0.05859999731183052,-0.24299998797907083,0.128999995265459,0.27500001120996237
-0.05398445948958397,0.0755801647901535,9.762434005737305,-0.09719999879598618,0.0038999998942017555,-0.05849999934434891,-0.05600000063342052,-0.22199999774669807,0.03100000082707969
-0.05398445948958397,0.0755801647901535,9.762434005737305,-0.09719999879598618,0.0038999998942017555,-0.05849999934434891,-0.05600000063342052,-0.22199999774669807,0.03100000082707969
-0.060429647564888,0.06118621677160263,9.766887664794922,-0.10089999437332153,0.002699999837204814,-0.0486999973654747,-0.2890000046982109,-0.3409999957576634,-0.07099999651516105
-0.042741287499666214,0.07731355726718903,9.752178192138672,-0.09649999439716339,0.024799998849630356,-0.05849999934434891,-0.012000000373951061,-0.10900000075647161,-0.1749999986443858
-0.059969961643218994,0.06263231486082077,9.765451431274414,-0.08509999513626099,0.003700000001117587,-0.04879999905824661,0.08499999667351618,-0.05300000012305109,-0.1199999937343507
-0.055267754942178726,0.06696103513240814,9.764752388000488,-0.055299997329711914,0.0023999998811632395,-0.048899997025728226,-0.19600000221697184,-0.08799999718388561,-0.2140000052791884
-0.0560338981449604,0.06854120641946793,9.759915351867676,-0.07889999449253082,0.014599999412894249,-0.04879999905824661,0.17700000343136985,0.39299998681711584,-0.13700000107318186
-0.05250963196158409,0.07033207267522812,9.757349014282227,-0.09519999474287033,0.01549999974668026,-0.05849999934434891,0.07600000181251451,-0.09000000197086964,-0.16999999334703236
-0.04637089744210243,0.06589800864458084,9.76793098449707,-0.06260000169277191,0.0038999998942017555,-0.04879999905824661,-0.07399999702553048,-0.22800001210765014,0.2150000010025738
-0.061100028455257416,0.07012137770652771,9.761505126953125,-0.1013999953866005,0.01529999915510416,-0.0486999973654747,-0.10999999647985702,0.04600000004387353,-0.031999999885518396
-0.05154237523674965,0.0768921822309494,9.766551971435547,-0.06689999997615814,0.01860000006854534,-0.04879999905824661,0.0659999978879142,0.18700000068586353,0.1400000015835513
-0.04761588200926781,0.07137593626976013,9.76530647277832,-0.07649999856948853,0.011399999260902405,-0.04879999905824661,0.03999999902313467,0.18700000068586353,-0.07900000232288394
-0.056905388832092285,0.07077260315418243,9.754792213439941,-0.06529999524354935,0.008499999530613422,-0.05859999731183052,-0.004999999877891834,0.13300000483942703,-0.1319999957758284
-0.05546886473894119,0.05292143300175667,9.763917922973633,-0.0471000000834465,-0.007999999448657036,-0.048899997025728226,-0.0659999978879142,-0.16400000566650674,-0.02600000053230619
-0.046437934041023254,0.07244853675365448,9.772786140441895,-0.02589999884366989,0.007999999448657036,-0.039000000804662704,0.07300000130214508,0,0.25100000712700693
-0.05279693752527237,0.06423164159059525,9.772029876708984,-0.06229999661445618,0.0007999999797903001,-0.039000000804662704,-0.12700000381868817,-0.1620000008795227,-0.02600000053230619
-0.04187937453389168,0.05838021636009216,9.770191192626953,-0.03669999912381172,0.0005999999702908099,-0.03909999877214432,0.0429999995335041,-0.10499999785261017,0.09899999683187131
-0.04093126952648163,0.053802501410245895,9.753451347351074,-0.028599999845027924,-0.0071000000461936,-0.05869999900460243,-0.004999999877891834,-0.13600000534979648,0.04200000047506539
-0.05525817349553108,0.058140791952610016,9.764827728271484,-0.028299998492002487,0.0017999999690800905,-0.048899997025728226,0.07399999702553048,0.15900000036915327,0.07699999753589991
-0.05362053960561752,0.06140648573637009,9.76694393157959,-0.02029999904334545,0.0010999999940395355,-0.04879999905824661,-0.10299999973573276,-0.09800000110848592,-0.021000000237532696
-0.05521029233932495,0.06638642400503159,9.751487731933594,-0.015699999406933784,0.0009999999310821295,-0.05859999731183052,0.01700000066872456,-0.07000000079177565,0.014999999216793838
-0.06431782990694046,0.058543018996715546,9.754754066467285,-0.01939999870955944,0.000699999975040555,-0.05859999731183052,-0.14699999832767557,-0.07600000181251451,0.1620000008795227
-0.053926996886730194,0.07079175859689713,9.75828742980957,-0.04439999908208847,0.013199999928474426,-0.05869999900460243,-0.2639999915516568,-0.11200000126684104,0.04900000055424296
-0.053926996886730194,0.07079175859689713,9.75828742980957,-0.06960000097751617,0.01549999974668026,-0.05859999731183052,-0.2050000037480801,-0.013000000266153095,-0.17599999436777122
-0.045365333557128906,0.060678645968437195,9.764876365661621,-0.07800000160932541,0.007599999662488699,-0.04879999905824661,-0.02800000031671026,-0.15500000413539844,0.06899999839828364
-0.05313212424516678,0.07651868462562561,9.762520790100098,-0.06419999897480011,0.01269999984651804,-0.04879999905824661,0.13300000483942703,-0.05999999686717535,-0.12499999903170415
-0.05751830339431763,0.07002561539411545,9.758938789367676,-0.04699999839067459,0.0017999999690800905,-0.048899997025728226,0.02600000053230619,0.004999999877891834,-0.0039999999856897995
-0.06509356200695038,0.06666415184736252,9.76036548614502,-0.05909999832510948,0.0026000000070780516,-0.048899997025728226,-0.10299999973573276,-0.031999999885518396,0.05600000063342052
-0.05052723363041878,0.06616616249084473,9.771676063537598,-0.0340999998152256,0.0018999999156221747,-0.03909999877214432,-0.12700000381868817,-0.13000000432905762,-0.11099999887334903
-0.06050626188516617,0.06366661190986633,9.761706352233887,-0.03269999846816063,0.0016999999061226845,-0.048899997025728226,-0.0539999991814898,0.05300000012305109,-0.007999999971379599
-0.05589982122182846,0.077476367354393,9.749046325683594,-0.01489999983459711,0.0139999995008111,-0.06839999556541443,-0.07600000181251451,0.13600000534979648,0.1319999957758284
-0.04736688733100891,0.05874413251876831,9.755997657775879,-0.003399999812245369,0.0030999998562037945,-0.04879999905824661,-0.07000000079177565,0.1419999930303221,0.05300000012305109
-0.051408298313617706,0.058475982397794724,9.75473403930664,-0.002300000051036477,-0.004999999888241291,-0.05859999731183052,0.15399999507179982,-0.07199999890865307,0
-0.051408298313617706,0.058475982397794724,9.75473403930664,-0.008999999612569809,-0.0038999998942017555,-0.05859999731183052,0.15399999507179982,-0.07199999890865307,0
-0.05523902177810669,0.0712035596370697,9.76538372039795,-0.012799999676644802,-0.002899999963119626,-0.039000000804662704,0.1830000044521087,0.05099999867112037,0.09399999820462447
-0.05366842821240425,0.06615658104419708,9.762749671936035,-0.026399999856948853,-0.00039999998989515007,-0.04879999905824661,0.04500000098543482,-0.013000000266153095,-0.019000000453128628
-0.05366842821240425,0.06615658104419708,9.762749671936035,-0.026399999856948853,-0.00039999998989515007,-0.04879999905824661,0.04500000098543482,-0.013000000266153095,-0.019000000453128628
-0.05006754770874977,0.06331226974725723,9.767461776733398,-0.019299998879432678,-0.00039999998989515007,-0.04879999905824661,-0.06899999839828364,-0.17599999436777122,0.1199999937343507
-0.04642836004495621,0.070265032351017,9.766705513000488,-0.003499999875202775,0.004900000058114529,-0.04879999905824661,-0.03400000133744912,0.03100000082707969,-0.18600000496247812
-0.05490383133292198,0.0645764097571373,9.756429672241211,-0.009999999776482582,-0.003599999938160181,-0.05859999731183052,0.038000000906257256,-0.024000000747902123,0.15900000036915327
-0.05199248343706131,0.07680599391460419,9.753230094909668,-0.007599999662488699,0.011899999342858791,-0.05859999731183052,-0.007000000079177565,0.01400000015835513,0.14099999730693671
-0.04848737269639969,0.07177817076444626,9.773293495178223,-0.0050999997183680534,0.0013000000035390258,-0.03889999911189079,-0.13300000483942703,-0.007000000079177565,0.04200000047506539
-0.05379292368888855,0.08010998368263245,9.767796516418457,0.0013000000035390258,0.009999999776482582,-0.0486999973654747,-0.09399999820462447,0.05300000012305109,0.01700000066872456
-0.0475105382502079,0.06887639313936234,9.766217231750488,0.008299999870359898,0.00019999999494757503,-0.0486999973654747,0.07300000130214508,0.10499999785261017,0.128999995265459
-0.05348646640777588,0.06585012376308441,9.758593559265137,-0.0011999999405816197,-0.00969999935477972,-0.05849999934434891,-0.038000000906257256,-0.11500000177721047,0.043999998591942806
-0.05268201604485512,0.06345592439174652,9.767959594726562,-0.001500000013038516,-0.009599999524652958,-0.0486999973654747,0.0039999999856897995,0.03100000082707969,-0.05900000114378995
-0.043306320905685425,0.07194097340106964,9.762760162353516,0.008299999870359898,0.00009999999747378752,-0.0486999973654747,0.1070000026395942,-0.06899999839828364,0.03699999851276524
-0.04362235590815544,0.06187574937939644,9.767902374267578,0.008100000210106373,-0.009800000116229057,-0.0486999973654747,-0.13400000056281244,0.04200000047506539,0.04900000055424296
-0.05222232639789581,0.06587885320186615,9.763640403747559,-0.00139999995008111,-0.009399999864399433,-0.0486999973654747,0.09999999922536333,-0.10900000075647161,0.012000000373951061
-0.05374504253268242,0.07356902956962585,9.763784408569336,-0.0016999999061226845,0.00009999999747378752,-0.0486999973654747,-0.0030000000934877653,0.1199999937343507,-0.06200000165415938
-0.042616792023181915,0.06789956241846085,9.756908416748047,0.008299999870359898,0.00009999999747378752,-0.05849999934434891,-0.009999999755783667,0.13100000005244303,-0.008999999863581633
-0.04682100564241409,0.06737283617258072,9.760882377624512,0.008799999952316284,0.00009999999747378752,-0.0486999973654747,0.0039999999856897995,0.006000000186975531,0.24299998797907083
-0.043545741587877274,0.07957368344068527,9.756180763244629,-0.056199997663497925,0.01979999989271164,-0.05859999731183052,-0.05099999867112037,0.014999999216793838,-0.17799999915475526
-0.05176264047622681,0.07279331237077713,9.775084495544434,-0.03700000047683716,0.00559999980032444,-0.039000000804662704,0.09600000299160849,-0.024999999806340833,-0.04900000055424296
-0.055765748023986816,0.06979577243328094,9.76302719116211,-0.02539999969303608,0.003599999938160181,-0.04879999905824661,-0.10299999973573276,0.09000000197086964,0.0269999995907449
-0.05705861747264862,0.06449022144079208,9.76064395904541,-0.017799999564886093,-0.00419999985024333,-0.04879999905824661,-0.08299999855663877,0.023000000021936765,-0.023000000021936765
-0.05637866258621216,0.07256346195936203,9.758220672607422,-0.013199999928474426,0.00419999985024333,-0.05859999731183052,-0.16800000190026157,0.12100000279794933,-0.0039999999856897995
-0.04801810905337334,0.07092583179473877,9.762473106384277,-0.002099999925121665,-0.003499999875202775,-0.039000000804662704,-0.0269999995907449,0.10400000212922476,0.008999999863581633
-0.04801810905337334,0.07092583179473877,9.762473106384277,-0.04050000011920929,0.008899999782443047,-0.048899997025728226,-0.0269999995907449,0.10400000212922476,0.008999999863581633
-0.04773080348968506,0.0724102333188057,9.764052391052246,-0.022299999371170998,0.0064999996684491634,-0.04879999905824661,0.08700000146050021,-0.15399999507179982,0.07000000079177565
-0.05660850554704666,0.06444232910871506,9.763995170593262,-0.02369999885559082,-0.0026000000070780516,-0.04879999905824661,-0.07199999890865307,0.0429999995335041,0.017999999727163266
-0.057853490114212036,0.06951804459095001,9.758220672607422,-0.02539999969303608,0.005499999970197678,-0.05859999731183052,-0.06899999839828364,0.11200000126684104,0.004999999877891834
-0.06049668788909912,0.06807194650173187,9.762606620788574,-0.018199998885393143,0.003999999724328518,-0.04879999905824661,0.07399999702553048,-0.18600000496247812,-0.0749999994190225
-0.0527203232049942,0.06946057826280594,9.767087936401367,-0.0064999996684491634,0.002699999837204814,-0.04879999905824661,0.048000001495804245,-0.10600000024610218,0.14300000209392072
-0.03627694398164749,0.06888597458600998,9.748308181762695,0.009999999776482582,0.0018999999156221747,-0.06839999556541443,0.08400000095013078,-0.04200000047506539,0.05099999867112037
-0.05812164023518562,0.07825209200382233,9.75846004486084,-0.014499999582767487,0.008599999360740185,-0.05849999934434891,0.06099999926066736,0.006000000186975531,0.12299999424472013
-0.049253515899181366,0.07114609330892563,9.771809577941895,-0.003599999938160181,-0.0010999999940395355,-0.06830000132322311,-0.15800000464576788,-0.05600000063342052,-0.2699999925723957
-0.05741295590996742,0.07200801372528076,9.764388084411621,-0.05819999799132347,0.008599999360740185,-0.04879999905824661,0.014999999216793838,-0.16999999334703236,-0.10100000161885533
-0.05156152695417404,0.0747661292552948,9.766858100891113,-0.05819999799132347,0.008599999360740185,-0.04879999905824661,0.08299999855663877,-0.1319999957758284,0.009999999755783667
-0.04884171113371849,0.07661445438861847,9.782976150512695,-0.027400000020861626,0.009999999776482582,-0.029199998825788498,-0.007000000079177565,-0.15699999558216926,-0.06399999977103679
-0.04679227992892265,0.07902780920267105,9.756218910217285,-0.014099999330937862,0.007699999958276749,-0.05859999731183052,-0.0749999994190225,0.0859999990670082,0.10199999734224074
-0.06032430753111839,0.0732242688536644,9.764253616333008,-0.024699999019503593,-0.00139999995008111,-0.04879999905824661,-0.13600000534979648,-0.06399999977103679,-0.0329999989439571
-0.05874413251876831,0.07835742831230164,9.756209373474121,-0.01899999938905239,0.006599999964237213,-0.05849999934434891,-0.11200000126684104,0.06500000216452881,0.03400000133744912
-0.048094723373651505,0.061808712780475616,9.767289161682129,-0.006599999964237213,-0.00930000003427267,-0.04879999905824661,-0.06099999926066736,0.02800000031671026,0.13700000107318186
-0.0486980639398098,0.06663542240858078,9.765009880065918,-0.004699999932199717,-0.006799999624490738,-0.04879999905824661,0.21100000476881897,-0.006000000186975531,-0.019999999511567335
-0.04050031676888466,0.06393475830554962,9.754858016967773,0.0038999998942017555,-0.005799999926239252,-0.05859999731183052,0.08100000043976135,-0.043999998591942806,0.05600000063342052
-0.04616978392004967,0.07779240608215332,9.766676902770996,0.00279999990016222,0.009800000116229057,-0.04879999905824661,0.10900000075647161,0.006000000186975531,0.07900000232288394
-0.040414124727249146,0.056455276906490326,9.768783569335938,0.0018999999156221747,-0.013799999840557575,-0.039000000804662704,-0.06700000028140622,-0.014999999216793838,-0.08899999957737763
-0.04364151135087013,0.057211846113204956,9.761419296264648,0.0018999999156221747,-0.013599999248981476,-0.04879999905824661,-0.021999999295971403,0.007999999971379599,0.04600000004387353
-0.05066130682826042,0.06757394969463348,9.762855529785156,-0.007799999788403511,0.0058999997563660145,-0.04879999905824661,-0.031999999885518396,-0.15399999507179982,0.1180000022875799
-0.06017107889056206,0.05689580738544464,9.773869514465332,-0.01809999905526638,-0.013399999588727951,-0.039000000804662704,0.035000000395887826,0.09300000248123906,0.08700000146050021
-0.04907156154513359,0.06937438994646072,9.760307312011719,-0.008100000210106373,0.006000000052154064,-0.04879999905824661,0.014999999216793838,-0.12299999424472013,-0.08100000043976135
-0.05980715900659561,0.0654095932841301,9.773754119873047,-0.018199998885393143,-0.0037999998312443495,-0.039000000804662704,0.019999999511567335,0.13400000056281244,0.21800000151294321
-0.05464525893330574,0.06052541732788086,9.777019500732422,-0.05609999969601631,0.0013000000035390258,-0.039000000804662704,0.0659999978879142,-0.03599999945432653,-0.07999999804626934
-0.04428315535187721,0.07152916491031647,9.760490417480469,-0.02979999966919422,0.006899999920278788,-0.04879999905824661,-0.0009999999964224499,0.03899999996469596,0.13600000534979648
-0.056742578744888306,0.06761226058006287,9.766973495483398,-0.02709999866783619,0.004699999932199717,-0.04879999905824661,0.07199999890865307,0.128999995265459,-0.06500000216452881
-0.059136781841516495,0.07126101851463318,9.760576248168945,-0.02589999884366989,0.0030999998562037945,-0.04879999905824661,0.03699999851276524,-0.012000000373951061,-0.10900000075647161
-0.04772122949361801,0.06498821079730988,9.75953197479248,-0.003499999875202775,-0.0037999998312443495,-0.04879999905824661,0.048000001495804245,0.03400000133744912,0.01700000066872456
-0.04772122949361801,0.06498821079730988,9.75953197479248,-0.003499999875202775,-0.0037999998312443495,-0.04879999905824661,0.048000001495804245,0.03400000133744912,0.01700000066872456
-0.04208049178123474,0.053831230849027634,9.742361068725586,-0.010300000198185444,0.004399999976158142,-0.06839999556541443,0.13499999628619785,0.1189999980109653,-0.024999999806340833
-0.044043734669685364,0.05459737405180931,9.761639595031738,0.00009999999747378752,-0.008599999360740185,-0.04879999905824661,-0.0009999999964224499,0.08700000146050021,0.13600000534979648
-0.053448159247636795,0.06742072105407715,9.759427070617676,-0.0066999997943639755,0.007899999618530273,-0.04879999905824661,0.015999999942759198,-0.01700000066872456,-0.05499999823992851
-0.053448159247636795,0.06742072105407715,9.759427070617676,-0.0066999997943639755,0.007899999618530273,-0.04879999905824661,0.015999999942759198,-0.01700000066872456,-0.05499999823992851
-0.05656062066555023,0.07852023839950562,9.757942199707031,-0.0050999997183680534,-0.001500000013038516,-0.05859999731183052,-0.2140000052791884,0.008999999863581633,0.004999999877891834
-0.037924155592918396,0.05286397039890289,9.765708923339844,0.014699999243021011,-0.010900000110268593,-0.04879999905824661,-0.18799999640924894,-0.07000000079177565,-0.0269999995907449
-0.03611414134502411,0.061195798218250275,9.767328262329102,0.014599999412894249,-0.000699999975040555,-0.04879999905824661,0.2499999980634083,0.09999999922536333,0.19999999845072666
-0.047357309609651566,0.07344453781843185,9.75943660736084,-0.03610000014305115,0.011399999260902405,-0.048899997025728226,-0.04600000004387353,-0.07900000232288394,-0.023000000021936765
-0.04437892138957977,0.0624503567814827,9.767739295959473,-0.02419999986886978,0.0009999999310821295,-0.048899997025728226,-0.09999999922536333,0.1529999993484144,0.24599998848944027
-0.05775772035121918,0.07114609330892563,9.764876365661621,-0.065700002014637,0.012799999676644802,-0.048899997025728226,0.0030000000934877653,0.015999999942759198,0.010999999647985701
-0.04873637109994888,0.06700892001390457,9.762787818908691,-0.03989999741315842,0.001999999862164259,-0.048899997025728226,0.07399999702553048,0.15800000464576788,0.11299999699022645
-0.04229117929935455,0.06957550346851349,9.765364646911621,-0.02149999886751175,0.00839999970048666,-0.048899997025728226,-0.019999999511567335,-0.08200000283325337,-0.13700000107318186
-0.04429273307323456,0.0677846372127533,9.756745338439941,-0.016499999910593033,0.006300000008195639,-0.05859999731183052,0.019000000453128628,0.03899999996469596,-0.07900000232288394
-0.04707000404596329,0.06526593863964081,9.767136573791504,-0.011899999342858791,-0.0026000000070780516,-0.04879999905824661,-0.10100000161885533,0.10199999734224074,0
-0.050201620906591415,0.056579772382974625,9.768017768859863,-0.015599999576807022,-0.008899999782443047,-0.04879999905824661,-0.14699999832767557,0.013000000266153095,0.04900000055424296
-0.04606444016098976,0.05725015327334404,9.766647338867188,-0.004100000020116568,-0.006199999712407589,-0.04879999905824661,-0.021999999295971403,-0.06299999737754478,-0.16999999334703236
-0.054894257336854935,0.06466259807348251,9.764492988586426,-0.010300000198185444,0.00969999935477972,-0.04879999905824661,0.1419999930303221,0.05600000063342052,0.1620000008795227
-0.06721002608537674,0.055152833461761475,9.766350746154785,-0.019899999722838402,-0.007699999958276749,-0.04879999905824661,-0.08200000283325337,0.07099999651516105,0.1509999945614304
-0.06398265063762665,0.06857950985431671,9.748701095581055,-0.00989999994635582,0.01209999993443489,-0.06839999556541443,0.08899999957737763,0.12100000279794933,-0.07000000079177565
-0.05092945694923401,0.06531382352113724,9.763649940490723,0.00019999999494757503,0.011799999512732029,-0.04879999905824661,0.2770000026567332,0.03400000133744912,0.014999999216793838
-0.04156334325671196,0.0766623392701149,9.76516342163086,0.0004999999655410647,0.0015999999595806003,-0.04879999905824661,0.11400000605382507,-0.03100000082707969,-0.07799999992939192
-0.05597643554210663,0.07012137770652771,9.759905815124512,0.0004999999655410647,0.010300000198185444,-0.04879999905824661,-0.1189999980109653,0.09800000110848592,0.07399999702553048
-0.050584692507982254,0.06904877722263336,9.747791290283203,0.0007999999797903001,0.010699999518692493,-0.06839999556541443,0.021000000237532696,-0.023000000021936765,0.12400000330831876
-0.0533236600458622,0.07225700467824936,9.759839057922363,0.000699999975040555,0.010599999688565731,-0.04879999905824661,-0.14499999354069154,-0.1729999938574018,-0.11400000605382507
-0.044302307069301605,0.06004657596349716,9.768659591674805,0.010099999606609344,0.0010999999940395355,-0.039000000804662704,-0.11299999699022645,-0.0539999991814898,0.048000001495804245
-0.0528448186814785,0.05951985716819763,9.756832122802734,0.00009999999747378752,0.00139999995008111,-0.05859999731183052,-0.09000000197086964,0.007999999971379599,-0.12100000279794933
-0.05631162226200104,0.072266586124897,9.751688003540039,0.00019999999494757503,0.011500000022351742,-0.05859999731183052,-0.09500000059811649,0.019000000453128628,0.019999999511567335
-0.0489279069006443,0.07100244611501694,9.770699501037598,0.00019999999494757503,0.011699999682605267,-0.039000000804662704,0.1390000058601659,0.18099999966512467,0.06500000216452881
-0.05631162226200104,0.06906793266534805,9.764608383178711,0.0007999999797903001,0.01119999960064888,-0.04879999905824661,0.03100000082707969,0.007000000079177565,-0.11500000177721047
-0.052500054240226746,0.07199843227863312,9.771934509277344,0.0007999999797903001,0.01119999960064888,-0.039000000804662704,0.021999999295971403,0.007000000079177565,0.07999999804626934
-0.04334462806582451,0.06927862018346786,9.771215438842773,0.010599999688565731,0.011099999770522118,-0.039000000804662704,0.04900000055424296,-0.0429999995335041,0.1729999938574018
-0.06395391374826431,0.07131848484277725,9.761773109436035,-0.008999999612569809,0.010999999940395355,-0.04879999905824661,-0.038000000906257256,-0.23300000406479038,0.08100000043976135
-0.04458003491163254,0.05661807954311371,9.75245475769043,0.00989999994635582,-0.00839999970048666,-0.05859999731183052,0.057000003026912535,0.1079999983629796,-0.19000000119623298
-0.049349285662174225,0.06166505813598633,9.75801944732666,0.00039999998989515007,0.0010999999940395355,-0.05859999731183052,0.0009999999964224499,0.07799999992939192,-0.10499999785261017
-0.051168881356716156,0.05499960482120514,9.757837295532227,0.0005999999702908099,-0.008599999360740185,-0.05859999731183052,-0.08100000043976135,-0.014999999216793838,-0.17899999487814064
-0.054731450974941254,0.0633888840675354,9.764339447021484,0.0004999999655410647,0.0013000000035390258,-0.04879999905824661,-0.15500000413539844,-0.25599999908414717,-0.05799999875029794
-0.05144660547375679,0.06485413014888763,9.758000373840332,0,0.0016999999061226845,-0.05859999731183052,-0.11200000126684104,0.05300000012305109,-0.05999999686717535
-0.05121676251292229,0.05875370651483536,9.76516342163086,0,0.001999999862164259,-0.04879999905824661,0.05900000114378995,0.14499999354069154,-0.07699999753589991
-0.06367618590593338,0.06850289553403854,9.74956226348877,-0.009200000204145908,0.011599999852478504,-0.05859999731183052,0.10499999785261017,0.14600000260429016,0.02600000053230619
-0.05551674962043762,0.0633888840675354,9.74902629852295,0.0007999999797903001,0.0015999999595806003,-0.06839999556541443,0.024999999806340833,-0.1390000058601659,0.15900000036915327
-0.0527203232049942,0.06760267913341522,9.762682914733887,0.00039999998989515007,0.011299999430775642,-0.04879999905824661,-0.0429999995335041,-0.23699998695833197,0.013000000266153095
-0.059041015803813934,0.05907932296395302,9.766437530517578,-0.00989999994635582,0.0015999999595806003,-0.04879999905824661,0.07799999992939192,-0.04900000055424296,0.14799999405106096
-0.06569689512252808,0.056838348507881165,9.767049789428711,-0.010099999606609344,-0.008299999870359898,-0.04879999905824661,-0.07999999804626934,0.023000000021936765,0.12299999424472013
-0.05322789400815964,0.06523720920085907,9.770785331726074,-0.00019999999494757503,0.0016999999061226845,-0.039000000804662704,-0.021999999295971403,-0.03400000133744912,-0.007000000079177565
-0.04949294030666351,0.0644710585474968,9.749505043029785,-0.00019999999494757503,0.0016999999061226845,-0.05859999731183052,-0.10400000212922476,0.08899999957737763,-0.06299999737754478
-0.04992389306426048,0.06485413014888763,9.763477325439453,0,0.011799999512732029,-0.04879999905824661,-0.049999999612681666,0.05499999823992851,0.048000001495804245
-0.061741672456264496,0.07856812328100204,9.7576265335083,0.00009999999747378752,0.002099999925121665,-0.04879999905824661,0.0039999999856897995,-0.013000000266153095,-0.03400000133744912
-0.061741672456264496,0.07856812328100204,9.7576265335083,-0.00969999935477972,0.02149999886751175,-0.05859999731183052,0.0039999999856897995,-0.013000000266153095,-0.03400000133744912
-0.056388236582279205,0.06416460126638412,9.758430480957031,0.00019999999494757503,0.002199999988079071,-0.05859999731183052,-0.031999999885518396,0.08299999855663877,0.007999999971379599
-0.05170518159866333,0.06543832272291183,9.758651733398438,0.00019999999494757503,0.002199999988079071,-0.05859999731183052,-0.009999999755783667,0.05900000114378995,-0.13300000483942703
-0.04707958176732063,0.06917327642440796,9.767643928527832,0.010400000028312206,0.01209999993443489,-0.04879999905824661,-0.07300000130214508,0.08899999957737763,0.0039999999856897995
-0.048880018293857574,0.07102160155773163,9.752042770385742,0.0007999999797903001,0.012299999594688416,-0.05859999731183052,0.26000000865811523,0.03599999945432653,0.09500000059811649
-0.048880018293857574,0.07102160155773163,9.752042770385742,0.0007999999797903001,0.012299999594688416,-0.05859999731183052,0.26000000865811523,0.03599999945432653,0.09500000059811649
-0.053831230849027634,0.07079175859689713,9.768582344055176,0.0009999999310821295,0.011599999852478504,-0.039000000804662704,0.015999999942759198,-0.08799999718388561,-0.11400000605382507
-0.0651797503232956,0.068263478577137,9.767499923706055,0.0009999999310821295,0.011599999852478504,-0.039000000804662704,0.0039999999856897995,-0.046999999102312236,-0.19999999845072666
-0.04737646505236626,0.0683688223361969,9.768045425415039,0.010499999858438969,0.011500000022351742,-0.04879999905824661,0.004999999877891834,0.004999999877891834,-0.2570000081477458
-0.062000248581171036,0.0650360956788063,9.773150444030762,-0.009099999442696571,0.0016999999061226845,-0.039000000804662704,0.15200000362502902,0.041000001416626686,-0.1849999958988795
-0.04588248208165169,0.06312073767185211,9.752799987792969,0.010499999858438969,0.0011999999405816197,-0.05859999731183052,-0.13600000534979648,-0.004999999877891834,0.009999999755783667
-0.04649539664387703,0.07173028588294983,9.749246597290039,0.010499999858438969,0.011299999430775642,-0.05859999731183052,-0.25299999857377775,-0.004999999877891834,-0.11699999322398127
-0.06726749241352081,0.06874231994152069,9.767184257507324,-0.01889999955892563,0.012000000104308128,-0.04879999905824661,0.01700000066872456,0.07000000079177565,0.08299999855663877
-0.03666001558303833,0.06267062574625015,9.748910903930664,0.02029999904334545,0.002099999925121665,-0.06839999556541443,0.07099999651516105,-0.007999999971379599,0.05900000114378995
-0.04423527047038078,0.07578127086162567,9.762749671936035,0.010499999858438969,0.011699999682605267,-0.04879999905824661,0.008999999863581633,0.0269999995907449,0.09899999683187131
-0.05031654238700867,0.07098329067230225,9.751315116882324,0.0008999999845400453,0.011500000022351742,-0.05859999731183052,0.031999999885518396,-0.041000001416626686,-0.09899999683187131
-0.05031654238700867,0.07098329067230225,9.751315116882324,0.0008999999845400453,0.011500000022351742,-0.05859999731183052,0.031999999885518396,-0.041000001416626686,-0.09899999683187131
-0.05160941183567047,0.07648995518684387,9.768553733825684,0.0007999999797903001,0.011399999260902405,-0.039000000804662704,0.019000000453128628,0.10199999734224074,-0.04600000004387353
-0.052164867520332336,0.060726530849933624,9.765728950500488,0.0009999999310821295,0.001500000013038516,-0.04879999905824661,0.0009999999964224499,-0.029999998433587676,-0.06399999977103679
-0.06367618590593338,0.06482540816068649,9.761457443237305,0.0008999999845400453,0.011299999430775642,-0.04879999905824661,-0.004999999877891834,0,-0.21700000578955783
-0.04443638399243355,0.07561846822500229,9.775927543640137,0.011500000022351742,0.011799999512732029,-0.039000000804662704,0.1079999983629796,0.035000000395887826,0.09200000008774706
-0.04443638399243355,0.07561846822500229,9.775927543640137,0.011500000022351742,0.011799999512732029,-0.039000000804662704,0.1079999983629796,0.035000000395887826,0.09200000008774706
-0.04377558454871178,0.07711245119571686,9.762002944946289,0.011599999852478504,0.021299999207258224,-0.04879999905824661,-0.006000000186975531,-0.006000000186975531,0.12599999475508955
-0.046437934041023254,0.0629100427031517,9.76122760772705,0.011599999852478504,0.001500000013038516,-0.04879999905824661,-0.26300000916848465,-0.11500000177721047,0.0269999995907449
-0.052002061158418655,0.06427952647209167,9.768304824829102,0.0013000000035390258,0.0023999998811632395,-0.04879999905824661,-0.10400000212922476,-0.08100000043976135,-0.048000001495804245
-0.05993165448307991,0.07241981476545334,9.759522438049316,-0.008499999530613422,0.01249999925494194,-0.04879999905824661,-0.1180000022875799,-0.10999999647985702,0.015999999942759198
-0.0543866828083992,0.05838979035615921,9.758450508117676,0.0008999999845400453,0.003000000026077032,-0.05859999731183052,-0.01400000015835513,-0.1319999957758284,-0.16599999711327754
-0.048209644854068756,0.06735368072986603,9.759465217590332,0.0004999999655410647,0.012799999676644802,-0.04879999905824661,-0.06200000165415938,-0.15999999609253868,-0.08700000146050021
-0.048209644854068756,0.06735368072986603,9.759465217590332,0.0004999999655410647,0.012799999676644802,-0.04879999905824661,-0.06200000165415938,-0.15999999609253868,-0.08700000146050021
-0.06075526028871536,0.0678899809718132,9.762405395507812,-0.009800000116229057,0.012799999676644802,-0.04879999905824661,0.1729999938574018,0.06800000267489824,0.07199999890865307
-0.03549164533615112,0.07135678827762604,9.766878128051758,0.019899999722838402,0.012199999764561653,-0.04879999905824661,0.02600000053230619,0.10999999647985702,0.19600000221697184
-0.0657639279961586,0.06205770745873451,9.768610954284668,-0.009200000204145908,0.002300000051036477,-0.039000000804662704,0.17799999915475526,-0.03699999851276524,0.26300000916848465
-0.052049946039915085,0.06916369497776031,9.772345542907715,0.00039999998989515007,0.011599999852478504,-0.039000000804662704,0.03100000082707969,0.20099999417411205,0.03999999902313467
-0.04168783873319626,0.0697861909866333,9.766705513000488,0.010799999348819256,0.011500000022351742,-0.04879999905824661,-0.049999999612681666,0.11400000605382507,-0.07000000079177565
-0.05167644843459129,0.06561069935560226,9.755499839782715,0.0013000000035390258,0.0017999999690800905,-0.05859999731183052,-0.16699999283666295,-0.09000000197086964,-0.06899999839828364
-0.049655742943286896,0.0707438737154007,9.763612747192383,0.0008999999845400453,0.012299999594688416,-0.04879999905824661,0.1800000039417393,0.11099999887334903,0.23900000508552924
-0.05056554079055786,0.06452852487564087,9.758430480957031,0.0010999999940395355,0.001999999862164259,-0.05859999731183052,0.07699999753589991,0.07600000181251451,0.12100000279794933
-0.037359122186899185,0.06596504151821136,9.75125789642334,0.020899999886751175,0.011500000022351742,-0.029199998825788498,0.046999999102312236,-0.05499999823992851,-0.017999999727163266
-0.0472806952893734,0.06252697110176086,9.745396614074707,0.011099999770522118,0.0015999999595806003,-0.06839999556541443,-0.1400000015835513,-0.15500000413539844,-0.13700000107318186
-0.03938940912485123,0.06204812973737717,9.772872924804688,0.010999999940395355,0.001999999862164259,-0.039000000804662704,-0.08400000095013078,-0.15900000036915327,0.0429999995335041
-0.03938940912485123,0.06204812973737717,9.772872924804688,0.010999999940395355,0.001999999862164259,-0.039000000804662704,-0.08400000095013078,-0.15900000036915327,0.0429999995335041
-0.053802501410245895,0.0715770572423935,9.756888389587402,0.0004999999655410647,0.01209999993443489,-0.05859999731183052,-0.24800000661663751,-0.043999998591942806,-0.07099999651516105
-0.04580586776137352,0.0692020058631897,9.772518157958984,0.009999999776482582,0.012899999506771564,-0.039000000804662704,0.0749999994190225,0.049999999612681666,-0.07199999890865307
-0.05957731604576111,0.062124744057655334,9.758862495422363,-0.00930000003427267,0.002899999963119626,-0.04879999905824661,0.08299999855663877,-0.024000000747902123,0.15800000464576788
-0.049636587500572205,0.06956592202186584,9.767375946044922,0.00029999998514540493,0.012399999424815178,-0.04879999905824661,-0.0009999999964224499,0.10499999785261017,0.29500000571894974
-0.054846372455358505,0.07574296742677689,9.754150390625,0.00029999998514540493,0.012399999424815178,-0.04879999905824661,0.13499999628619785,-0.02600000053230619,0.128999995265459
-0.054204728454351425,0.07752425223588943,9.762923240661621,0.0004999999655410647,0.021900000050663948,-0.04879999905824661,0.08400000095013078,0.009999999755783667,0.017999999727163266
-0.0617225207388401,0.0679953321814537,9.766283988952637,-0.009200000204145908,0.011799999512732029,-0.04879999905824661,-0.0659999978879142,0.13300000483942703,0.01400000015835513
-0.06767929345369339,0.07313807308673859,9.773964881896973,-0.01860000006854534,0.012000000104308128,-0.039000000804662704,0.05900000114378995,-0.019000000453128628,0.12100000279794933
-0.054233454167842865,0.06331226974725723,9.76237678527832,0.0007999999797903001,0.001999999862164259,-0.04879999905824661,0.18700000068586353,-0.0659999978879142,0.043999998591942806
-0.04762545973062515,0.06981492042541504,9.77807331085205,0.010400000028312206,0.01119999960064888,-0.029199998825788498,-0.02600000053230619,0.10299999973573276,0.15200000362502902
-0.06040092185139656,0.06923073530197144,9.760279655456543,-0.008799999952316284,0.011299999430775642,-0.04879999905824661,-0.24299998797907083,-0.09300000248123906,0.043999998591942806
-0.053926996886730194,0.06839755177497864,9.770641326904297,0.0004999999655410647,0.012000000104308128,-0.039000000804662704,-0.04900000055424296,0.021999999295971403,-0.0859999990670082
-0.05903143808245659,0.06971915066242218,9.772403717041016,-0.009099999442696571,0.01209999993443489,-0.039000000804662704,-0.06099999926066736,-0.04900000055424296,-0.02899999937514897
-0.04936843737959862,0.06717172265052795,9.768946647644043,0.00039999998989515007,0.012199999764561653,-0.039000000804662704,0.06700000028140622,-0.07300000130214508,0.15999999609253868
-0.048688482493162155,0.0679091364145279,9.757713317871094,0.00019999999494757503,0.012000000104308128,-0.05859999731183052,-0.06899999839828364,-0.010999999647985701,-0.007000000079177565
-0.04947378486394882,0.07138551771640778,9.76535415649414,0.00019999999494757503,0.01209999993443489,-0.04879999905824661,-0.06099999926066736,0.08700000146050021,-0.038000000906257256
-0.0541568398475647,0.06343676894903183,9.76291275024414,0.00039999998989515007,0.0024999999441206455,-0.04879999905824661,-0.0429999995335041,0.017999999727163266,0.049999999612681666
-0.04326801374554634,0.05762364715337753,9.765584945678711,0.010199999436736107,0.0026000000070780516,-0.04879999905824661,-0.015999999942759198,0.23699998695833197,0.1390000058601659
-0.05599559098482132,0.06339845806360245,9.769808769226074,0.0009999999310821295,0.0026000000070780516,-0.039000000804662704,0.13499999628619785,-0.06899999839828364,0.07999999804626934
-0.054329223930835724,0.05961562320590019,9.758862495422363,0.0007999999797903001,0.002099999925121665,-0.04879999905824661,-0.021000000237532696,0,-0.021999999295971403
-0.05843767523765564,0.06316861510276794,9.760614395141602,-0.00930000003427267,0.0024999999441206455,-0.04879999905824661,0.057000003026912535,-0.14600000260429016,0.18700000068586353
-0.05843767523765564,0.06316861510276794,9.760614395141602,-0.00930000003427267,0.0024999999441206455,-0.04879999905824661,0.057000003026912535,-0.14600000260429016,0.18700000068586353
-0.0445513054728508,0.06585012376308441,9.769233703613281,0.00969999935477972,0.002300000051036477,-0.039000000804662704,-0.23300000406479038,-0.06800000267489824,0.11699999322398127
-0.050297390669584274,0.06866570562124252,9.75197696685791,-0.00019999999494757503,0.012799999676644802,-0.05859999731183052,0.0539999991814898,0.20599999947146552,-0.0009999999964224499
-0.054185573011636734,0.06815813481807709,9.770669937133789,0.00039999998989515007,0.012600000016391277,-0.039000000804662704,-0.08299999855663877,0.0009999999964224499,0.03100000082707969
-0.055344369262456894,0.0701596811413765,9.75622844696045,0,0.012600000016391277,-0.05859999731183052,0.13100000005244303,-0.021999999295971403,-0.16400000566650674
-0.055344369262456894,0.0701596811413765,9.75622844696045,0,0.012600000016391277,-0.05859999731183052,0.13100000005244303,-0.021999999295971403,-0.16400000566650674
-0.05021119862794876,0.07173028588294983,9.758708953857422,0,0.012299999594688416,-0.05859999731183052,-0.11099999887334903,0.07099999651516105,-0.05300000012305109
-0.056790463626384735,0.0743064433336258,9.760298728942871,0.00019999999494757503,0.012600000016391277,-0.04879999905824661,-0.041000001416626686,0.013000000266153095,0.08100000043976135
-0.047711651772260666,0.06592673808336258,9.765632629394531,0.009999999776482582,0.002899999963119626,-0.04879999905824661,-0.006000000186975531,-0.1419999930303221,0.007000000079177565
-0.05364927276968956,0.054396264255046844,9.753767013549805,0.00009999999747378752,-0.0064999996684491634,-0.05859999731183052,-0.0009999999964224499,-0.017999999727163266,-0.03100000082707969
-0.04324885830283165,0.07196970283985138,9.759675979614258,0.00009999999747378752,-0.0064999996684491634,-0.05859999731183052,0.04500000098543482,-0.06700000028140622,-0.046999999102312236
-0.06630022823810577,0.06165548413991928,9.760470390319824,-0.00989999994635582,0.003000000026077032,-0.04879999905824661,0.01700000066872456,-0.05300000012305109,-0.031999999885518396
-0.04820007085800171,0.07490020990371704,9.753479957580566,-0.00989999994635582,0.003000000026077032,-0.04879999905824661,-0.05499999823992851,0.09600000299160849,0.17700000343136985
-0.04820007085800171,0.07490020990371704,9.753479957580566,-0.00029999998514540493,0.012799999676644802,-0.05859999731183052,-0.05499999823992851,0.09600000299160849,0.17700000343136985
-0.04678269848227501,0.05914635956287384,9.752110481262207,0.010099999606609344,0.0030999998562037945,-0.05859999731183052,0.07000000079177565,0.038000000906257256,0.006000000186975531
-0.04583459720015526,0.06510313600301743,9.760384559631348,0.009999999776482582,0.002899999963119626,-0.04879999905824661,0.10299999973573276,0.14399999781730613,-0.0019999999928448997
-0.05025908350944519,0.058543018996715546,9.761917114257812,0.0004999999655410647,0.0026000000070780516,-0.04879999905824661,0.0539999991814898,-0.11299999699022645,-0.15900000036915327
-0.04000232368707657,0.061789557337760925,9.751420974731445,0.0004999999655410647,0.0026000000070780516,-0.04879999905824661,0.0039999999856897995,0.06200000165415938,0.06099999926066736
-0.04447469115257263,0.07480443269014359,9.757492065429688,0.009800000116229057,0.0023999998811632395,-0.05859999731183052,0.01700000066872456,-0.11099999887334903,0.09399999820462447
-0.0501154288649559,0.0678899809718132,9.765230178833008,-0.00019999999494757503,0.011699999682605267,-0.04879999905824661,0.05600000063342052,0.15599999985878385,-0.012000000373951061
-0.037857115268707275,0.05625416338443756,9.77637767791748,0.019299998879432678,-0.007799999788403511,-0.039000000804662704,-0.0269999995907449,-0.13499999628619785,0.041000001416626686
-0.048688482493162155,0.07159620523452759,9.775094985961914,0.01860000006854534,-0.007599999662488699,-0.04879999905824661,-0.03899999996469596,0.149999998838045,0.03699999851276524
-0.04978981614112854,0.06251739710569382,9.759119987487793,-0.0009999999310821295,0.002099999925121665,-0.04879999905824661,-0.043999998591942806,0.04500000098543482,-0.07000000079177565
-0.06390602886676788,0.07984183728694916,9.771761894226074,-0.010499999858438969,0.021399999037384987,-0.039000000804662704,-0.014999999216793838,-0.049999999612681666,0.09500000059811649
-0.04557602480053902,0.06041049584746361,9.770057678222656,0.008700000122189522,0.0017999999690800905,-0.039000000804662704,-0.1749999986443858,-0.08299999855663877,-0.05600000063342052
-0.0502399280667305,0.06878062337636948,9.753623008728027,-0.0011999999405816197,0.011899999342858791,-0.05859999731183052,0.11500000177721047,-0.11099999887334903,0
-0.05551674962043762,0.06099468097090721,9.748087882995605,-0.001500000013038516,0.0016999999061226845,-0.06839999556541443,-0.04900000055424296,-0.06899999839828364,-0.01400000015835513
-0.044848185032606125,0.06461471319198608,9.763248443603516,0.007899999618530273,0.0017999999690800905,-0.04879999905824661,-0.0859999990670082,-0.15399999507179982,0.006000000186975531
-0.05312254652380943,0.06809109449386597,9.766092300415039,-0.002199999988079071,0.011599999852478504,-0.04879999905824661,-0.019000000453128628,-0.07600000181251451,0.07000000079177565
-0.05834190919995308,0.06898174434900284,9.762060165405273,-0.012199999764561653,0.011299999430775642,-0.04879999905824661,-0.03599999945432653,0.10199999734224074,0.05300000012305109
-0.048449065536260605,0.06186617165803909,9.774624824523926,-0.001999999862164259,0.0015999999595806003,-0.039000000804662704,-0.09500000059811649,-0.12400000330831876,-0.06500000216452881
-0.0531991608440876,0.060812726616859436,9.771140098571777,-0.002199999988079071,0.0017999999690800905,-0.039000000804662704,-0.03899999996469596,0.1509999945614304,0.05200000106461238
-0.05445372313261032,0.06365703791379929,9.767721176147461,-0.0024999999441206455,0.0018999999156221747,-0.04879999905824661,0.1180000022875799,-0.03899999996469596,0.01400000015835513
-0.051082685589790344,0.06763140857219696,9.75828742980957,-0.0026000000070780516,0.011399999260902405,-0.05859999731183052,0.1529999993484144,0.05200000106461238,0.10600000024610218
-0.05182967707514763,0.059797581285238266,9.766389846801758,-0.0023999998811632395,0.0010999999940395355,-0.04879999905824661,0.0749999994190225,0.05900000114378995,-0.010999999647985701
-0.05737464874982834,0.0656585842370987,9.766168594360352,-0.002300000051036477,0.0008999999845400453,-0.04879999905824661,0.14099999730693671,0.02899999937514897,-0.05200000106461238
-0.060343459248542786,0.06324522942304611,9.755911827087402,-0.012000000104308128,0.0004999999655410647,-0.05859999731183052,0.02600000053230619,0.06899999839828364,-0.0429999995335041
-0.050057969987392426,0.07738059759140015,9.761245727539062,-0.001999999862164259,0.019999999552965164,-0.04879999905824661,0.09600000299160849,-0.0019999999928448997,0.15500000413539844
-0.06026684492826462,0.057997141033411026,9.769003868103027,-0.011799999512732029,0.00009999999747378752,-0.039000000804662704,0.007000000079177565,-0.0969999987149939,0.0659999978879142
-0.06296750903129578,0.07319553196430206,9.757616996765137,-0.01209999993443489,0.00989999994635582,-0.05859999731183052,0.046999999102312236,-0.0039999999856897995,0.06700000028140622
-0.04950251430273056,0.061195798218250275,9.758306503295898,-0.002300000051036477,0,-0.05859999731183052,0.10999999647985702,0.06800000267489824,-0.007000000079177565
-0.05220317468047142,0.07175900787115097,9.756429672241211,-0.002099999925121665,0.009399999864399433,-0.05859999731183052,0.049999999612681666,0.18600000496247812,0.20599999947146552
-0.05092945694923401,0.07361691445112228,9.759753227233887,-0.0016999999061226845,0.00930000003427267,-0.04879999905824661,-0.06200000165415938,-0.046999999102312236,0.0969999987149939
-0.05308423936367035,0.06489244103431702,9.760269165039062,-0.0017999999690800905,-0.00019999999494757503,-0.04879999905824661,-0.007999999971379599,0.07799999992939192,0.024000000747902123
-0.041457995772361755,0.06598419696092606,9.765364646911621,0.008200000040233135,-0.00019999999494757503,-0.04879999905824661,0.015999999942759198,-0.09899999683187131,0.046999999102312236
-0.05363012105226517,0.07067683339118958,9.751708030700684,-0.0016999999061226845,0.009399999864399433,-0.05859999731183052,-0.03999999902313467,-0.09300000248123906,0.038000000906257256
-0.04329674690961838,0.0674111396074295,9.782373428344727,0.007699999958276749,0.009499999694526196,-0.029199998825788498,-0.013000000266153095,0,0.04600000004387353
-0.041525036096572876,0.05713523179292679,9.764646530151367,-0.001999999862164259,0.009499999694526196,-0.039000000804662704,-0.06099999926066736,-0.1390000058601659,0.02800000031671026
-0.041525036096572876,0.05713523179292679,9.764646530151367,0.0072999997064471245,-0.009800000116229057,-0.04879999905824661,0.24200000559589865,0.06500000216452881,0.10199999734224074
-0.05395573005080223,0.06460513919591904,9.765125274658203,-0.002300000051036477,0.008899999782443047,-0.05859999731183052,0.0009999999964224499,0,-0.16400000566650674
-0.05014416202902794,0.07584831118583679,9.76565170288086,-0.002300000051036477,-0.0007999999797903001,-0.04879999905824661,0.009999999755783667,-0.038000000906257256,-0.024999999806340833
-0.041266459971666336,0.07052360475063324,9.7598295211792,0.007999999448657036,0.009099999442696571,-0.04879999905824661,0.08700000146050021,-0.14799999405106096,0.2680000011256249
-0.05729803442955017,0.06577350944280624,9.760796546936035,0.007999999448657036,0.009099999442696571,-0.04879999905824661,0.0009999999964224499,0.06299999737754478,-0.10400000212922476
-0.05729803442955017,0.06577350944280624,9.760796546936035,-0.002199999988079071,-0.0007999999797903001,-0.04879999905824661,0.0009999999964224499,0.06299999737754478,-0.10400000212922476
-0.05551674962043762,0.07400956004858017,9.756266593933105,-0.001999999862164259,0.008999999612569809,-0.05859999731183052,0.015999999942759198,-0.07900000232288394,-0.031999999885518396
-0.05120718851685524,0.0618470199406147,9.755931854248047,-0.002199999988079071,-0.000699999975040555,-0.05859999731183052,-0.021000000237532696,-0.128999995265459,-0.0539999991814898
-0.05295974388718605,0.06732495129108429,9.761754035949707,-0.0024999999441206455,0.008999999612569809,-0.04879999905824661,-0.06700000028140622,0.10100000161885533,-0.05300000012305109
-0.05522944778203964,0.06868486106395721,9.753881454467773,-0.002300000051036477,0.009200000204145908,-0.05859999731183052,-0.12400000330831876,0.04900000055424296,0.05999999686717535
-0.04949294030666351,0.06436571478843689,9.766762733459473,-0.002300000051036477,0.009200000204145908,-0.05859999731183052,-0.007000000079177565,0.031999999885518396,0.09200000008774706
-0.044187385588884354,0.059088896960020065,9.766973495483398,0.007699999958276749,-0.00009999999747378752,-0.04879999905824661,0.1400000015835513,-0.10299999973573276,0.18099999966512467
-0.04694550856947899,0.05841852352023125,9.766609191894531,0.0072999997064471245,-0.0005999999702908099,-0.04879999905824661,-0.04600000004387353,-0.1070000026395942,-0.15999999609253868
-0.05551674962043762,0.06571605056524277,9.768083572387695,-0.0026000000070780516,-0.00039999998989515007,-0.04879999905824661,0.0039999999856897995,-0.05999999686717535,-0.13400000056281244
-0.05158068239688873,0.06681738048791885,9.758268356323242,-0.00279999990016222,-0.00039999998989515007,-0.05859999731183052,0.0429999995335041,0.038000000906257256,-0.06500000216452881
-0.04452257603406906,0.06387729942798615,9.759321212768555,0.00699999975040555,-0.0005999999702908099,-0.04879999905824661,0.012000000373951061,-0.03599999945432653,-0.013000000266153095
-0.04867890849709511,0.06684611737728119,9.757865905761719,-0.002699999837204814,-0.0005999999702908099,-0.05859999731183052,-0.0030000000934877653,0.06399999977103679,-0.06299999737754478
-0.06735368072986603,0.06655880808830261,9.763075828552246,-0.022099999710917473,-0.0005999999702908099,-0.04879999905824661,-0.13700000107318186,0.0429999995335041,0.0749999994190225
-0.04073973372578621,0.06371449679136276,9.769587516784668,0.0072999997064471245,-0.00029999998514540493,-0.039000000804662704,0.04200000047506539,0.13799999679656727,0.05999999686717535
-0.056129664182662964,0.06339845806360245,9.752981185913086,-0.001999999862164259,-0.00039999998989515007,-0.05859999731183052,0.0019999999928448997,0.07900000232288394,0.08400000095013078
-0.06097552925348282,0.06726749241352081,9.763602256774902,-0.011599999852478504,0.00930000003427267,-0.04879999905824661,-0.05200000106461238,-0.057000003026912535,-0.11599999750059588
-0.053735461086034775,0.0668269544839859,9.765776634216309,-0.0018999999156221747,-0.00029999998514540493,-0.04879999905824661,-0.11699999322398127,-0.08499999667351618,0.03899999996469596
-0.05009627714753151,0.07284119725227356,9.757702827453613,-0.002099999925121665,0.00969999935477972,-0.05859999731183052,0.1199999937343507,0.017999999727163266,0.05200000106461238
-0.04352658987045288,0.07243896275758743,9.751237869262695,0.007499999832361937,0.009200000204145908,-0.05859999731183052,-0.13400000056281244,0.007999999971379599,0.11500000177721047
-0.0580546036362648,0.055631671100854874,9.757166862487793,-0.011799999512732029,-0.00969999935477972,-0.05859999731183052,0.09899999683187131,0.0429999995335041,-0.06399999977103679
-0.05234682559967041,0.06594589352607727,9.753230094909668,-0.0017999999690800905,-0.00029999998514540493,-0.05859999731183052,-0.2570000081477458,0.0659999978879142,0.21800000151294321
-0.051341261714696884,0.055200714617967606,9.76565170288086,-0.0015999999595806003,-0.009499999694526196,-0.04879999905824661,-0.007000000079177565,-0.0030000000934877653,0.06399999977103679
-0.041764453053474426,0.06655880808830261,9.76209831237793,0.008100000210106373,0.00019999999494757503,-0.04879999905824661,-0.16599999711327754,-0.05900000114378995,-0.10999999647985702
-0.05274904891848564,0.06830178946256638,9.747838973999023,-0.0017999999690800905,0.010400000028312206,-0.06839999556541443,0.10999999647985702,0.1079999983629796,-0.01700000066872456
-0.04037581756711006,0.07779240608215332,9.763104438781738,0.008200000040233135,0.019899999722838402,-0.04879999905824661,0.2360000045751598,0.09000000197086964,-0.013000000266153095
-0.06059245765209198,0.06909666210412979,9.754322052001953,-0.011099999770522118,0.009599999524652958,-0.05859999731183052,-0.043999998591942806,0.11500000177721047,0.02800000031671026
-0.0459686741232872,0.06176082789897919,9.76156234741211,0.008799999952316284,0,-0.04879999905824661,-0.09000000197086964,-0.21700000578955783,0.09300000248123906
-0.052595820277929306,0.0650360956788063,9.762146949768066,-0.00139999995008111,0.00009999999747378752,-0.04879999905824661,-0.1729999938574018,-0.1079999983629796,0.14300000209392072
-0.05091987922787666,0.06626192480325699,9.746804237365723,-0.00139999995008111,0.00009999999747378752,-0.04879999905824661,0.010999999647985701,-0.08700000146050021,0.019999999511567335
-0.05091987922787666,0.06626192480325699,9.746804237365723,-0.0016999999061226845,0.0005999999702908099,-0.06839999556541443,0.010999999647985701,-0.08700000146050021,0.019999999511567335
-0.04317224398255348,0.06430825591087341,9.76940631866455,-0.001999999862164259,0.0005999999702908099,-0.05859999731183052,-0.010999999647985701,-0.07799999992939192,0.11200000126684104
-0.05406107380986214,0.054961297661066055,9.765565872192383,0.007599999662488699,0.0004999999655410647,-0.039000000804662704,-0.09500000059811649,-0.014999999216793838,0.05200000106461238
-0.0591176301240921,0.07094498723745346,9.752838134765625,-0.012199999764561653,0.010499999858438969,-0.05859999731183052,-0.2699999925723957,0.13600000534979648,0.17899999487814064
-0.05983588844537735,0.06273765861988068,9.760682106018066,-0.011799999512732029,0.001500000013038516,-0.04879999905824661,-0.04900000055424296,-0.15200000362502902,0.06200000165415938
-0.05483679473400116,0.06479667872190475,9.768659591674805,-0.0024999999441206455,0.0015999999595806003,-0.039000000804662704,0.30100000673968863,0.07199999890865307,0.14300000209392072
-0.045987825840711594,0.06675992161035538,9.76423454284668,0.007400000002235174,0.0009999999310821295,-0.04879999905824661,-0.18799999640924894,-0.014999999216793838,0.09399999820462447
-0.04936843737959862,0.06612785160541534,9.768342971801758,-0.0023999998811632395,0.0015999999595806003,-0.039000000804662704,0.007999999971379599,0.09500000059811649,0.14499999354069154
-0.04617936164140701,0.05857175216078758,9.756085395812988,0.007499999832361937,0.001500000013038516,-0.05859999731183052,-0.09500000059811649,0.0009999999964224499,-0.0329999989439571
-0.05462610721588135,0.05652231350541115,9.760164260864258,-0.002199999988079071,-0.007899999618530273,-0.04879999905824661,-0.1070000026395942,-0.10400000212922476,0.057000003026912535
-0.04929182305932045,0.06862739473581314,9.754380226135254,-0.0024999999441206455,0.012000000104308128,-0.05859999731183052,-0.03100000082707969,0.0030000000934877653,0.10499999785261017
-0.04801810905337334,0.06527551263570786,9.756085395812988,-0.0024999999441206455,0.012000000104308128,-0.05859999731183052,0.11699999322398127,-0.014999999216793838,0.041000001416626686
-0.04736688733100891,0.053543925285339355,9.75960922241211,0.007199999876320362,-0.007699999958276749,-0.04879999905824661,0.04600000004387353,-0.12199999852133472,0.13600000534979648
-0.05538267642259598,0.0728507712483406,9.755471229553223,-0.002899999963119626,0.011699999682605267,-0.05859999731183052,-0.17799999915475526,-0.128999995265459,-0.0009999999964224499
-0.04209006577730179,0.07700709998607635,9.759848594665527,0.006300000008195639,0.021900000050663948,-0.04879999905824661,0.09899999683187131,0.05200000106461238,0.049999999612681666
-0.05445372313261032,0.06635769456624985,9.756601333618164,-0.0031999999191612005,0.001999999862164259,-0.05859999731183052,0.009999999755783667,0.007999999971379599,-0.08499999667351618
-0.04672523960471153,0.060745686292648315,9.769444465637207,0.006399999838322401,0.0018999999156221747,-0.039000000804662704,0.16999999334703236,0.11099999887334903,-0.09899999683187131
-0.061435215175151825,0.06511270999908447,9.75251293182373,-0.012600000016391277,0.00139999995008111,-0.05859999731183052,0.13300000483942703,0.05799999875029794,-0.09099999769425504
-0.04907156154513359,0.05793968215584755,9.76107406616211,-0.012600000016391277,0.00139999995008111,-0.05859999731183052,0.06700000028140622,0.043999998591942806,0.0269999995907449
-0.058801595121622086,0.06442318111658096,9.771034240722656,-0.011899999342858791,0.0007999999797903001,-0.039000000804662704,0.03699999851276524,0.004999999877891834,-0.024000000747902123
-0.051149725914001465,0.07127059996128082,9.771197319030762,-0.001999999862164259,0.010199999436736107,-0.039000000804662704,0.03100000082707969,0.09999999922536333,-0.0030000000934877653
-0.06533297896385193,0.06834009289741516,9.757962226867676,-0.011399999260902405,0.00989999994635582,-0.05859999731183052,-0.15999999609253868,-0.1620000008795227,-0.35199998873554245
-0.056436121463775635,0.06486371904611588,9.76543140411377,-0.001999999862164259,0.0004999999655410647,-0.04879999905824661,0.035000000395887826,0.01400000015835513,0.16500000138989213
-0.0571160763502121,0.07908527553081512,9.75855541229248,-0.001999999862164259,0.019999999552965164,-0.05859999731183052,0.06899999839828364,0.031999999885518396,0.1419999930303221
-0.04996220022439957,0.07650911062955856,9.76530647277832,-0.0018999999156221747,0.009999999776482582,-0.04879999905824661,0.07799999992939192,0.0429999995335041,0.07399999702553048
-0.059941235929727554,0.0779552087187767,9.764368057250977,-0.011500000022351742,0.019500000402331352,-0.04879999905824661,0.13400000056281244,0.09200000008774706,0.09999999922536333
-0.049349285662174225,0.06455725431442261,9.756697654724121,-0.001500000013038516,-0.00029999998514540493,-0.05859999731183052,-0.19200000598321698,-0.09500000059811649,-0.19999999845072666
-0.05602432042360306,0.06992026418447495,9.744199752807617,-0.0017999999690800905,0.00989999994635582,-0.06839999556541443,0.05499999823992851,-0.008999999863581633,-0.16500000138989213
-0.054252609610557556,0.06320692598819733,9.76974105834961,-0.0017999999690800905,0,-0.039000000804662704,0.04600000004387353,0.07399999702553048,-0.01400000015835513
-0.045154642313718796,0.07022672146558762,9.77104377746582,0.008100000210106373,0.009599999524652958,-0.039000000804662704,0.10299999973573276,0.08400000095013078,0.029999998433587676
-0.062479086220264435,0.05956773832440376,9.758814811706543,-0.01119999960064888,-0.00039999998989515007,-0.04879999905824661,0.007999999971379599,-0.046999999102312236,0.04200000047506539
-0.05357265844941139,0.07354030013084412,9.742964744567871,-0.001500000013038516,0.00930000003427267,-0.06839999556541443,0.007999999971379599,0.035000000395887826,-0.017999999727163266
-0.041457995772361755,0.06068822368979454,9.760087966918945,0.008299999870359898,-0.0004999999655410647,-0.04879999905824661,0.014999999216793838,0.0659999978879142,0.0019999999928448997
-0.04812345653772354,0.06524679064750671,9.77109146118164,-0.0011999999405816197,-0.0004999999655410647,-0.039000000804662704,0.13400000056281244,0.10499999785261017,0.18400000017549412
-0.05997954308986664,0.06963296234607697,9.772757530212402,-0.010699999518692493,0.008899999782443047,-0.039000000804662704,0.07399999702553048,0.2140000052791884,-0.03899999996469596
-0.04390966147184372,0.05829402059316635,9.757837295532227,0.009399999864399433,-0.0010999999940395355,-0.05859999731183052,0.05099999867112037,-0.03400000133744912,0.06099999926066736
-0.05207867547869682,0.07057148963212967,9.754858016967773,-0.00039999998989515007,0.008499999530613422,-0.05859999731183052,0.024000000747902123,0.019999999511567335,0.2159999967259592
-0.04061523824930191,0.06370491534471512,9.746211051940918,0.00930000003427267,-0.0013000000035390258,-0.06839999556541443,-0.10999999647985702,-0.019000000453128628,-0.1079999983629796
-0.04315309226512909,0.0729752629995346,9.752578735351562,0.009200000204145908,0.008799999952316284,-0.05859999731183052,0.009999999755783667,-0.20800000425844953,-0.08899999957737763
-0.04968447610735893,0.06679822504520416,9.761590957641602,-0.0009999999310821295,-0.0008999999845400453,-0.04879999905824661,0.1509999945614304,-0.024000000747902123,-0.043999998591942806
-0.07112694531679153,0.07652826607227325,9.761687278747559,-0.020600000396370888,0.008299999870359898,-0.04879999905824661,-0.07000000079177565,0.12199999852133472,-0.0859999990670082
-0.05012500658631325,0.049722783267498016,9.75822925567627,-0.000699999975040555,-0.010999999940395355,-0.05859999731183052,0.22800001210765014,0.12299999424472013,0.13000000432905762
-0.052547939121723175,0.06031472608447075,9.75028133392334,-0.00029999998514540493,-0.0017999999690800905,-0.05859999731183052,0.26200000010488605,0.09500000059811649,-0.023000000021936765
-0.036554671823978424,0.06370491534471512,9.766350746154785,0.019500000402331352,-0.002699999837204814,-0.04879999905824661,-0.09600000299160849,-0.03100000082707969,0.14600000260429016
-0.06019023060798645,0.07159620523452759,9.763947486877441,-0.00989999994635582,0.007199999876320362,-0.04879999905824661,0.13499999628619785,-0.07099999651516105,0.013000000266153095
-0.057432111352682114,0.06821559369564056,9.755845069885254,-0.000699999975040555,0.006899999920278788,-0.05859999731183052,-0.01400000015835513,0.06700000028140622,0.21100000476881897
-0.05239471048116684,0.0715579017996788,9.746047973632812,-0.0004999999655410647,0.006899999920278788,-0.06839999556541443,0.0039999999856897995,-0.11099999887334903,-0.02899999937514897
-0.056081779301166534,0.0717877447605133,9.766819953918457,-0.0004999999655410647,0.006899999920278788,-0.06839999556541443,-0.03899999996469596,-0.0019999999928448997,-0.0329999989439571
-0.05149449035525322,0.06146394833922386,9.763957023620605,-0.0008999999845400453,-0.002699999837204814,-0.04879999905824661,0.15599999985878385,-0.10499999785261017,-0.004999999877891834
-0.05149449035525322,0.06146394833922386,9.763957023620605,-0.0008999999845400453,-0.002699999837204814,-0.04879999905824661,0.15599999985878385,-0.10499999785261017,-0.004999999877891834
-0.043277591466903687,0.07030333578586578,9.76451301574707,0.008299999870359898,0.006599999964237213,-0.04879999905824661,0.149999998838045,-0.10900000075647161,-0.09200000008774706
-0.05698200315237045,0.0708492174744606,9.766819953918457,-0.0016999999061226845,0.006199999712407589,-0.04879999905824661,0.1070000026395942,0.038000000906257256,-0.03899999996469596
-0.05172433331608772,0.06617573648691177,9.76756763458252,-0.0016999999061226845,0.006199999712407589,-0.04879999905824661,0.03400000133744912,0.014999999216793838,-0.0659999978879142
-0.05258624628186226,0.06501694768667221,9.775334358215332,-0.001500000013038516,-0.0037999998312443495,-0.039000000804662704,0.11299999699022645,0.08799999718388561,0.0749999994190225
-0.04622724652290344,0.06226839870214462,9.759857177734375,0.008299999870359898,-0.004100000020116568,-0.04879999905824661,0.07300000130214508,-0.04900000055424296,-0.05099999867112037
-0.04305732250213623,0.05652231350541115,9.759167671203613,0.007999999448657036,-0.013700000010430813,-0.04879999905824661,0.035000000395887826,-0.024000000747902123,0.014999999216793838
-0.05362053960561752,0.06205770745873451,9.757770538330078,-0.0017999999690800905,-0.003999999724328518,-0.05859999731183052,-0.07600000181251451,-0.007000000079177565,0.11200000126684104
-0.05682877078652382,0.07078217715024948,9.75774097442627,-0.0016999999061226845,0.0058999997563660145,-0.05859999731183052,0.046999999102312236,0.03899999996469596,0.19799999366374263
-0.05339069664478302,0.0706193745136261,9.76020336151123,-0.0015999999595806003,0.00559999980032444,-0.04879999905824661,-0.05200000106461238,0.049999999612681666,0.1400000015835513
-0.04746265336871147,0.07919061183929443,9.761026382446289,0.008100000210106373,0.01529999915510416,-0.04879999905824661,0.049999999612681666,0.1529999993484144,0.11500000177721047
-0.060276418924331665,0.07993760704994202,9.767845153808594,-0.010799999348819256,0.014699999243021011,-0.04879999905824661,-0.08799999718388561,0.03899999996469596,0.06099999926066736
-0.053304508328437805,0.07048530131578445,9.749428749084473,-0.0008999999845400453,0.0050999997183680534,-0.05859999731183052,0.13700000107318186,-0.012000000373951061,0.15699999558216926
-0.053304508328437805,0.07048530131578445,9.749428749084473,-0.0008999999845400453,0.0050999997183680534,-0.05859999731183052,0.13700000107318186,-0.012000000373951061,0.15699999558216926
-0.05277778208255768,0.05792052671313286,9.764885902404785,-0.0008999999845400453,0.004699999932199717,-0.04879999905824661,-0.023000000021936765,0.07900000232288394,-0.1199999937343507
-0.047242388129234314,0.06404968351125717,9.766063690185547,0.009399999864399433,-0.00559999980032444,-0.04879999905824661,-0.014999999216793838,-0.10100000161885533,-0.21999999295971404
-0.0638485699892044,0.05967308580875397,9.761486053466797,-0.009999999776482582,-0.005499999970197678,-0.04879999905824661,0.03899999996469596,0.10900000075647161,-0.041000001416626686
-0.054539911448955536,0.06414545327425003,9.765374183654785,0.00019999999494757503,-0.005799999926239252,-0.04879999905824661,-0.09999999922536333,-0.004999999877891834,-0.16400000566650674
-0.04858314245939255,0.05673300102353096,9.747063636779785,-0.0004999999655410647,-0.015399999916553497,-0.06839999556541443,0.021000000237532696,-0.0539999991814898,-0.06899999839828364
-0.0549708716571331,0.06804320961236954,9.769099235534668,-0.0007999999797903001,0.00419999985024333,-0.03889999911189079,0.019999999511567335,-0.041000001416626686,0.12400000330831876
-0.05791094899177551,0.06225882098078728,9.766772270202637,-0.011099999770522118,-0.006000000052154064,-0.04879999905824661,-0.12700000381868817,0.17700000343136985,0.20999999570522035
-0.05684792250394821,0.07729440927505493,9.761495590209961,-0.00039999998989515007,0.0142000000923872,-0.04879999905824661,0.07300000130214508,-0.048000001495804245,-0.04200000047506539
-0.06314946711063385,0.0561583936214447,9.755280494689941,-0.010400000028312206,-0.015799999237060547,-0.05859999731183052,0.05799999875029794,-0.13300000483942703,0.09000000197086964
-0.04112280532717705,0.07128974795341492,9.76553726196289,0.008799999952316284,0.003999999724328518,-0.04879999905824661,0.08200000283325337,-0.007999999971379599,0.21899999723632863
-0.05510494485497475,0.06698018312454224,9.772624015808105,-0.0007999999797903001,-0.005799999926239252,-0.03889999911189079,0.01400000015835513,-0.08400000095013078,-0.1390000058601659
-0.05771941319108009,0.07236234843730927,9.756342887878418,-0.010999999940395355,0.003499999875202775,-0.05859999731183052,-0.06399999977103679,-0.009999999755783667,0.02899999937514897
-0.05826529487967491,0.06550535559654236,9.76264476776123,-0.010999999940395355,0.003700000001117587,-0.04879999905824661,-0.1400000015835513,-0.017999999727163266,-0.008999999863581633
-0.05564124509692192,0.07272627204656601,9.765690803527832,-0.00139999995008111,0.004299999680370092,-0.04879999905824661,-0.08200000283325337,-0.20299999896109608,-0.19999999845072666
-0.05187756195664406,0.06305369734764099,9.769655227661133,-0.001999999862164259,-0.0050999997183680534,-0.039000000804662704,0.06399999977103679,0.03999999902313467,0.23900000508552924
-0.05625416338443756,0.07215166836977005,9.757980346679688,-0.0017999999690800905,0.004100000020116568,-0.05859999731183052,0.07199999890865307,0.08299999855663877,-0.09899999683187131
-0.04227202758193016,0.07138551771640778,9.748461723327637,0.008100000210106373,0.0038999998942017555,-0.06839999556541443,-0.1930000017066024,0.06899999839828364,-0.010999999647985701
-0.04227202758193016,0.07138551771640778,9.748461723327637,0.008100000210106373,0.0038999998942017555,-0.06839999556541443,-0.1930000017066024,0.06899999839828364,-0.010999999647985701
-0.0568670779466629,0.07017884403467178,9.770000457763672,-0.0017999999690800905,0.004600000102072954,-0.039000000804662704,-0.06700000028140622,-0.06500000216452881,-0.014999999216793838
-0.0568670779466629,0.07017884403467178,9.770000457763672,-0.0017999999690800905,0.004600000102072954,-0.039000000804662704,-0.06700000028140622,-0.06500000216452881,-0.014999999216793838
-0.051293376833200455,0.06712383776903152,9.759206771850586,-0.0017999999690800905,0.004799999762326479,-0.04879999905824661,-0.024000000747902123,0.049999999612681666,0.09899999683187131
-0.06270892918109894,0.05414726585149765,9.75370979309082,-0.011500000022351742,-0.014599999412894249,-0.05859999731183052,-0.004999999877891834,-0.03899999996469596,0.02600000053230619
-0.05641696974635124,0.06833051145076752,9.768524169921875,-0.011500000022351742,-0.004799999762326479,-0.039000000804662704,-0.11500000177721047,-0.0749999994190225,-0.10600000024610218
-0.05641696974635124,0.06833051145076752,9.768524169921875,-0.0017999999690800905,0.0052999998442828655,-0.039000000804662704,-0.11500000177721047,-0.0749999994190225,-0.10600000024610218
-0.045815445482730865,0.06877104938030243,9.761773109436035,0.007599999662488699,0.00559999980032444,-0.04879999905824661,-0.07399999702553048,0.02800000031671026,0.11400000605382507
-0.0505942702293396,0.06125325709581375,9.75668716430664,-0.001999999862164259,-0.0037999998312443495,-0.05859999731183052,0.057000003026912535,-0.0329999989439571,-0.16500000138989213
-0.04343082010746002,0.07018841803073883,9.770373344421387,0.007400000002235174,0.005499999970197678,-0.039000000804662704,-0.023000000021936765,-0.0329999989439571,-0.021999999295971403
-0.05703946202993393,0.0819774642586708,9.761945724487305,-0.002300000051036477,0.014999999664723873,-0.04879999905824661,0.11099999887334903,0.15699999558216926,-0.08299999855663877
-0.05506663769483566,0.06562986224889755,9.750807762145996,-0.0018999999156221747,-0.004699999932199717,-0.05859999731183052,0.03699999851276524,0.007999999971379599,0.0539999991814898
-0.0498855859041214,0.07042783498764038,9.761102676391602,-0.0015999999595806003,0.004399999976158142,-0.04879999905824661,0.10199999734224074,-0.006000000186975531,0.14300000209392072
-0.0498855859041214,0.07042783498764038,9.761102676391602,-0.0015999999595806003,0.004399999976158142,-0.04879999905824661,0.10199999734224074,-0.006000000186975531,0.14300000209392072
-0.050086699426174164,0.06452852487564087,9.753307342529297,-0.0015999999595806003,-0.005499999970197678,-0.05859999731183052,0.024000000747902123,-0.17799999915475526,-0.08400000095013078
-0.051408298313617706,0.060132771730422974,9.76020336151123,-0.001999999862164259,-0.005399999674409628,-0.04879999905824661,0.05600000063342052,-0.15599999985878385,0.0429999995335041
-0.05703946202993393,0.059232551604509354,9.747628211975098,-0.0026000000070780516,-0.005200000014156103,-0.06839999556541443,0.12400000330831876,0.14399999781730613,-0.031999999885518396
-0.05703946202993393,0.059232551604509354,9.747628211975098,-0.0026000000070780516,-0.005200000014156103,-0.06839999556541443,0.12400000330831876,0.14399999781730613,-0.031999999885518396
-0.05836106091737747,0.06924989074468613,9.754236221313477,-0.01209999993443489,0.00419999985024333,-0.05859999731183052,0.07999999804626934,0.05099999867112037,0.01700000066872456
-0.05197333171963692,0.06909666210412979,9.743931770324707,-0.002199999988079071,0.003999999724328518,-0.06839999556541443,-0.07799999992939192,-0.14600000260429016,0.021000000237532696
-0.0502399280667305,0.06498821079730988,9.759427070617676,-0.002899999963119626,-0.00559999980032444,-0.04879999905824661,0.23099998593759313,-0.06500000216452881,-0.149999998838045
-0.0502399280667305,0.06498821079730988,9.759427070617676,-0.002899999963119626,-0.00559999980032444,-0.04879999905824661,0.23099998593759313,-0.06500000216452881,-0.149999998838045
-0.053065087646245956,0.05815994739532471,9.752129554748535,-0.0030999998562037945,-0.006399999838322401,-0.05859999731183052,-0.04200000047506539,-0.008999999863581633,-0.0429999995335041
-0.05360138788819313,0.07314765453338623,9.758526802062988,-0.0030999998562037945,0.003399999812245369,-0.05859999731183052,0.023000000021936765,0.09000000197086964,0.09000000197086964
-0.04836287349462509,0.06387729942798615,9.74869155883789,-0.003399999812245369,-0.006099999882280827,-0.06839999556541443,-0.06099999926066736,-0.06700000028140622,0.13300000483942703
-0.05637866258621216,0.0680144801735878,9.7600679397583,-0.003399999812245369,-0.006099999882280827,-0.06839999556541443,0.02899999937514897,-0.24399999704266945,-0.049999999612681666
-0.05637866258621216,0.0680144801735878,9.7600679397583,-0.003599999938160181,0.003700000001117587,-0.04879999905824661,0.02899999937514897,-0.24399999704266945,-0.049999999612681666
-0.05954858288168907,0.06456683576107025,9.747810363769531,-0.014399999752640724,-0.006000000052154064,-0.06839999556541443,-0.07600000181251451,-0.04500000098543482,0.03899999996469596
