Accelerometer_Gx,Accelerometer_Gy,Accelerometer_Gz,Accelerometer_X,Accelerometer_Y,Accelerometer_Z,Gyroscope_Z,Gyroscope_X,Gyroscope_Y
-0.054606951773166656,0.07870220392942429,9.780400276184082,-0.00019999999494757503,-0.00029999998514540493,-0.029099998995661736,-0.10499999785261017,1.0059999932743722,0.10100000161885533
-0.059797581285238266,0.07543651014566422,9.791441917419434,-0.00019999999494757503,-0.00029999998514540493,-0.029099998995661736,1.278000003973965,1.781000000611151,0.0009999999964224499
-0.04113238677382469,0.0829351469874382,9.789775848388672,-0.007400000002235174,-0.01939999870955944,-0.03879999741911888,0.2250000115972807,-0.6570000050491991,-0.4630000076192113
-0.05408022552728653,0.07331045717000961,9.778428077697754,0.0009999999310821295,-0.01809999905526638,-0.028999999165534973,0.18900000547284757,-0.09600000299160849,-0.18600000496247812
-0.05793968215584755,0.06771759688854218,9.774012565612793,-0.008700000122189522,-0.015699999406933784,-0.03879999741911888,-0.5390000027616192,-0.8829999723492256,-0.20200000323771067
-0.047031696885824203,0.06739199161529541,9.785255432128906,0.007599999662488699,-0.011399999260902405,-0.028999999165534973,-2.363999975284287,-2.031000078715839,-0.1529999993484144
-0.04363192990422249,0.075474813580513,9.776205062866211,0.0030999998562037945,-0.004799999762326479,-0.03889999911189079,-1.939999974299878,-0.9140000131969449,-0.1319999957758284
-0.05156152695417404,0.059778425842523575,9.779394149780273,-0.009200000204145908,-0.007199999876320362,-0.029199998825788498,2.3649999576674587,2.653000006662924,0.37100000086135765
-0.06698976457118988,0.05914635956287384,9.785417556762695,-0.01209999993443489,-0.011500000022351742,-0.029099998995661736,0.566000007354944,0.9120000484306006,0.1930000017066024
-0.05808333307504654,0.06317819654941559,9.779366493225098,-0.006599999964237213,-0.008999999612569809,-0.029099998995661736,-0.13000000432905762,-0.6739999723673906,-0.2770000026567332
-0.05133168399333954,0.07420109212398529,9.783684730529785,0.0017999999690800905,0.002300000051036477,-0.029099998995661736,0.4010000059650519,1.0940000438191106,-0.05600000063342052
-0.06201940029859543,0.05824613943696022,9.767807006835938,-0.004799999762326479,-0.00699999975040555,-0.0486999973654747,-0.4780000101710585,-0.5080000152747527,0.20999999570522035
-0.06006573140621185,0.0685986652970314,9.782018661499023,-0.0052999998442828655,0.004600000102072954,-0.029099998995661736,1.290999988398615,1.8730000874102841,-0.19799999366374263
-0.0549708716571331,0.0751204788684845,9.78059196472168,0.008899999782443047,0.0015999999595806003,-0.029099998995661736,0.05799999875029794,0.4100000074961602,0.07799999992939192
-0.05073792114853859,0.08272445946931839,9.780936241149902,0.009599999524652958,0.010699999518692493,-0.029099998995661736,0.9450000006838114,1.1479999462840547,0.21299999621558977
-0.05832275375723839,0.07248684763908386,9.779807090759277,0.0032999999821186066,-0.0023999998811632395,-0.028999999165534973,-0.23499999551156117,-0.28499999512424284,-0.07399999702553048
-0.05978800728917122,0.0699106901884079,9.789173126220703,0.002199999988079071,-0.0018999999156221747,-0.019199999049305916,-0.02899999937514897,0.48299997544777223,-0.1610000051561373
-0.03867114707827568,0.07708371430635452,9.779260635375977,0.022099999710917473,0.007499999832361937,-0.028999999165534973,1.1370000333474548,0.8239999978858621,0.1800000039417393
-0.055373094975948334,0.08054094761610031,9.776023864746094,0.013899999670684338,0.003499999875202775,-0.03879999741911888,-0.19000000119623298,-0.7489999851266264,0.05099999867112037
-0.05535394325852394,0.08092401921749115,9.772279739379883,0.007400000002235174,0.007999999448657036,-0.03889999911189079,1.9999999845072665,1.4489999797041697,0.20999999570522035
-0.05535394325852394,0.08092401921749115,9.772279739379883,0.007400000002235174,0.007999999448657036,-0.03889999911189079,1.9999999845072665,1.4489999797041697,0.20999999570522035
-0.05317043140530586,0.07009264826774597,9.78134822845459,0.010099999606609344,-0.006599999964237213,-0.028999999165534973,1.570999964885291,1.5579999804606413,0.23199999500119176
-0.060467954725027084,0.0629291981458664,9.789928436279297,0.0038999998942017555,-0.020399998873472214,-0.019199999049305916,-0.6990000121943711,-0.5900000114378995,-0.23000000355442093
-0.054329223930835724,0.06735368072986603,9.773811340332031,0.011699999682605267,-0.008499999530613422,-0.03879999741911888,1.6929999500664126,2.904000067150784,0.32899999371618566
-0.06341761350631714,0.06921158730983734,9.767605781555176,0.009200000204145908,-0.012600000016391277,-0.048499997705221176,2.3450000965606037,1.983000070549928,0.11699999322398127
-0.056790463626384735,0.07491935789585114,9.78238296508789,0.02499999850988388,-0.019899999722838402,-0.02879999950528145,-2.6559999538124406,-0.013000000266153095,0.035000000395887826
-0.06047753617167473,0.07958326488733292,9.785897254943848,0.015199999324977398,-0.001999999862164259,-0.02889999933540821,-1.0549999838234552,-1.1680000208343213,-0.10299999973573276
-0.05946239456534386,0.07316680252552032,9.796058654785156,0.012899999506771564,-0.01249999925494194,-0.019099999219179153,-0.9810000068082445,-1.131000032326716,-0.06299999737754478
-0.0573459193110466,0.06739199161529541,9.769885063171387,0.012899999506771564,-0.01249999925494194,-0.019099999219179153,0.33600000380052314,0.2469999975530389,-0.13600000534979648
-0.057384226471185684,0.060343459248542786,9.782086372375488,0.01809999905526638,-0.018799999728798866,-0.028999999165534973,-0.2289999944908223,-0.3669999912873896,0.31800000073830653
-0.05551674962043762,0.07154832780361176,9.773591041564941,0.015399999916553497,-0.003599999938160181,-0.03879999741911888,-2.3289999515430257,-0.9990000098704611,-0.21899999723632863
-0.05957731604576111,0.07650911062955856,9.779183387756348,0.013799999840557575,-0.00279999990016222,-0.028999999165534973,0.24899998899980968,0.6879999925360656,0.13100000005244303
-0.04521210491657257,0.08368213474750519,9.771828651428223,0.032899998128414154,0.009399999864399433,-0.03879999741911888,0.6889999749192377,1.9179999349832668,0.22700000304405152
-0.0510731115937233,0.06585970520973206,9.787314414978027,0.033399999141693115,-0.019999999552965164,-0.02889999933540821,-2.35699988515867,-0.2609999910412874,0.11099999887334903
-0.06367618590593338,0.07212293148040771,9.77579402923584,0.02369999885559082,-0.007199999876320362,-0.03869999945163727,4.269000139286315,3.632999817644585,0.1749999986443858
-0.06630022823810577,0.08429504930973053,9.784355163574219,0.03659999743103981,-0.016699999570846558,-0.028599999845027924,-3.4169999943413973,-2.51299991169788,-0.34800000584200086
-0.057403381913900375,0.07030333578586578,9.789650917053223,0.038599997758865356,-0.01679999940097332,-0.01899999938905239,-0.5600000063342052,-0.9889999725953277,-0.0749999994190225
-0.06254612654447556,0.073473259806633,9.773323059082031,0.024799998849630356,-0.015799999237060547,-0.038599997758865356,3.54399989143838,2.2480000978456096,0.021000000237532696
-0.06404010951519012,0.07674852758646011,9.788655281066895,0.030899999663233757,-0.016599999740719795,-0.01889999955892563,1.5659999462477245,0.5470000219095553,0.07300000130214508
-0.060697801411151886,0.06822517514228821,9.782286643981934,0.03139999881386757,-0.02969999983906746,-0.028599999845027924,2.339999971201331,3.970999839572305,0.6530000221556574
-0.05680961534380913,0.08772354573011398,9.784748077392578,0.0510999970138073,-0.01599999889731407,-0.02850000001490116,2.507000017398847,1.6659999988339407,0.1749999986443858
-0.05800671875476837,0.08314583450555801,9.78713321685791,0.04600000008940697,-0.033900000154972076,-0.0284000001847744,0.3789999933288673,0.6639999884531101,0.18400000017549412
-0.06031472608447075,0.07449797540903091,9.782516479492188,0.04639999940991402,-0.043699998408555984,-0.0284000001847744,1.4460000325546531,1.8750000521766286,0.17700000343136985
-0.05713523179292679,0.07011180371046066,9.782305717468262,0.06079999729990959,-0.04739999771118164,-0.028299998492002487,-0.3499999972887716,0.3879999948599756,0.18099999966512467
-0.0517817959189415,0.07948749512434006,9.776885986328125,0.06059999763965607,-0.035999998450279236,-0.038100000470876694,-1.5719999472684634,-0.9539999488540668,-0.26300000916848465
-0.0521361343562603,0.07611646503210068,9.78041934967041,0.0568000003695488,-0.0405999980866909,-0.0284000001847744,1.1130000292644995,1.39700004200557,0.4190000090272685
-0.07179731875658035,0.07424898445606232,9.77949047088623,0.04089999943971634,-0.04360000044107437,-0.028299998492002487,-0.321000001248676,0.5500000224199247,0.2289999944908223
-0.05510494485497475,0.07567592710256577,9.775228500366211,0.060499999672174454,-0.04209999740123749,-0.038100000470876694,0.9819999891914167,-1.9029999857922726,-0.5270000007201415
-0.054329223930835724,0.0701405331492424,9.785073280334473,0.05350000038743019,-0.04429999738931656,-0.0284000001847744,1.1570000011760158,-0.815999978737926,-0.41199999894293104
-0.05522944778203964,0.06629065424203873,9.779882431030273,0.05049999803304672,-0.05590000003576279,-0.0284000001847744,2.648000094747063,1.4619999641288195,-0.20200000323771067
-0.05689580738544464,0.07390422374010086,9.783637046813965,0.05350000038743019,-0.052400000393390656,-0.028299998492002487,-3.529999924630558,-1.2849999873778761,0.28699998657101367
-0.04679227992892265,0.07767748087644577,9.777593612670898,0.05779999867081642,-0.02969999983906746,-0.03830000013113022,0.7549999861473652,1.5599999452269855,0.39699999639108385
-0.06109045073390007,0.06348465383052826,9.784767150878906,0.04039999842643738,-0.04999999701976776,-0.02850000001490116,-1.7039999697247181,-1.621000044539252,-0.12799999954207358
-0.06782294809818268,0.08019617944955826,9.784700393676758,0.024799998849630356,-0.024399999529123306,-0.028599999845027924,-0.4679999728959251,0.6570000050491991,0.10999999647985702
-0.05988377332687378,0.07243896275758743,9.790541648864746,0.035499997437000275,-0.03240000084042549,-0.018799999728798866,1.55099999705673,2.234999899977548,0.36800000035098823
-0.048563987016677856,0.0714525505900383,9.774740219116211,0.050599999725818634,-0.035999998450279236,-0.03830000013113022,-1.9189999173664392,-1.0179999953158498,0.45400000608810304
-0.05827486887574196,0.06694187968969345,9.775870323181152,0.03659999743103981,-0.038599997758865356,-0.03839999809861183,1.8360000989026788,1.4319999590251251,0.3770000018820965
-0.05857175216078758,0.07860642671585083,9.776895523071289,0.03879999741911888,-0.022199999541044235,-0.03839999809861183,2.0409999025475605,2.1689999954711268,0.5279999831033136
-0.06258442997932434,0.07364564388990402,9.787036895751953,0.04470000043511391,-0.037699997425079346,-0.0284000001847744,-0.0859999990670082,-0.6189999807975687,-0.09500000059811649
-0.05220317468047142,0.07365521788597107,9.766523361206055,0.052299998700618744,-0.03689999878406525,-0.04809999838471413,-2.6990000500624904,-1.109999975393277,0.1620000008795227
-0.06261315941810608,0.0681389793753624,9.776904106140137,0.03879999741911888,-0.028999999165534973,-0.03839999809861183,-3.7520000691196014,0.650000021645288,0.283000003677472
-0.05244259163737297,0.075350321829319,9.778206825256348,0.040300000458955765,-0.015699999406933784,-0.03849999979138374,0.021999999295971403,1.290999988398615,-0.09500000059811649
-0.07259219139814377,0.06614699959754944,9.769904136657715,0.04639999940991402,-0.012299999594688416,-0.028699999675154686,1.3790000389433534,2.436999969916325,0.4459999869401669
-0.051082685589790344,0.07526411861181259,9.791115760803223,0.0543999969959259,-0.014999999664723873,-0.018799999728798866,-2.8239999823931288,-2.1469999561545157,-0.22199999774669807
-0.052931010723114014,0.0682443231344223,9.780257225036621,0.0478999987244606,-0.00699999975040555,-0.02879999950528145,-1.890999983750795,0.5960000124586383,0.41199999894293104
-0.052931010723114014,0.0682443231344223,9.780257225036621,0.0478999987244606,-0.00699999975040555,-0.02879999950528145,-1.890999983750795,0.5960000124586383,0.41199999894293104
-0.05657019838690758,0.07382760941982269,9.77316951751709,0.04600000008940697,0.005399999674409628,-0.03869999945163727,-3.0689999351385437,-1.5140000085491248,0.20099999417411205
-0.04873637109994888,0.08373960107564926,9.784987449645996,0.0405999980866909,0.02459999918937683,-0.02889999933540821,-2.97600007939965,-1.912000040684234,0.13600000534979648
-0.04571967571973801,0.08237969130277634,9.778829574584961,0.04519999772310257,0.031599998474121094,-0.028999999165534973,-0.33600000380052314,-1.6629999449627184,0.1419999930303221
-0.05077622830867767,0.0767676830291748,9.785897254943848,0.030299998819828033,0.03219999745488167,-0.029099998995661736,-0.32899999371618566,0.9159999779632892,0.006000000186975531
-0.06632896512746811,0.08146989345550537,9.771167755126953,0.023099999874830246,0.03309999778866768,-0.03879999741911888,0.8039999766964482,1.060999984844194,-0.2570000081477458
-0.05581362918019295,0.06378152966499329,9.782746315002441,0.03500000014901161,0.011299999430775642,-0.028999999165534973,3.1250000158132436,1.891999966133967,-0.36099999026665075
-0.04270298033952713,0.06562986224889755,9.77769947052002,0.04939999803900719,0.0024999999441206455,-0.03869999945163727,-1.5779999482892022,-2.1849999270452933,-0.3369999861836953
-0.07282203435897827,0.0783287063241005,9.776214599609375,0.014399999752640724,0.025699999183416367,-0.03879999741911888,1.1140000116476716,1.5610000343318635,-0.14600000260429016
-0.04466622695326805,0.07649953663349152,9.769989967346191,0.047599997371435165,0.012600000016391277,-0.03879999741911888,2.4300000932341197,0.6050000139897467,0.1830000044521087
-0.05554547905921936,0.07208462804555893,9.785369873046875,0.03929999843239784,0.004100000020116568,-0.02889999933540821,0.6620000236867658,-1.0299999973573275,-0.013000000266153095
-0.05811206251382828,0.07174943387508392,9.791365623474121,0.026999998837709427,0.0026000000070780516,-0.019099999219179153,-2.228000023295343,-0.7080000137254794,0.23300000406479038
-0.07207505404949188,0.06592673808336258,9.788521766662598,0.014599999412894249,-0.00029999998514540493,-0.019199999049305916,1.1779999513877488,-0.5630000068445746,-0.3190000098019052
-0.049253515899181366,0.07190266251564026,9.778541564941406,0.032499998807907104,0.0064999996684491634,-0.028999999165534973,2.4249999678748475,1.102000009606194,-0.20200000323771067
-0.0677846372127533,0.06992026418447495,9.784518241882324,0.015599999576807022,-0.00009999999747378752,-0.02889999933540821,0.24500000610626807,0.057000003026912535,-0.13400000056281244
-0.05948155000805855,0.07231447100639343,9.777670860290527,0.025299999862909317,-0.0009999999310821295,-0.03869999945163727,1.8360000989026788,1.683000019512985,0.39200000443394367
-0.06210559234023094,0.0645764097571373,9.774385452270508,0.0284000001847744,-0.014499999582767487,-0.03869999945163727,-0.6290000180727021,-2.0090000393992278,-0.3579999897562813
-0.05988377332687378,0.0653904378414154,9.7841157913208,0.02199999988079071,-0.01249999925494194,-0.02889999933540821,2.7159999640198293,-0.035000000395887826,-0.19499999315337319
-0.055267754942178726,0.08894938230514526,9.772576332092285,0.03139999881386757,0.010300000198185444,-0.03869999945163727,1.4549999807249085,-0.18799999640924894,-0.13100000005244303
-0.05455906689167023,0.06324522942304611,9.790072441101074,0.030499998480081558,-0.02290000021457672,-0.019099999219179153,-0.05200000106461238,-0.11599999750059588,0.05499999823992851
-0.06312073767185211,0.07530242949724197,9.774481773376465,0.014800000004470348,-0.009399999864399433,-0.03869999945163727,-2.8779998848580726,-1.9419999390662224,-0.23099998593759313
-0.06360915303230286,0.07801266759634018,9.779088020324707,0.012199999764561653,0.005200000014156103,-0.028999999165534973,3.4880000242070914,-0.09899999683187131,0.0030000000934877653
-0.06283342838287354,0.06617573648691177,9.789613723754883,0.012799999676644802,-0.025699999183416367,-0.019099999219179153,3.426000049233359,1.2280000310417098,-0.3119999997175677
-0.06885723769664764,0.07563761621713638,9.781798362731934,0.0064999996684491634,-0.024399999529123306,-0.02879999950528145,-0.21200000049220435,-0.2909999961449817,0.14799999405106096
-0.05986462160944939,0.07541734725236893,9.784221649169922,0.01589999906718731,-0.023899998515844345,-0.02879999950528145,2.6520000242797517,1.541999942164769,0.3409999957576634
-0.054798487573862076,0.07631757110357285,9.778484344482422,0.034299999475479126,-0.03689999878406525,-0.028599999845027924,-0.6879999925360656,-0.14600000260429016,-0.08799999718388561
-0.05068046227097511,0.07325299829244614,9.783014297485352,0.03370000049471855,-0.03460000082850456,-0.028699999675154686,2.16600004832161,0.19000000119623298,-0.3860000034132048
-0.06941269338130951,0.08161354809999466,9.76805591583252,0.014399999752640724,-0.02969999983906746,-0.04820000007748604,-0.7200000157669572,1.0290000149741554,-0.1180000022875799
-0.06389645487070084,0.07387548685073853,9.770986557006836,0.026899999007582664,-0.037299998104572296,-0.03839999809861183,-1.4979999702532527,-1.2729999853363985,-0.4720000091503196
-0.053112972527742386,0.07899907976388931,9.780926704406738,0.032099999487400055,-0.022099999710917473,-0.028699999675154686,-1.7920000202694566,-0.39200000443394367,0.40499998885859356
-0.05654146522283554,0.07218997180461884,9.776626586914062,0.030899999663233757,-0.026999998837709427,-0.03849999979138374,3.2499999481438815,1.6659999988339407,-0.32700000226941484
-0.05196375399827957,0.07160577923059464,9.78837776184082,0.0348999984562397,-0.035099998116493225,-0.018799999728798866,3.8760000190670674,0.5330000017408804,-0.5840000104171607
-0.0548655241727829,0.07134721428155899,9.776799201965332,0.026099998503923416,-0.034299999475479126,-0.02850000001490116,0.14399999781730613,1.5389999950152524,-0.4169999909000712
-0.0548655241727829,0.07134721428155899,9.776799201965332,0.03579999879002571,-0.04600000008940697,-0.03830000013113022,0.14399999781730613,1.5389999950152524,-0.4169999909000712
-0.057001154869794846,0.07184520363807678,9.769501686096191,0.03099999949336052,-0.04609999805688858,-0.03830000013113022,-0.1390000058601659,-0.5440000213991859,0
-0.05366842821240425,0.06962338089942932,9.770191192626953,0.03689999878406525,-0.04349999874830246,-0.03830000013113022,0.4930000127229056,-1.4869999505949472,-0.2549999900205486
-0.046696510165929794,0.07390422374010086,9.776119232177734,0.04079999774694443,-0.04339999705553055,-0.03839999809861183,-0.6149999979040272,-0.3059999986968288,-0.22100000202331266
-0.050249505788087845,0.0739521011710167,9.779040336608887,0.029899999499320984,-0.0414000004529953,-0.028599999845027924,-0.321000001248676,-1.75899996129454,-0.8579999858830979
-0.050038814544677734,0.07598238438367844,9.775171279907227,0.023599999025464058,-0.03989999741315842,-0.03849999979138374,2.5430000235232804,1.5870000031811633,-0.03699999851276524
-0.056531891226768494,0.08669883012771606,9.777421951293945,0.024000000208616257,-0.02029999904334545,-0.03849999979138374,-2.2870000511195596,-1.4220000284716976,-0.23099998593759313
-0.06154056265950203,0.07173028588294983,9.776176452636719,0.010599999688565731,-0.0340999998152256,-0.038599997758865356,0.13700000107318186,1.297999971802526,0.26500000061525547
-0.06590758264064789,0.07819462567567825,9.789057731628418,0.0139999995008111,-0.024399999529123306,-0.01889999955892563,1.6160000259016853,2.577000064881369,0.7429999841058874
-0.06185659393668175,0.07825209200382233,9.766016006469727,0.022599998861551285,-0.02969999983906746,-0.04820000007748604,2.632999932112657,2.6860000656378404,0.5440000213991859
-0.061368178576231,0.07981310784816742,9.784700393676758,0.02410000003874302,-0.025499999523162842,-0.028599999845027924,0.10999999647985702,-0.754000003764193,-0.3459999877148036
-0.05729803442955017,0.090979665517807,9.779864311218262,0.031700000166893005,-0.015699999406933784,-0.028699999675154686,-2.825999947159473,-1.388999969496781,-0.11200000126684104
-0.05597643554210663,0.08073247969150543,9.788894653320312,0.026099998503923416,-0.016099998727440834,-0.01899999938905239,-0.8560000211167536,-0.43999998591942807,-0.29999999767609
-0.060793567448854446,0.07399998605251312,9.77823543548584,0.02449999935925007,-0.013299999758601189,-0.02879999950528145,0.4720000091503196,0.15699999558216926,1.3359999426933036
-0.060793567448854446,0.07399998605251312,9.77823543548584,0.02449999935925007,-0.013299999758601189,-0.02879999950528145,0.4720000091503196,0.15699999558216926,1.3359999426933036
-0.04312435910105705,0.07328172028064728,9.785475730895996,0.042500000447034836,-0.03529999777674675,-0.028699999675154686,1.9450000996591503,0.6399999843701547,0.845000001458448
-0.060343459248542786,0.07386591285467148,9.788262367248535,0.024799998849630356,-0.04169999808073044,-0.018799999728798866,-1.129999943221838,-0.5420000032719886,0.1729999938574018
-0.05455906689167023,0.07052360475063324,9.78641414642334,0.03309999778866768,-0.03869999945163727,-0.028599999845027924,-0.5260000183369693,-1.1060000458605883,-0.830999981289773
-0.06971915066242218,0.07681556791067123,9.778656959533691,0.010300000198185444,-0.02719999849796295,-0.028699999675154686,0.4179999999636699,-0.024999999806340833,-0.23199999500119176
-0.047663770616054535,0.07029376178979874,9.783502578735352,0.039400000125169754,-0.037699997425079346,-0.028699999675154686,0.7879999917614289,-0.9229999613672003,0.754000003764193
-0.058140791952610016,0.07018841803073883,9.770536422729492,0.016999999061226845,-0.03959999978542328,-0.03849999979138374,-3.69599977500149,-2.1209999873052157,0.04600000004387353
-0.054731450974941254,0.07000645250082016,9.781147003173828,0.01939999870955944,-0.02669999934732914,-0.02879999950528145,-1.582999966926769,-0.9510000017045502,-0.012000000373951061
-0.06009446457028389,0.06577350944280624,9.771676063537598,0.007199999876320362,-0.03240000084042549,-0.03869999945163727,-3.754999802825706,-3.357999966517181,-1.1389999981137993
-0.05014416202902794,0.0787883922457695,9.775602340698242,0.007699999958276749,-0.002300000051036477,-0.03879999741911888,-2.844000056943395,-0.9070000297930338,0.08400000095013078
-0.05135083943605423,0.08173804730176926,9.775947570800781,0.005399999674409628,0.0044999998062849045,-0.03889999911189079,1.6290000103263353,-1.980999892340172,0.16699999283666295
-0.07129932194948196,0.07265923172235489,9.777555465698242,-0.019500000402331352,-0.009599999524652958,-0.03889999911189079,-3.5149999754395638,-2.0580000299483108,0.014999999216793838
-0.060151923447847366,0.08221688866615295,9.77953815460205,-0.016699999570846558,0.012199999764561653,-0.029199998825788498,-2.2449999372526817,-0.9870000078289833,-1.1790000404926269
-0.058140791952610016,0.07136636227369308,9.783100128173828,-0.018699999898672104,0.00699999975040555,-0.029199998825788498,0.19799999366374263,1.2720000029532261,0.9219999789840281
-0.05233725160360336,0.0729944258928299,9.773524284362793,-0.004900000058114529,0.006399999838322401,-0.039000000804662704,-2.0940000360727438,0.33900000431089256,1.067999968248105
-0.054702721536159515,0.058763287961483,9.76269245147705,-0.013899999670684338,0.021199999377131462,-0.039000000804662704,-1.2340000320624487,-0.0969999987149939,-0.15200000362502902
-0.054702721536159515,0.058763287961483,9.76269245147705,-0.007199999876320362,0.012999999336898327,-0.048899997025728226,-1.2340000320624487,-0.0969999987149939,-0.15200000362502902
-0.06054457277059555,0.07700709998607635,9.77104377746582,-0.01730000041425228,0.03669999912381172,-0.03909999877214432,-2.0450000455236608,-2.755999899676951,-1.0749999516520161
-0.04964616894721985,0.06132029369473457,9.775678634643555,-0.02279999852180481,0.030899999663233757,-0.03909999877214432,0.551000004803097,-1.4150000450677866,-1.2520000351246652
-0.05697242170572281,0.0835193321108818,9.781012535095215,-0.0044999998062849045,-0.0007999999797903001,-0.039000000804662704,-5.056000148664572,1.0840000065439772,0.36800000035098823
-0.05791094899177551,0.06927862018346786,9.763104438781738,-0.007799999788403511,0.01730000041425228,-0.029199998825788498,-5.056000148664572,1.0840000065439772,0.36800000035098823
-0.06268977373838425,0.07965029776096344,9.779653549194336,-0.013799999840557575,0.04439999908208847,-0.02929999865591526,-7.88800020356649,-2.6959998894695625,0.1509999945614304
-0.05258624628186226,0.07137593626976013,9.778130531311035,-0.013799999840557575,0.04439999908208847,-0.02929999865591526,-7.018999931220821,-2.9219999634912948,0.4709999734062945
-0.06026684492826462,0.07305187731981277,9.779950141906738,-0.009499999694526196,0.05049999803304672,-0.02929999865591526,-7.018999931220821,-2.9219999634912948,0.4709999734062945
-0.055746592581272125,0.0696808472275734,9.79468822479248,-0.028099998831748962,0.07180000096559525,-0.02929999865591526,-1.8599998895422227,0.01700000066872456,0.44099999498302667
-0.055392250418663025,0.07613561302423477,9.774194717407227,-0.008799999952316284,0.06149999797344208,-0.03909999877214432,1.3209999935023093,-0.1849999958988795,-0.5759999912692245
-0.05533478781580925,0.07690175622701645,9.793827056884766,-0.008799999952316284,0.06149999797344208,-0.03909999877214432,-1.5610000343318635,0.7630000052953013,1.3099999738440038
-0.0549708716571331,0.07871177792549133,9.780946731567383,-0.007699999958276749,0.06909999996423721,-0.02929999865591526,-0.46199997187518627,0.9999999922536332,-0.20599999947146552
-0.05272989720106125,0.07020757347345352,9.780783653259277,-0.004600000102072954,0.06030000001192093,-0.02929999865591526,-12.536000282820819,-4.5469999375632355,-0.40499998885859356
-0.05554547905921936,0.06479667872190475,9.777153015136719,-0.015399999916553497,0.08009999990463257,-0.03909999877214432,-6.104000042362411,-1.5089999899115583,-0.3119999997175677
-0.052739474922418594,0.06534255295991898,9.781625747680664,-0.019500000402331352,0.09629999846220016,-0.029199998825788498,10.258999628646158,1.8270000440107177,-1.4449999434497751
-0.06915412098169327,0.06483498215675354,9.783339500427246,-0.03269999846816063,0.06079999729990959,-0.02929999865591526,9.337000076548954,2.0609999770978273,-1.3229999582686536
-0.0574704185128212,0.06889554858207703,9.784968376159668,-0.01850000023841858,0.050999999046325684,-0.02929999865591526,-5.187000188737654,-0.4319999934519184,0.8669999874142063
-0.04923436418175697,0.07458417862653732,9.780208587646484,-0.009999999776482582,0.06650000065565109,-0.02929999865591526,6.998000087730794,0.9639999861292001,-1.2379999615951374
-0.06210559234023094,0.07384675741195679,9.768533706665039,-0.01730000041425228,0.04939999803900719,-0.03909999877214432,-3.774999877375973,-3.2220000145282377,-1.312000045332054
-0.06513186544179916,0.07234320044517517,9.78685474395752,-0.025999998673796654,0.05929999798536301,-0.02929999865591526,7.634999751425462,-1.3709999664345645,-2.5739999042884407
-0.06925946474075317,0.06715257465839386,9.791805267333984,-0.04039999842643738,0.032899998128414154,-0.019500000402331352,-12.266000343609276,-3.622999993812863,0.02800000031671026
-0.06827305257320404,0.06651092320680618,9.78059196472168,-0.04800000041723251,0.026999998837709427,-0.02929999865591526,6.28199989477482,2.3720000477930756,2.2730000843117373
-0.06827305257320404,0.06651092320680618,9.78059196472168,-0.04800000041723251,0.026999998837709427,-0.02929999865591526,6.28199989477482,2.3720000477930756,2.2730000843117373
-0.06919243186712265,0.06761226058006287,9.788195610046387,-0.05260000005364418,-0.004299999680370092,-0.01939999870955944,-9.347000327267498,-3.233000034186543,-3.8700001247680342
-0.06001785025000572,0.08048348128795624,9.779585838317871,-0.05350000038743019,0.03720000013709068,-0.02929999865591526,-9.935000213856494,4.354000135959831,2.94599996757425
-0.04437892138957977,0.07488104701042175,9.763468742370605,-0.022499999031424522,0.05269999802112579,-0.04899999871850014,11.162000155793327,2.966000042124517,-1.4230000108548697
-0.04437892138957977,0.07488104701042175,9.763468742370605,-0.022499999031424522,0.05269999802112579,-0.04899999871850014,11.162000155793327,2.966000042124517,-1.4230000108548697
-0.05969223752617836,0.08051221817731857,9.78219985961914,-0.03739999979734421,0.07959999889135361,-0.029399998486042023,21.442999823756097,-5.128999929853199,-4.070000016497055
-0.06835924834012985,0.07558973878622055,9.780083656311035,-0.060999996960163116,0.010799999348819256,-0.02929999865591526,-24.921999366184405,0.5230000178265999,4.899000139742189
-0.0612628310918808,0.06871359050273895,9.773150444030762,-0.04910000041127205,0.0957999974489212,-0.03909999877214432,14.181000117999615,-1.7289999561908458,-3.9389999764239723
-0.05122634023427963,0.07439263164997101,9.774481773376465,-0.04259999841451645,0.06629999727010727,-0.03920000046491623,-0.3409999957576634,-2.5249999137393577,2.4659998859151413
-0.06332184374332428,0.0664534643292427,9.785983085632324,-0.05989999696612358,0.05719999969005585,-0.029399998486042023,5.204999871634754,-4.792000103752062,-1.3800000213265255
-0.06252697110176086,0.07162494212388992,9.781598091125488,-0.07109999656677246,0.05419999733567238,-0.02929999865591526,11.965999652242099,-6.673999819167484,-4.71399977031734
-0.054013192653656006,0.07600153982639313,9.78222942352295,-0.07919999957084656,0.0210999995470047,-0.029199998825788498,-6.69300012477799,5.34199980600687,2.0539998869722105
-0.04916732758283615,0.07540777325630188,9.775860786437988,-0.060499999672174454,0.043800000101327896,-0.03909999877214432,-5.856000142467479,2.14000007947231,6.237000047201837
-0.054798487573862076,0.07594407349824905,9.776023864746094,-0.055799998342990875,0.06539999693632126,-0.019500000402331352,6.9189999853563116,-4.02099981250456,-11.676000065367113
-0.05776729807257652,0.07429686933755875,9.780840873718262,-0.06799999624490738,0.023399999365210533,-0.03909999877214432,-0.5339999841240525,-0.8609999863934674,-6.263999784990898
-0.047759536653757095,0.06561069935560226,9.785772323608398,-0.06909999996423721,-0.0018999999156221747,-0.029199998825788498,9.233999970091515,-2.213000074104349,4.092999824753426
-0.047759536653757095,0.06561069935560226,9.785772323608398,-0.06909999996423721,-0.0018999999156221747,-0.029199998825788498,9.233999970091515,-2.213000074104349,4.092999824753426
-0.051810525357723236,0.0715770572423935,9.786998748779297,-0.08619999885559082,-0.023599999025464058,-0.02889999933540821,1.3699999840513923,0.5530000229302942,11.76199983098039
-0.06486371904611588,0.06891470402479172,9.789623260498047,-0.11459999531507492,-0.047199998050928116,-0.018799999728798866,0.7339999825747792,-5.908000080166079,-1.5469999608023357
-0.06267062574625015,0.06855078041553497,9.768572807312012,-0.0973999947309494,-0.02149999886751175,-0.03869999945163727,-7.752999807073895,-4.79999996281744,-3.334999944817398
-0.07348284125328064,0.07104075700044632,9.77953815460205,-0.12299999594688416,0.004999999888241291,-0.028999999165534973,-4.408999807364536,12.880000199047572,6.712000003501673
-0.05950070172548294,0.07539819926023483,9.7754487991333,-0.07199999690055847,0.02539999969303608,-0.039000000804662704,0.41499999945330046,-6.0269999047542715,-3.247000000994365
-0.0530746653676033,0.06688442081212997,9.78156852722168,-0.06149999797344208,0.03219999745488167,-0.03909999877214432,0.41499999945330046,-6.0269999047542715,-3.247000000994365
-0.06756436824798584,0.06721960753202438,9.76952075958252,-0.07000000029802322,0.029399998486042023,-0.03909999877214432,0.5889999756938744,9.515999697901124,3.2229999969114096
-0.05585193634033203,0.08272445946931839,9.793405532836914,-0.01759999990463257,0.03700000047683716,-0.019500000402331352,-4.276999998351693,-2.8779998848580726,-3.9649999452732723
-0.06532340496778488,0.07426813244819641,9.784719467163086,-0.03399999812245369,0.037299998104572296,-0.02929999865591526,-2.888999904516378,-0.2740000021463637,-1.0090000471455944
-0.06265147030353546,0.06708553433418274,9.779260635375977,-0.044199999421834946,0.05089999735355377,-0.029399998486042023,3.410999886598953,3.8590001051097285,3.579999897562813
-0.04554729536175728,0.05881116911768913,9.77992057800293,-0.013899999670684338,0.03150000050663948,-0.02929999865591526,-1.501000024124475,-12.976000215379395,-3.1010000117302883
-0.04554729536175728,0.05881116911768913,9.77992057800293,-0.013899999670684338,0.03150000050663948,-0.02929999865591526,-1.501000024124475,-12.976000215379395,-3.1010000117302883
-0.0630345419049263,0.06417418271303177,9.794448852539062,-0.11999999731779099,0.028599999845027924,-0.019299998879432678,-5.756999965542729,-1.0460000356531998,-0.6230000170519632
-0.05886863172054291,0.06993941962718964,9.769837379455566,-0.1665000021457672,0.06019999831914902,-0.03849999979138374,-1.8459999227344006,-9.702000263152557,-1.4189999746004753
-0.05886863172054291,0.06993941962718964,9.769837379455566,-0.1665000021457672,0.06019999831914902,-0.03849999979138374,-1.8459999227344006,-9.702000263152557,-1.4189999746004753
-0.05991250276565552,0.07978437840938568,9.785216331481934,-0.1923999935388565,0.0746999979019165,-0.028299998492002487,2.0560000651819665,17.44199965891498,2.658999900961957
-0.06816770881414413,0.06558196991682053,9.788732528686523,-0.1923999935388565,0.0746999979019165,-0.028299998492002487,0.8420000009480786,3.1340000707052047,0.407999989368963
-0.055440135300159454,0.08077079057693481,9.783551216125488,-0.11509999632835388,0.06549999862909317,-0.029099998995661736,-2.0940000360727438,-7.985999757777832,-1.2679999666988317
-0.05832275375723839,0.07083006203174591,9.777804374694824,-0.16169999539852142,0.06589999794960022,-0.03849999979138374,1.6429999771341575,2.8849999749836894,1.401999953921431
-0.05832275375723839,0.07083006203174591,9.777804374694824,-0.16169999539852142,0.06589999794960022,-0.03849999979138374,1.6429999771341575,2.8849999749836894,1.401999953921431
-0.0559285506606102,0.06988196074962616,9.772480010986328,-0.14329999685287476,0.06119999662041664,-0.038599997758865356,-2.408000053917509,-6.787000176343468,-0.2399999874687014
-0.053065087646245956,0.07705498486757278,9.77961540222168,-0.16210000216960907,0.0778999999165535,-0.028599999845027924,-1.35399994575552,-3.586000005305258,-1.689000020533724
-0.053065087646245956,0.07705498486757278,9.77961540222168,-0.16210000216960907,0.0778999999165535,-0.028599999845027924,-1.35399994575552,-3.586000005305258,-1.689000020533724
-0.052998051047325134,0.07146213203668594,9.78597354888916,-0.17229999601840973,0.07189999520778656,-0.02850000001490116,0.9389999996630725,6.403000111016181,1.131000032326716
-0.05891651660203934,0.08278191834688187,9.781472206115723,-0.17219999432563782,0.07989999651908875,-0.028599999845027924,-0.06500000216452881,-0.4669999905127529,-0.3450000053316314
-0.05891651660203934,0.08278191834688187,9.781472206115723,-0.17219999432563782,0.07989999651908875,-0.028599999845027924,-0.06500000216452881,-0.4669999905127529,-0.3450000053316314
-0.04718492925167084,0.07895119488239288,9.771340370178223,-0.1533999890089035,0.07970000058412552,-0.03839999809861183,0.7620000229121291,0.4109999898793324,-0.28600000418784144
-0.048966214060783386,0.06710468232631683,9.784451484680176,-0.1614999920129776,0.06799999624490738,-0.028599999845027924,-0.7440000198499125,-6.7569998510746565,-0.19699999794035722
-0.05838979035615921,0.07825209200382233,9.767557144165039,-0.18159998953342438,0.07970000058412552,-0.028299998492002487,1.680999948024935,4.3129997910327145,1.1490000353889325
-0.06120537221431732,0.07217081636190414,9.770459175109863,-0.1785999983549118,0.0648999959230423,-0.03830000013113022,0.9639999861292001,1.7380000110828069,-0.14099999730693671
-0.06120537221431732,0.07217081636190414,9.770459175109863,-0.1785999983549118,0.0648999959230423,-0.03830000013113022,0.9639999861292001,1.7380000110828069,-0.14099999730693671
-0.06775590777397156,0.07369352877140045,9.787553787231445,-0.18159998953342438,0.06129999831318855,-0.018799999728798866,-0.3819999938392367,-1.9929998943816498,-0.5129999805514666
-0.0601998046040535,0.07919061183929443,9.784144401550293,-0.17499999701976776,0.07149999588727951,-0.028599999845027924,0.0019999999928448997,0.5189999815722054,1.1659999493462712
-0.06337931007146835,0.0719122365117073,9.7776517868042,-0.16830000281333923,0.05900000035762787,-0.03849999979138374,-1.453000015958564,-2.480000066166375,-0.07699999753589991
-0.04742434620857239,0.07156747579574585,9.7865571975708,-0.15469999611377716,0.06269999593496323,-0.028599999845027924,1.4280000294924364,2.392999891283103,0.40499998885859356
-0.04742434620857239,0.07156747579574585,9.7865571975708,-0.15469999611377716,0.06269999593496323,-0.028599999845027924,1.4280000294924364,2.392999891283103,0.40499998885859356
-0.06707596033811569,0.06453809887170792,9.772604942321777,-0.17790000140666962,0.04989999905228615,-0.03849999979138374,2.396000051876031,3.5509999815639968,-0.20899999998183494
-0.056148819625377655,0.07432559877634048,9.776100158691406,-0.14829999208450317,0.053599998354911804,-0.038599997758865356,0.3240000017590454,0.2800000031671026,-0.3849999943496062
-0.06560112535953522,0.07851066440343857,9.783646583557129,-0.1467999964952469,0.06229999661445618,-0.038599997758865356,-0.2609999910412874,-1.5659999462477245,0.26900001018922354
-0.06332184374332428,0.0709737166762352,9.778982162475586,-0.15489999949932098,0.05260000005364418,-0.02879999950528145,0.4879999940853389,1.6449999419005017,0.325000010822644
-0.05377376824617386,0.07110778987407684,9.776320457458496,-0.1404999941587448,0.05119999870657921,-0.038599997758865356,0.8249999802690342,1.320000011119137,0.05600000063342052
-0.06511270999908447,0.07936299592256546,9.788061141967773,-0.13619999587535858,0.0486999973654747,-0.03869999945163727,0.40499998885859356,0.4969999956164472,0.606999978756091
-0.05371630936861038,0.08201576769351959,9.78059196472168,-0.12870000302791595,0.05389999970793724,-0.028999999165534973,0.5729999907588551,0.6410000201141798,0.49900001374364444
-0.05371630936861038,0.08201576769351959,9.78059196472168,-0.12870000302791595,0.05389999970793724,-0.028999999165534973,0.5729999907588551,0.6410000201141798,0.49900001374364444
-0.060276418924331665,0.07511088997125626,9.778810501098633,-0.13589999079704285,0.0421999990940094,-0.028999999165534973,-1.0580000376946774,-1.5529999618230745,0.06800000267489824
-0.0573459193110466,0.08013872057199478,9.789756774902344,-0.12919999659061432,0.05429999902844429,-0.019099999219179153,0.5489999866758997,0.6570000050491991,0.2770000026567332
-0.05635950714349747,0.0814986303448677,9.776789665222168,-0.12219999730587006,0.0486999973654747,-0.03879999741911888,1.306000044311315,1.5579999804606413,0.14300000209392072
-0.05635950714349747,0.0814986303448677,9.776789665222168,-0.12219999730587006,0.0486999973654747,-0.03879999741911888,1.306000044311315,1.5579999804606413,0.14300000209392072
-0.050651729106903076,0.07397124916315079,9.777545928955078,-0.1281999945640564,0.026200000196695328,-0.03879999741911888,-0.8230000155026899,-0.19900000272734125,-0.5919999762042438
-0.05253836140036583,0.07763917744159698,9.783943176269531,-0.11710000038146973,0.048899997025728226,-0.028999999165534973,0.006000000186975531,-0.10299999973573276,0.20999999570522035
-0.05756618455052376,0.07386591285467148,9.769826889038086,-0.1266999989748001,0.03889999911189079,-0.03879999741911888,0.6080000145001161,0.5919999762042438,0.3259999932058162
-0.057144805788993835,0.075474813580513,9.774213790893555,-0.1143999993801117,0.03659999743103981,-0.03889999911189079,-0.30400000725005805,-0.23499999551156117,-0.15699999558216926
-0.05822698771953583,0.07494808733463287,9.786423683166504,-0.1241999939084053,0.03720000013709068,-0.029099998995661736,0.8519999848623591,0.8050000124404733,0.31600000929153577
-0.0494067445397377,0.08519527316093445,9.771761894226074,-0.11169999837875366,0.044499997049570084,-0.03889999911189079,0.9750000057875057,1.1970000435548434,-0.015999999942759198
-0.06362830102443695,0.0663672685623169,9.783809661865234,-0.11809999495744705,0.02239999920129776,-0.029099998995661736,0.24899998899980968,0.4769999744270334,0.2839999860606442
-0.056292470544576645,0.07372225821018219,9.76827621459961,-0.10649999976158142,0.03139999881386757,-0.0486999973654747,0.5260000183369693,0.6849999920256962,-0.06299999737754478
-0.057384226471185684,0.06309200078248978,9.772422790527344,-0.10369999706745148,0.019600000232458115,-0.03889999911189079,-0.2899999870813831,-0.23000000355442093,0.013000000266153095
-0.05013458430767059,0.07629841566085815,9.775160789489746,-0.10379999876022339,0.029999999329447746,-0.03889999911189079,-0.8320000170337981,-0.6750000081114157,-0.17799999915475526
-0.05476018041372299,0.07954496145248413,9.783014297485352,-0.10520000010728836,0.041999999433755875,-0.029099998995661736,0.9610000389796836,0.8230000155026899,0.3469999967784022
-0.06534255295991898,0.06817728281021118,9.774740219116211,-0.11259999871253967,0.02969999983906746,-0.03889999911189079,0.13300000483942703,0.656000022666027,0.02899999937514897
-0.06491159647703171,0.07509174197912216,9.78054428100586,-0.1103999987244606,0.029199998825788498,-0.029099998995661736,0.17400000292100043,0.29899998861249133,-0.34899998822517303
-0.05864836648106575,0.06789956241846085,9.783158302307129,-0.10889999568462372,0.02850000001490116,-0.029099998995661736,0.29899998861249133,0.635000019093441,-0.11599999750059588
-0.0630345419049263,0.07460332661867142,9.781051635742188,-0.10689999908208847,0.027699999511241913,-0.029099998995661736,0.5799999741627662,0.4759999920438612,-0.02800000031671026
-0.06721002608537674,0.07246769964694977,9.785801887512207,-0.11499999463558197,0.025999998673796654,-0.029199998825788498,0.23699998695833197,0.08700000146050021,0.37200000992495624
-0.05639781430363655,0.0829351469874382,9.78788948059082,-0.09479999542236328,0.035099998116493225,-0.019299998879432678,0.5540000053134664,-0.02600000053230619,0.2379999960219306
-0.05896440148353577,0.07452671229839325,9.772978782653809,-0.10419999808073044,0.023599999025464058,-0.039000000804662704,-0.23699998695833197,-0.5600000063342052,0.07900000232288394
-0.05945281684398651,0.061808712780475616,9.779623985290527,-0.10569999366998672,0.014599999412894249,-0.029099998995661736,-0.24500000610626807,-0.606999978756091,0.18799999640924894
-0.062124744057655334,0.07484274357557297,9.77290153503418,-0.10649999976158142,0.024799998849630356,-0.03889999911189079,0.49099999459570837,0.2699999925723957,0.43999998591942807
-0.061626750975847244,0.08032067865133286,9.76908016204834,-0.10529999434947968,0.032999999821186066,-0.039000000804662704,-0.23900000508552924,-0.09399999820462447,0.0539999991814898
-0.06179913505911827,0.08069417625665665,9.778724670410156,-0.10509999841451645,0.023599999025464058,-0.039000000804662704,0.4139999903897018,0.3369999861836953,0.09999999922536333
-0.06179913505911827,0.08069417625665665,9.778724670410156,-0.10369999706745148,0.032499998807907104,-0.029199998825788498,0.4139999903897018,0.3369999861836953,0.09999999922536333
-0.0462176688015461,0.06478710472583771,9.769885063171387,-0.08079999685287476,0.00989999994635582,-0.039000000804662704,-0.36199999933024934,-0.43699998540905866,0.07399999702553048
-0.05875370651483536,0.07351156324148178,9.76321029663086,-0.07699999958276749,0.01589999906718731,-0.04879999905824661,-0.07099999651516105,0.6840000096425239,0.08400000095013078
-0.05391742289066315,0.07716032862663269,9.786337852478027,-0.07259999960660934,0.027400000020861626,-0.029199998825788498,-0.12799999954207358,-0.14900000311465958,0.12299999424472013
-0.04635174572467804,0.07401914149522781,9.788081169128418,-0.06809999793767929,0.02879999950528145,-0.039000000804662704,-0.5249999825929442,-0.21899999723632863,-0.16800000190026157
-0.05167644843459129,0.06452852487564087,9.778867721557617,-0.0835999995470047,0.011299999430775642,-0.029199998825788498,-0.1719999981340164,-0.37800001094569513,0.24399999704266945
-0.05167644843459129,0.06452852487564087,9.778867721557617,-0.0835999995470047,0.011299999430775642,-0.029199998825788498,-0.1719999981340164,-0.37800001094569513,0.24399999704266945
-0.06330269575119019,0.06179913505911827,9.759063720703125,-0.09690000116825104,0.012999999336898327,-0.04879999905824661,0.14699999832767557,0.2150000010025738,0.08200000283325337
-0.06330269575119019,0.06179913505911827,9.759063720703125,-0.09690000116825104,0.012999999336898327,-0.04879999905824661,0.14699999832767557,0.2150000010025738,0.08200000283325337
-0.06196194142103195,0.0715579017996788,9.773763656616211,-0.09730000048875809,0.02290000021457672,-0.039000000804662704,-0.3339999856733259,0.23900000508552924,0.06099999926066736
-0.04675397276878357,0.07354030013084412,9.770986557006836,-0.07699999958276749,0.023899998515844345,-0.039000000804662704,0.10299999973573276,-0.20999999570522035,0.06299999737754478
-0.054424989968538284,0.08650729060173035,9.778762817382812,-0.08720000088214874,0.04319999739527702,-0.029199998825788498,-0.008999999863581633,0.23300000406479038,0.19000000119623298
-0.053448159247636795,0.08337567746639252,9.780352592468262,-0.08639999479055405,0.033399999141693115,-0.029199998825788498,0.024999999806340833,0.006000000186975531,0.12700000381868817
-0.048573561012744904,0.07192181795835495,9.786624908447266,-0.08639999479055405,0.033399999141693115,-0.029199998825788498,-0.0019999999928448997,0.22700000304405152,-0.035000000395887826
-0.054606951773166656,0.07332003116607666,9.777182579040527,-0.065700002014637,0.017999999225139618,-0.03909999877214432,-0.1189999980109653,0.26900001018922354,-0.05799999875029794
-0.0597209669649601,0.07764875143766403,9.786683082580566,-0.08049999922513962,0.029600000008940697,-0.029199998825788498,-0.2140000052791884,-0.019999999511567335,0.24599998848944027
-0.060582879930734634,0.07273584604263306,9.78059196472168,-0.08449999988079071,0.021399999037384987,-0.029199998825788498,0.22700000304405152,0.15399999507179982,0.05600000063342052
-0.05433880165219307,0.0874362513422966,9.776483535766602,-0.07689999788999557,0.04099999740719795,-0.039000000804662704,-0.0539999991814898,-0.015999999942759198,-0.06099999926066736
-0.06132987141609192,0.07583872973918915,9.794670104980469,-0.051899999380111694,0.012899999506771564,-0.019500000402331352,0.17799999915475526,0.16999999334703236,-0.06099999926066736
-0.05917508900165558,0.06739199161529541,9.775343894958496,-0.06300000101327896,0.015399999916553497,-0.03909999877214432,-0.043999998591942806,0.29399999665535115,-0.09800000110848592
-0.05298847332596779,0.07374140620231628,9.776578903198242,-0.06069999933242798,0.01759999990463257,-0.03909999877214432,0.09899999683187131,0.26600000967885407,-0.07600000181251451
-0.06631939113140106,0.06798575073480606,9.774347305297852,-0.07580000162124634,0.01889999955892563,-0.03909999877214432,-0.024000000747902123,-0.004999999877891834,0.14499999354069154
-0.06795702129602432,0.0639922246336937,9.774768829345703,-0.06189999729394913,0.006599999964237213,-0.03909999877214432,0.11200000126684104,0.06099999926066736,-0.09399999820462447
-0.05356308072805405,0.06810066848993301,9.776559829711914,-0.03009999915957451,0.011399999260902405,-0.03909999877214432,0.2360000045751598,0.2920000052085803,0.041000001416626686
-0.07173028588294983,0.07324341684579849,9.782411575317383,-0.06439999490976334,0.0142000000923872,-0.02929999865591526,-0.08799999718388561,0.13400000056281244,-0.024999999806340833
-0.056531891226768494,0.08123047649860382,9.783646583557129,-0.029500000178813934,0.016099998727440834,-0.029199998825788498,-0.21999999295971404,0.08400000095013078,-0.004999999877891834
-0.05946239456534386,0.07082048803567886,9.785006523132324,-0.05350000038743019,0.011399999260902405,-0.02929999865591526,0.16400000566650674,0.19000000119623298,-0.0030000000934877653
-0.06335058063268661,0.07383718341588974,9.77840805053711,-0.029999999329447746,0.006799999624490738,-0.029199998825788498,-0.07999999804626934,-0.0329999989439571,-0.1390000058601659
-0.04947378486394882,0.07146213203668594,9.77628231048584,-0.014599999412894249,0.004999999888241291,-0.039000000804662704,0.007000000079177565,0.14300000209392072,0.04600000004387353
-0.04947378486394882,0.07146213203668594,9.77628231048584,-0.014599999412894249,0.004999999888241291,-0.039000000804662704,0.007000000079177565,0.14300000209392072,0.04600000004387353
-0.05329493060708046,0.07498639822006226,9.760576248168945,-0.010699999518692493,0.003700000001117587,-0.04879999905824661,0.19200000598321698,0.4709999734062945,0.13100000005244303
-0.04670608416199684,0.07716991007328033,9.774702072143555,-0.020099999383091927,0.018699999898672104,-0.039000000804662704,-0.10600000024610218,-0.03999999902313467,-0.18799999640924894
-0.05798756331205368,0.0845823585987091,9.764359474182129,-0.029899999499320984,0.014299999922513962,-0.04879999905824661,0.023000000021936765,0.22299999347008345,0.07999999804626934
-0.05900270864367485,0.06189490109682083,9.786683082580566,-0.046299997717142105,0,-0.029199998825788498,-0.11299999699022645,-0.03100000082707969,-0.019999999511567335
-0.04977066442370415,0.07358817756175995,9.779336929321289,-0.014699999243021011,0.00139999995008111,-0.029199998825788498,0.0659999978879142,0.02800000031671026,0.14300000209392072
-0.0633888840675354,0.07349241524934769,9.774251937866211,-0.017899999395012856,0.0008999999845400453,-0.039000000804662704,-0.0269999995907449,0.19799999366374263,-0.021999999295971403
-0.0633888840675354,0.07349241524934769,9.774251937866211,-0.017899999395012856,0.0008999999845400453,-0.039000000804662704,-0.0269999995907449,0.19799999366374263,-0.021999999295971403
-0.06040092185139656,0.06779421120882034,9.776148796081543,-0.03229999914765358,0.00699999975040555,-0.039000000804662704,0.05499999823992851,0.3399999866940647,-0.0859999990670082
-0.05919424444437027,0.07535989582538605,9.76876449584961,-0.032499998807907104,0.007799999788403511,-0.039000000804662704,0.06099999926066736,-0.01700000066872456,-0.21100000476881897
-0.048142608255147934,0.07959283888339996,9.777344703674316,-0.016200000420212746,0.012399999424815178,-0.039000000804662704,-0.13499999628619785,0.15900000036915327,0.14099999730693671
-0.060937222093343735,0.07757213711738586,9.765862464904785,-0.0510999970138073,0.021399999037384987,-0.048899997025728226,-0.04900000055424296,0.09099999769425504,0.03899999996469596
-0.06073610857129097,0.06985322386026382,9.777688980102539,-0.017500000074505806,0.012799999676644802,-0.039000000804662704,0.06899999839828364,0.18099999966512467,-0.05600000063342052
-0.054846372455358505,0.06976703554391861,9.785179138183594,-0.019199999049305916,0.0018999999156221747,-0.039000000804662704,0.035000000395887826,0.09399999820462447,-0.041000001416626686
-0.054089806973934174,0.07025545835494995,9.773907661437988,-0.00419999985024333,0.0009999999310821295,-0.03889999911189079,0.13300000483942703,0.13400000056281244,0.0329999989439571
-0.054089806973934174,0.07025545835494995,9.773907661437988,-0.00419999985024333,0.0009999999310821295,-0.03889999911189079,0.13300000483942703,0.13400000056281244,0.0329999989439571
-0.06774633377790451,0.0729752629995346,9.777881622314453,-0.016699999570846558,0.00039999998989515007,-0.03889999911189079,-0.046999999102312236,0.05499999823992851,-0.10999999647985702
-0.06420291215181351,0.07448840141296387,9.781950950622559,-0.002699999837204814,0,-0.029099998995661736,-0.06200000165415938,0.17599999436777122,0.07399999702553048
-0.0559285506606102,0.07308061420917511,9.780169486999512,0.005200000014156103,0.00009999999747378752,-0.029099998995661736,0.029999998433587676,-0.05999999686717535,0.023000000021936765
-0.049588706344366074,0.07063852995634079,9.778964042663574,0.003399999812245369,0,-0.029099998995661736,0.02800000031671026,-0.02800000031671026,0.17599999436777122
-0.06187574937939644,0.07298484444618225,9.773514747619629,-0.006300000008195639,-0.00009999999747378752,-0.03889999911189079,-0.13499999628619785,0.24500000610626807,0.07099999651516105
-0.05744168907403946,0.07752425223588943,9.784076690673828,-0.01860000006854534,0.016999999061226845,-0.029199998825788498,-0.024999999806340833,0.08100000043976135,-0.031999999885518396
-0.06605123728513718,0.06066907197237015,9.781970977783203,-0.01860000006854534,0.016999999061226845,-0.029199998825788498,0.08899999957737763,0.05200000106461238,-0.0329999989439571
-0.05191586911678314,0.07834785431623459,9.7838773727417,-0.0052999998442828655,0.011599999852478504,-0.029099998995661736,0.02899999937514897,0.15699999558216926,0.09600000299160849
-0.05480806529521942,0.08995494991540909,9.78886604309082,-0.003000000026077032,0.012799999676644802,-0.019299998879432678,-0.0269999995907449,0.2740000021463637,-0.021999999295971403
-0.05634992942214012,0.07176858931779861,9.777688980102539,-0.01759999990463257,0.0005999999702908099,-0.039000000804662704,0.07399999702553048,0.03699999851276524,0.13600000534979648
-0.07442136108875275,0.06863696873188019,9.782047271728516,-0.025299999862909317,0.00019999999494757503,-0.029099998995661736,-0.08200000283325337,0.29399999665535115,0.2360000045751598
-0.06855078041553497,0.06963296234607697,9.78820514678955,-0.039400000125169754,0.0058999997563660145,-0.01939999870955944,-0.05099999867112037,-0.048000001495804245,-0.015999999942759198
-0.061741672456264496,0.06890513002872467,9.777603149414062,-0.02159999869763851,0.004399999976158142,-0.039000000804662704,0.0269999995907449,0.16699999283666295,0.07600000181251451
-0.061416059732437134,0.07308061420917511,9.765393257141113,-0.01599999889731407,0.0031999999191612005,-0.04879999905824661,-0.06299999737754478,0.11200000126684104,0.14499999354069154
-0.0579492561519146,0.0708492174744606,9.788712501525879,-0.025999998673796654,0.0044999998062849045,-0.01939999870955944,0.019999999511567335,0.14699999832767557,-0.01700000066872456
-0.06186617165803909,0.06653007864952087,9.782602310180664,-0.01719999872148037,-0.003599999938160181,-0.029199998825788498,0.0969999987149939,0.39699999639108385,-0.03899999996469596
-0.06387729942798615,0.07669106870889664,9.772327423095703,-0.029500000178813934,0.019299998879432678,-0.039000000804662704,-0.05900000114378995,0.04200000047506539,0.2740000021463637
-0.05443457141518593,0.0739521011710167,9.78227710723877,-0.029199998825788498,0.012199999764561653,-0.02929999865591526,0.1749999986443858,-0.17799999915475526,0.019999999511567335
-0.05716396123170853,0.07304230332374573,9.783283233642578,-0.024399999529123306,0.008899999782443047,-0.029199998825788498,-0.08100000043976135,0.015999999942759198,0.049999999612681666
-0.05716396123170853,0.07304230332374573,9.783283233642578,-0.024399999529123306,0.008899999782443047,-0.029199998825788498,-0.08100000043976135,0.015999999942759198,0.049999999612681666
-0.05233725160360336,0.06904877722263336,9.780964851379395,-0.025499999523162842,0.007599999662488699,-0.029199998825788498,-0.02800000031671026,0.05600000063342052,0.02600000053230619
-0.05233725160360336,0.06904877722263336,9.780964851379395,-0.025499999523162842,0.007599999662488699,-0.029199998825788498,-0.02800000031671026,0.05600000063342052,0.02600000053230619
-0.06044880300760269,0.07953538000583649,9.771963119506836,-0.02539999969303608,0.005499999970197678,-0.039000000804662704,0.019000000453128628,0.1419999930303221,0.07199999890865307
-0.06073610857129097,0.06921158730983734,9.779576301574707,-0.011500000022351742,0.0005999999702908099,-0.029099998995661736,-0.11299999699022645,0.0859999990670082,-0.07699999753589991
-0.0469263531267643,0.06788040697574615,9.772327423095703,-0.002199999988079071,0.005399999674409628,-0.039000000804662704,0.07699999753589991,-0.0269999995907449,0.07600000181251451
-0.04620809108018875,0.07252515107393265,9.782918930053711,0.0008999999845400453,0.0024999999441206455,-0.029199998825788498,0.05900000114378995,0.07399999702553048,0.16500000138989213
-0.04620809108018875,0.07252515107393265,9.782918930053711,0.0008999999845400453,0.0024999999441206455,-0.029199998825788498,0.05900000114378995,0.07399999702553048,0.16500000138989213
-0.04429273307323456,0.07704541087150574,9.77415657043457,0.007499999832361937,0.007999999448657036,-0.03889999911189079,0.14600000260429016,0.006000000186975531,-0.06299999737754478
-0.04429273307323456,0.07704541087150574,9.77415657043457,0.007499999832361937,0.007999999448657036,-0.03889999911189079,0.14600000260429016,0.006000000186975531,-0.06299999737754478
-0.05419514700770378,0.06490202248096466,9.777776718139648,0.0008999999845400453,-0.006099999882280827,-0.03889999911189079,-0.015999999942759198,0.1180000022875799,-0.13799999679656727
-0.06039134040474892,0.07730398327112198,9.779644012451172,0.0008999999845400453,-0.006099999882280827,-0.03889999911189079,-0.09500000059811649,0.07000000079177565,0.03599999945432653
-0.060467954725027084,0.07762959599494934,9.771129608154297,-0.0037999998312443495,0.006399999838322401,-0.03889999911189079,0.2920000052085803,0.28799999563461226,0.05799999875029794
-0.05301720276474953,0.0771411806344986,9.77334213256836,-0.009099999442696571,0.011699999682605267,-0.039000000804662704,0.07300000130214508,0.12400000330831876,-0.1189999980109653
-0.056675542145967484,0.07330088317394257,9.782267570495605,-0.003999999724328518,0.0007999999797903001,-0.029099998995661736,0.09800000110848592,-0.024999999806340833,-0.0659999978879142
-0.056675542145967484,0.07330088317394257,9.782267570495605,-0.003999999724328518,0.0007999999797903001,-0.029099998995661736,0.09800000110848592,-0.024999999806340833,-0.0659999978879142
-0.05585193634033203,0.08189127594232559,9.779729843139648,-0.002699999837204814,0.006799999624490738,-0.029099998995661736,-0.08700000146050021,0.10299999973573276,-0.03599999945432653
-0.048094723373651505,0.07602068781852722,9.781598091125488,-0.0015999999595806003,-0.0017999999690800905,-0.029099998995661736,-0.08899999957737763,-0.05799999875029794,-0.1079999983629796
-0.05391742289066315,0.07793605327606201,9.770966529846191,-0.0011999999405816197,0.005799999926239252,-0.03889999911189079,-0.038000000906257256,-0.13700000107318186,0.04500000098543482
-0.05720226839184761,0.07503427565097809,9.770612716674805,-0.0011999999405816197,-0.002699999837204814,-0.03889999911189079,0.05300000012305109,0.10900000075647161,0.0009999999964224499
-0.05379292368888855,0.07399998605251312,9.78984260559082,-0.0004999999655410647,-0.0016999999061226845,-0.019299998879432678,0.0019999999928448997,0.09000000197086964,-0.007999999971379599
-0.06877104938030243,0.0753694698214531,9.778034210205078,-0.013599999248981476,-0.0011999999405816197,-0.029099998995661736,-0.0019999999928448997,0.09200000008774706,-0.12100000279794933
-0.04845863953232765,0.07422982901334763,9.776473999023438,0.0044999998062849045,-0.0008999999845400453,-0.03889999911189079,0.038000000906257256,0.23900000508552924,-0.1390000058601659
-0.053850382566452026,0.0677654892206192,9.787946701049805,-0.009099999442696571,0.0037999998312443495,-0.029199998825788498,-0.009999999755783667,0.0659999978879142,0.23199999500119176
-0.053850382566452026,0.0677654892206192,9.787946701049805,-0.01850000023841858,0.0072999997064471245,-0.01939999870955944,-0.009999999755783667,0.0659999978879142,0.23199999500119176
-0.0513029545545578,0.06290046870708466,9.775995254516602,-0.017799999564886093,-0.00029999998514540493,-0.039000000804662704,0.12400000330831876,0.06200000165415938,0.1620000008795227
-0.0513029545545578,0.06290046870708466,9.775995254516602,-0.017799999564886093,-0.00029999998514540493,-0.039000000804662704,0.12400000330831876,0.06200000165415938,0.1620000008795227
-0.061789557337760925,0.07970776408910751,9.777383804321289,-0.03059999831020832,0.018299998715519905,-0.039000000804662704,-0.26300000916848465,0.08799999718388561,-0.11299999699022645
-0.05517198517918587,0.07551312446594238,9.772604942321777,-0.01860000006854534,0.007699999958276749,-0.039000000804662704,-0.05300000012305109,0.09800000110848592,-0.05499999823992851
-0.056053049862384796,0.06787082552909851,9.772738456726074,-0.006300000008195639,0.006000000052154064,-0.039000000804662704,0.2920000052085803,0.024999999806340833,0.019999999511567335
-0.05523902177810669,0.07010222971439362,9.77556324005127,-0.011099999770522118,0.005399999674409628,-0.039000000804662704,0.10299999973573276,0.2159999967259592,-0.15500000413539844
-0.05049850046634674,0.07955453544855118,9.778369903564453,-0.018799999728798866,0.017500000074505806,-0.029199998825788498,0.1800000039417393,0.11500000177721047,-0.09000000197086964
-0.054942142218351364,0.08271488547325134,9.7781400680542,-0.01589999906718731,0.012399999424815178,-0.029199998825788498,-0.06700000028140622,-0.07199999890865307,-0.07000000079177565
-0.0654095932841301,0.06614699959754944,9.789910316467285,-0.010699999518692493,-0.0044999998062849045,-0.019299998879432678,-0.18900000547284757,0.006000000186975531,-0.0030000000934877653
-0.05886863172054291,0.06986280530691147,9.77975845336914,-0.0072999997064471245,0.003700000001117587,-0.029099998995661736,0.12799999954207358,-0.04900000055424296,0.057000003026912535
-0.05408022552728653,0.08928456902503967,9.766609191894531,0.0017999999690800905,0.01759999990463257,-0.0486999973654747,-0.1849999958988795,-0.2469999975530389,0.09000000197086964
-0.05173391103744507,0.07284119725227356,9.772843360900879,-0.010400000028312206,0.012799999676644802,-0.04879999905824661,0.014999999216793838,0.22199999774669807,-0.05099999867112037
-0.05173391103744507,0.07284119725227356,9.772843360900879,-0.0071000000461936,0.002099999925121665,-0.039000000804662704,0.014999999216793838,0.22199999774669807,-0.05099999867112037
-0.05196375399827957,0.08031110465526581,9.783570289611816,-0.0007999999797903001,0.0072999997064471245,-0.029099998995661736,-0.05799999875029794,0.16500000138989213,-0.09399999820462447
-0.06810066848993301,0.08288726210594177,9.7689847946167,-0.011799999512732029,0.007599999662488699,-0.03889999911189079,0.10199999734224074,0.06899999839828364,0.1180000022875799
-0.056129664182662964,0.06855078041553497,9.774184226989746,0.00559999980032444,-0.0017999999690800905,-0.03889999911189079,0.1079999983629796,0.21999999295971404,-0.019999999511567335
-0.05492299050092697,0.07048530131578445,9.777632713317871,0.00559999980032444,-0.0017999999690800905,-0.03889999911189079,-0.004999999877891834,-0.09200000008774706,-0.10199999734224074
-0.05942408740520477,0.07450754940509796,9.78200912475586,-0.010300000198185444,0.001500000013038516,-0.029099998995661736,0.046999999102312236,0.019000000453128628,0.03999999902313467
-0.06440402567386627,0.07349241524934769,9.76863956451416,-0.007400000002235174,0.0008999999845400453,-0.03889999911189079,0.06200000165415938,0.36399999077702017,0.11299999699022645
-0.05566040053963661,0.08134539425373077,9.775104522705078,-0.0072999997064471245,0.0139999995008111,-0.039000000804662704,0.1419999930303221,0.2039999946844815,0.0269999995907449
-0.060630764812231064,0.07314765453338623,9.785198211669922,-0.023799998685717583,0.006199999712407589,-0.029199998825788498,0.0969999987149939,0.0969999987149939,-0.02600000053230619
-0.060630764812231064,0.07314765453338623,9.785198211669922,-0.023799998685717583,0.006199999712407589,-0.029199998825788498,0.0969999987149939,0.0969999987149939,-0.02600000053230619
-0.06285258382558823,0.07411490380764008,9.788904190063477,-0.010300000198185444,0.0011999999405816197,-0.019299998879432678,0.12400000330831876,0.3100000082707969,-0.010999999647985701
-0.06256527453660965,0.06602250784635544,9.778733253479004,-0.01769999973475933,-0.006000000052154064,-0.029199998825788498,0.08100000043976135,0.23000000355442093,0.004999999877891834
-0.060889340937137604,0.07317638397216797,9.775975227355957,-0.02329999953508377,0.00559999980032444,-0.039000000804662704,-0.0009999999964224499,0.02899999937514897,-0.05499999823992851
-0.05040273442864418,0.073932945728302,9.78397274017334,-0.008999999612569809,0.003700000001117587,-0.029199998825788498,-0.0429999995335041,0.08899999957737763,0
-0.05265328288078308,0.0880204290151596,9.781386375427246,-0.0058999997563660145,0.015799999237060547,-0.029099998995661736,0.08799999718388561,0.2150000010025738,0.22199999774669807
-0.060908492654561996,0.07452671229839325,9.788932800292969,-0.02159999869763851,0.00029999998514540493,-0.01939999870955944,-0.06399999977103679,0.012000000373951061,0.02800000031671026
-0.06562028080224991,0.069058358669281,9.789613723754883,-0.012999999336898327,0.00019999999494757503,-0.019299998879432678,0.09099999769425504,0.2549999900205486,0.10900000075647161
-0.05657019838690758,0.07863516360521317,9.769061088562012,-0.009200000204145908,0.01269999984651804,-0.039000000804662704,-0.03699999851276524,0.17799999915475526,-0.20599999947146552
-0.054252609610557556,0.07360734045505524,9.781137466430664,-0.013700000010430813,0.005200000014156103,-0.029199998825788498,0.07699999753589991,-0.10400000212922476,0.11099999887334903
-0.05440583825111389,0.07064810395240784,9.77551555633545,-0.010199999436736107,0.003499999875202775,-0.039000000804662704,-0.01700000066872456,0.2140000052791884,0.15999999609253868
-0.065055251121521,0.07114609330892563,9.767748832702637,-0.024299999698996544,0.005499999970197678,-0.04879999905824661,0.2499999980634083,0.22800001210765014,0.014999999216793838
-0.05874413251876831,0.08165185898542404,9.766983032226562,-0.026899999007582664,0.01599999889731407,-0.04879999905824661,0.03100000082707969,-0.041000001416626686,0.013000000266153095
-0.05762364715337753,0.0662427768111229,9.781749725341797,-0.01809999905526638,-0.0024999999441206455,-0.029199998825788498,-0.12499999903170415,0.149999998838045,-0.09600000299160849
-0.05599559098482132,0.06750690937042236,9.784546852111816,-0.007899999618530273,0.007599999662488699,-0.029199998825788498,-0.06299999737754478,0.1749999986443858,0.16400000566650674
-0.05527732893824577,0.06887639313936234,9.783809661865234,-0.0072999997064471245,0.007799999788403511,-0.029199998825788498,0.24099999653230003,0.14099999730693671,0.004999999877891834
-0.05525817349553108,0.06437529623508453,9.776300430297852,-0.00699999975040555,-0.0023999998811632395,-0.039000000804662704,0.10600000024610218,-0.013000000266153095,-0.07900000232288394
-0.04823837801814079,0.07351156324148178,9.790111541748047,-0.0071000000461936,0.00699999975040555,-0.01939999870955944,-0.05900000114378995,0.05200000106461238,-0.09000000197086964
-0.05725015327334404,0.0715579017996788,9.781472206115723,-0.006899999920278788,0.0071000000461936,-0.029199998825788498,0.19799999366374263,0.019000000453128628,-0.13799999679656727
-0.06874231994152069,0.07543651014566422,9.782966613769531,-0.026499999687075615,0.006599999964237213,-0.029199998825788498,-0.13300000483942703,0.019000000453128628,0.057000003026912535
-0.05741295590996742,0.0754939615726471,9.772316932678223,-0.006799999624490738,0.00699999975040555,-0.039000000804662704,0.012000000373951061,0.14300000209392072,-0.07799999992939192
-0.043785158544778824,0.07211335748434067,9.77956771850586,-0.016300000250339508,0.00699999975040555,-0.029199998825788498,-0.09399999820462447,0.05200000106461238,-0.0429999995335041
-0.043785158544778824,0.07211335748434067,9.77956771850586,0.0032999999821186066,0.0072999997064471245,-0.029199998825788498,0.09399999820462447,0.0329999989439571,-0.03699999851276524
-0.05675215646624565,0.06639600545167923,9.781731605529785,-0.00559999980032444,-0.003000000026077032,-0.029199998825788498,-0.0539999991814898,0.18199999538851008,-0.1319999957758284
-0.05675215646624565,0.06639600545167923,9.781731605529785,-0.00559999980032444,-0.003000000026077032,-0.029199998825788498,-0.0539999991814898,0.18199999538851008,-0.1319999957758284
-0.04085465520620346,0.07349241524934769,9.781195640563965,0.004699999932199717,0.006799999624490738,-0.029199998825788498,-0.024000000747902123,0.13499999628619785,0.03699999851276524
-0.04085465520620346,0.07349241524934769,9.781195640563965,0.004699999932199717,0.006799999624490738,-0.029199998825788498,-0.024000000747902123,0.13499999628619785,0.03699999851276524
-0.04962701350450516,0.07316680252552032,9.780438423156738,-0.004399999976158142,0.007199999876320362,-0.029199998825788498,-0.013000000266153095,0.26000000865811523,0.1180000022875799
-0.04962701350450516,0.07316680252552032,9.780438423156738,-0.004399999976158142,0.007199999876320362,-0.029199998825788498,-0.013000000266153095,0.26000000865811523,0.1180000022875799
-0.06560112535953522,0.05644569918513298,9.787409782409668,-0.013499999418854713,-0.012199999764561653,-0.029199998825788498,0.06200000165415938,0.1180000022875799,-0.11099999887334903
-0.048573561012744904,0.08409394323825836,9.77956771850586,-0.0032999999821186066,0.0071000000461936,-0.039000000804662704,0.03599999945432653,0.07999999804626934,0.013000000266153095
-0.058025870472192764,0.07218997180461884,9.776856422424316,-0.012799999676644802,0.0071000000461936,-0.039000000804662704,-0.04500000098543482,0.16899999762364695,-0.16500000138989213
-0.059893347322940826,0.07146213203668594,9.785284042358398,-0.012399999424815178,0.007199999876320362,-0.029199998825788498,-0.09600000299160849,0.2259999939804529,0.0039999999856897995
-0.061176642775535583,0.0675356462597847,9.771273612976074,-0.011799999512732029,0.007499999832361937,-0.039000000804662704,0.008999999863581633,-0.013000000266153095,-0.03599999945432653
-0.061176642775535583,0.0675356462597847,9.771273612976074,-0.011799999512732029,0.007499999832361937,-0.039000000804662704,0.008999999863581633,-0.013000000266153095,-0.03599999945432653
-0.06413587182760239,0.06883808970451355,9.771052360534668,-0.01119999960064888,0.0072999997064471245,-0.039000000804662704,0.19999999845072666,0.2780000117203318,0.03699999851276524
-0.06442318111658096,0.07545565813779831,9.770401954650879,-0.010199999436736107,0.006799999624490738,-0.039000000804662704,-0.13600000534979648,0.29399999665535115,0.07199999890865307
-0.06442318111658096,0.07545565813779831,9.770401954650879,-0.010199999436736107,0.006799999624490738,-0.039000000804662704,-0.13600000534979648,0.29399999665535115,0.07199999890865307
-0.05816952511668205,0.07779240608215332,9.773408889770508,-0.009499999694526196,0.016999999061226845,-0.039000000804662704,0.009999999755783667,0.1189999980109653,0.04200000047506539
-0.058830320835113525,0.07093541324138641,9.788655281066895,-0.008999999612569809,0.0071000000461936,-0.019299998879432678,-0.12199999852133472,0.16800000190026157,0.05099999867112037
-0.060745686292648315,0.06843586266040802,9.781386375427246,-0.008599999360740185,0.007400000002235174,-0.029199998825788498,0.14399999781730613,-0.06899999839828364,0.10199999734224074
-0.06239289417862892,0.07680599391460419,9.78842544555664,-0.008799999952316284,0.01679999940097332,-0.019299998879432678,0.09000000197086964,0.10999999647985702,0.06800000267489824
-0.06472963839769363,0.0731189176440239,9.775822639465332,-0.008200000040233135,0.006399999838322401,-0.039000000804662704,0.19099999691961836,0.20999999570522035,-0.024000000747902123
-0.05929001420736313,0.08271488547325134,9.777440071105957,-0.007499999832361937,0.015599999576807022,-0.03889999911189079,-0.12100000279794933,0.1930000017066024,0.12799999954207358
-0.061243679374456406,0.07589619606733322,9.771484375,-0.0071000000461936,0.006000000052154064,-0.03889999911189079,0.25100000712700693,0.09000000197086964,0.05300000012305109
-0.058092910796403885,0.08291599154472351,9.780658721923828,-0.006799999624490738,0.014999999664723873,-0.029099998995661736,0.019000000453128628,0.09899999683187131,0.03100000082707969
-0.054204728454351425,0.07310934364795685,9.772700309753418,0.0030999998562037945,0.005200000014156103,-0.03889999911189079,0.11400000605382507,0.07300000130214508,0.02800000031671026
-0.04908113554120064,0.0677654892206192,9.778388977050781,0.0032999999821186066,0.004900000058114529,-0.029099998995661736,-0.048000001495804245,0.25599999908414717,0.2699999925723957
-0.05237555876374245,0.08086655288934708,9.771895408630371,0.004100000020116568,0.014800000004470348,-0.03889999911189079,-0.04900000055424296,0.2639999915516568,0.08100000043976135
-0.06633853912353516,0.06566816568374634,9.776578903198242,-0.004999999888241291,-0.004600000102072954,-0.03889999911189079,0.0039999999856897995,0.20999999570522035,0.041000001416626686
-0.06134902685880661,0.0668078064918518,9.781367301940918,-0.004399999976158142,-0.004600000102072954,-0.029099998995661736,-0.13799999679656727,0.13499999628619785,-0.038000000906257256
-0.06732495129108429,0.07075344771146774,9.775247573852539,-0.013799999840557575,0.005399999674409628,-0.03889999911189079,0.024000000747902123,-0.004999999877891834,0.09000000197086964
-0.058495137840509415,0.0628046989440918,9.780571937561035,-0.003999999724328518,-0.004299999680370092,-0.029099998995661736,-0.038000000906257256,0.2050000037480801,0.09999999922536333
-0.07046613842248917,0.06449979543685913,9.788780212402344,-0.013199999928474426,-0.00419999985024333,-0.019299998879432678,-0.0539999991814898,0.023000000021936765,-0.0749999994190225
-0.05801629647612572,0.07087794691324234,9.7776517868042,-0.0032999999821186066,0.00559999980032444,-0.03889999911189079,-0.06700000028140622,0.13100000005244303,0.049999999612681666
-0.056244585663080215,0.06853163242340088,9.781156539916992,0.007199999876320362,0.005499999970197678,-0.029099998995661736,-0.2069999951948509,0.15200000362502902,0.0859999990670082
-0.052500054240226746,0.0766431912779808,9.77502727508545,0.007599999662488699,0.01589999906718731,-0.03889999911189079,0.20999999570522035,0.14699999832767557,0.031999999885518396
-0.052500054240226746,0.0766431912779808,9.77502727508545,0.007599999662488699,0.01589999906718731,-0.03889999911189079,0.20999999570522035,0.14699999832767557,0.031999999885518396
-0.05896440148353577,0.0665971115231514,9.771963119506836,-0.0015999999595806003,-0.0044999998062849045,-0.03889999911189079,0.07399999702553048,0.19999999845072666,0.16899999762364695
-0.06353253871202469,0.07858727872371674,9.778063774108887,-0.0010999999940395355,0.01489999983459711,-0.029099998995661736,-0.1180000022875799,0.021000000237532696,-0.031999999885518396
-0.04376600682735443,0.08113470673561096,9.778552055358887,0.01850000023841858,0.015099999494850636,-0.029099998995661736,0.03899999996469596,0.3220000103122746,0.18799999640924894
-0.063973069190979,0.0747661292552948,9.78940200805664,-0.00019999999494757503,0.005200000014156103,-0.019299998879432678,0.04900000055424296,-0.021000000237532696,-0.149999998838045
-0.05703946202993393,0.0759536549448967,9.778379440307617,0.009499999694526196,0.004900000058114529,-0.029099998995661736,0.13600000534979648,0.049999999612681666,-0.15399999507179982
-0.05652231350541115,0.07175900787115097,9.78620433807373,0,0.0044999998062849045,-0.029099998995661736,0.1419999930303221,0.09200000008774706,0.18400000017549412
-0.061789557337760925,0.07566635310649872,9.757023811340332,0.00009999999747378752,0.003999999724328518,-0.05849999934434891,-0.09000000197086964,0.27500001120996237,-0.10900000075647161
-0.05604347214102745,0.07652826607227325,9.784297943115234,0.010900000110268593,0.004299999680370092,-0.029099998995661736,0.08299999855663877,0.1199999937343507,0.1610000051561373
-0.05621585622429848,0.07716032862663269,9.77255630493164,0.011099999770522118,0.013700000010430813,-0.03889999911189079,0.0030000000934877653,0.2379999960219306,0.04600000004387353
-0.06339845806360245,0.06992983818054199,9.764158248901367,0.0018999999156221747,0.0037999998312443495,-0.0486999973654747,0.07900000232288394,0.14699999832767557,0.10600000024610218
-0.05222232639789581,0.08155608177185059,9.783263206481934,0.012399999424815178,0.013100000098347664,-0.029099998995661736,0.03400000133744912,0.21299999621558977,-0.046999999102312236
-0.05222232639789581,0.08155608177185059,9.783263206481934,0.012399999424815178,0.013100000098347664,-0.029099998995661736,0.03400000133744912,0.21299999621558977,-0.046999999102312236
-0.05672342702746391,0.07002561539411545,9.778715133666992,0.013299999758601189,0.0032999999821186066,-0.029099998995661736,-0.09800000110848592,0.24800000661663751,0.06399999977103679
-0.0617225207388401,0.07929596304893494,9.770181655883789,0.00419999985024333,0.013399999588727951,-0.03889999911189079,-0.0009999999964224499,-0.11299999699022645,0.007000000079177565
-0.0580546036362648,0.0800812616944313,9.771158218383789,0.0037999998312443495,0.013399999588727951,-0.03889999911189079,0.013000000266153095,0.019999999511567335,-0.13100000005244303
-0.0663672685623169,0.07576211541891098,9.76935863494873,0.0037999998312443495,0.003499999875202775,-0.03889999911189079,0.008999999863581633,0.1189999980109653,0.21100000476881897
-0.054961297661066055,0.06802405416965485,9.780793190002441,0.0139999995008111,0.003499999875202775,-0.029099998995661736,0.015999999942759198,0.09200000008774706,0
-0.05861963331699371,0.0765569880604744,9.783637046813965,0.004399999976158142,0.003499999875202775,-0.029099998995661736,0.03999999902313467,0.11699999322398127,-0.11299999699022645
-0.04154418781399727,0.06789956241846085,9.784623146057129,0.024299999698996544,0.0032999999821186066,-0.029099998995661736,0.10199999734224074,0.24500000610626807,0.07999999804626934
-0.05232767015695572,0.07352115213871002,9.774759292602539,0.01529999915510416,0.003000000026077032,-0.03889999911189079,0.05499999823992851,0.04500000098543482,0.15699999558216926
-0.06256527453660965,0.07106947898864746,9.785428047180176,0.00559999980032444,0.00279999990016222,-0.029099998995661736,0.07099999651516105,-0.024999999806340833,0.0030000000934877653
-0.05935704708099365,0.0766431912779808,9.775707244873047,0.005499999970197678,0.012399999424815178,-0.03889999911189079,-0.03999999902313467,-0.05499999823992851,-0.11500000177721047
-0.06464345008134842,0.07825209200382233,9.778637886047363,0.005399999674409628,0.01249999925494194,-0.029099998995661736,0.08100000043976135,-0.03400000133744912,0.12100000279794933
-0.056053049862384796,0.0783287063241005,9.787764549255371,0.015099999494850636,0.012199999764561653,-0.019299998879432678,-0.007000000079177565,0.16699999283666295,-0.14099999730693671
-0.05247132480144501,0.06939353793859482,9.7752103805542,0.015599999576807022,0.0023999998811632395,-0.03889999911189079,-0.019000000453128628,0.012000000373951061,0.06299999737754478
-0.05890693888068199,0.07577169686555862,9.792572021484375,0.005799999926239252,0.0024999999441206455,-0.019199999049305916,0.04900000055424296,0.03899999996469596,0.13300000483942703
-0.072266586124897,0.07391379773616791,9.786768913269043,-0.0037999998312443495,0.002300000051036477,-0.029099998995661736,0.05099999867112037,0.0039999999856897995,-0.08100000043976135
-0.05725015327334404,0.07579084485769272,9.772355079650879,0.015799999237060547,0.001999999862164259,-0.03889999911189079,0.014999999216793838,-0.006000000186975531,-0.03400000133744912
-0.05725015327334404,0.07579084485769272,9.772355079650879,0.015799999237060547,0.001999999862164259,-0.03889999911189079,0.014999999216793838,-0.006000000186975531,-0.03400000133744912
-0.053256623446941376,0.075474813580513,9.780074119567871,0.015699999406933784,0.0018999999156221747,-0.029099998995661736,-0.03699999851276524,0.1830000044521087,-0.13400000056281244
-0.06401137262582779,0.07563761621713638,9.774672508239746,0.006300000008195639,0.001999999862164259,-0.03889999911189079,0.017999999727163266,0.046999999102312236,0.038000000906257256
-0.04743392392992973,0.06618531048297882,9.774807929992676,0.02579999901354313,-0.007599999662488699,-0.03889999911189079,-0.008999999863581633,0.041000001416626686,0.26200000010488605
-0.04743392392992973,0.06618531048297882,9.774807929992676,0.02579999901354313,-0.007599999662488699,-0.03889999911189079,-0.008999999863581633,0.041000001416626686,0.26200000010488605
-0.06500735878944397,0.07087794691324234,9.767107009887695,0.006300000008195639,0.002099999925121665,-0.0486999973654747,0.0329999989439571,0.029999998433587676,-0.10499999785261017
-0.04057693108916283,0.07144297659397125,9.785820007324219,0.026499999687075615,0.002099999925121665,-0.028999999165534973,0.14799999405106096,0.13799999679656727,0.12400000330831876
-0.04057693108916283,0.07144297659397125,9.785820007324219,0.026499999687075615,0.002099999925121665,-0.028999999165534973,0.14799999405106096,0.13799999679656727,0.12400000330831876
-0.05360138788819313,0.06350380927324295,9.781233787536621,0.017099998891353607,-0.008100000210106373,-0.028999999165534973,0.08700000146050021,0.05999999686717535,-0.14600000260429016
-0.05510494485497475,0.07864473760128021,9.780898094177246,0.017899999395012856,0.010900000110268593,-0.028999999165534973,-0.13300000483942703,-0.0019999999928448997,-0.09800000110848592
-0.05510494485497475,0.07864473760128021,9.780898094177246,0.017899999395012856,0.010900000110268593,-0.028999999165534973,-0.13300000483942703,-0.0019999999928448997,-0.09800000110848592
-0.05831317603588104,0.06922116130590439,9.776013374328613,-0.0015999999595806003,0.001500000013038516,-0.028999999165534973,-0.05600000063342052,0.23399998644796255,0.038000000906257256
-0.05877286195755005,0.07162494212388992,9.769761085510254,0.009099999442696571,0.0017999999690800905,-0.03879999741911888,0.08299999855663877,0.08899999957737763,0.17700000343136985
-0.06721002608537674,0.062431201338768005,9.777996063232422,-0.0005999999702908099,-0.007799999788403511,-0.028999999165534973,-0.10499999785261017,0.021999999295971403,0.08400000095013078
-0.06603208184242249,0.07455544173717499,9.76930046081543,0.009099999442696571,0.002199999988079071,-0.03879999741911888,-0.14099999730693671,-0.15599999985878385,-0.05200000106461238
-0.06266104429960251,0.06677907705307007,9.779509544372559,0.01860000006854534,0.012299999594688416,-0.03879999741911888,0.03999999902313467,0.03400000133744912,0.06399999977103679
-0.05636908486485481,0.08131666481494904,9.781645774841309,0.01889999955892563,0.01209999993443489,-0.028999999165534973,0.13100000005244303,0.13400000056281244,0.1620000008795227
-0.05636908486485481,0.08131666481494904,9.781645774841309,0.01889999955892563,0.01209999993443489,-0.028999999165534973,0.13100000005244303,0.13400000056281244,0.1620000008795227
-0.06158844381570816,0.0742872953414917,9.780141830444336,0.009499999694526196,0.001999999862164259,-0.028999999165534973,0.04200000047506539,0.046999999102312236,-0.21200000049220435
-0.054875101894140244,0.06698018312454224,9.770133972167969,0.01939999870955944,-0.007899999618530273,-0.03879999741911888,0.03899999996469596,0.19699999794035722,0.03400000133744912
-0.060151923447847366,0.06964253634214401,9.778695106506348,0.009999999776482582,0.0016999999061226845,-0.028999999165534973,0.024000000747902123,0.24200000559589865,0.07000000079177565
-0.05846640467643738,0.07542693614959717,9.777613639831543,0.011299999430775642,0.0018999999156221747,-0.03879999741911888,0,-0.07099999651516105,0.14699999832767557
-0.05846640467643738,0.07542693614959717,9.777613639831543,0.011299999430775642,0.0018999999156221747,-0.03879999741911888,0,-0.07099999651516105,0.14699999832767557
-0.055794473737478256,0.06933607906103134,9.768610954284668,0.020899999886751175,0.0018999999156221747,-0.03879999741911888,-0.11699999322398127,-0.07799999992939192,-0.017999999727163266
-0.049205634742975235,0.07599195837974548,9.780428886413574,0.020399998873472214,0.002099999925121665,-0.028999999165534973,0.10199999734224074,0.3049999896332302,0.18700000068586353
-0.06499778479337692,0.08516654372215271,9.787113189697266,0.011500000022351742,0.011599999852478504,-0.028999999165534973,0.1189999980109653,0.2519999895101791,-0.004999999877891834
-0.06759310513734818,0.07248684763908386,9.77458667755127,0.0023999998811632395,0.00139999995008111,-0.03879999741911888,0.12499999903170415,0.15800000464576788,0.06800000267489824
-0.04993347078561783,0.07196012884378433,9.772153854370117,0.022299999371170998,0.0010999999940395355,-0.03879999741911888,0.13000000432905762,0.031999999885518396,0.34899998822517303
-0.06229712814092636,0.07011180371046066,9.76952075958252,0.01269999984651804,0.0005999999702908099,-0.03879999741911888,0.049999999612681666,0.25299999857377775,0.07600000181251451
-0.07063852995634079,0.06625235080718994,9.787257194519043,0.003499999875202775,-0.009200000204145908,-0.028999999165534973,0.08700000146050021,-0.0329999989439571,0.10199999734224074
-0.07452671229839325,0.0749959722161293,9.786529541015625,0.003399999812245369,0.00019999999494757503,-0.028999999165534973,0.07600000181251451,0.24500000610626807,0.08100000043976135
-0.05620627850294113,0.07762959599494934,9.780237197875977,0.02369999885559082,0.009800000116229057,-0.028999999165534973,0.007000000079177565,0.22199999774669807,0.19499999315337319
-0.06721960753202438,0.0847260132431984,9.767136573791504,0.004699999932199717,0.009800000116229057,-0.04859999939799309,-0.04200000047506539,-0.031999999885518396,-0.10499999785261017
-0.05630204826593399,0.07355945557355881,9.78446102142334,0.02410000003874302,0.00009999999747378752,-0.028999999165534973,0.2250000115972807,0.1070000026395942,0.14300000209392072
-0.060247693210840225,0.07602068781852722,9.782516479492188,0.014599999412894249,-0.00029999998514540493,-0.028999999165534973,-0.049999999612681666,0.19600000221697184,0.014999999216793838
-0.057738568633794785,0.07137593626976013,9.775726318359375,0.015099999494850636,-0.00009999999747378752,-0.03879999741911888,-0.12599999475508955,0.021000000237532696,-0.05900000114378995
-0.05943366140127182,0.06972873210906982,9.759905815124512,0.015199999324977398,0.00009999999747378752,-0.04859999939799309,-0.04900000055424296,0.20099999417411205,0.057000003026912535
-0.062479086220264435,0.07433517277240753,9.774280548095703,0.015699999406933784,0.00019999999494757503,-0.03879999741911888,0.0659999978879142,0.11699999322398127,-0.0019999999928448997
-0.060678645968437195,0.07616434246301651,9.763421058654785,0.01599999889731407,0,-0.04859999939799309,0.07900000232288394,0.08499999667351618,-0.019999999511567335
-0.05350561812520027,0.07651868462562561,9.780074119567871,0.02589999884366989,-0.00009999999747378752,-0.028999999165534973,0.07699999753589991,0.046999999102312236,0.12100000279794933
-0.06330269575119019,0.07392337173223495,9.776358604431152,0.016200000420212746,-0.00029999998514540493,-0.03879999741911888,0.0329999989439571,0.14600000260429016,0.038000000906257256
-0.06614699959754944,0.07102160155773163,9.754648208618164,0.016499999910593033,-0.00039999998989515007,-0.058399997651576996,-0.021999999295971403,0.13000000432905762,-0.128999995265459
-0.06031472608447075,0.07131848484277725,9.790206909179688,0.01679999940097332,-0.00029999998514540493,-0.019199999049305916,0.0039999999856897995,0.22100000202331266,0.0859999990670082
-0.04556644707918167,0.07282203435897827,9.779029846191406,0.03720000013709068,-0.00039999998989515007,-0.028999999165534973,0.24399999704266945,0.13300000483942703,0.23900000508552924
-0.05767153203487396,0.07778282463550568,9.782440185546875,0.017899999395012856,0.008799999952316284,-0.028999999165534973,-0.03899999996469596,0.021999999295971403,-0.257999990530918
-0.06080314517021179,0.07608772814273834,9.777862548828125,0.017999999225139618,-0.0007999999797903001,-0.03879999741911888,0.024999999806340833,-0.05099999867112037,0.041000001416626686
-0.06464345008134842,0.07137593626976013,9.787793159484863,0.017799999564886093,-0.0008999999845400453,-0.019199999049305916,-0.10600000024610218,-0.0429999995335041,-0.16400000566650674
-0.06049668788909912,0.06706637889146805,9.780811309814453,0.01759999990463257,-0.0005999999702908099,-0.028999999165534973,0.0019999999928448997,-0.0009999999964224499,0.1749999986443858
-0.054204728454351425,0.06199067085981369,9.767499923706055,0.027400000020861626,-0.010400000028312206,-0.04859999939799309,0.02600000053230619,0.10499999785261017,0.3280000113330135
-0.05731718987226486,0.07589619606733322,9.789287567138672,0.017899999395012856,0.008999999612569809,-0.03879999741911888,0.15500000413539844,0.2729999930827651,0.17599999436777122
-0.05731718987226486,0.07589619606733322,9.789287567138672,0.02850000001490116,-0.0011999999405816197,-0.019099999219179153,-0.021000000237532696,0.043999998591942806,-0.09600000299160849
-0.059682659804821014,0.07682514190673828,9.784164428710938,0.02850000001490116,-0.0010999999940395355,-0.03879999741911888,-0.12700000381868817,-0.009999999755783667,0.15999999609253868
-0.059682659804821014,0.07682514190673828,9.784164428710938,0.01889999955892563,0.00839999970048666,-0.02889999933540821,-0.12700000381868817,-0.009999999755783667,0.15999999609253868
-0.049397170543670654,0.08361509442329407,9.788262367248535,0.028599999845027924,-0.0008999999845400453,-0.028999999165534973,-0.0269999995907449,0.19000000119623298,0.12700000381868817
-0.052097827196121216,0.0713280588388443,9.777087211608887,0.028699999675154686,0.008899999782443047,-0.019099999219179153,0.09999999922536333,0.12599999475508955,0.10999999647985702
-0.04424484819173813,0.06633853912353516,9.773686408996582,0.03929999843239784,-0.010799999348819256,-0.03879999741911888,0.038000000906257256,0.05499999823992851,0.4300000020051476
-0.04815218225121498,0.0695371925830841,9.782851219177246,0.02969999983906746,-0.0010999999940395355,-0.02889999933540821,-0.15800000464576788,0.13700000107318186,-0.09399999820462447
-0.04815218225121498,0.0695371925830841,9.782851219177246,0.02969999983906746,-0.0010999999940395355,-0.02889999933540821,-0.15800000464576788,0.13700000107318186,-0.09399999820462447
-0.05900270864367485,0.06854120641946793,9.780571937561035,0.020999999716877937,-0.0007999999797903001,-0.02889999933540821,0.041000001416626686,0.043999998591942806,0.07199999890865307
-0.06819643825292587,0.06956592202186584,9.772528648376465,0.011299999430775642,-0.0008999999845400453,-0.03869999945163727,0.0749999994190225,0.1629999966029081,-0.0429999995335041
-0.06010403856635094,0.07672937959432602,9.78002643585205,0.021399999037384987,0.008599999360740185,-0.02889999933540821,-0.06700000028140622,0.0030000000934877653,0.07600000181251451
-0.061128757894039154,0.08021533489227295,9.78200912475586,0.021299999207258224,0.008700000122189522,-0.02889999933540821,-0.014999999216793838,-0.09200000008774706,0.10400000212922476
-0.07246769964694977,0.07444052398204803,9.776176452636719,0.021299999207258224,0.008700000122189522,-0.02889999933540821,-0.12299999424472013,0.03899999996469596,0.035000000395887826
-0.04749138653278351,0.07342537492513657,9.776013374328613,0.04050000011920929,-0.000699999975040555,-0.03869999945163727,0.049999999612681666,0.012000000373951061,0.0019999999928448997
-0.05625416338443756,0.07376056909561157,9.785179138183594,0.03059999831020832,-0.0007999999797903001,-0.02889999933540821,-0.0859999990670082,-0.01400000015835513,0.2379999960219306
-0.05263412743806839,0.07055233418941498,9.78331184387207,0.030700000002980232,-0.000699999975040555,-0.02889999933540821,-0.021999999295971403,0.17400000292100043,0.15500000413539844
-0.05315127968788147,0.07469909638166428,9.771110534667969,0.031199999153614044,-0.000699999975040555,-0.03869999945163727,0.1199999937343507,0.07199999890865307,0.0429999995335041
-0.06831136345863342,0.07015010714530945,9.775716781616211,0.011799999512732029,-0.0010999999940395355,-0.03869999945163727,0.11400000605382507,0.035000000395887826,-0.04900000055424296
-0.06400179862976074,0.07410532981157303,9.784440994262695,0.02159999869763851,-0.0013000000035390258,-0.02889999933540821,-0.12599999475508955,0.07699999753589991,0.20599999947146552
-0.058332327753305435,0.0732242688536644,9.761754035949707,0.021900000050663948,-0.0009999999310821295,-0.048499997705221176,0.0749999994190225,-0.10299999973573276,0.18799999640924894
-0.04949294030666351,0.07291781157255173,9.769376754760742,0.03139999881386757,-0.0010999999940395355,-0.03869999945163727,-0.10199999734224074,0.1830000044521087,0.15999999609253868
-0.056646812707185745,0.0743064433336258,9.779777526855469,0.03189999982714653,-0.0008999999845400453,-0.02889999933540821,0.12599999475508955,0.26300000916848465,0.019000000453128628
-0.06525636464357376,0.06569689512252808,9.77725887298584,0.023099999874830246,-0.01119999960064888,-0.03869999945163727,0.07699999753589991,0.0030000000934877653,0.09200000008774706
-0.05675215646624565,0.07596323639154434,9.778350830078125,0.03280000016093254,-0.001500000013038516,-0.02889999933540821,0.08299999855663877,0.015999999942759198,0.24399999704266945
-0.05747999623417854,0.07647079974412918,9.778780937194824,0.023099999874830246,-0.0017999999690800905,-0.02889999933540821,0.24099999653230003,0.16899999762364695,-0.1620000008795227
-0.059443242847919464,0.06618531048297882,9.780696868896484,0.023599999025464058,-0.012199999764561653,-0.02889999933540821,0.10400000212922476,0.12100000279794933,0.06700000028140622
-0.06532340496778488,0.06791871786117554,9.767136573791504,0.023799998685717583,-0.002699999837204814,-0.048499997705221176,-0.04500000098543482,0,0.06099999926066736
-0.04462791979312897,0.0832894891500473,9.785226821899414,0.043299999088048935,0.0071000000461936,-0.02889999933540821,0.0859999990670082,0.12199999852133472,0.16999999334703236
-0.06378152966499329,0.07425855845212936,9.78331184387207,0.023799998685717583,-0.00279999990016222,-0.02889999933540821,0.07300000130214508,0.28499999512424284,0.07699999753589991
-0.058428097516298294,0.07192181795835495,9.776406288146973,0.024799998849630356,-0.003000000026077032,-0.03869999945163727,0.13000000432905762,0.02800000031671026,0.08100000043976135
-0.07237192243337631,0.07798393815755844,9.77453899383545,0.015399999916553497,0.006000000052154064,-0.03869999945163727,-0.2519999895101791,0.2810000122307012,-0.006000000186975531
-0.05779602751135826,0.07148128747940063,9.774107933044434,0.026200000196695328,-0.002899999963119626,-0.03869999945163727,-0.03100000082707969,0.010999999647985701,-0.13000000432905762
-0.05779602751135826,0.07148128747940063,9.774107933044434,0.026200000196695328,-0.002899999963119626,-0.03869999945163727,-0.03100000082707969,0.010999999647985701,-0.13000000432905762
-0.04343082010746002,0.0840173289179802,9.789670944213867,0.01640000008046627,-0.002899999963119626,-0.03869999945163727,-0.18799999640924894,0.021000000237532696,0.09800000110848592
-0.06583096832036972,0.07782112807035446,9.763009071350098,0.026499999687075615,0.007199999876320362,-0.048499997705221176,0.015999999942759198,0.11299999699022645,0.10999999647985702
-0.08021533489227295,0.07564719021320343,9.780189514160156,0.007199999876320362,-0.0026000000070780516,-0.02889999933540821,0.05499999823992851,0.05999999686717535,-0.04900000055424296
-0.053754616528749466,0.07042783498764038,9.784173965454102,0.007199999876320362,-0.0026000000070780516,-0.02889999933540821,-0.07900000232288394,0.11099999887334903,0.13499999628619785
-0.06336972862482071,0.07814674079418182,9.783435821533203,0.026899999007582664,0.0071000000461936,-0.02889999933540821,-0.017999999727163266,0.12799999954207358,-0.10199999734224074
-0.060774415731430054,0.07967903465032578,9.786481857299805,0.02719999849796295,0.0071000000461936,-0.02889999933540821,0.3119999997175677,0.2680000011256249,0.0429999995335041
-0.06469132751226425,0.07361691445112228,9.781693458557129,0.027899999171495438,0.006300000008195639,-0.019099999219179153,-0.10400000212922476,0.0749999994190225,-0.11299999699022645
-0.05682877078652382,0.06394433975219727,9.782793998718262,0.03819999843835831,-0.01249999925494194,-0.02889999933540821,-0.06500000216452881,-0.11599999750059588,-0.09099999769425504
-0.049895163625478745,0.07518750429153442,9.764176368713379,0.028099998831748962,0.0071000000461936,-0.03869999945163727,0.023000000021936765,0.14099999730693671,0.024000000747902123
-0.05609135702252388,0.06743986904621124,9.774453163146973,0.03819999843835831,-0.0026000000070780516,-0.03869999945163727,-0.0659999978879142,0.17599999436777122,-0.09500000059811649
-0.057594917714595795,0.07388506084680557,9.783120155334473,0.028699999675154686,-0.0023999998811632395,-0.02889999933540821,0.18400000017549412,0.15200000362502902,0.43600000302588643
-0.05803544819355011,0.06629065424203873,9.77405071258545,0.02929999865591526,-0.01269999984651804,-0.03869999945163727,-0.019999999511567335,0.06700000028140622,0.006000000186975531
-0.06496905535459518,0.07289864867925644,9.780879020690918,0.02929999865591526,-0.0032999999821186066,-0.02889999933540821,0.14900000311465958,0.3190000098019052,0.12199999852133472
-0.06329311430454254,0.07445009797811508,9.786212921142578,0.030299998819828033,-0.0037999998312443495,-0.02879999950528145,-0.009999999755783667,0.1529999993484144,-0.010999999647985701
-0.06276638805866241,0.08324160426855087,9.776694297790527,0.03150000050663948,0.005699999630451202,-0.038599997758865356,0.031999999885518396,0.10400000212922476,0.19600000221697184
-0.06221093609929085,0.06630980968475342,9.782267570495605,0.0414000004529953,-0.004100000020116568,-0.02879999950528145,-0.048000001495804245,-0.017999999727163266,0.03899999996469596
-0.062479086220264435,0.08013872057199478,9.787429809570312,0.031300000846385956,0.00559999980032444,-0.02879999950528145,0.1620000008795227,0.06399999977103679,0.15500000413539844
-0.0624503567814827,0.07604942470788956,9.7850923538208,0.031599998474121094,0.004999999888241291,-0.04839999973773956,0.10299999973573276,0.12700000381868817,0.05200000106461238
-0.0624503567814827,0.07604942470788956,9.7850923538208,0.031599998474121094,0.004999999888241291,-0.04839999973773956,0.10299999973573276,0.12700000381868817,0.05200000106461238
-0.05758533999323845,0.07043741643428802,9.779585838317871,0.03179999813437462,-0.005399999674409628,-0.02879999950528145,0.0019999999928448997,-0.01700000066872456,-0.024999999806340833
-0.06251739710569382,0.08158481866121292,9.777545928955078,0.031599998474121094,0.004299999680370092,-0.038599997758865356,-0.019999999511567335,0.26300000916848465,0.0539999991814898
-0.060372188687324524,0.06443275511264801,9.778303146362305,0.03240000084042549,-0.015199999324977398,-0.02879999950528145,0.014999999216793838,0.10100000161885533,0.09500000059811649
-0.060372188687324524,0.06443275511264801,9.778303146362305,0.03240000084042549,-0.015199999324977398,-0.02879999950528145,0.014999999216793838,0.10100000161885533,0.09500000059811649
-0.057499147951602936,0.06862739473581314,9.770813941955566,0.03269999846816063,-0.005200000014156103,-0.038599997758865356,0.07099999651516105,0.19200000598321698,0.03699999851276524
-0.05774814635515213,0.0715770572423935,9.768802642822266,0.03319999948143959,-0.00559999980032444,-0.038599997758865356,-0.06399999977103679,0.06500000216452881,0.0030000000934877653
-0.05222232639789581,0.07000645250082016,9.787304878234863,0.0429999977350235,-0.005399999674409628,-0.02879999950528145,-0.10100000161885533,0.08100000043976135,0.31699999167470794
-0.0550953708589077,0.07376056909561157,9.763066291809082,0.04349999874830246,-0.005200000014156103,-0.04839999973773956,-0.06700000028140622,0.08700000146050021,-0.021999999295971403
-0.044369347393512726,0.07173985987901688,9.790034294128418,0.053199999034404755,-0.004999999888241291,-0.01899999938905239,-0.10499999785261017,0.10499999785261017,-0.17100000241063099
-0.04401500150561333,0.07584831118583679,9.772432327270508,0.05389999970793724,-0.005399999674409628,-0.038599997758865356,0.05600000063342052,0.18900000547284757,0.043999998591942806
-0.04401500150561333,0.07584831118583679,9.772432327270508,0.05389999970793724,-0.005399999674409628,-0.038599997758865356,0.05600000063342052,0.18900000547284757,0.043999998591942806
-0.05462610721588135,0.07377014309167862,9.782018661499023,0.044499997049570084,-0.005499999970197678,-0.02879999950528145,-0.041000001416626686,0.05900000114378995,0.09999999922536333
-0.06461471319198608,0.08257123082876205,9.78477668762207,0.03460000082850456,0.00419999985024333,-0.02879999950528145,0.1390000058601659,0.015999999942759198,-0.13600000534979648
-0.048851292580366135,0.07398083806037903,9.78184700012207,0.04429999738931656,-0.0058999997563660145,-0.02879999950528145,-0.09399999820462447,0.057000003026912535,0.021000000237532696
-0.05589982122182846,0.06139690801501274,9.776262283325195,0.044199999421834946,-0.015399999916553497,-0.038599997758865356,0.013000000266153095,0.15800000464576788,-0.03400000133744912
-0.06334099918603897,0.07766789942979813,9.762290000915527,0.03480000048875809,0.004100000020116568,-0.04839999973773956,-0.004999999877891834,0.13000000432905762,0.149999998838045
-0.05597643554210663,0.07202716171741486,9.783933639526367,0.04479999840259552,-0.00559999980032444,-0.02879999950528145,0.03899999996469596,-0.024999999806340833,0.07399999702553048
-0.054252609610557556,0.08240842074155807,9.774663925170898,0.044599998742341995,0.003999999724328518,-0.038599997758865356,0.11099999887334903,0.3130000087811663,0.10900000075647161
-0.04616020992398262,0.07479485869407654,9.763861656188965,0.055399999022483826,-0.006099999882280827,-0.04839999973773956,-0.0030000000934877653,-0.07999999804626934,-0.03100000082707969
-0.056598927825689316,0.07727525383234024,9.769837379455566,0.04519999772310257,-0.006000000052154064,-0.038599997758865356,0.05200000106461238,0.33600000380052314,0.14600000260429016
-0.056598927825689316,0.07727525383234024,9.769837379455566,0.04619999974966049,0.003499999875202775,-0.038599997758865356,-0.048000001495804245,0.09200000008774706,0.14300000209392072
-0.05350561812520027,0.06856993585824966,9.767864227294922,0.04649999737739563,-0.006199999712407589,-0.04839999973773956,0.07300000130214508,0.23699998695833197,0.06399999977103679
-0.05350561812520027,0.06856993585824966,9.767864227294922,0.04649999737739563,-0.006199999712407589,-0.04839999973773956,0.07300000130214508,0.23699998695833197,0.06399999977103679
-0.049703627824783325,0.06302496790885925,9.784039497375488,0.0471000000834465,-0.01599999889731407,-0.02879999950528145,0.10600000024610218,0.2150000010025738,0.12599999475508955
-0.05685750022530556,0.0767868310213089,9.781990051269531,0.04779999703168869,0.0031999999191612005,-0.02879999950528145,0.19099999691961836,0.16699999283666295,-0.07199999890865307
-0.05685750022530556,0.0767868310213089,9.781990051269531,0.04779999703168869,0.0031999999191612005,-0.02879999950528145,0.19099999691961836,0.16699999283666295,-0.07199999890865307
-0.07188351452350616,0.06254612654447556,9.775113105773926,0.028999999165534973,-0.01719999872148037,-0.038599997758865356,-0.06099999926066736,0.03599999945432653,0.06800000267489824
-0.04855440929532051,0.07929596304893494,9.772078514099121,0.048499997705221176,0.0023999998811632395,-0.038599997758865356,-0.004999999877891834,0.13499999628619785,-0.03400000133744912
-0.05504748597741127,0.06440402567386627,9.774022102355957,0.0486999973654747,-0.016999999061226845,-0.038599997758865356,0.31699999167470794,0.11299999699022645,0.16699999283666295
-0.05379292368888855,0.07502470165491104,9.778780937194824,0.04899999871850014,-0.008100000210106373,-0.028699999675154686,0.029999998433587676,0.22199999774669807,-0.031999999885518396
-0.06628108024597168,0.06715257465839386,9.776578903198242,0.039799999445676804,-0.008200000040233135,-0.03849999979138374,-0.06700000028140622,-0.046999999102312236,-0.18900000547284757
-0.06377195566892624,0.07553227245807648,9.785466194152832,0.03949999809265137,-0.007999999448657036,-0.028699999675154686,0.09099999769425504,0.2609999910412874,-0.031999999885518396
-0.05182010307908058,0.08077079057693481,9.787046432495117,0.050200000405311584,0.00139999995008111,-0.028699999675154686,0.08700000146050021,0.14399999781730613,-0.02899999937514897
-0.047548845410346985,0.07958326488733292,9.794334411621094,0.05989999696612358,0.0011999999405816197,-0.01889999955892563,-0.20899999998183494,0.17599999436777122,-0.0859999990670082
-0.06262274086475372,0.07725610584020615,9.782448768615723,0.04149999842047691,0.0010999999940395355,-0.028699999675154686,-0.10299999973573276,-0.07399999702553048,-0.012000000373951061
-0.056129664182662964,0.06784210354089737,9.780304908752441,0.05079999938607216,-0.008299999870359898,-0.028699999675154686,-0.08100000043976135,0.16699999283666295,0.0039999999856897995
-0.056129664182662964,0.06784210354089737,9.780304908752441,0.05079999938607216,-0.008299999870359898,-0.028699999675154686,-0.08100000043976135,0.16699999283666295,0.0039999999856897995
-0.05642654374241829,0.07234320044517517,9.789114952087402,0.050999999046325684,-0.007999999448657036,-0.01889999955892563,-0.0009999999964224499,0.07600000181251451,-0.03899999996469596
-0.05379292368888855,0.08396944403648376,9.78024673461914,0.05089999735355377,0.0016999999061226845,-0.028699999675154686,0.01700000066872456,0.08799999718388561,0.09600000299160849
-0.05242343991994858,0.07303272932767868,9.763535499572754,0.05169999971985817,-0.008200000040233135,-0.04829999804496765,0.06399999977103679,-0.0009999999964224499,0.23199999500119176
-0.07354030013084412,0.07659529894590378,9.772891998291016,0.03219999745488167,-0.008299999870359898,-0.03849999979138374,0.06700000028140622,-0.008999999863581633,-0.15500000413539844
-0.07354030013084412,0.07659529894590378,9.772891998291016,0.03219999745488167,-0.008299999870359898,-0.03849999979138374,0.06700000028140622,-0.008999999863581633,-0.15500000413539844
-0.058092910796403885,0.08686164021492004,9.767107009887695,0.04169999808073044,0.010799999348819256,-0.04829999804496765,0.09500000059811649,0.1719999981340164,0.20200000323771067
-0.058092910796403885,0.08686164021492004,9.767107009887695,0.04169999808073044,0.010799999348819256,-0.04829999804496765,0.09500000059811649,0.1719999981340164,0.20200000323771067
-0.04784572497010231,0.07840532064437866,9.7749605178833,0.06269999593496323,0.00019999999494757503,-0.03849999979138374,0.021999999295971403,0.149999998838045,-0.06700000028140622
-0.05096776410937309,0.08523358404636383,9.773331642150879,0.06269999593496323,0.00019999999494757503,-0.03849999979138374,0.021999999295971403,0.149999998838045,-0.06700000028140622
-0.058763287961483,0.07779240608215332,9.780189514160156,0.04319999739527702,0.0004999999655410647,-0.028699999675154686,0.04900000055424296,0.10900000075647161,-0.0659999978879142
-0.060793567448854446,0.06853163242340088,9.776358604431152,0.043299999088048935,-0.00930000003427267,-0.03849999979138374,-0.10199999734224074,0.08899999957737763,-0.14600000260429016
-0.04580586776137352,0.06879977881908417,9.76930046081543,0.06289999932050705,-0.008999999612569809,-0.03849999979138374,-0.05999999686717535,0.12799999954207358,0.1419999930303221
-0.0498855859041214,0.07135678827762604,9.785505294799805,0.053199999034404755,-0.008700000122189522,-0.028699999675154686,0.1079999983629796,0.16699999283666295,0.16800000190026157
-0.04871721565723419,0.07793605327606201,9.776694297790527,0.053599998354911804,0.000699999975040555,-0.03849999979138374,0.16699999283666295,0.15200000362502902,0.0019999999928448997
-0.06211517006158829,0.08428547531366348,9.779021263122559,0.04399999976158142,0.00019999999494757503,-0.028699999675154686,-0.15500000413539844,-0.041000001416626686,-0.12100000279794933
-0.07449797540903091,0.0686178207397461,9.781233787536621,0.033900000154972076,-0.009099999442696571,-0.028699999675154686,0.04600000004387353,0.049999999612681666,-0.03699999851276524
-0.049301404505968094,0.07076302170753479,9.7853422164917,0.05339999869465828,-0.009200000204145908,-0.028699999675154686,-0.06700000028140622,0.23000000355442093,-0.021000000237532696
-0.04672523960471153,0.08748412877321243,9.775372505187988,0.0640999972820282,0.010599999688565731,-0.03849999979138374,0.08400000095013078,0.20099999417411205,-0.014999999216793838
-0.06325481086969376,0.06954676657915115,9.785082817077637,0.04470000043511391,-0.009099999442696571,-0.028699999675154686,0.05499999823992851,0.2899999870813831,0.23099998593759313
-0.0547410286962986,0.06804320961236954,9.78592586517334,0.045499999076128006,0.00039999998989515007,-0.028699999675154686,-0.0019999999928448997,0.05799999875029794,-0.0659999978879142
-0.05647442862391472,0.0682443231344223,9.784431457519531,0.05509999766945839,-0.009200000204145908,-0.028699999675154686,0.10499999785261017,0.1079999983629796,-0.15999999609253868
-0.05647442862391472,0.0682443231344223,9.784431457519531,0.054999999701976776,-0.009099999442696571,-0.028699999675154686,0.10499999785261017,0.1079999983629796,-0.15999999609253868
-0.06585970520973206,0.06893385201692581,9.77175235748291,0.044999998062849045,-0.009099999442696571,-0.03849999979138374,-0.23099998593759313,0.09000000197086964,-0.12400000330831876
-0.055085793137550354,0.060372188687324524,9.78450870513916,0.054999999701976776,-0.01850000023841858,-0.028699999675154686,-0.12599999475508955,-0.07900000232288394,-0.004999999877891834
-0.06145436689257622,0.07471824437379837,9.771340370178223,0.04479999840259552,-0.008299999870359898,-0.03849999979138374,-0.07199999890865307,0.06500000216452881,0.024999999806340833
-0.057355497032403946,0.07692091166973114,9.76253890991211,0.04479999840259552,-0.008299999870359898,-0.03849999979138374,0.04500000098543482,0.04600000004387353,-0.043999998591942806
-0.05596685782074928,0.07032249122858047,9.796038627624512,0.05460000038146973,0.0015999999595806003,-0.04829999804496765,-0.015999999942759198,-0.14399999781730613,-0.043999998591942806
-0.05345773696899414,0.07106947898864746,9.781118392944336,0.053599998354911804,-0.007999999448657036,-0.028699999675154686,-0.0039999999856897995,-0.049999999612681666,0.012000000373951061
-0.05414726585149765,0.07399041205644608,9.778590202331543,0.053199999034404755,-0.007999999448657036,-0.028699999675154686,-0.09899999683187131,0.17700000343136985,0.019999999511567335
-0.06109045073390007,0.07229530811309814,9.77953815460205,0.053199999034404755,-0.007999999448657036,-0.028699999675154686,0.18099999966512467,0.01400000015835513,-0.07099999651516105
-0.06519889831542969,0.08644026517868042,9.772978782653809,0.043800000101327896,-0.007599999662488699,-0.028699999675154686,0.04200000047506539,0.14900000311465958,0.007000000079177565
-0.05857175216078758,0.0814986303448677,9.777957916259766,0.043699998408555984,0.001500000013038516,-0.028699999675154686,-0.09000000197086964,0.05099999867112037,0.03899999996469596
-0.051293376833200455,0.06335058063268661,9.774453163146973,0.05350000038743019,-0.01769999973475933,-0.03849999979138374,0.20899999998183494,0.1800000039417393,0.14300000209392072
-0.053208738565444946,0.06697060912847519,9.780571937561035,0.05389999970793724,-0.018199998885393143,-0.028699999675154686,0.05900000114378995,0.1620000008795227,0.13300000483942703
-0.06190447881817818,0.06391561031341553,9.770095825195312,0.04439999908208847,-0.018299998715519905,-0.03849999979138374,-0.06899999839828364,0.06700000028140622,-0.11200000126684104
-0.06189490109682083,0.07304230332374573,9.774357795715332,0.04439999908208847,-0.008200000040233135,-0.03849999979138374,0.06099999926066736,0.13600000534979648,0.10400000212922476
-0.058715399354696274,0.08029194921255112,9.774616241455078,0.044499997049570084,0.00139999995008111,-0.03849999979138374,0.07300000130214508,0.24200000559589865,0.08299999855663877
-0.06333142518997192,0.06392518430948257,9.773112297058105,0.04529999941587448,-0.018400000408291817,-0.03849999979138374,0.057000003026912535,0.10299999973573276,-0.10600000024610218
-0.05775772035121918,0.07648995518684387,9.768524169921875,0.04529999941587448,-0.008700000122189522,-0.03849999979138374,0.11599999750059588,0.19200000598321698,0.05600000063342052
-0.06266104429960251,0.06838797777891159,9.789948463439941,0.045899998396635056,-0.008999999612569809,-0.01889999955892563,0.18799999640924894,-0.02600000053230619,0.019999999511567335
-0.06414545327425003,0.0821019634604454,9.778618812561035,0.04559999704360962,0,-0.028699999675154686,0.08299999855663877,0.0030000000934877653,0.0329999989439571
-0.04485776275396347,0.07293695956468582,9.778369903564453,0.06480000168085098,-0.009800000116229057,-0.028699999675154686,0.06200000165415938,0.15900000036915327,0.06200000165415938
-0.056742578744888306,0.06928820163011551,9.769683837890625,0.055299997329711914,-0.009999999776482582,-0.03849999979138374,-0.09800000110848592,0.18700000068586353,-0.023000000021936765
-0.0682443231344223,0.08671798557043076,9.781578063964844,0.03590000048279762,0.00969999935477972,-0.028699999675154686,0.09300000248123906,0.1749999986443858,0.2039999946844815
-0.054444145411252975,0.07457458972930908,9.77397346496582,0.0559999980032444,-0.010099999606609344,-0.03849999979138374,-0.09300000248123906,0.01400000015835513,0.1529999993484144
-0.050364427268505096,0.07640375941991806,9.767251014709473,0.05590000003576279,-0.00969999935477972,-0.04829999804496765,0.01400000015835513,0.12299999424472013,0.12599999475508955
-0.050795383751392365,0.07490978389978409,9.77055549621582,0.05590000003576279,-0.00969999935477972,-0.03849999979138374,-0.057000003026912535,0.1529999993484144,-0.08700000146050021
-0.0623258575797081,0.06441360712051392,9.766264915466309,0.04639999940991402,-0.019299998879432678,-0.04829999804496765,0.13700000107318186,0.012000000373951061,-0.035000000395887826
-0.06086060777306557,0.0818721204996109,9.780284881591797,0.04609999805688858,0,-0.028699999675154686,-0.05600000063342052,-0.02600000053230619,0.19900000272734125
-0.055459290742874146,0.07004476338624954,9.766322135925293,0.05609999969601631,-0.00989999994635582,-0.04829999804496765,0.0030000000934877653,0.1729999938574018,0.04500000098543482
-0.055459290742874146,0.07004476338624954,9.766322135925293,0.05609999969601631,-0.00989999994635582,-0.04829999804496765,0.0030000000934877653,0.1729999938574018,0.04500000098543482
-0.04704127460718155,0.07859685271978378,9.771590232849121,0.06610000133514404,-0.00009999999747378752,-0.03849999979138374,0.05099999867112037,0.2140000052791884,0.128999995265459
-0.06145436689257622,0.0780797079205513,9.792926788330078,0.04699999839067459,-0.00019999999494757503,-0.018799999728798866,-0.010999999647985701,0.16999999334703236,0.15399999507179982
-0.047855306416749954,0.0733296126127243,9.776750564575195,0.06679999828338623,-0.010099999606609344,-0.03849999979138374,0.0329999989439571,-0.15900000036915327,-0.0030000000934877653
-0.047855306416749954,0.0733296126127243,9.776750564575195,0.06679999828338623,-0.010099999606609344,-0.03849999979138374,0.0329999989439571,-0.15900000036915327,-0.0030000000934877653
-0.059989117085933685,0.06889554858207703,9.77721118927002,0.04690000042319298,-0.010400000028312206,-0.03849999979138374,-0.012000000373951061,0.006000000186975531,-0.004999999877891834
-0.052174441516399384,0.07071514427661896,9.771110534667969,0.04690000042319298,-0.010400000028312206,-0.03849999979138374,0.09600000299160849,0.10999999647985702,-0.07799999992939192
-0.06431782990694046,0.0733487606048584,9.774616241455078,0.046699997037649155,-0.010499999858438969,-0.03849999979138374,-0.015999999942759198,0.2609999910412874,0.06299999737754478
-0.0547410286962986,0.07484274357557297,9.772259712219238,0.05719999969005585,-0.010400000028312206,-0.03849999979138374,0.035000000395887826,-0.021000000237532696,-0.014999999216793838
-0.0547410286962986,0.07484274357557297,9.772259712219238,0.05719999969005585,-0.010400000028312206,-0.03849999979138374,0.035000000395887826,-0.021000000237532696,-0.014999999216793838
-0.05896440148353577,0.075474813580513,9.773130416870117,0.046799998730421066,-0.010599999688565731,-0.03849999979138374,-0.02800000031671026,0.10299999973573276,0.03699999851276524
-0.06383899599313736,0.06787082552909851,9.773275375366211,0.04690000042319298,-0.010499999858438969,-0.03849999979138374,-0.06500000216452881,0.12400000330831876,-0.04500000098543482
-0.05182010307908058,0.07819462567567825,9.775065422058105,0.05700000002980232,-0.0009999999310821295,-0.03849999979138374,-0.2499999980634083,-0.004999999877891834,0.024000000747902123
-0.054798487573862076,0.07504386454820633,9.787631034851074,0.05700000002980232,-0.0009999999310821295,-0.03849999979138374,-0.15500000413539844,0.11099999887334903,0.07199999890865307
-0.054798487573862076,0.07504386454820633,9.787631034851074,0.05700000002980232,-0.00989999994635582,-0.018799999728798866,-0.15500000413539844,0.11099999887334903,0.07199999890865307
-0.060487110167741776,0.08179550617933273,9.778149604797363,0.047199998050928116,0.00009999999747378752,-0.028699999675154686,-0.03699999851276524,0.11599999750059588,0.012000000373951061
-0.05625416338443756,0.06902004778385162,9.785543441772461,0.05700000002980232,-0.009499999694526196,-0.028699999675154686,0.11299999699022645,0.0749999994190225,-0.07099999651516105
-0.06755479425191879,0.07023629546165466,9.783034324645996,0.037699997425079346,-0.009599999524652958,-0.028699999675154686,0.009999999755783667,0.19000000119623298,0.19000000119623298
-0.05317043140530586,0.0694318488240242,9.771052360534668,0.057999998331069946,-0.00969999935477972,-0.03849999979138374,0.07099999651516105,0.057000003026912535,0.19000000119623298
-0.05317043140530586,0.0694318488240242,9.771052360534668,0.057999998331069946,-0.00969999935477972,-0.03849999979138374,0.07099999651516105,0.057000003026912535,0.19000000119623298
-0.048994943499565125,0.07571423053741455,9.774041175842285,0.05779999867081642,-0.009800000116229057,-0.03849999979138374,0.004999999877891834,0.11200000126684104,-0.05999999686717535
-0.061387334018945694,0.07364564388990402,9.782622337341309,0.04749999940395355,-0.009499999694526196,-0.028699999675154686,0.07900000232288394,0.19099999691961836,0.024999999806340833
-0.051666874438524246,0.07382760941982269,9.774941444396973,0.05769999697804451,-0.009800000116229057,-0.03849999979138374,0.12799999954207358,0.14499999354069154,0.15399999507179982
-0.05658935010433197,0.07661445438861847,9.78002643585205,0.05810000002384186,-0.00029999998514540493,-0.028599999845027924,0.1529999993484144,0.13400000056281244,0.03599999945432653
-0.0530746653676033,0.07296568900346756,9.78219985961914,0.05810000002384186,-0.010499999858438969,-0.028599999845027924,0.05499999823992851,0.08100000043976135,0.2680000011256249
-0.05952943116426468,0.0787883922457695,9.778082847595215,0.048499997705221176,-0.0007999999797903001,-0.028599999845027924,0.2159999967259592,0.0539999991814898,0.2609999910412874
-0.06106172129511833,0.07743805646896362,9.78108024597168,0.04859999939799309,-0.00139999995008111,-0.028599999845027924,-0.0659999978879142,-0.07900000232288394,-0.08799999718388561
-0.05535394325852394,0.07208462804555893,9.770219802856445,0.05790000036358833,-0.010900000110268593,-0.03839999809861183,0.2140000052791884,0.07799999992939192,-0.031999999885518396
-0.05247132480144501,0.07204631716012955,9.771685600280762,0.05810000002384186,-0.011500000022351742,-0.03839999809861183,-0.05200000106461238,0.041000001416626686,0.09399999820462447
-0.046955082565546036,0.08037813752889633,9.774395942687988,0.06769999861717224,-0.001500000013038516,-0.03839999809861183,-0.08499999667351618,0.20599999947146552,0.1079999983629796
-0.05813121795654297,0.07622180134057999,9.789689064025879,0.04859999939799309,-0.011099999770522118,-0.018799999728798866,0.0269999995907449,0.014999999216793838,0.17700000343136985
-0.05725972726941109,0.06298665702342987,9.775439262390137,0.05819999799132347,-0.020899999886751175,-0.03839999809861183,0.1189999980109653,0.07000000079177565,0.02899999937514897
-0.057384226471185684,0.08049306273460388,9.773476600646973,0.05819999799132347,-0.0016999999061226845,-0.03839999809861183,0.01400000015835513,0.010999999647985701,0.07799999992939192
-0.05746084079146385,0.0777445137500763,9.774423599243164,0.04820000007748604,-0.0016999999061226845,-0.03839999809861183,0.24599998848944027,0.11699999322398127,-0.0039999999856897995
