Accelerometer_Gx,Accelerometer_Gy,Accelerometer_Gz,Accelerometer_X,Accelerometer_Y,Accelerometer_Z,Gyroscope_Z,Gyroscope_X,Gyroscope_Y
-0.0584089420735836,0.06770802289247513,9.74526309967041,0.0010999999940395355,-0.003399999812245369,-0.03889999911189079,0.1189999980109653,0.024000000747902123,-0.10199999734224074
-0.04739561676979065,0.0617225207388401,9.765134811401367,0.0010999999940395355,-0.003399999812245369,-0.03889999911189079,-0.07000000079177565,-0.05499999823992851,-0.12599999475508955
-0.04929182305932045,0.07325299829244614,9.781462669372559,0.00009999999747378752,-0.00009999999747378752,-0.029099998995661736,-0.49199997697888054,1.193000007300449,0.19699999794035722
-0.04929182305932045,0.07325299829244614,9.781462669372559,0.00009999999747378752,-0.00009999999747378752,-0.029099998995661736,-0.49199997697888054,1.193000007300449,0.19699999794035722
-0.06546705216169357,0.058332327753305435,9.748661994934082,-0.010999999940395355,-0.0044999998062849045,-0.06839999556541443,-0.1830000044521087,0.4649999723855557,-0.07000000079177565
-0.05705861747264862,0.058475982397794724,9.757501602172852,0,-0.003399999812245369,-0.05859999731183052,-1.6499999605380684,-1.3839999508592145,-0.06399999977103679
-0.05720226839184761,0.05945281684398651,9.763927459716797,0,-0.003399999812245369,-0.05859999731183052,0.7429999841058874,1.1260000136891493,0.5189999815722054
-0.05316085368394852,0.07495766133069992,9.759896278381348,-0.0044999998062849045,0.0026000000070780516,-0.04879999905824661,-1.680999948024935,-0.8459999838416202,-0.21700000578955783
-0.05650315806269646,0.06820601969957352,9.756898880004883,-0.002699999837204814,0.013100000098347664,-0.05859999731183052,-1.411000008813392,-1.0040000285080277,-0.15900000036915327
-0.06455725431442261,0.0764133408665657,9.76025104522705,-0.012799999676644802,0.016300000250339508,-0.04879999905824661,4.070000016497055,3.796999916692584,0.7170000152565876
-0.07377971708774567,0.05942408740520477,9.763592720031738,-0.008899999782443047,-0.003399999812245369,-0.0486999973654747,5.082999886453632,4.57000017270643,0.08700000146050021
-0.05808333307504654,0.06318777054548264,9.771158218383789,-0.008899999782443047,-0.003399999812245369,-0.0486999973654747,5.082999886453632,4.57000017270643,0.08700000146050021
-0.05204036831855774,0.0680144801735878,9.759215354919434,0.02449999935925007,-0.003999999724328518,-0.04859999939799309,-1.2749999501027427,0.5360000022512498,0.733000000191607
-0.05975927412509918,0.05926128104329109,9.755997657775879,0.010900000110268593,-0.006000000052154064,-0.05849999934434891,-0.28199999461387343,0.05600000063342052,-0.559000023951033
-0.05975927412509918,0.05926128104329109,9.755997657775879,0.010900000110268593,-0.006000000052154064,-0.05849999934434891,-0.28199999461387343,0.05600000063342052,-0.559000023951033
-0.052614975720644,0.06729622185230255,9.747982025146484,0.018699999898672104,0.0052999998442828655,-0.06830000132322311,-0.6390000019869825,0.5750000088860524,0.38400001196643396
-0.048640601336956024,0.05775772035121918,9.770113945007324,0.01589999906718731,-0.001500000013038516,-0.03889999911189079,-1.3670000369018758,2.2579999216773317,0.4019999883482241
-0.048640601336956024,0.05775772035121918,9.770113945007324,0.01589999906718731,-0.001500000013038516,-0.03889999911189079,-1.3670000369018758,2.2579999216773317,0.4019999883482241
-0.059989117085933685,0.06758352369070053,9.768362045288086,0.011500000022351742,0.012399999424815178,-0.03889999911189079,-0.006000000186975531,-0.8680000231582313,-0.149999998838045
-0.06571605056524277,0.07542693614959717,9.758048057556152,0.011099999770522118,0.007799999788403511,-0.05849999934434891,-1.834999903076095,-1.2359999968287931,-0.18099999966512467
-0.06571605056524277,0.07542693614959717,9.758048057556152,0.011099999770522118,0.007799999788403511,-0.05849999934434891,-1.834999903076095,-1.2359999968287931,-0.18099999966512467
-0.05855259671807289,0.060812726616859436,9.75507926940918,0.006000000052154064,0.003999999724328518,-0.05849999934434891,1.980999892340172,0.6249999818183075,-0.14900000311465958
-0.0651605874300003,0.06770802289247513,9.759819030761719,0.00930000003427267,0.00699999975040555,-0.0486999973654747,-1.0480000004195442,0.7279999815540403,0.3860000034132048
-0.0651605874300003,0.06770802289247513,9.759819030761719,0.00930000003427267,0.00699999975040555,-0.0486999973654747,-1.0480000004195442,0.7279999815540403,0.3860000034132048
-0.05917508900165558,0.07402871549129486,9.763909339904785,0.010300000198185444,0.009099999442696571,-0.0486999973654747,-0.2589999995945166,0.38699998579637696,-0.564999971610919
-0.06865613162517548,0.06263231486082077,9.755941390991211,0,-0.00029999998514540493,-0.05849999934434891,1.4179999922173032,-0.28499999512424284,0.15999999609253868
-0.06865613162517548,0.06263231486082077,9.755941390991211,0,-0.00029999998514540493,-0.05849999934434891,1.4179999922173032,-0.28499999512424284,0.15999999609253868
-0.05255751311779022,0.05696284770965576,9.761582374572754,0.008700000122189522,-0.004100000020116568,-0.03889999911189079,-2.9219999634912948,0.15800000464576788,0.3119999997175677
-0.06259401142597198,0.06629065424203873,9.74869155883789,0.007599999662488699,0.004299999680370092,-0.06830000132322311,2.822000017626784,1.0220000315702444,0.13600000534979648
-0.06039134040474892,0.06110960245132446,9.757655143737793,0.007599999662488699,0.004299999680370092,-0.06830000132322311,2.822000017626784,1.0220000315702444,0.13600000534979648
-0.06039134040474892,0.06110960245132446,9.757655143737793,0.009999999776482582,-0.003399999812245369,-0.05849999934434891,1.612999972030463,0.5089999976579249,0.21899999723632863
-0.06313031166791916,0.06192363426089287,9.762337684631348,0.010199999436736107,-0.00969999935477972,-0.04859999939799309,-0.07199999890865307,-0.9659999508955445,-0.5209999996994026
-0.06354211270809174,0.06325481086969376,9.746220588684082,0.007999999448657036,-0.006399999838322401,-0.06830000132322311,-3.0720000957314717,-0.5029999966371861,0.18799999640924894
-0.05160941183567047,0.0623258575797081,9.771427154541016,0.01599999889731407,0.001999999862164259,-0.03889999911189079,0.88700000860362,0.13700000107318186,0.09099999769425504
-0.06365703791379929,0.06900089234113693,9.754294395446777,0.005200000014156103,0.007599999662488699,-0.05849999934434891,-3.2300000870370265,-2.072999979139305,-0.3469999967784022
-0.04997177794575691,0.053285352885723114,9.754140853881836,0.005200000014156103,0.007599999662488699,-0.05849999934434891,0.0749999994190225,0.30400000725005805,-0.28199999461387343
-0.04997177794575691,0.053285352885723114,9.754140853881836,0.00839999970048666,-0.0017999999690800905,-0.05859999731183052,0.0749999994190225,0.30400000725005805,-0.28199999461387343
-0.06296750903129578,0.07060021907091141,9.754150390625,-0.0007999999797903001,0.017500000074505806,-0.05859999731183052,-1.983000070549928,-0.8390000004377092,-0.7110000142358488
-0.0565127357840538,0.0647009015083313,9.759628295898438,0.006399999838322401,0.022699998691678047,-0.04879999905824661,2.4300000932341197,0.3339999856733259,0.27899999410350396
-0.06558196991682053,0.06500735878944397,9.767959594726562,-0.00019999999494757503,0.001999999862164259,-0.0486999973654747,2.496999980123714,1.472999983787125,0.2609999910412874
-0.058284446597099304,0.06785167753696442,9.761112213134766,0.004900000058114529,0.0037999998312443495,-0.0486999973654747,3.5919998996042906,-1.1039999743725382,-0.1830000044521087
-0.05303635820746422,0.0502399280667305,9.77512264251709,0.011399999260902405,-0.025499999523162842,-0.03879999741911888,0.6919999754296072,-0.06800000267489824,0.33600000380052314
-0.05791094899177551,0.07146213203668594,9.765852928161621,0.0011999999405816197,-0.008100000210106373,-0.04859999939799309,-0.0859999990670082,-0.7849999912510595,-0.747000020360282
-0.04879382997751236,0.07286034524440765,9.752915382385254,0.008999999612569809,-0.007699999958276749,-0.058399997651576996,2.5099999645483635,-0.3860000034132048,-0.39699999639108385
-0.053610965609550476,0.062124744057655334,9.751544952392578,0.007699999958276749,-0.02410000003874302,-0.058399997651576996,-1.0960000085854549,-0.12299999424472013,-0.2140000052791884
-0.060487110167741776,0.06681738048791885,9.760336875915527,-0.0024999999441206455,-0.020399998873472214,-0.04859999939799309,1.6549999791756351,0.004999999877891834,-0.10299999973573276
-0.05073792114853859,0.07033207267522812,9.761754035949707,0.0071000000461936,-0.013700000010430813,-0.04859999939799309,3.5740000032637798,0.41199999894293104,0.05900000114378995
-0.046457089483737946,0.06504566967487335,9.744601249694824,0.01809999905526638,-0.03529999777674675,-0.06809999793767929,-5.298999923200231,-1.680999948024935,0.023000000021936765
-0.05751830339431763,0.0644519105553627,9.766111373901367,-0.004900000058114529,-0.023899998515844345,-0.04859999939799309,-3.043999948672416,0.5579999882070079,0.40400000647542134
-0.05407065153121948,0.0731189176440239,9.76481819152832,0.006300000008195639,-0.004399999976158142,-0.0486999973654747,1.9250000251088837,0.1749999986443858,-0.8069999772068176
-0.05202121287584305,0.06049668788909912,9.770095825195312,0.007899999618530273,-0.025999998673796654,-0.03879999741911888,2.316999949501548,-0.6919999754296072,-0.6230000170519632
-0.058207832276821136,0.07194097340106964,9.756017684936523,-0.00419999985024333,-0.02369999885559082,-0.05829999968409538,2.9280000712337393,2.037999955398044,1.0290000149741554
-0.06770802289247513,0.061837442219257355,9.761839866638184,-0.009800000116229057,-0.039000000804662704,-0.048499997705221176,-0.1849999958988795,-0.057000003026912535,-0.24200000559589865
-0.06837840378284454,0.06631939113140106,9.752205848693848,-0.00989999994635582,-0.03779999911785126,-0.05829999968409538,2.520000001823497,-0.20899999998183494,-0.37200000992495624
-0.062431201338768005,0.05606262758374214,9.757157325744629,-0.0004999999655410647,-0.05289999768137932,-0.05819999799132347,-1.083000024160805,0.3879999948599756,-0.009999999755783667
-0.07060979306697845,0.06176082789897919,9.769262313842773,-0.009200000204145908,-0.03949999809265137,-0.03869999945163727,-2.428999897407536,-1.459999999362475,-0.8930000096243589
-0.052739474922418594,0.06311115622520447,9.761035919189453,0.005399999674409628,-0.030499998480081558,-0.04859999939799309,0.07900000232288394,0.4519999879609058,0.12499999903170415
-0.055765748023986816,0.06663542240858078,9.76401424407959,0.006300000008195639,-0.029999999329447746,-0.04859999939799309,-2.8649999004334226,-1.0580000376946774,-0.03599999945432653
-0.05682877078652382,0.07741890847682953,9.772662162780762,0.003000000026077032,-0.0010999999940395355,-0.03879999741911888,2.324000039627165,2.068000067223444,0.7249999810436709
-0.059730544686317444,0.05837063491344452,9.757856369018555,-0.0016999999061226845,-0.02579999901354313,-0.058399997651576996,-1.3980000243887423,1.0619999672273661,0.11699999322398127
-0.05406107380986214,0.0681389793753624,9.771474838256836,0.010799999348819256,-0.011799999512732029,-0.03879999741911888,-2.506000035015675,-0.3059999986968288,0.07900000232288394
-0.058801595121622086,0.06322608143091202,9.772289276123047,0,-0.01269999984651804,-0.03889999911189079,0.44099999498302667,0.23199999500119176,-0.3220000103122746
-0.0625748559832573,0.05945281684398651,9.753499031066895,0.00039999998989515007,-0.013199999928474426,-0.05849999934434891,1.320000011119137,-0.6219999813079381,0.3600000078834786
-0.05813121795654297,0.06556282192468643,9.764780044555664,0.0017999999690800905,-0.017099998891353607,-0.04859999939799309,2.1229999520715603,0.09800000110848592,-0.0429999995335041
-0.065055251121521,0.06643430888652802,9.75904369354248,0.002099999925121665,-0.022599998861551285,-0.04859999939799309,5.461000057481886,2.3049999474600704,0.566000007354944
-0.0573459193110466,0.05225105583667755,9.765814781188965,0.019600000232458115,-0.05069999769330025,-0.04839999973773956,-2.467000081741725,-0.49199997697888054,0.10400000212922476
-0.04937801882624626,0.07284119725227356,9.770708084106445,0.01850000023841858,-0.03529999777674675,-0.04839999973773956,-1.912000040684234,-1.3349999603101312,0.021999999295971403
-0.06592673808336258,0.06947973370552063,9.769712448120117,0.015399999916553497,-0.03359999880194664,-0.038599997758865356,0.49099999459570837,0.7810000083575178,-0.17400000292100043
-0.05553590506315231,0.0700351893901825,9.756917953491211,0.014099999330937862,-0.029500000178813934,-0.05819999799132347,-0.5699999902484857,0.4199999914104407,-0.4300000020051476
-0.05553590506315231,0.0700351893901825,9.756917953491211,0.014099999330937862,-0.029500000178813934,-0.05819999799132347,-0.5699999902484857,0.4199999914104407,-0.4300000020051476
-0.0606594942510128,0.062335435301065445,9.767940521240234,0.025200000032782555,-0.02709999866783619,-0.048499997705221176,-0.3660000089042174,0.0429999995335041,-0.3369999861836953
-0.05981673300266266,0.07071514427661896,9.766427993774414,0.0064999996684491634,-0.03920000046491623,-0.04839999973773956,-0.6829999738984989,0.8759999889453145,0.6660000065803073
-0.06714299321174622,0.06617573648691177,9.755414009094238,-0.0011999999405816197,-0.035499997437000275,-0.05829999968409538,-3.4250000668501865,1.9100000759178895,0.5609999887173774
-0.06224924325942993,0.06772717833518982,9.752933502197266,0.013599999248981476,-0.01599999889731407,-0.05829999968409538,-2.0430000807573165,2.1689999954711268,1.3269999945230482
-0.05405149981379509,0.06819643825292587,9.766742706298828,0.030499998480081558,-0.008700000122189522,-0.048499997705221176,-2.826999929542645,2.5040000702493304,1.2410000154663596
-0.03985866904258728,0.0698915347456932,9.753824234008789,0.04519999772310257,-0.0026000000070780516,-0.05829999968409538,1.1990000083211878,-0.9539999488540668,-0.4799999749374028
-0.06520847976207733,0.06312073767185211,9.763822555541992,0.022299999371170998,-0.01589999906718731,-0.048499997705221176,0.5909999938210717,0.6129999797768299,0.12499999903170415
-0.06546705216169357,0.05992208048701286,9.75556755065918,0.023499999195337296,-0.017099998891353607,-0.05829999968409538,0.369999991797759,2.735000056186924,0.8780000070725118
-0.0657639279961586,0.06815813481807709,9.763660430908203,0.03059999831020832,-0.008100000210106373,-0.04839999973773956,3.00200004824895,-2.822000017626784,-0.6570000050491991
-0.06145436689257622,0.06788040697574615,9.768284797668457,0.03059999831020832,-0.008100000210106373,-0.04839999973773956,-3.1860000084038043,-3.678999861044151,-0.8739999708181173
-0.05352477356791496,0.06652049720287323,9.763459205627441,0.022599998861551285,-0.021199999377131462,-0.048499997705221176,1.9370000271503613,1.7949999674189732,0.3319999942265551
-0.05631162226200104,0.06449022144079208,9.752885818481445,0.027799999341368675,-0.026899999007582664,-0.05829999968409538,1.6040000238602077,2.61200008862263,0.24800000661663751
-0.062000248581171036,0.07050444930791855,9.74520492553711,0.024000000208616257,-0.02070000022649765,-0.06799999624490738,3.610000009388213,1.6719999998546795,0.007999999971379599
-0.05780560523271561,0.06194278597831726,9.748480796813965,0.028299998492002487,-0.04010000079870224,-0.06790000200271606,-1.7300000452957238,-0.15599999985878385,0.5320000193577081
-0.05156152695417404,0.0682443231344223,9.76908016204834,0.03720000013709068,-0.02410000003874302,-0.03849999979138374,4.607999930153796,-1.0979999733517993,-0.6059999963729188
-0.0579492561519146,0.06924989074468613,9.752799987792969,0.024799998849630356,-0.03319999948143959,-0.05810000002384186,0.8059999948236455,0.3690000094145868,0.29399999665535115
-0.06783252209424973,0.07379887253046036,9.764081001281738,0.015799999237060547,-0.03539999946951866,-0.04820000007748604,1.6290000103263353,-1.5970000404562967,-0.7480000027434541
-0.05661807954311371,0.06096595525741577,9.757463455200195,0.031300000846385956,-0.0486999973654747,-0.057999998331069946,-2.746000075845229,-1.4059999901758253,-0.4310000110687462
-0.06469132751226425,0.059366628527641296,9.750511169433594,0.017400000244379044,-0.040699999779462814,-0.05819999799132347,-0.9289999623879391,-1.0849999889271496,-0.5609999887173774
-0.05492299050092697,0.06626192480325699,9.75997257232666,0.02319999970495701,-0.03709999844431877,-0.04839999973773956,3.037000071990211,1.3260000121398758,0.6429999848805241
-0.0603051520884037,0.06856035441160202,9.771427154541016,0.01589999906718731,-0.03309999778866768,-0.03849999979138374,0.2050000037480801,0.2399999874687014,-0.05099999867112037
-0.05240428447723389,0.05435795709490776,9.767529487609863,0.026200000196695328,-0.05289999768137932,-0.04829999804496765,-1.829000008777062,-1.583999949309941,-0.7939999927821677
-0.0598263144493103,0.06336015462875366,9.754792213439941,0.015799999237060547,-0.042799998074769974,-0.05810000002384186,2.1719999426206433,0.34899998822517303,-0.36199999933024934
-0.06506482511758804,0.0664534643292427,9.766992568969727,0.01679999940097332,-0.049799997359514236,-0.04829999804496765,0.2570000081477458,0.6239999994351354,-0.038000000906257256
-0.06506482511758804,0.0664534643292427,9.766992568969727,0.01679999940097332,-0.049799997359514236,-0.04829999804496765,0.2570000081477458,0.6239999994351354,-0.038000000906257256
-0.06155971437692642,0.07236234843730927,9.763851165771484,0.01809999905526638,-0.04019999876618385,-0.04829999804496765,-0.15599999985878385,0.9870000078289833,0.5960000124586383
-0.0622013583779335,0.06373365223407745,9.749850273132324,0.01979999989271164,-0.04470000043511391,-0.05810000002384186,-1.8030000399277621,-0.4190000090272685,-0.6540000045388297
-0.062239665538072586,0.05903143808245659,9.748950004577637,0.01850000023841858,-0.03929999843239784,-0.06799999624490738,3.475000039782442,0.8930000096243589,0.4199999914104407
-0.06719087809324265,0.06765056401491165,9.753718376159668,0.011599999852478504,-0.04099999740719795,-0.057999998331069946,1.55099999705673,0.19900000272734125,-0.01700000066872456
-0.06177040562033653,0.06838797777891159,9.755069732666016,0.011599999852478504,-0.04099999740719795,-0.057999998331069946,1.55099999705673,0.19900000272734125,-0.01700000066872456
-0.056694693863391876,0.07627926766872406,9.759552001953125,0.034299999475479126,-0.05460000038146973,-0.04809999838471413,2.4700000288912416,0.3259999932058162,0.02899999937514897
-0.06309200078248978,0.06668330729007721,9.76308536529541,0.028699999675154686,-0.07959999889135361,-0.04779999703168869,-0.7889999741446011,0.9229999613672003,-0.20899999998183494
-0.0676601380109787,0.06416460126638412,9.764359474182129,0.021800000220537186,-0.08609999716281891,-0.04779999703168869,1.213999957512182,-0.20899999998183494,-0.5560000234406636
-0.05347689241170883,0.07425855845212936,9.750147819519043,0.0421999990940094,-0.07119999825954437,-0.0575999990105629,2.226000058528999,1.18700000627971,0.969999987149939
-0.0637432262301445,0.05780560523271561,9.764320373535156,0.0348999984562397,-0.08559999614953995,-0.04769999906420708,-2.5869998887130907,-1.5159999733154692,-0.4669999905127529
-0.06498821079730988,0.05391742289066315,9.765345573425293,0.030499998480081558,-0.08760000020265579,-0.04779999703168869,-3.149000019896199,-0.15999999609253868,-0.3019999891228608
-0.06582139432430267,0.07257304340600967,9.752885818481445,0.023399999365210533,-0.05639999732375145,-0.05779999867081642,-3.3469999468588756,-1.291999970781787,-0.26900001018922354
-0.0664534643292427,0.06889554858207703,9.764158248901367,0.019199999049305916,-0.045499999076128006,-0.04820000007748604,-1.1440000167513658,-1.0549999838234552,-0.901000028772295
-0.05158068239688873,0.06290046870708466,9.75507926940918,0.026200000196695328,-0.05199999734759331,-0.057999998331069946,5.078999956920944,-0.12100000279794933,-0.22400000253368207
-0.05088157206773758,0.07340622693300247,9.759733200073242,0.025699999183416367,-0.05559999868273735,-0.04809999838471413,0.7249999810436709,0.2680000011256249,0.37100000086135765
-0.053735461086034775,0.08040686696767807,9.761495590209961,0.02630000002682209,-0.04779999703168869,-0.04809999838471413,-1.9010000210259284,0.6990000121943711,0.2929999875917525
-0.06226839870214462,0.061808712780475616,9.749582290649414,0.017799999564886093,-0.06300000101327896,-0.05790000036358833,2.067000084840272,2.8940000298756505,1.4650000180000418
-0.06975746154785156,0.062191784381866455,9.761839866638184,0.016599999740719795,-0.07519999891519547,-0.0478999987244606,7.304000246510181,0.7429999841058874,0.33300000329015367
-0.055631671100854874,0.0726400837302208,9.773600578308105,0.03799999877810478,-0.08479999750852585,-0.03779999911785126,0.8059999948236455,0.4560000242153003,0.29699999716572056
-0.058284446597099304,0.06844543665647507,9.767193794250488,0.03799999877810478,-0.08479999750852585,-0.03779999911785126,-7.020999895987166,-1.0660000034817607,0.4549999884712752
-0.06676950305700302,0.06865613162517548,9.7449951171875,0.02709999866783619,-0.07199999690055847,-0.0674000009894371,0.956000020342117,0.11299999699022645,-0.023000000021936765
-0.05582320690155029,0.06502652168273926,9.749811172485352,0.03700000047683716,-0.08410000056028366,-0.0575999990105629,-5.494999885396563,-1.1000000448398495,-0.9620000213628558
-0.057432111352682114,0.06130113825201988,9.762682914733887,0.0340999998152256,-0.07029999792575836,-0.04800000041723251,-1.102000009606194,0.06800000267489824,0.28799999563461226
-0.06692273169755936,0.06388688087463379,9.748117446899414,0.02419999986886978,-0.06669999659061432,-0.06759999692440033,-3.293000044393932,-0.6039999782457216,-0.2770000026567332
-0.06066907197237015,0.06727706640958786,9.757033348083496,0.012199999764561653,-0.044999998062849045,-0.04820000007748604,3.016000015056772,1.2230000124041431,0.7390000012123459
-0.06066907197237015,0.06727706640958786,9.757033348083496,0.024299999698996544,-0.05079999938607216,-0.05790000036358833,0.5709999726316578,0.30799999014359963,0.10499999785261017
-0.07058106362819672,0.062239665538072586,9.764789581298828,0.015199999324977398,-0.061799999326467514,-0.04809999838471413,4.555999992455197,2.2500000626119543,-0.5849999928003328
-0.060918066650629044,0.0665779560804367,9.767653465270996,0.03019999898970127,-0.0722000002861023,-0.0478999987244606,-1.8569999423927062,0.59999999535218,-0.0659999978879142
-0.05312254652380943,0.05891651660203934,9.752349853515625,0.04149999842047691,-0.06659999489784241,-0.05779999867081642,-3.317000048476887,-1.0350000159948942,0.024000000747902123
-0.05268201604485512,0.06582139432430267,9.770392417907715,0.037699997425079346,-0.05480000004172325,-0.03830000013113022,2.1109999500300827,-0.1509999945614304,-0.6859999744088683
-0.050057969987392426,0.068723164498806,9.769492149353027,0.03709999844431877,-0.04989999905228615,-0.03830000013113022,-2.856000058984873,0.1610000051561373,0.9180000494513394
-0.05144660547375679,0.057575762271881104,9.76530647277832,0.03720000013709068,-0.051899999380111694,-0.04820000007748604,4.404000108892086,3.364000074259626,2.0359999906316997
-0.07541734725236893,0.06490202248096466,9.759599685668945,0.025299999862909317,-0.06209999695420265,-0.04800000041723251,4.092000055813666,1.1060000458605883,0.43400001157911566
-0.0586579404771328,0.06106172129511833,9.752004623413086,0.03790000081062317,-0.07279999554157257,-0.0575999990105629,-2.6640000263212293,-0.03699999851276524,-1.3010000256737484
-0.05697242170572281,0.07133763283491135,9.764876365661621,0.04739999771118164,-0.05339999869465828,-0.04800000041723251,-5.346000162426382,-1.0449999465483217,0.5129999805514666
-0.0667024627327919,0.06597462296485901,9.755395889282227,0.035099998116493225,-0.05179999768733978,-0.05790000036358833,0.6759999904945878,-0.05900000114378995,0.2899999870813831
-0.069058358669281,0.06199067085981369,9.766839981079102,0.024899998679757118,-0.05350000038743019,-0.04809999838471413,-2.8759999200917283,-1.1670000384511492,0.17799999915475526
-0.06104256957769394,0.061128757894039154,9.761476516723633,0.031599998474121094,-0.04619999974966049,-0.04820000007748604,4.555999992455197,1.4549999807249085,0.29399999665535115
-0.055583786219358444,0.07535989582538605,9.757512092590332,0.045099999755620956,-0.048499997705221176,-0.05779999867081642,2.3010000179273815,1.4210000460885255,1.3509999986060035
-0.05553590506315231,0.06686526536941528,9.756314277648926,0.04969999939203262,-0.06579999625682831,-0.05769999697804451,7.309999713922392,1.7010000225752016,0.2609999910412874
-0.057786453515291214,0.06216305121779442,9.771819114685059,0.04309999942779541,-0.0802999958395958,-0.03790000081062317,1.8620000677519786,0.559000023951033,-0.05900000114378995
-0.058849480003118515,0.06364745646715164,9.76925277709961,0.044499997049570084,-0.08559999614953995,-0.03779999911785126,-2.103000090964705,-1.3039999728232647,-0.8789999894556839
-0.06485413014888763,0.05649358406662941,9.750980377197266,0.04490000009536743,-0.10740000009536743,-0.05719999969005585,9.326000056890647,1.751999977890629,0.01700000066872456
-0.06485413014888763,0.05649358406662941,9.750980377197266,0.04490000009536743,-0.10740000009536743,-0.05719999969005585,9.326000056890647,1.751999977890629,0.01700000066872456
-0.05848555639386177,0.0700160339474678,9.769826889038086,0.046699997037649155,-0.09629999846220016,-0.03749999776482582,-2.6290000025799687,-0.02899999937514897,0.1529999993484144
-0.05848555639386177,0.0700160339474678,9.769826889038086,0.046699997037649155,-0.09629999846220016,-0.03749999776482582,-2.6290000025799687,-0.02899999937514897,0.1529999993484144
-0.055296480655670166,0.07385633140802383,9.755194664001465,0.052400000393390656,-0.08559999614953995,-0.05729999765753746,9.105999663724537,1.2940000422698372,-0.3349999947369245
-0.06379111111164093,0.06973830610513687,9.75638198852539,0.052400000393390656,-0.08559999614953995,-0.05729999765753746,9.105999663724537,1.2940000422698372,-0.3349999947369245
-0.06433699280023575,0.05874413251876831,9.77033519744873,0.0471000000834465,-0.10449999570846558,-0.03749999776482582,6.091999826877521,1.3089999914608315,1.0379999631444108
-0.06441360712051392,0.06373365223407745,9.76961612701416,0.0471000000834465,-0.10449999570846558,-0.03749999776482582,-1.1860000238965378,-0.38400001196643396,-0.4199999914104407
-0.06441360712051392,0.06373365223407745,9.76961612701416,0.04989999905228615,-0.11840000003576279,-0.03720000013709068,-1.1860000238965378,-0.38400001196643396,-0.4199999914104407
-0.060582879930734634,0.06186617165803909,9.759101867675781,0.03480000048875809,-0.09529999643564224,-0.047599997371435165,-15.86199931897261,-3.1600000395545047,0.14600000260429016
-0.060582879930734634,0.06186617165803909,9.759101867675781,0.03480000048875809,-0.09529999643564224,-0.047599997371435165,-15.86199931897261,-3.1600000395545047,0.14600000260429016
-0.058495137840509415,0.07283161580562592,9.763172149658203,0.02369999885559082,-0.03059999831020832,-0.04829999804496765,-7.1099998221933705,-2.3970000342592033,-1.2720000029532261
-0.060487110167741776,0.06699934601783752,9.756697654724121,0.017799999564886093,-0.02290000021457672,-0.05829999968409538,4.633000130063335,-2.3700000830267314,-2.0489999750563497
-0.059893347322940826,0.06190447881817818,9.7612943649292,0.011099999770522118,-0.03519999980926514,-0.04839999973773956,7.943000301858017,-1.2170000113834043,-2.733000091420579
-0.057029884308576584,0.06771759688854218,9.749974250793457,0.017899999395012856,-0.04399999976158142,-0.05810000002384186,-12.342999627443769,-1.912000040684234,-2.7309999132108236
-0.06986280530691147,0.06109045073390007,9.759159088134766,-0.006899999920278788,-0.019700000062584877,-0.04859999939799309,20.797999447222406,2.9569999872325554,0.48299997544777223
-0.05571785941720009,0.06213432177901268,9.754351615905762,0.022599998861551285,-0.09049999713897705,-0.0575999990105629,13.74500011497373,1.4270000471092643,-0.760999987168104
-0.058207832276821136,0.05525817349553108,9.756583213806152,0.016099998727440834,-0.13279999792575836,-0.057099997997283936,17.77099962595074,2.1379999012625546,-0.4999999961268166
-0.06591715663671494,0.06889554858207703,9.757761001586914,0.016099998727440834,-0.17069999873638153,-0.05590000003576279,-20.323000771583036,-3.682000021637079,-1.6290000103263353
-0.05276820436120033,0.06405925750732422,9.755002975463867,0.015799999237060547,-0.12399999797344208,-0.057099997997283936,-21.815999869425077,-2.0710000143729608,-2.2860000687363873
-0.05339069664478302,0.0625557005405426,9.75828742980957,0.008700000122189522,-0.0486999973654747,-0.05819999799132347,-6.1370001013373265,-1.312000045332054,-0.3049999896332302
-0.06336972862482071,0.06998730450868607,9.757473945617676,0.0007999999797903001,-0.035099998116493225,-0.05819999799132347,28.48999968859256,-2.289000015885904,-5.182000063378382
-0.0598263144493103,0.0685986652970314,9.769674301147461,-0.004399999976158142,-0.10279999673366547,-0.037699997425079346,19.77299978866776,-0.9320000162591615,4.088999895220738
-0.06251739710569382,0.07250600308179855,9.766159057617188,0.001999999862164259,-0.15359999239444733,-0.04649999737739563,15.354000584358326,-0.3280000113330135,-2.428999897407536
-0.058092910796403885,0.06583096832036972,9.763678550720215,0.00139999995008111,-0.19409999251365662,-0.04580000042915344,14.295000244115359,2.1949999643204263,1.9539999411077
-0.058045025914907455,0.06368576735258102,9.752761840820312,0.007999999448657036,-0.23719999194145203,-0.0543999969959259,6.532000186322919,-3.863999803582178,-2.442000095275598
-0.059845466166734695,0.07073429971933365,9.764713287353516,-0.0009999999310821295,-0.2418999969959259,-0.04429999738931656,-10.161999843374575,1.067999968248105,-5.723999906567812
-0.06097552925348282,0.06142564117908478,9.764225006103516,0.0030999998562037945,-0.21570000052452087,-0.04529999941587448,6.852000098466718,-0.9239999437503725,-2.067000084840272
-0.05824613943696022,0.06597462296485901,9.764664649963379,0.000699999975040555,-0.23330000042915344,-0.04479999840259552,-3.223999979294582,1.118000047902066,0.6440000206245492
-0.06482540816068649,0.06336015462875366,9.759081840515137,0.003000000026077032,-0.2254999876022339,-0.044999998062849045,0.29800000622931916,2.3189999142678923,-1.9500000115750113
-0.060774415731430054,0.07035122066736221,9.767499923706055,0.010199999436736107,-0.21529999375343323,-0.044999998062849045,-5.230000071544293,-2.520000001823497,5.483000096798497
-0.05363012105226517,0.06822517514228821,9.754963874816895,0.013599999248981476,-0.20170000195503235,-0.0551999993622303,-4.7169999309102675,-1.8160000243524121,5.352999825665175
-0.05892609432339668,0.05961562320590019,9.762568473815918,-0.001500000013038516,-0.19749999046325684,-0.04580000042915344,6.226000027543532,1.8740000697934562,-9.030999917769567
-0.06407841295003891,0.065055251121521,9.75676441192627,0.00559999980032444,-0.21739999949932098,-0.054999999701976776,12.777000092590134,0.4780000101710585,6.595999912619585
-0.055488016456365585,0.0597209669649601,9.763688087463379,0.01599999889731407,-0.24249999225139618,-0.044499997049570084,-3.1439998945369267,-0.39599998732748526,-2.4739999584239305
-0.06335058063268661,0.06394433975219727,9.763726234436035,0.0050999997183680534,-0.23160000145435333,-0.04479999840259552,-0.4939999951060778,0.019999999511567335,9.534999576624807
-0.06025726720690727,0.06404968351125717,9.756505966186523,0.0044999998062849045,-0.22929999232292175,-0.05469999834895134,5.330999786348564,1.9899999472321332,32.88000132478071
-0.06092764809727669,0.06068822368979454,9.759407997131348,0.0072999997064471245,-0.24309998750686646,-0.044499997049570084,-13.372000069304747,8.59000021627123,9.392999943780241
-0.06192363426089287,0.07692091166973114,9.754437446594238,0.0357000008225441,-0.17679999768733978,-0.055299997329711914,-0.12499999903170415,3.6529998921948517,0.06500000216452881
-0.05718311294913292,0.06395391374826431,9.776799201965332,0.05289999768137932,-0.18519999086856842,-0.0357000008225441,3.0140000502904276,-5.3489998961324865,-2.130000042197177
-0.045863326638936996,0.05929001420736313,9.753268241882324,0.06719999760389328,-0.17289999127388,-0.055799998342990875,-3.9790001255245055,-0.5709999726316578,-9.776000240167768
-0.05845683068037033,0.06224924325942993,9.770113945007324,0.04639999940991402,-0.1607999950647354,-0.0364999994635582,-6.752999921541967,2.610999892796046,-8.61699995406029
-0.05845683068037033,0.06224924325942993,9.770113945007324,0.04639999940991402,-0.1607999950647354,-0.0364999994635582,-6.752999921541967,2.610999892796046,-8.61699995406029
-0.06919243186712265,0.062431201338768005,9.761361122131348,0.052299998700618744,-0.13089999556541443,-0.046699997037649155,-1.1839999524084877,7.444000341475226,4.613999824452829
-0.05877286195755005,0.06685569137334824,9.759542465209961,0.052299998700618744,-0.13089999556541443,-0.046699997037649155,-3.458999894764864,8.099000114953816,-1.847999887500745
-0.06926904618740082,0.07400956004858017,9.757550239562988,0.09380000084638596,-0.10769999772310257,-0.056199997663497925,7.693000010309918,-8.427000313049815,1.242999980232704
-0.0514274537563324,0.06497863680124283,9.757875442504883,0.08989999443292618,-0.1378999948501587,-0.056199997663497925,1.222000030020971,-13.800000213265257,-3.2320000518033707
-0.0514274537563324,0.06497863680124283,9.757875442504883,0.08989999443292618,-0.1378999948501587,-0.056199997663497925,1.222000030020971,-13.800000213265257,-3.2320000518033707
-0.05428134277462959,0.057049039751291275,9.763649940490723,0.02290000021457672,-0.141199991106987,-0.06639999896287918,0.7110000142358488,-16.898999619898966,-3.7639998577176677
-0.05858132615685463,0.05572744086384773,9.765881538391113,-0.0009999999310821295,-0.15209999680519104,-0.04699999839067459,4.9730001167574,4.759999813716906,1.5759999835228578
-0.05872498080134392,0.06176082789897919,9.753700256347656,0.009999999776482582,-0.15349999070167542,-0.05649999901652336,-0.9529999664708946,16.168999246691758,3.811000096943818
-0.05322789400815964,0.05440583825111389,9.761543273925781,0.06369999796152115,-0.1599999964237213,-0.04639999940991402,3.099000046963944,-12.40799997645384,-2.497999962506886
-0.06287173926830292,0.0633888840675354,9.76489543914795,0.011399999260902405,-0.1598999947309494,-0.04659999907016754,1.0640000387154163,4.105000040238316,0.9190000318345116
-0.067181296646595,0.06271850317716599,9.760490417480469,0.009800000116229057,-0.16129998862743378,-0.04649999737739563,-3.4569999299985192,-16.78899942331591,-3.5379999971393468
-0.05680004134774208,0.0695371925830841,9.762950897216797,-0.02199999988079071,-0.14010000228881836,-0.04690000042319298,-2.634999896879002,-3.54399989143838,-0.3029999981864594
-0.06782294809818268,0.057499147951602936,9.770306587219238,-0.05009999871253967,-0.1428000032901764,-0.037299998104572296,-4.894999783322677,-9.533999807685046,-1.2449999449990485
-0.057690683752298355,0.06463386863470078,9.771761894226074,-0.06619999557733536,-0.12870000302791595,-0.03749999776482582,1.011999994295111,-1.3140000100983982,-1.2230000124041431
-0.062143899500370026,0.056627657264471054,9.7677583694458,-0.07050000131130219,-0.1412999927997589,-0.04729999974370003,1.59200002181873,2.8279999119258172,0.30400000725005805
-0.06362830102443695,0.07073429971933365,9.767739295959473,-0.06449999660253525,-0.1241999939084053,-0.04729999974370003,0.5699999902484857,3.3050000464354095,1.8520000304768451
-0.07083006203174591,0.06527551263570786,9.753987312316895,-0.06399999558925629,-0.13509999215602875,-0.057099997997283936,-0.10999999647985702,0.16599999711327754,-0.9140000131969449
-0.06400179862976074,0.05838979035615921,9.763660430908203,-0.05350000038743019,-0.13419999182224274,-0.04729999974370003,-2.2779999962275985,-4.511999913821975,-1.8250000792443732
-0.06016149744391441,0.057192690670490265,9.765268325805664,-0.06549999862909317,-0.1370999962091446,-0.04739999771118164,3.2320000518033707,4.517999808121008,-0.009999999755783667
-0.05122634023427963,0.07048530131578445,9.755979537963867,-0.03999999910593033,-0.12789998948574066,-0.05700000002980232,-2.4529999014904917,-4.733000075927846,-1.3630000006474812
-0.060582879930734634,0.06426995247602463,9.753604888916016,-0.06079999729990959,-0.13120000064373016,-0.057099997997283936,0.42500001004800736,2.5540000431815857,-0.23300000406479038
-0.058801595121622086,0.06862739473581314,9.759809494018555,-0.053599998354911804,-0.12189999967813492,-0.04729999974370003,2.16600004832161,2.5920000140723634,0.22299999347008345
-0.05493256449699402,0.06803363561630249,9.746747016906738,-0.037299998104572296,-0.1264999955892563,-0.06679999828338623,-0.03599999945432653,-0.6549999869220019,-0.8399999828208814
-0.05302678048610687,0.06289089471101761,9.757166862487793,-0.03889999911189079,-0.1356000006198883,-0.057099997997283936,0.2699999925723957,0.6579999874323713,-0.7020000127047406
-0.042741287499666214,0.07106947898864746,9.753575325012207,-0.026599999517202377,-0.12610000371932983,-0.05700000002980232,-1.2079999564914432,-2.205999983978732,0.6179999984143966
-0.054424989968538284,0.08007168024778366,9.773082733154297,-0.04149999842047691,-0.1127999946475029,-0.03749999776482582,-0.8459999838416202,-1.4580000345961308,0.1189999980109653
-0.06802405416965485,0.06835924834012985,9.761256217956543,-0.0648999959230423,-0.11969999969005585,-0.04739999771118164,0.3059999986968288,0.24099999653230003,0.733000000191607
-0.06203855574131012,0.07869262248277664,9.756027221679688,-0.054099999368190765,-0.11029999703168869,-0.05719999969005585,-1.7360000463164627,-1.4249999756212142,-0.41600000851689906
-0.06330269575119019,0.06703764945268631,9.768956184387207,-0.0568000003695488,-0.11599999666213989,-0.03759999945759773,-1.5899999503306799,-1.290999988398615,-1.0079999580407164
-0.05289270356297493,0.0664726197719574,9.765843391418457,-0.0510999970138073,-0.11979999393224716,-0.04749999940395355,2.285000086353215,2.604000016113841,0
-0.05572744086384773,0.0701405331492424,9.756573677062988,-0.054499998688697815,-0.13449999690055847,-0.04739999771118164,-0.8069999772068176,0.7849999912510595,-0.5870000109275301
-0.0601998046040535,0.06881893426179886,9.764349937438965,-0.037699997425079346,-0.0819999948143959,-0.04800000041723251,-0.5320000193577081,1.291999970781787,-0.10499999785261017
-0.05452075973153114,0.06208643689751625,9.766830444335938,-0.037699997425079346,-0.0819999948143959,-0.04800000041723251,-0.5320000193577081,1.291999970781787,-0.10499999785261017
-0.05452075973153114,0.06208643689751625,9.766830444335938,-0.027699999511241913,-0.09749999642372131,-0.0478999987244606,-0.6440000206245492,-1.7670000338033292,0.5969999948418105
-0.05763322487473488,0.06471048295497894,9.753077507019043,-0.04639999940991402,-0.1006999984383583,-0.0575999990105629,1.7109999531286293,0.8939999920075311,0.5230000178265999
-0.061052143573760986,0.07489063590765,9.764264106750488,-0.04639999940991402,-0.1006999984383583,-0.0575999990105629,-0.5039999790203582,-0.2920000052085803,0.16899999762364695
-0.05294058471918106,0.07004476338624954,9.761016845703125,-0.03669999912381172,-0.09950000047683716,-0.04769999906420708,-0.12199999852133472,1.562999999098208,-0.2159999967259592
-0.06044880300760269,0.06473921239376068,9.760211944580078,-0.042799998074769974,-0.11019999533891678,-0.04769999906420708,2.529000056715458,1.0150000481663333,0.43499999396228783
-0.05646485090255737,0.06358042359352112,9.75240707397461,-0.029999999329447746,-0.11959999799728394,-0.05729999765753746,-0.36399999077702017,-0.35899999881987993,0.26500000061525547
-0.04903325065970421,0.0741627886891365,9.762500762939453,-0.03099999949336052,-0.10949999839067459,-0.04749999940395355,-0.4070000069857908,-0.6119999973936576,-0.13799999679656727
-0.07051403075456619,0.07535989582538605,9.771866798400879,-0.05299999937415123,-0.10719999670982361,-0.03779999911785126,-0.6859999744088683,0.17400000292100043,-0.45300002370493087
-0.07051403075456619,0.07535989582538605,9.771866798400879,-0.05299999937415123,-0.10719999670982361,-0.03779999911785126,-0.6859999744088683,0.17400000292100043,-0.45300002370493087
-0.06697060912847519,0.06381984055042267,9.754093170166016,-0.04270000010728836,-0.11509999632835388,-0.05739999935030937,-0.4709999734062945,0.44699999600376555,-0.5990000129690077
-0.06277596950531006,0.05877286195755005,9.757290840148926,-0.04019999876618385,-0.11229999363422394,-0.057499997317790985,-0.747000020360282,0.2770000026567332,-0.3980000054546825
-0.0598263144493103,0.07870220392942429,9.747446060180664,-0.03920000046491623,-0.09009999781847,-0.06729999929666519,-0.5609999887173774,-0.10199999734224074,-0.36399999077702017
-0.056148819625377655,0.0657639279961586,9.761265754699707,-0.029600000008940697,-0.10799999535083771,-0.04769999906420708,-1.5459999784191636,-0.7510000032538235,0.04900000055424296
-0.06720045208930969,0.0657639279961586,9.769970893859863,-0.05299999937415123,-0.10189999639987946,-0.03799999877810478,-0.046999999102312236,-0.26200000010488605,0.26000000865811523
-0.058092910796403885,0.05941450968384743,9.766217231750488,-0.04360000044107437,-0.1014999970793724,-0.04779999703168869,1.0059999932743722,0.7620000229121291,-0.28799999563461226
-0.06437529623508453,0.06787082552909851,9.758143424987793,-0.041099999099969864,-0.09439999610185623,-0.0575999990105629,-0.4759999920438612,0.1189999980109653,-0.14099999730693671
-0.05723099783062935,0.0708492174744606,9.771791458129883,-0.030899999663233757,-0.09279999881982803,-0.03799999877810478,0.1620000008795227,0.031999999885518396,0.18600000496247812
-0.06306327134370804,0.0623258575797081,9.768409729003906,-0.04039999842643738,-0.10269999504089355,-0.03799999877810478,0.17899999487814064,0.2740000021463637,-0.44500000455699473
-0.052998051047325134,0.07670064270496368,9.758430480957031,-0.029500000178813934,-0.08329999446868896,-0.0575999990105629,-1.5269999929737748,-0.46000000710884187,0.12799999954207358
-0.061291564255952835,0.05720226839184761,9.775094985961914,-0.04010000079870224,-0.10920000076293945,-0.03799999877810478,0.8919999738803338,0.6059999963729188,0.05200000106461238
-0.06211517006158829,0.07321469485759735,9.740034103393555,-0.038100000470876694,-0.09189999848604202,-0.0674000009894371,-0.8750000065621423,-0.0659999978879142,-0.2259999939804529
-0.057853490114212036,0.05974011868238449,9.76646614074707,-0.008700000122189522,-0.08940000087022781,-0.0478999987244606,0.3579999897562813,-0.009999999755783667,0.06099999926066736
-0.057853490114212036,0.05974011868238449,9.76646614074707,-0.03749999776482582,-0.09919999539852142,-0.0478999987244606,0.3579999897562813,-0.009999999755783667,0.06099999926066736
-0.05315127968788147,0.05758533999323845,9.75534725189209,-0.02719999849796295,-0.09829999506473541,-0.05769999697804451,0.7660000058056707,0.20200000323771067,-0.21299999621558977
-0.05540182814002037,0.06561069935560226,9.758057594299316,-0.026799999177455902,-0.09839999675750732,-0.05769999697804451,-0.14699999832767557,0.19799999366374263,0.2050000037480801
-0.05789179727435112,0.0592421256005764,9.7821044921875,-0.0357000008225441,-0.09519999474287033,-0.028299998492002487,0.5919999762042438,0.048000001495804245,-0.3190000098019052
-0.05792052671313286,0.05932832136750221,9.764752388000488,-0.02589999884366989,-0.07079999893903732,-0.04820000007748604,0.5909999938210717,0.20299999896109608,0.21899999723632863
-0.06666415184736252,0.06756436824798584,9.755452156066895,-0.028599999845027924,-0.07349999994039536,-0.05790000036358833,0.04600000004387353,0.08299999855663877,-0.16899999762364695
-0.051484912633895874,0.06142564117908478,9.762500762939453,-0.013700000010430813,-0.07400000095367432,-0.04820000007748604,0.05799999875029794,-0.024000000747902123,-0.1070000026395942
-0.06407841295003891,0.06205770745873451,9.761849403381348,-0.022599998861551285,-0.06549999862909317,-0.04829999804496765,-0.07900000232288394,0.20200000323771067,0.12400000330831876
-0.049732357263565063,0.07053317874670029,9.76215648651123,-0.01549999974668026,-0.07000000029802322,-0.04809999838471413,0.5829999746731356,0.3559999983095105,0.12700000381868817
-0.05343858152627945,0.056148819625377655,9.760470390319824,-0.019500000402331352,-0.0973999947309494,-0.04800000041723251,-0.1390000058601659,-0.012000000373951061,-0.2800000031671026
-0.05606262758374214,0.072266586124897,9.755931854248047,-0.019899999722838402,-0.07899999618530273,-0.05779999867081642,0.1620000008795227,0.25299999857377775,0.019000000453128628
-0.06854120641946793,0.06106172129511833,9.751008987426758,-0.03839999809861183,-0.09219999611377716,-0.038100000470876694,0.6159999802871993,0.3660000089042174,0.06099999926066736
-0.053754616528749466,0.06490202248096466,9.74853801727295,-0.01889999955892563,-0.09279999881982803,-0.05769999697804451,0.2379999960219306,0.20999999570522035,-0.09099999769425504
-0.05634992942214012,0.06623319536447525,9.74633502960205,-0.017799999564886093,-0.09479999542236328,-0.06749999523162842,0.6380000196038104,0.407999989368963,0.007000000079177565
-0.055440135300159454,0.06941269338130951,9.761438369750977,-0.017799999564886093,-0.09479999542236328,-0.06749999523162842,0.5540000053134664,0.32299999269544677,-0.05900000114378995
-0.06279512494802475,0.07332003116607666,9.754226684570312,-0.025599999353289604,-0.08779999613761902,-0.05769999697804451,-0.2140000052791884,-0.07000000079177565,0.09999999922536333
-0.05171475559473038,0.07282203435897827,9.76276969909668,-0.01599999889731407,-0.08709999918937683,-0.0478999987244606,-0.18099999966512467,-0.0969999987149939,0.023000000021936765
-0.05705861747264862,0.06146394833922386,9.752981185913086,-0.012299999594688416,-0.07369999587535858,-0.057999998331069946,0.031999999885518396,0.07900000232288394,0.0030000000934877653
-0.06551493704319,0.0709737166762352,9.753806114196777,-0.012299999594688416,-0.07369999587535858,-0.057999998331069946,0.1180000022875799,0.2710000016359943,0.04200000047506539
-0.06811024993658066,0.06767929345369339,9.765153884887695,-0.028099998831748962,-0.058399997651576996,-0.04820000007748604,0.05600000063342052,0.3750000104353257,-0.09300000248123906
-0.057029884308576584,0.057901374995708466,9.75419807434082,-0.008999999612569809,-0.07530000060796738,-0.057999998331069946,-0.043999998591942806,-0.14099999730693671,0.3019999891228608
-0.057527877390384674,0.062000248581171036,9.753662109375,-0.020399998873472214,-0.08020000159740448,-0.05790000036358833,0.021000000237532696,0.08299999855663877,0.0539999991814898
-0.056905388832092285,0.06719087809324265,9.763449668884277,-0.007499999832361937,-0.05169999971985817,-0.04829999804496765,0.16899999762364695,0.14600000260429016,-0.01700000066872456
-0.054511185735464096,0.06495948135852814,9.76369857788086,-0.0050999997183680534,-0.04569999873638153,-0.048499997705221176,0,0.25400000763737635,-0.06700000028140622
-0.0664534643292427,0.06637685000896454,9.745722770690918,-0.01640000008046627,-0.05790000036358833,-0.06799999624490738,-0.15900000036915327,0.0269999995907449,0.20299999896109608
-0.05931873992085457,0.0614926740527153,9.755107879638672,-0.017799999564886093,-0.06659999489784241,-0.05810000002384186,-0.02600000053230619,0.12299999424472013,0.21700000578955783
-0.06390602886676788,0.06314946711063385,9.763612747192383,-0.018699999898672104,-0.07329999655485153,-0.04820000007748604,0.27599999359313454,0.13100000005244303,-0.01400000015835513
-0.05906974524259567,0.04782657325267792,9.75687026977539,-0.019099999219179153,-0.09860000014305115,-0.05790000036358833,0.019000000453128628,0.12100000279794933,0.004999999877891834
-0.0669514536857605,0.06484455615282059,9.74623966217041,-0.014599999412894249,-0.06229999661445618,-0.06790000200271606,-0.14499999354069154,0.05099999867112037,0.03599999945432653
-0.05199248343706131,0.06382941454648972,9.766206741333008,-0.003399999812245369,-0.044999998062849045,-0.048499997705221176,0.28699998657101367,-0.0009999999964224499,0.035000000395887826
-0.05649358406662941,0.06706637889146805,9.754570960998535,-0.0052999998442828655,-0.04820000007748604,-0.05810000002384186,0.03999999902313467,0.20999999570522035,0.048000001495804245
-0.06699934601783752,0.07125144451856613,9.758976936340332,-0.010599999688565731,-0.03539999946951866,-0.048499997705221176,0.11500000177721047,0.2740000021463637,0.004999999877891834
-0.059108052402734756,0.06544789671897888,9.764656066894531,-0.012299999594688416,-0.0575999990105629,-0.04829999804496765,-0.22199999774669807,0.05799999875029794,-0.015999999942759198
-0.06102341413497925,0.06587885320186615,9.76472282409668,-0.013899999670684338,-0.06579999625682831,-0.04820000007748604,0.37299999230812847,0.3660000089042174,0.07300000130214508
-0.06373365223407745,0.05428134277462959,9.776617050170898,-0.00969999935477972,-0.057499997317790985,-0.038599997758865356,0.08499999667351618,-0.0329999989439571,0.07099999651516105
-0.045623909682035446,0.06916369497776031,9.759992599487305,0.0072999997064471245,-0.0284000001847744,-0.048499997705221176,-0.1180000022875799,0.18900000547284757,0.03699999851276524
-0.07027460634708405,0.06743986904621124,9.758258819580078,-0.016499999910593033,-0.02159999869763851,-0.058399997651576996,0.05499999823992851,0.0009999999964224499,-0.041000001416626686
-0.05246174708008766,0.06342719495296478,9.763199806213379,0.002300000051036477,-0.02319999970495701,-0.04859999939799309,-0.12499999903170415,-0.05600000063342052,0.20099999417411205
-0.05295974388718605,0.06658753752708435,9.769731521606445,0.002300000051036477,-0.02319999970495701,-0.04859999939799309,-0.10400000212922476,0.15200000362502902,0.035000000395887826
-0.05491340905427933,0.058543018996715546,9.761677742004395,0.00009999999747378752,-0.029199998825788498,-0.04859999939799309,-0.19099999691961836,-0.014999999216793838,0.10400000212922476
-0.06400179862976074,0.06405925750732422,9.756936073303223,-0.008799999952316284,-0.038599997758865356,-0.05829999968409538,0.38400001196643396,0.1849999958988795,-0.029999998433587676
-0.06557239592075348,0.06674076616764069,9.767232894897461,-0.009999999776482582,-0.052799999713897705,-0.04839999973773956,0.017999999727163266,0.19999999845072666,0.0969999987149939
-0.06229712814092636,0.061032988131046295,9.761141777038574,-0.004900000058114529,-0.029399998486042023,-0.04859999939799309,0.008999999863581633,0.05999999686717535,-0.0019999999928448997
-0.062316279858350754,0.07854897528886795,9.749773025512695,-0.003499999875202775,-0.007499999832361937,-0.058399997651576996,0.07699999753589991,0.11400000605382507,0.3220000103122746
-0.07101202756166458,0.06319735199213028,9.756908416748047,-0.015799999237060547,-0.04360000044107437,-0.05829999968409538,0.09500000059811649,0.04900000055424296,0.1319999957758284
-0.06242162734270096,0.06612785160541534,9.74814510345459,-0.0044999998062849045,-0.03449999913573265,-0.06809999793767929,0.03400000133744912,0.11500000177721047,-0.03699999851276524
-0.06673119217157364,0.06225882098078728,9.759714126586914,-0.003000000026077032,-0.02499999850988388,-0.04859999939799309,0.06399999977103679,0.012000000373951061,0.049999999612681666
-0.06001785025000572,0.0622013583779335,9.752991676330566,-0.00139999995008111,-0.013799999840557575,-0.05849999934434891,0.20299999896109608,0.3540000068627397,-0.024999999806340833
-0.06275681406259537,0.06969042122364044,9.76597785949707,-0.003399999812245369,-0.023899998515844345,-0.048499997705221176,-0.08499999667351618,0.25299999857377775,0.02800000031671026
-0.06369534134864807,0.06606081128120422,9.754457473754883,-0.003399999812245369,-0.023899998515844345,-0.048499997705221176,0.06899999839828364,0.09999999922536333,-0.02899999937514897
-0.05106353387236595,0.0634942278265953,9.75419807434082,0.0038999998942017555,-0.03629999980330467,-0.05829999968409538,0.05099999867112037,0.07199999890865307,0.035000000395887826
-0.06662584841251373,0.06240247189998627,9.757645606994629,-0.004100000020116568,-0.02759999968111515,-0.058399997651576996,-0.010999999647985701,0.23399998644796255,-0.03999999902313467
-0.07355945557355881,0.06331226974725723,9.76494312286377,-0.015099999494850636,-0.04339999705553055,-0.04839999973773956,-0.25400000763737635,0.13000000432905762,-0.019000000453128628
-0.04950251430273056,0.06492117047309875,9.754810333251953,0.003499999875202775,-0.054099999368190765,-0.05819999799132347,-0.08200000283325337,0.05200000106461238,0.007000000079177565
-0.05912720412015915,0.06431782990694046,9.759695053100586,0.003499999875202775,-0.054099999368190765,-0.05819999799132347,-0.17799999915475526,0.12299999424472013,-0.021000000237532696
-0.053831230849027634,0.07310934364795685,9.756027221679688,0.004399999976158142,-0.022199999541044235,-0.058399997651576996,0.05499999823992851,0.06299999737754478,0.014999999216793838
-0.06864655017852783,0.06426995247602463,9.738607406616211,-0.011899999342858791,-0.02589999884366989,-0.07800000160932541,0.1390000058601659,0.1079999983629796,0.10100000161885533
-0.052787356078624725,0.06000826880335808,9.75245475769043,0.0058999997563660145,-0.019700000062584877,-0.058399997651576996,0.049999999612681666,0.03400000133744912,0.08100000043976135
-0.0547410286962986,0.07058106362819672,9.752196311950684,0.004600000102072954,-0.007599999662488699,-0.05849999934434891,0.0749999994190225,-0.01700000066872456,-0.14099999730693671
-0.06810066848993301,0.06879977881908417,9.774070739746094,0.003399999812245369,-0.013299999758601189,-0.05849999934434891,-0.09500000059811649,0,-0.09099999769425504
-0.06264188885688782,0.058830320835113525,9.762578010559082,-0.0005999999702908099,-0.008899999782443047,-0.0486999973654747,0.06800000267489824,0.06299999737754478,0.09899999683187131
-0.054750602692365646,0.06923073530197144,9.763985633850098,0.006799999624490738,0.00039999998989515007,-0.0486999973654747,-0.046999999102312236,0.06399999977103679,-0.007999999971379599
-0.053429003804922104,0.07317638397216797,9.77409839630127,0.004900000058114529,0.00029999998514540493,-0.03889999911189079,-0.015999999942759198,0.0969999987149939,-0.05600000063342052
-0.06359957158565521,0.06132987141609192,9.752551078796387,-0.0044999998062849045,0.00029999998514540493,-0.03889999911189079,-0.007999999971379599,0.1390000058601659,0
-0.06359957158565521,0.06132987141609192,9.752551078796387,-0.004600000102072954,-0.009399999864399433,-0.05849999934434891,-0.007999999971379599,0.1390000058601659,0
-0.05826529487967491,0.06810066848993301,9.768420219421387,-0.004299999680370092,0.00029999998514540493,-0.03889999911189079,-0.21100000476881897,0.21200000049220435,-0.09300000248123906
-0.06449022144079208,0.05976885184645653,9.754925727844238,-0.005200000014156103,-0.05040000006556511,-0.05819999799132347,-0.18400000017549412,0.1189999980109653,0.16400000566650674
-0.05961562320590019,0.07400956004858017,9.772872924804688,-0.004999999888241291,-0.05509999766945839,-0.03839999809861183,0.0039999999856897995,0.1729999938574018,0.03699999851276524
-0.05279693752527237,0.06449022144079208,9.755443572998047,0.003999999724328518,-0.04899999871850014,-0.05819999799132347,-0.08899999957737763,-0.128999995265459,-0.0030000000934877653
-0.05329493060708046,0.06698018312454224,9.769951820373535,-0.004299999680370092,-0.03529999777674675,-0.048499997705221176,0.08799999718388561,0.007000000079177565,0.06899999839828364
-0.05708734691143036,0.07782112807035446,9.759695053100586,0.002899999963119626,-0.003999999724328518,-0.04859999939799309,-0.14900000311465958,0.013000000266153095,-0.08799999718388561
-0.05708734691143036,0.07782112807035446,9.759695053100586,0.002899999963119626,-0.003999999724328518,-0.04859999939799309,-0.14900000311465958,0.013000000266153095,-0.08799999718388561
-0.06927862018346786,0.06296750903129578,9.765728950500488,-0.012199999764561653,-0.01730000041425228,-0.04859999939799309,0.07799999992939192,0.11299999699022645,0.09200000008774706
-0.06145436689257622,0.06437529623508453,9.763516426086426,-0.008599999360740185,-0.005699999630451202,-0.04859999939799309,0.014999999216793838,0.20099999417411205,0.10199999734224074
-0.05208825320005417,0.07197927683591843,9.759761810302734,0.007799999788403511,-0.016200000420212746,-0.04859999939799309,0.04500000098543482,0.08100000043976135,0.031999999885518396
-0.05208825320005417,0.07197927683591843,9.759761810302734,0.007799999788403511,-0.016200000420212746,-0.04859999939799309,0.04500000098543482,0.08100000043976135,0.031999999885518396
-0.05493256449699402,0.0644519105553627,9.753738403320312,0.006000000052154064,-0.01209999993443489,-0.04859999939799309,-0.03699999851276524,0.18199999538851008,-0.019000000453128628
-0.05493256449699402,0.0644519105553627,9.753738403320312,0.004799999762326479,-0.016899999231100082,-0.05849999934434891,-0.03699999851276524,0.18199999538851008,-0.019000000453128628
-0.05644569918513298,0.06336015462875366,9.769454002380371,0.004600000102072954,-0.008799999952316284,-0.03889999911189079,-0.0659999978879142,0.07799999992939192,0.24399999704266945
-0.05644569918513298,0.06336015462875366,9.769454002380371,0.004600000102072954,-0.008799999952316284,-0.03889999911189079,-0.0659999978879142,0.07799999992939192,0.24399999704266945
-0.06734410673379898,0.06086060777306557,9.76952075958252,-0.00419999985024333,-0.025999998673796654,-0.03879999741911888,0.17700000343136985,0.12400000330831876,-0.010999999647985701
-0.06376238167285919,0.06703764945268631,9.747197151184082,0.00039999998989515007,-0.006799999624490738,-0.06830000132322311,-0.14300000209392072,0.14600000260429016,0.07399999702553048
-0.06424121558666229,0.075934499502182,9.749419212341309,0.00039999998989515007,-0.006799999624490738,-0.06830000132322311,-0.03400000133744912,0.0269999995907449,-0.16599999711327754
-0.053285352885723114,0.07103117555379868,9.748566627502441,0.008299999870359898,-0.0038999998942017555,-0.06830000132322311,0.13300000483942703,0.22700000304405152,-0.27200001069959295
-0.060056157410144806,0.06334099918603897,9.762405395507812,-0.000699999975040555,-0.030799999833106995,-0.048499997705221176,-0.049999999612681666,0.11699999322398127,0.257999990530918
-0.052806511521339417,0.05969223752617836,9.752264022827148,-0.000699999975040555,-0.030799999833106995,-0.048499997705221176,0.07699999753589991,0.09099999769425504,0.05900000114378995
-0.06452852487564087,0.07089710235595703,9.75818157196045,0,-0.025200000032782555,-0.05829999968409538,0.043999998591942806,0.0859999990670082,0.05999999686717535
-0.057049039751291275,0.06313031166791916,9.769290924072266,0.006899999920278788,-0.024299999698996544,-0.03879999741911888,-0.02600000053230619,0.06500000216452881,0.08100000043976135
-0.05510494485497475,0.06689399480819702,9.750941276550293,0.005499999970197678,-0.018699999898672104,-0.05849999934434891,0.14600000260429016,0.009999999755783667,0.0329999989439571
-0.05609135702252388,0.07136636227369308,9.761466979980469,0.004100000020116568,-0.006899999920278788,-0.0486999973654747,-0.09999999922536333,0.14799999405106096,-0.26900001018922354
-0.06345592439174652,0.06342719495296478,9.758258819580078,-0.003599999938160181,-0.03150000050663948,-0.058399997651576996,0.11200000126684104,0.09200000008774706,0.07999999804626934
-0.06045838072896004,0.07176858931779861,9.754437446594238,-0.0024999999441206455,-0.01679999940097332,-0.058399997651576996,-0.10100000161885533,0.10100000161885533,0.1629999966029081
-0.05717353895306587,0.05793968215584755,9.759159088134766,0.005499999970197678,-0.019199999049305916,-0.04859999939799309,0.1079999983629796,0.09999999922536333,0.046999999102312236
-0.053706735372543335,0.06977660953998566,9.752923965454102,0.010199999436736107,-0.022199999541044235,-0.05829999968409538,0.06700000028140622,0.07600000181251451,-0.24899998899980968
-0.04663905128836632,0.0661182701587677,9.748518943786621,0.020600000396370888,-0.04319999739527702,-0.06799999624490738,0.05799999875029794,0.1070000026395942,0.1189999980109653
-0.06673119217157364,0.06449979543685913,9.756505966186523,0.0009999999310821295,-0.03319999948143959,-0.05829999968409538,-0.014999999216793838,0.02899999937514897,0.06099999926066736
-0.06673119217157364,0.06449979543685913,9.756505966186523,0.0009999999310821295,-0.03319999948143959,-0.05829999968409538,-0.014999999216793838,0.02899999937514897,0.06099999926066736
-0.05866751819849014,0.061952363699674606,9.773897171020508,0.0008999999845400453,-0.025200000032782555,-0.058399997651576996,0.19600000221697184,0.049999999612681666,0.10400000212922476
-0.0677654892206192,0.06671203672885895,9.753116607666016,-0.006899999920278788,-0.014099999330937862,-0.058399997651576996,0.1800000039417393,0.14699999832767557,0.16800000190026157
-0.049636587500572205,0.07196012884378433,9.756160736083984,0.012899999506771564,-0.020600000396370888,-0.05829999968409538,0.041000001416626686,0.09300000248123906,0.043999998591942806
-0.045556869357824326,0.060439229011535645,9.757818222045898,0.01759999990463257,-0.023399999365210533,-0.058399997651576996,-0.041000001416626686,0.12799999954207358,0.11299999699022645
-0.06301538646221161,0.06331226974725723,9.765680313110352,-0.0010999999940395355,-0.016999999061226845,-0.04859999939799309,0.05099999867112037,0.03699999851276524,0.02800000031671026
-0.059969961643218994,0.07102160155773163,9.762606620788574,-0.000699999975040555,-0.005399999674409628,-0.0486999973654747,0.021000000237532696,0.031999999885518396,0.08899999957737763
-0.06290046870708466,0.06487329304218292,9.755375862121582,-0.00039999998989515007,-0.011699999682605267,-0.05849999934434891,-0.17799999915475526,-0.057000003026912535,0.06099999926066736
-0.05517198517918587,0.0719313994050026,9.753939628601074,0.00699999975040555,-0.0010999999940395355,-0.05849999934434891,-0.0009999999964224499,0.07600000181251451,0.0030000000934877653
-0.05154237523674965,0.07110778987407684,9.767768859863281,0.005200000014156103,-0.0007999999797903001,-0.0486999973654747,0.01700000066872456,0.01700000066872456,0.05900000114378995
-0.054798487573862076,0.05951027572154999,9.765527725219727,0.0038999998942017555,-0.007899999618530273,-0.0486999973654747,0.043999998591942806,0.2289999944908223,0.12700000381868817
-0.06407841295003891,0.06633853912353516,9.751047134399414,-0.003000000026077032,-0.024899998679757118,-0.058399997651576996,0.16699999283666295,-0.07000000079177565,0.12100000279794933
-0.05744168907403946,0.05957731604576111,9.753680229187012,0.004999999888241291,-0.01939999870955944,-0.05849999934434891,-0.07600000181251451,0.1419999930303221,-0.09000000197086964
-0.0618470199406147,0.07173985987901688,9.756505966186523,-0.003000000026077032,-0.006899999920278788,-0.0486999973654747,0.13300000483942703,-0.08799999718388561,-0.1400000015835513
-0.0618470199406147,0.07173985987901688,9.756505966186523,-0.0023999998811632395,-0.00559999980032444,-0.05849999934434891,-0.029999998433587676,0.283000003677472,-0.043999998591942806
-0.06981492042541504,0.058217406272888184,9.769396781921387,-0.008200000040233135,-0.04230000078678131,-0.038599997758865356,0.1529999993484144,-0.0539999991814898,0.12499999903170415
-0.057547032833099365,0.0627855435013771,9.74988842010498,0.0010999999940395355,-0.032499998807907104,-0.05829999968409538,0.048000001495804245,0.007999999971379599,-0.12599999475508955
-0.06839755177497864,0.05869624763727188,9.77202033996582,-0.005799999926239252,-0.022499999031424522,-0.03879999741911888,-0.03599999945432653,0.04200000047506539,-0.15900000036915327
-0.0566372349858284,0.060343459248542786,9.764138221740723,0.017500000074505806,-0.016599999740719795,-0.04859999939799309,0.09800000110848592,-0.057000003026912535,-0.1800000039417393
-0.05634992942214012,0.06441360712051392,9.755041122436523,0.0044999998062849045,-0.00989999994635582,-0.05849999934434891,-0.05099999867112037,0.021000000237532696,0.1189999980109653
-0.060247693210840225,0.06261315941810608,9.746077537536621,-0.003999999724328518,-0.007699999958276749,-0.06830000132322311,0.048000001495804245,-0.06200000165415938,0.2519999895101791
-0.06274724006652832,0.06061160936951637,9.763583183288574,-0.0017999999690800905,-0.025499999523162842,-0.0681999996304512,0.12100000279794933,0.029999998433587676,0.3409999957576634
-0.060084883123636246,0.06825389713048935,9.748528480529785,-0.0013000000035390258,-0.01889999955892563,-0.04859999939799309,0.049999999612681666,0.11400000605382507,0.19000000119623298
-0.060084883123636246,0.06825389713048935,9.748528480529785,0.00019999999494757503,-0.023599999025464058,-0.06809999793767929,0.049999999612681666,0.11400000605382507,0.19000000119623298
-0.06028600037097931,0.06264188885688782,9.765957832336426,0.000699999975040555,-0.020399998873472214,-0.04859999939799309,-0.021999999295971403,0.22199999774669807,0.02800000031671026
-0.06610869616270065,0.0638485699892044,9.75877571105957,0.000699999975040555,-0.020399998873472214,-0.04859999939799309,0.019000000453128628,0.25299999857377775,0.08200000283325337
-0.04902367293834686,0.07520666718482971,9.770028114318848,0.01269999984651804,-0.020099999383091927,-0.03869999945163727,0.08100000043976135,0.1800000039417393,0.019999999511567335
-0.0554497092962265,0.06669288873672485,9.756591796875,0.010099999606609344,-0.023099999874830246,-0.058399997651576996,-0.0329999989439571,-0.01700000066872456,0.14900000311465958
-0.07335833460092545,0.056407392024993896,9.757349014282227,-0.00699999975040555,-0.024899998679757118,-0.058399997651576996,0.11400000605382507,-0.057000003026912535,0.2729999930827651
-0.0611383356153965,0.06761226058006287,9.757119178771973,0.003599999938160181,-0.020999999716877937,-0.05829999968409538,0.09399999820462447,0.1509999945614304,0.05300000012305109
-0.0639922246336937,0.05957731604576111,9.748002052307129,0.0032999999821186066,-0.024399999529123306,-0.0681999996304512,0.05300000012305109,0.041000001416626686,0.11500000177721047
-0.057690683752298355,0.06924989074468613,9.752492904663086,0.0026000000070780516,-0.011099999770522118,-0.058399997651576996,0.1749999986443858,0.06299999737754478,-0.041000001416626686
-0.04410119727253914,0.06615658104419708,9.767068862915039,0.016200000420212746,-0.01549999974668026,-0.0486999973654747,0.19900000272734125,-0.15399999507179982,0.33900000431089256
-0.06325481086969376,0.06821559369564056,9.759934425354004,-0.0007999999797903001,-0.02149999886751175,-0.048499997705221176,0.08299999855663877,0.09000000197086964,0.15699999558216926
-0.06744945049285889,0.06829220801591873,9.766878128051758,-0.010400000028312206,-0.021699998527765274,-0.048499997705221176,0.0969999987149939,0.24899998899980968,0.1729999938574018
-0.05454949289560318,0.06106172129511833,9.76302719116211,0.009999999776482582,-0.03189999982714653,-0.048499997705221176,0,0.08799999718388561,0.05300000012305109
-0.06410714983940125,0.057882219552993774,9.772279739379883,0.00029999998514540493,-0.03189999982714653,-0.03869999945163727,-0.010999999647985701,0.09399999820462447,-0.046999999102312236
-0.07108864188194275,0.06864655017852783,9.757262229919434,-0.009099999442696571,-0.02199999988079071,-0.05829999968409538,0.1070000026395942,0.128999995265459,-0.09000000197086964
-0.05872498080134392,0.07303272932767868,9.773849487304688,0.0008999999845400453,-0.022299999371170998,-0.03869999945163727,-0.07000000079177565,-0.03599999945432653,-0.09999999922536333
-0.05950070172548294,0.07051403075456619,9.759416580200195,0.0007999999797903001,-0.022099999710917473,-0.048499997705221176,-0.0659999978879142,-0.021999999295971403,0.27899999410350396
-0.052931010723114014,0.06853163242340088,9.754724502563477,0.010599999688565731,-0.021900000050663948,-0.05829999968409538,-0.024000000747902123,0.20999999570522035,0.11400000605382507
-0.0539078451693058,0.05698200315237045,9.765555381774902,0.010999999940395355,-0.0414000004529953,-0.048499997705221176,-0.024999999806340833,-0.1199999937343507,-0.048000001495804245
-0.06258442997932434,0.05795883387327194,9.762473106384277,0.0007999999797903001,-0.03150000050663948,-0.048499997705221176,-0.021000000237532696,-0.08100000043976135,0.0039999999856897995
-0.04929182305932045,0.06365703791379929,9.753307342529297,0.010400000028312206,-0.03150000050663948,-0.05829999968409538,-0.10499999785261017,0.0269999995907449,0.0039999999856897995
-0.062316279858350754,0.0670567974448204,9.745339393615723,0.000699999975040555,-0.021399999037384987,-0.06809999793767929,0.035000000395887826,0.0269999995907449,0.03599999945432653
-0.05600516498088837,0.062143899500370026,9.760815620422363,0.010599999688565731,-0.031300000846385956,-0.048499997705221176,0.05099999867112037,0.23900000508552924,-0.017999999727163266
-0.06208643689751625,0.06298665702342987,9.771646499633789,0.0013000000035390258,-0.03139999881386757,-0.03869999945163727,0.07199999890865307,0.1079999983629796,-0.05900000114378995
-0.06807194650173187,0.06620446592569351,9.753939628601074,-0.008100000210106373,-0.031599998474121094,-0.05829999968409538,-0.12100000279794933,0.14300000209392072,0.08799999718388561
-0.055842362344264984,0.06173209846019745,9.76952075958252,0.011799999512732029,-0.031300000846385956,-0.03869999945163727,-0.024999999806340833,-0.09000000197086964,-0.25100000712700693
-0.059155937284231186,0.05793968215584755,9.759350776672363,0.0016999999061226845,-0.031300000846385956,-0.048499997705221176,0.1180000022875799,0.17899999487814064,0.02600000053230619
-0.06031472608447075,0.07496725022792816,9.751468658447266,0.002300000051036477,-0.021900000050663948,-0.05829999968409538,-0.128999995265459,0.029999998433587676,-0.0749999994190225
-0.06880936026573181,0.06390602886676788,9.749457359313965,-0.0072999997064471245,-0.03139999881386757,-0.05829999968409538,0.14399999781730613,-0.008999999863581633,0.13100000005244303
-0.06271850317716599,0.06358042359352112,9.755979537963867,0.0023999998811632395,-0.03179999813437462,-0.05829999968409538,0.2589999995945166,0.019000000453128628,0.02899999937514897
-0.06501694768667221,0.05856217071413994,9.76325798034668,0.0023999998811632395,-0.032499998807907104,-0.048499997705221176,0.06899999839828364,0.07000000079177565,-0.2259999939804529
-0.06082230061292648,0.069182850420475,9.74427604675293,0.0026000000070780516,-0.02290000021457672,-0.06809999793767929,0.06299999737754478,0.24399999704266945,0.04500000098543482
-0.054539911448955536,0.05736507475376129,9.762530326843262,0.003399999812245369,-0.032899998128414154,-0.048499997705221176,-0.06899999839828364,0.2159999967259592,0.009999999755783667
-0.058830320835113525,0.05642654374241829,9.773207664489746,0.013599999248981476,-0.0429999977350235,-0.048499997705221176,0.07600000181251451,0.14499999354069154,0.009999999755783667
-0.04575798287987709,0.06774633377790451,9.764090538024902,0.024399999529123306,-0.02329999953508377,-0.048499997705221176,-0.048000001495804245,-0.14499999354069154,-0.0269999995907449
-0.06087975949048996,0.06677907705307007,9.767145156860352,0.004399999976158142,-0.032999999821186066,-0.048499997705221176,0.03599999945432653,0.07799999992939192,-0.01700000066872456
-0.06036261469125748,0.05951027572154999,9.754724502563477,0.004399999976158142,-0.032999999821186066,-0.048499997705221176,-0.004999999877891834,0.03999999902313467,-0.041000001416626686
-0.05838021636009216,0.07446924597024918,9.749591827392578,0.004699999932199717,-0.02329999953508377,-0.05829999968409538,-0.11599999750059588,-0.03100000082707969,-0.031999999885518396
-0.04687846824526787,0.06104256957769394,9.764166831970215,0.02419999986886978,-0.03269999846816063,-0.048499997705221176,0.11299999699022645,0.0009999999964224499,-0.03699999851276524
-0.05991250276565552,0.06321649998426437,9.762414932250977,0.004600000102072954,-0.032899998128414154,-0.048499997705221176,-0.09999999922536333,0.12799999954207358,0.0969999987149939
-0.052547939121723175,0.05573701485991478,9.758163452148438,0.014800000004470348,-0.042399998754262924,-0.05829999968409538,0.015999999942759198,0.06200000165415938,0.01400000015835513
-0.05706819146871567,0.05600516498088837,9.760969161987305,0.014999999664723873,-0.042500000447034836,-0.048499997705221176,-0.004999999877891834,0.048000001495804245,-0.043999998591942806
-0.06388688087463379,0.07150044292211533,9.755949974060059,0.0052999998442828655,-0.02279999852180481,-0.05829999968409538,-0.10600000024610218,-0.08799999718388561,0.05900000114378995
-0.05480806529521942,0.06542874127626419,9.77180004119873,0.0142000000923872,-0.03189999982714653,-0.03869999945163727,0.20099999417411205,0.1620000008795227,0.13300000483942703
-0.05480806529521942,0.06542874127626419,9.77180004119873,0.0142000000923872,-0.03189999982714653,-0.03869999945163727,0.20099999417411205,0.1620000008795227,0.13300000483942703
-0.059232551604509354,0.05551674962043762,9.761763572692871,0.004799999762326479,-0.0421999990940094,-0.048499997705221176,0.10400000212922476,0.2499999980634083,-0.128999995265459
-0.04594951868057251,0.06948930770158768,9.771397590637207,0.026200000196695328,-0.02239999920129776,-0.03869999945163727,-0.12400000330831876,0.1610000051561373,-0.05499999823992851
-0.05194459855556488,0.06272808462381363,9.746527671813965,0.01679999940097332,-0.03189999982714653,-0.06809999793767929,0.19000000119623298,0.013000000266153095,-0.006000000186975531
-0.059989117085933685,0.07083963602781296,9.759465217590332,0.00699999975040555,-0.022499999031424522,-0.048499997705221176,0.010999999647985701,-0.0269999995907449,0.12599999475508955
-0.05221274867653847,0.06289089471101761,9.768745422363281,0.016999999061226845,-0.032099999487400055,-0.03869999945163727,0.0659999978879142,-0.017999999727163266,0.14399999781730613
-0.06394433975219727,0.050412312150001526,9.748845100402832,0.007199999876320362,-0.041999999433755875,-0.06809999793767929,-0.07099999651516105,0.05300000012305109,-0.05600000063342052
-0.056484006345272064,0.06462428718805313,9.76636028289795,0.01719999872148037,-0.03199999779462814,-0.048499997705221176,0.017999999727163266,0.09999999922536333,-0.010999999647985701
-0.05104437842965126,0.0642220675945282,9.769454002380371,0.017400000244379044,-0.03199999779462814,-0.03869999945163727,0.023000000021936765,0,0.10999999647985702
-0.05582320690155029,0.07133763283491135,9.757932662963867,0.01759999990463257,-0.02199999988079071,-0.05829999968409538,0.05900000114378995,-0.12599999475508955,0.03599999945432653
-0.05493256449699402,0.06274724006652832,9.755558013916016,0.016999999061226845,-0.03179999813437462,-0.05829999968409538,-0.2039999946844815,-0.009999999755783667,-0.14300000209392072
-0.0630345419049263,0.0677846372127533,9.765900611877441,0.007199999876320362,-0.02149999886751175,-0.048499997705221176,-0.06099999926066736,0.08899999957737763,-0.07799999992939192
-0.05522944778203964,0.06717172265052795,9.767979621887207,0.007499999832361937,-0.04089999943971634,-0.048499997705221176,-0.029999998433587676,0.015999999942759198,0.10199999734224074
-0.0453844889998436,0.06494990736246109,9.75960922241211,0.026999998837709427,-0.031300000846385956,-0.048499997705221176,0.03899999996469596,0.21999999295971404,0.08899999957737763
-0.06054457277059555,0.061502255499362946,9.751296043395996,0.008100000210106373,-0.03139999881386757,-0.05829999968409538,0.07999999804626934,0.06500000216452881,0.049999999612681666
-0.06593631953001022,0.06463386863470078,9.764388084411621,0.008599999360740185,-0.03199999779462814,-0.048499997705221176,0.09000000197086964,0.046999999102312236,0.12599999475508955
-0.06593631953001022,0.06463386863470078,9.764388084411621,0.008599999360740185,-0.03199999779462814,-0.048499997705221176,0.09000000197086964,0.046999999102312236,0.12599999475508955
-0.04729985073208809,0.05379292368888855,9.759628295898438,0.028299998492002487,-0.04209999740123749,-0.048499997705221176,-0.012000000373951061,0.17799999915475526,-0.014999999216793838
-0.05441541597247124,0.06239289417862892,9.748135566711426,0.018799999728798866,-0.03219999745488167,-0.06809999793767929,-0.0269999995907449,0.03999999902313467,0.03599999945432653
-0.05499960482120514,0.05841852352023125,9.76223373413086,0.01889999955892563,-0.032099999487400055,-0.048499997705221176,-0.06899999839828364,0.18900000547284757,0.07399999702553048
-0.053112972527742386,0.06811024993658066,9.762787818908691,0.029199998825788498,-0.022099999710917473,-0.048499997705221176,0.010999999647985701,0.024000000747902123,-0.06899999839828364
-0.053112972527742386,0.06811024993658066,9.762787818908691,0.019700000062584877,-0.022199999541044235,-0.048499997705221176,0.010999999647985701,0.024000000747902123,-0.06899999839828364
-0.058543018996715546,0.07033207267522812,9.777507781982422,0.010099999606609344,-0.022599998861551285,-0.03869999945163727,0.04200000047506539,0.035000000395887826,-0.08299999855663877
-0.06980534642934799,0.061530981212854385,9.768304824829102,0.00039999998989515007,-0.03240000084042549,-0.048499997705221176,0.1830000044521087,0.37400000137172706,0.05499999823992851
-0.06980534642934799,0.061530981212854385,9.768304824829102,0.00039999998989515007,-0.03240000084042549,-0.048499997705221176,0.1830000044521087,0.37400000137172706,0.05499999823992851
-0.05381207540631294,0.08004295080900192,9.760709762573242,0.020899999886751175,-0.013299999758601189,-0.048499997705221176,-0.08299999855663877,0.0539999991814898,0.21100000476881897
-0.05476975813508034,0.07000645250082016,9.761687278747559,0.0210999995470047,-0.02290000021457672,-0.048499997705221176,0.21899999723632863,0.1729999938574018,-0.14499999354069154
-0.06002742424607277,0.0707438737154007,9.748308181762695,0.011799999512732029,-0.023899998515844345,-0.06809999793767929,0.046999999102312236,0.1830000044521087,0.09300000248123906
-0.06002742424607277,0.0707438737154007,9.748308181762695,0.011799999512732029,-0.023899998515844345,-0.06809999793767929,0.046999999102312236,0.1830000044521087,0.09300000248123906
-0.03953305631875992,0.06946057826280594,9.753220558166504,0.012399999424815178,-0.024000000208616257,-0.04839999973773956,-0.08100000043976135,-0.03100000082707969,-0.0039999999856897995
-0.06518932431936264,0.068263478577137,9.7682466506958,0.03269999846816063,-0.024000000208616257,-0.05819999799132347,0.017999999727163266,0.06299999737754478,0.16800000190026157
-0.06518932431936264,0.068263478577137,9.7682466506958,0.012999999336898327,-0.02369999885559082,-0.04839999973773956,0.017999999727163266,0.06299999737754478,0.16800000190026157
-0.062076862901449203,0.07169197499752045,9.759512901306152,0.013299999758601189,-0.024000000208616257,-0.04839999973773956,0.06800000267489824,0.17899999487814064,-0.038000000906257256
-0.060151923447847366,0.059989117085933685,9.770842552185059,0.013299999758601189,-0.024000000208616257,-0.04839999973773956,-0.05499999823992851,0.09300000248123906,-0.17899999487814064
-0.05395573005080223,0.07052360475063324,9.761639595031738,0.023799998685717583,-0.023899998515844345,-0.04839999973773956,-0.22800001210765014,0.031999999885518396,0.14799999405106096
-0.06215347722172737,0.07494808733463287,9.761993408203125,0.014099999330937862,-0.02329999953508377,-0.04839999973773956,0.03599999945432653,0.0539999991814898,0.024000000747902123
-0.06475836783647537,0.06850289553403854,9.748126029968262,0.014099999330937862,-0.02329999953508377,-0.04839999973773956,-0.0539999991814898,0.08799999718388561,-0.0269999995907449
-0.06984364986419678,0.06994900107383728,9.757214546203613,0.004699999932199717,-0.02319999970495701,-0.05819999799132347,0.1319999957758284,0.12799999954207358,0.10100000161885533
-0.05751830339431763,0.06125325709581375,9.761600494384766,0.014800000004470348,-0.033299997448921204,-0.04839999973773956,0.0019999999928448997,0.08200000283325337,0.10199999734224074
-0.043210551142692566,0.0568670779466629,9.757550239562988,0.03460000082850456,-0.04309999942779541,-0.05819999799132347,-0.04500000098543482,0.11599999750059588,-0.03400000133744912
-0.057336341589689255,0.07102160155773163,9.762654304504395,0.02499999850988388,-0.02329999953508377,-0.04839999973773956,-0.038000000906257256,-0.0659999978879142,-0.09500000059811649
-0.06223009154200554,0.06307285279035568,9.769655227661133,0.014999999664723873,-0.032899998128414154,-0.038599997758865356,0.06800000267489824,0.12100000279794933,0.20999999570522035
-0.04967489466071129,0.05502833053469658,9.75818157196045,0.02499999850988388,-0.042899999767541885,-0.05819999799132347,0.0009999999964224499,-0.1319999957758284,-0.11500000177721047
-0.06630980968475342,0.05962519720196724,9.762319564819336,0.014800000004470348,-0.032999999821186066,-0.04839999973773956,0.09399999820462447,0.18799999640924894,-0.07600000181251451
-0.06747817993164062,0.07919061183929443,9.750213623046875,0.005399999674409628,-0.013599999248981476,-0.05819999799132347,-0.06800000267489824,0.40599999792219216,-0.04200000047506539
-0.06218220666050911,0.05864836648106575,9.758661270141602,0.01640000008046627,-0.032999999821186066,-0.05819999799132347,0.21899999723632863,-0.049999999612681666,0.20200000323771067
-0.05666596442461014,0.05938578024506569,9.769099235534668,0.025999998673796654,-0.033799998462200165,-0.038599997758865356,0.25299999857377775,0.28499999512424284,0.02800000031671026
-0.058973975479602814,0.06748775392770767,9.76925277709961,0.01679999940097332,-0.02449999935925007,-0.038599997758865356,0.05999999686717535,0.12299999424472013,0.17899999487814064
-0.054894257336854935,0.06395391374826431,9.76113224029541,0.026899999007582664,-0.03439999744296074,-0.04839999973773956,0.16800000190026157,0.17599999436777122,0.10600000024610218
-0.05085284262895584,0.06744945049285889,9.761476516723633,0.027300000190734863,-0.02499999850988388,-0.04839999973773956,-0.05300000012305109,0.0749999994190225,-0.04900000055424296
-0.06235458701848984,0.06002742424607277,9.758689880371094,0.01769999973475933,-0.03460000082850456,-0.05819999799132347,0.01400000015835513,0.17700000343136985,-0.1849999958988795
-0.07130890339612961,0.07304230332374573,9.76094913482666,0.008499999530613422,-0.024799998849630356,-0.04839999973773956,0.26500000061525547,0.2800000031671026,0.18600000496247812
-0.06251739710569382,0.0698915347456932,9.771819114685059,0.01899999938905239,-0.025499999523162842,-0.04839999973773956,-0.09600000299160849,0.12400000330831876,0.05999999686717535
-0.0651605874300003,0.05642654374241829,9.768553733825684,0.019099999219179153,-0.045099999755620956,-0.038599997758865356,-0.12100000279794933,0.05099999867112037,-0.024000000747902123
-0.0651605874300003,0.05642654374241829,9.768553733825684,0.019099999219179153,-0.045099999755620956,-0.038599997758865356,-0.12100000279794933,0.05099999867112037,-0.024000000747902123
-0.04837245121598244,0.07264965772628784,9.757157325744629,0.02889999933540821,-0.02499999850988388,-0.05819999799132347,0.25299999857377775,0.19600000221697184,0.06099999926066736
-0.06056372448801994,0.06748775392770767,9.768065452575684,0.019500000402331352,-0.025599999353289604,-0.04839999973773956,-0.19999999845072666,0.024000000747902123,0.1419999930303221
-0.05564124509692192,0.05377376824617386,9.764445304870605,0.029399998486042023,-0.044599998742341995,-0.04839999973773956,0.014999999216793838,0.048000001495804245,-0.04200000047506539
-0.05533478781580925,0.06314946711063385,9.762032508850098,0.029399998486042023,-0.044599998742341995,-0.04839999973773956,-0.05499999823992851,0.04200000047506539,0.1610000051561373
-0.05467398837208748,0.06028600037097931,9.750299453735352,0.029500000178813934,-0.03460000082850456,-0.05819999799132347,-0.03100000082707969,0.16400000566650674,0.043999998591942806
-0.06416460126638412,0.06242162734270096,9.766350746154785,0.029999999329447746,-0.02459999918937683,-0.05819999799132347,-0.05799999875029794,0.14300000209392072,-0.0749999994190225
-0.054396264255046844,0.06538085639476776,9.756420135498047,0.03150000050663948,-0.03439999744296074,-0.05819999799132347,0.05300000012305109,0.17100000241063099,0.1079999983629796
-0.05211698263883591,0.06661626696586609,9.768515586853027,0.03189999982714653,-0.034699998795986176,-0.038599997758865356,0.03699999851276524,0.16400000566650674,0.15599999985878385
-0.05211698263883591,0.06661626696586609,9.768515586853027,0.03189999982714653,-0.034699998795986176,-0.038599997758865356,0.03699999851276524,0.16400000566650674,0.15599999985878385
-0.06375280022621155,0.07150044292211533,9.755902290344238,0.02290000021457672,-0.024799998849630356,-0.05819999799132347,-0.13600000534979648,0.10400000212922476,0.021000000237532696
-0.060429647564888,0.068263478577137,9.760920524597168,0.02290000021457672,-0.024799998849630356,-0.05819999799132347,0.04900000055424296,0.14399999781730613,0.1199999937343507
-0.057355497032403946,0.06916369497776031,9.749639511108398,0.03319999948143959,-0.024399999529123306,-0.05819999799132347,0.01400000015835513,0.16800000190026157,-0.08499999667351618
-0.06408798694610596,0.06289089471101761,9.768372535705566,0.023799998685717583,-0.034199997782707214,-0.038599997758865356,-0.015999999942759198,-0.06500000216452881,0.07300000130214508
-0.06408798694610596,0.06289089471101761,9.768372535705566,0.023799998685717583,-0.034199997782707214,-0.038599997758865356,-0.015999999942759198,-0.06500000216452881,0.07300000130214508
-0.061176642775535583,0.07486189901828766,9.758794784545898,0.023599999025464058,-0.02419999986886978,-0.04839999973773956,0.0429999995335041,0.05900000114378995,0.03400000133744912
-0.05929001420736313,0.057853490114212036,9.755778312683105,0.023599999025464058,-0.02419999986886978,-0.04839999973773956,0.1729999938574018,0.09999999922536333,0.23099998593759313
-0.05761406943202019,0.07504386454820633,9.755845069885254,0.024000000208616257,-0.024699999019503593,-0.05819999799132347,0.1749999986443858,0.02600000053230619,0.22700000304405152
-0.05978800728917122,0.06831136345863342,9.75251293182373,0.02410000003874302,-0.025200000032782555,-0.05819999799132347,0.08200000283325337,0.05600000063342052,0.1189999980109653
-0.05197333171963692,0.07004476338624954,9.761322975158691,0.02410000003874302,-0.025200000032782555,-0.05819999799132347,0.04500000098543482,0.05799999875029794,-0.12400000330831876
-0.06915412098169327,0.06827305257320404,9.771522521972656,0.014499999582767487,-0.02539999969303608,-0.03849999979138374,0,0.09600000299160849,0.10299999973573276
-0.06418376415967941,0.06941269338130951,9.775296211242676,0.02449999935925007,-0.025299999862909317,-0.03849999979138374,0.2499999980634083,0.18199999538851008,0.08499999667351618
-0.06358999758958817,0.07648037374019623,9.753767013549805,0.024899998679757118,-0.02589999884366989,-0.05810000002384186,0.09399999820462447,0.29500000571894974,0.1509999945614304
-0.06479667872190475,0.07269754260778427,9.75649642944336,0.02589999884366989,-0.026200000196695328,-0.05810000002384186,0.019999999511567335,0.031999999885518396,0.08499999667351618
-0.051647718995809555,0.05156152695417404,9.763056755065918,0.0357000008225441,-0.04580000042915344,-0.04829999804496765,0,0.004999999877891834,-0.004999999877891834
-0.06051584333181381,0.060228537768125534,9.756410598754883,0.02589999884366989,-0.03590000048279762,-0.05810000002384186,-0.09200000008774706,-0.0019999999928448997,-0.0429999995335041
-0.04792233929038048,0.07386591285467148,9.761887550354004,0.035599999129772186,-0.025699999183416367,-0.04829999804496765,-0.14900000311465958,0.057000003026912535,0.023000000021936765
-0.07385633140802383,0.07271669805049896,9.751755714416504,0.016099998727440834,-0.025299999862909317,-0.05810000002384186,-0.1390000058601659,0.05300000012305109,-0.021000000237532696
-0.06237374246120453,0.06302496790885925,9.752110481262207,0.025999998673796654,-0.034699998795986176,-0.05810000002384186,-0.07799999992939192,0.11200000126684104,-0.13000000432905762
-0.05597643554210663,0.06309200078248978,9.769721984863281,0.03610000014305115,-0.034299999475479126,-0.03849999979138374,-0.024000000747902123,-0.07600000181251451,0.035000000395887826
-0.06430825591087341,0.07627926766872406,9.76269245147705,0.026099998503923416,-0.024399999529123306,-0.04829999804496765,-0.008999999863581633,0.15200000362502902,0.1070000026395942
-0.06089891493320465,0.07171113044023514,9.752761840820312,0.026499999687075615,-0.024299999698996544,-0.05810000002384186,0.15999999609253868,0.009999999755783667,-0.08899999957737763
-0.057527877390384674,0.07236234843730927,9.75370979309082,0.026399999856948853,-0.02459999918937683,-0.05810000002384186,-0.04200000047506539,0.008999999863581633,0.008999999863581633
-0.05744168907403946,0.07327214628458023,9.753863334655762,0.03619999811053276,-0.02449999935925007,-0.05810000002384186,-0.02899999937514897,0.2039999946844815,0.15599999985878385
-0.054511185735464096,0.06451894342899323,9.767414093017578,0.03689999878406525,-0.0340999998152256,-0.04829999804496765,0.0009999999964224499,0.024999999806340833,0.04900000055424296
-0.056742578744888306,0.06475836783647537,9.760767936706543,0.03680000081658363,-0.0340999998152256,-0.04829999804496765,-0.15200000362502902,0.20800000425844953,0.008999999863581633
-0.05578489974141121,0.059539008885622025,9.75730037689209,0.03749999776482582,-0.03359999880194664,-0.05810000002384186,-0.16699999283666295,0.13300000483942703,0.0019999999928448997
-0.04748180881142616,0.055392250418663025,9.758268356323242,0.04749999940395355,-0.042899999767541885,-0.05810000002384186,0.1419999930303221,0.1319999957758284,0.2589999995945166
-0.060534995049238205,0.06147352233529091,9.767289161682129,0.028299998492002487,-0.033399999141693115,-0.04829999804496765,0.24899998899980968,0.15900000036915327,0.12599999475508955
-0.0537833496928215,0.06833051145076752,9.760969161987305,0.038599997758865356,-0.024399999529123306,-0.04829999804496765,0.03400000133744912,0.13700000107318186,0.013000000266153095
-0.04900452122092247,0.06070737913250923,9.744343757629395,0.03879999741911888,-0.034199997782707214,-0.06790000200271606,0.029999998433587676,0.13000000432905762,-0.049999999612681666
-0.06052541732788086,0.06021896004676819,9.759321212768555,0.02929999865591526,-0.034199997782707214,-0.04829999804496765,-0.023000000021936765,0.07600000181251451,-0.15900000036915327
-0.06051584333181381,0.06097552925348282,9.773207664489746,0.029399998486042023,-0.0340999998152256,-0.03849999979138374,-0.14699999832767557,0.01400000015835513,0.014999999216793838
-0.05801629647612572,0.06170336529612541,9.755414009094238,0.029399998486042023,-0.03359999880194664,-0.05810000002384186,-0.023000000021936765,-0.007999999971379599,-0.09500000059811649
-0.04784572497010231,0.05938578024506569,9.768132209777832,0.048899997025728226,-0.033399999141693115,-0.04829999804496765,-0.10600000024610218,0,-0.0009999999964224499
-0.056790463626384735,0.059108052402734756,9.756247520446777,0.039000000804662704,-0.03309999778866768,-0.05810000002384186,0.004999999877891834,0.1529999993484144,-0.15200000362502902
-0.05333323776721954,0.06191405653953552,9.765153884887695,0.03969999775290489,-0.032899998128414154,-0.04829999804496765,-0.2140000052791884,0.20599999947146552,0.11400000605382507
-0.06192363426089287,0.05459737405180931,9.766905784606934,0.030399998649954796,-0.04209999740123749,-0.04829999804496765,0.14600000260429016,0.10199999734224074,0.23000000355442093
-0.06192363426089287,0.05459737405180931,9.766905784606934,0.030399998649954796,-0.04209999740123749,-0.04829999804496765,0.14600000260429016,0.10199999734224074,0.23000000355442093
-0.06045838072896004,0.06465302407741547,9.764809608459473,0.030799999833106995,-0.02290000021457672,-0.05810000002384186,0.11500000177721047,0.23300000406479038,0.12100000279794933
-0.06026684492826462,0.07633672654628754,9.754283905029297,0.03059999831020832,-0.03219999745488167,-0.04829999804496765,-0.012000000373951061,0.1930000017066024,0.28600000418784144
-0.07296568900346756,0.0719313994050026,9.758238792419434,0.021900000050663948,-0.022599998861551285,-0.05810000002384186,0.038000000906257256,0.08100000043976135,0.06700000028140622
-0.05969223752617836,0.06379111111164093,9.75806713104248,0.03189999982714653,-0.03240000084042549,-0.05810000002384186,0.0019999999928448997,0.15999999609253868,0.0429999995335041
-0.0581790991127491,0.06775590777397156,9.771446228027344,0.03189999982714653,-0.03240000084042549,-0.05810000002384186,0.15500000413539844,0.10100000161885533,0.07600000181251451
-0.05657019838690758,0.08055052161216736,9.759886741638184,0.0421999990940094,-0.013100000098347664,-0.04829999804496765,0.10400000212922476,0.0019999999928448997,-0.07199999890865307
-0.05751830339431763,0.0664534643292427,9.748193740844727,0.03240000084042549,-0.032899998128414154,-0.06790000200271606,0.11699999322398127,0.11699999322398127,0.05600000063342052
-0.049301404505968094,0.07954496145248413,9.761917114257812,0.04230000078678131,-0.013499999418854713,-0.04829999804496765,0.03899999996469596,0.1610000051561373,0.08400000095013078
-0.05971139296889305,0.05644569918513298,9.763315200805664,0.032899998128414154,-0.042899999767541885,-0.04829999804496765,0.0030000000934877653,0.0429999995335041,0.009999999755783667
-0.05054638534784317,0.06710468232631683,9.76357364654541,0.04270000010728836,-0.02329999953508377,-0.04829999804496765,-0.07699999753589991,0.15900000036915327,0.008999999863581633
-0.06725791096687317,0.06961380690336227,9.74428653717041,0.023399999365210533,-0.023000000044703484,-0.06790000200271606,-0.017999999727163266,0.1070000026395942,-0.01400000015835513
-0.04897578805685043,0.0646817535161972,9.764809608459473,0.04319999739527702,-0.03269999846816063,-0.04829999804496765,0.03100000082707969,0.048000001495804245,0.18900000547284757
-0.05412811413407326,0.05800671875476837,9.753824234008789,0.04319999739527702,-0.03269999846816063,-0.05810000002384186,-0.02600000053230619,0.024000000747902123,-0.10100000161885533
-0.05151364579796791,0.06321649998426437,9.76673412322998,0.04230000078678131,-0.03179999813437462,-0.04829999804496765,0,0.21800000151294321,-0.06500000216452881
-0.05472187325358391,0.05540182814002037,9.760623931884766,0.041200000792741776,-0.03989999741315842,-0.04829999804496765,0.09500000059811649,0.149999998838045,-0.057000003026912535
-0.04879382997751236,0.06353253871202469,9.762136459350586,0.040699999779462814,-0.02969999983906746,-0.04829999804496765,-0.038000000906257256,0.1079999983629796,0.05099999867112037
-0.04879382997751236,0.06353253871202469,9.762136459350586,0.040699999779462814,-0.02969999983906746,-0.04829999804496765,-0.038000000906257256,0.1079999983629796,0.05099999867112037
-0.059366628527641296,0.06986280530691147,9.746641159057617,0.030499998480081558,-0.02889999933540821,-0.04829999804496765,-0.09000000197086964,0.21899999723632863,-0.007000000079177565
-0.05162856727838516,0.0776008665561676,9.766916275024414,0.04079999774694443,-0.008799999952316284,-0.04829999804496765,0.03699999851276524,-0.07099999651516105,0.035000000395887826
-0.053065087646245956,0.06263231486082077,9.747015953063965,0.04050000011920929,-0.02850000001490116,-0.06799999624490738,0.2250000115972807,0.08100000043976135,0.14399999781730613
-0.0547410286962986,0.05763322487473488,9.754570960998535,0.04079999774694443,-0.029099998995661736,-0.05819999799132347,-0.08200000283325337,-0.057000003026912535,0.049999999612681666
-0.05992208048701286,0.06110960245132446,9.767816543579102,0.030799999833106995,-0.02889999933540821,-0.04829999804496765,-0.05200000106461238,-0.0019999999928448997,-0.012000000373951061
-0.056244585663080215,0.05976885184645653,9.767097473144531,0.04050000011920929,-0.028599999845027924,-0.04839999973773956,0.15399999507179982,0.18199999538851008,0.2899999870813831
-0.05436753109097481,0.06104256957769394,9.758918762207031,0.041099999099969864,-0.029099998995661736,-0.04829999804496765,0.17799999915475526,0.12799999954207358,0.05099999867112037
-0.05433880165219307,0.06975746154785156,9.75081729888916,0.04129999876022339,-0.019600000232458115,-0.05810000002384186,-0.11599999750059588,0.03400000133744912,-0.10900000075647161
-0.05316085368394852,0.059366628527641296,9.764780044555664,0.041200000792741776,-0.028999999165534973,-0.04829999804496765,-0.05499999823992851,-0.10600000024610218,-0.03999999902313467
-0.050249505788087845,0.06922116130590439,9.756093978881836,0.04089999943971634,-0.01899999938905239,-0.05819999799132347,0.15800000464576788,0.04500000098543482,0.28600000418784144
-0.05205952003598213,0.07711245119571686,9.744544982910156,0.04099999740719795,-0.009599999524652958,-0.06799999624490738,-0.10199999734224074,0.03100000082707969,-0.05600000063342052
-0.058092910796403885,0.06075526028871536,9.773839950561523,0.031199999153614044,-0.02879999950528145,-0.03849999979138374,-0.08499999667351618,-0.07000000079177565,-0.05499999823992851
-0.059778425842523575,0.07410532981157303,9.769932746887207,0.03099999949336052,-0.018699999898672104,-0.03849999979138374,0.017999999727163266,0.23199999500119176,0.10199999734224074
-0.05334281548857689,0.0688285157084465,9.753479957580566,0.04149999842047691,-0.018699999898672104,-0.05810000002384186,0.017999999727163266,0.13400000056281244,-0.07399999702553048
-0.04803726077079773,0.05843767523765564,9.76766300201416,0.03199999779462814,-0.03830000013113022,-0.05810000002384186,0.13100000005244303,-0.15699999558216926,-0.0030000000934877653
-0.04803726077079773,0.05843767523765564,9.76766300201416,0.041200000792741776,-0.02879999950528145,-0.04829999804496765,0.1189999980109653,0.021000000237532696,-0.10999999647985702
-0.05791094899177551,0.0773901715874672,9.75410270690918,0.031300000846385956,-0.009499999694526196,-0.05810000002384186,-0.07999999804626934,0.0749999994190225,-0.08299999855663877
-0.06295792758464813,0.06748775392770767,9.759915351867676,0.03139999881386757,-0.01899999938905239,-0.04829999804496765,0.12799999954207358,0.12199999852133472,0.04600000004387353
-0.05104437842965126,0.06737283617258072,9.746977806091309,0.04169999808073044,-0.019500000402331352,-0.06790000200271606,0.021000000237532696,0.10400000212922476,-0.03400000133744912
-0.05104437842965126,0.06737283617258072,9.746977806091309,0.04169999808073044,-0.019500000402331352,-0.06790000200271606,0.021000000237532696,0.10400000212922476,-0.03400000133744912
-0.06165548413991928,0.0637432262301445,9.764608383178711,0.03219999745488167,-0.029399998486042023,-0.04829999804496765,0.1620000008795227,0.15500000413539844,0.21999999295971404
-0.06165548413991928,0.0637432262301445,9.764608383178711,0.03219999745488167,-0.029399998486042023,-0.04829999804496765,0.1620000008795227,0.15500000413539844,0.21999999295971404
-0.06421248614788055,0.07292738556861877,9.772269248962402,0.03240000084042549,-0.020099999383091927,-0.03849999979138374,-0.1719999981340164,0.06800000267489824,0.19699999794035722
-0.04165910929441452,0.06318777054548264,9.761370658874512,0.05219999700784683,-0.029399998486042023,-0.04829999804496765,0.017999999727163266,0.15599999985878385,0.06800000267489824
-0.04241567477583885,0.06733452528715134,9.773419380187988,0.03309999778866768,-0.019600000232458115,-0.05810000002384186,-0.017999999727163266,0.017999999727163266,-0.05099999867112037
-0.07196012884378433,0.059041015803813934,9.769243240356445,0.02290000021457672,-0.028699999675154686,-0.03849999979138374,-0.08799999718388561,0.09200000008774706,-0.08799999718388561
-0.05384080857038498,0.06712383776903152,9.766274452209473,0.04259999841451645,-0.01860000006854534,-0.04829999804496765,0.26000000865811523,0,0.1180000022875799
-0.05885905399918556,0.062498241662979126,9.765507698059082,0.03280000016093254,-0.029099998995661736,-0.04829999804496765,0.021999999295971403,-0.07699999753589991,0.21800000151294321
-0.05969223752617836,0.06712383776903152,9.75663948059082,0.032600000500679016,-0.01939999870955944,-0.05810000002384186,0.10499999785261017,0.2150000010025738,0.28199999461387343
-0.04955997318029404,0.049607861787080765,9.768342971801758,0.042899999767541885,-0.03909999877214432,-0.03849999979138374,-0.09500000059811649,0.13300000483942703,-0.1400000015835513
-0.06870400905609131,0.06797617673873901,9.763832092285156,0.023599999025464058,-0.019199999049305916,-0.04829999804496765,0.019999999511567335,0.0039999999856897995,-0.1419999930303221
-0.057547032833099365,0.060841452330350876,9.771915435791016,0.033299997448921204,-0.02889999933540821,-0.03849999979138374,0.2469999975530389,0.16999999334703236,0.1610000051561373
-0.06323565542697906,0.05300762504339218,9.772863388061523,0.033799998462200165,-0.039400000125169754,-0.03849999979138374,-0.04200000047506539,0.09999999922536333,-0.021999999295971403
-0.05377376824617386,0.07057148963212967,9.760442733764648,0.043800000101327896,-0.019600000232458115,-0.04829999804496765,0.1070000026395942,0.1319999957758284,-0.041000001416626686
-0.05862921103835106,0.07289864867925644,9.765077590942383,0.034199997782707214,-0.019700000062584877,-0.04829999804496765,-0.03899999996469596,0.02600000053230619,0.0329999989439571
-0.05040273442864418,0.07083963602781296,9.75779914855957,0.04389999806880951,-0.019500000402331352,-0.05810000002384186,-0.05900000114378995,-0.16899999762364695,-0.10100000161885533
-0.06899131834506989,0.06366661190986633,9.771340370178223,0.03359999880194664,-0.03889999911189079,-0.05810000002384186,0.007999999971379599,0.043999998591942806,0.03400000133744912
-0.06899131834506989,0.06366661190986633,9.771340370178223,0.024799998849630356,-0.029199998825788498,-0.03849999979138374,0.007999999971379599,0.043999998591942806,0.03400000133744912
-0.05025908350944519,0.06270892918109894,9.758354187011719,0.044499997049570084,-0.029099998995661736,-0.05810000002384186,0.01400000015835513,0.18700000068586353,-0.01400000015835513
-0.05388868972659111,0.07187393307685852,9.769338607788086,0.04490000009536743,-0.019500000402331352,-0.03849999979138374,-0.0429999995335041,0.1419999930303221,0.03899999996469596
-0.05388868972659111,0.07187393307685852,9.769338607788086,0.04490000009536743,-0.019500000402331352,-0.03849999979138374,-0.0429999995335041,0.1419999930303221,0.03899999996469596
-0.06502652168273926,0.06465302407741547,9.760910987854004,0.03529999777674675,-0.029099998995661736,-0.04829999804496765,0.08400000095013078,0.0269999995907449,-0.0749999994190225
-0.05829402059316635,0.07326257228851318,9.753172874450684,0.03579999879002571,-0.01939999870955944,-0.05810000002384186,0.02800000031671026,0.09500000059811649,-0.07300000130214508
-0.05829402059316635,0.07326257228851318,9.753172874450684,0.03579999879002571,-0.01939999870955944,-0.05810000002384186,0.02800000031671026,0.09500000059811649,-0.07300000130214508
-0.06784210354089737,0.06102341413497925,9.763640403747559,0.026200000196695328,-0.029099998995661736,-0.04829999804496765,0,0.12700000381868817,0.04600000004387353
-0.06111918389797211,0.06241204962134361,9.760116577148438,0.03619999811053276,-0.029099998995661736,-0.04829999804496765,0.149999998838045,0.07199999890865307,0.019999999511567335
-0.058763287961483,0.0651605874300003,9.760231018066406,0.03629999980330467,-0.029399998486042023,-0.04829999804496765,0.04600000004387353,0.23000000355442093,0.07699999753589991
-0.06071695312857628,0.06618531048297882,9.767404556274414,0.03709999844431877,-0.029500000178813934,-0.04829999804496765,0.20899999998183494,0.031999999885518396,0.09999999922536333
-0.05154237523674965,0.07106947898864746,9.766819953918457,0.03720000013709068,-0.029899999499320984,-0.04829999804496765,0.007999999971379599,0.20800000425844953,0.08499999667351618
-0.05154237523674965,0.07106947898864746,9.766819953918457,0.04739999771118164,-0.019899999722838402,-0.04829999804496765,0.007999999971379599,0.20800000425844953,0.08499999667351618
-0.055842362344264984,0.05491340905427933,9.756266593933105,0.04829999804496765,-0.03989999741315842,-0.05810000002384186,0.017999999727163266,0.019000000453128628,0.05200000106461238
-0.055842362344264984,0.05491340905427933,9.756266593933105,0.04829999804496765,-0.03989999741315842,-0.05810000002384186,0.017999999727163266,0.019000000453128628,0.05200000106461238
-0.06087975949048996,0.06823474913835526,9.770861625671387,0.04820000007748604,-0.029999999329447746,-0.04829999804496765,-0.03400000133744912,0.057000003026912535,0.07699999753589991
-0.05175306275486946,0.06696103513240814,9.755165100097656,0.03830000013113022,-0.020499998703598976,-0.03849999979138374,-0.15800000464576788,0.24299998797907083,0.25599999908414717
-0.057451263070106506,0.06171294301748276,9.757559776306152,0.0486999973654747,-0.02969999983906746,-0.05810000002384186,-0.023000000021936765,0.12299999424472013,0.2909999961449817
-0.058207832276821136,0.06732495129108429,9.761917114257812,0.03929999843239784,-0.01979999989271164,-0.04829999804496765,-0.0329999989439571,0.11200000126684104,-0.029999998433587676
-0.05914635956287384,0.06353253871202469,9.751679420471191,0.03949999809265137,-0.029399998486042023,-0.05810000002384186,0.0009999999964224499,0.09600000299160849,0.06800000267489824
-0.05586151406168938,0.06412629783153534,9.759954452514648,0.03959999978542328,-0.02929999865591526,-0.05810000002384186,0.17400000292100043,-0.04200000047506539,-0.004999999877891834
-0.05586151406168938,0.06412629783153534,9.759954452514648,0.04959999769926071,-0.02889999933540821,-0.04829999804496765,0.17400000292100043,-0.04200000047506539,-0.004999999877891834
-0.058475982397794724,0.06383899599313736,9.759360313415527,0.03959999978542328,-0.029199998825788498,-0.04829999804496765,0.0859999990670082,0.1180000022875799,0.12299999424472013
-0.05272989720106125,0.06344634294509888,9.757713317871094,0.04959999769926071,-0.02929999865591526,-0.05810000002384186,0.0969999987149939,0.24200000559589865,-0.19000000119623298
-0.06420291215181351,0.06073610857129097,9.766791343688965,0.04079999774694443,-0.02979999966919422,-0.04829999804496765,-0.08499999667351618,0.10400000212922476,0.024000000747902123
-0.060918066650629044,0.06706637889146805,9.763879776000977,0.04079999774694443,-0.02979999966919422,-0.04829999804496765,0.23000000355442093,-0.02899999937514897,-0.08100000043976135
-0.05369715392589569,0.06287173926830292,9.77104377746582,0.05069999769330025,-0.029999999329447746,-0.03839999809861183,-0.048000001495804245,0.2159999967259592,0.06800000267489824
-0.049512092024087906,0.06831136345863342,9.751928329467773,0.05130000039935112,-0.019999999552965164,-0.05810000002384186,0.22800001210765014,-0.048000001495804245,0.19600000221697184
-0.05336196720600128,0.07573339343070984,9.735637664794922,0.05130000039935112,-0.019999999552965164,-0.05810000002384186,0.11200000126684104,0.09399999820462447,0.10400000212922476
-0.06156928837299347,0.07194097340106964,9.76673412322998,0.0414000004529953,-0.020899999886751175,-0.04820000007748604,0.08400000095013078,0.17599999436777122,0.1189999980109653
-0.06662584841251373,0.0698915347456932,9.761265754699707,0.04179999977350235,-0.0210999995470047,-0.04820000007748604,0.05499999823992851,0.23900000508552924,0.09600000299160849
-0.0581790991127491,0.07748594880104065,9.770506858825684,0.042399998754262924,-0.011399999260902405,-0.03839999809861183,0.15699999558216926,0.04200000047506539,0.1400000015835513
-0.053831230849027634,0.06937438994646072,9.757290840148926,0.05209999904036522,-0.02149999886751175,-0.057999998331069946,-0.2159999967259592,0.06700000028140622,-0.10299999973573276
-0.05716396123170853,0.0656394362449646,9.776166915893555,0.052400000393390656,-0.03059999831020832,-0.03839999809861183,0.03100000082707969,0.04200000047506539,-0.0659999978879142
-0.05476018041372299,0.06500735878944397,9.760988235473633,0.052299998700618744,-0.030499998480081558,-0.04820000007748604,0.15599999985878385,0.09500000059811649,0.2289999944908223
-0.06056372448801994,0.06829220801591873,9.76242446899414,0.042899999767541885,-0.0210999995470047,-0.04820000007748604,0.19600000221697184,0.1390000058601659,0.03400000133744912
-0.06237374246120453,0.057709839195013046,9.761408805847168,0.043299999088048935,-0.03139999881386757,-0.04820000007748604,0.1400000015835513,0.06099999926066736,-0.09600000299160849
-0.05301720276474953,0.06614699959754944,9.759504318237305,0.05309999734163284,-0.03179999813437462,-0.04820000007748604,-0.0269999995907449,0.09600000299160849,-0.03999999902313467
-0.0617225207388401,0.061626750975847244,9.764971733093262,0.043299999088048935,-0.031599998474121094,-0.04820000007748604,0.0539999991814898,0.11599999750059588,-0.0429999995335041
-0.07065768539905548,0.06139690801501274,9.745234489440918,0.033799998462200165,-0.031700000166893005,-0.06780000030994415,0.01400000015835513,-0.06899999839828364,0.1180000022875799
-0.05875370651483536,0.060487110167741776,9.758344650268555,0.043299999088048935,-0.031599998474121094,-0.057999998331069946,0.043999998591942806,0.16800000190026157,0.3339999856733259
-0.06775590777397156,0.06259401142597198,9.760767936706543,0.033900000154972076,-0.031700000166893005,-0.04820000007748604,-0.008999999863581633,0.08400000095013078,0.06899999839828364
-0.0573459193110466,0.062172628939151764,9.774194717407227,0.053599998354911804,-0.03150000050663948,-0.03839999809861183,-0.06299999737754478,0.1390000058601659,0.009999999755783667
-0.06706637889146805,0.06391561031341553,9.755165100097656,0.034199997782707214,-0.031300000846385956,-0.057999998331069946,0.06099999926066736,0.04600000004387353,0.04200000047506539
-0.07134721428155899,0.06791871786117554,9.772375106811523,0.034199997782707214,-0.02149999886751175,-0.03839999809861183,-0.0039999999856897995,0.2050000037480801,0.048000001495804245
-0.05379292368888855,0.05623500794172287,9.771215438842773,0.054099999368190765,-0.04099999740719795,-0.03839999809861183,0.12499999903170415,-0.0969999987149939,0.13300000483942703
-0.0547410286962986,0.0675356462597847,9.76500129699707,0.053599998354911804,-0.02159999869763851,-0.04820000007748604,0.03999999902313467,0.06500000216452881,0.008999999863581633
-0.055583786219358444,0.0716823935508728,9.761514663696289,0.053599998354911804,-0.021699998527765274,-0.04820000007748604,-0.03699999851276524,0.08499999667351618,0.13600000534979648
-0.07881712168455124,0.062028978019952774,9.757377624511719,0.024799998849630356,-0.03150000050663948,-0.057999998331069946,0.1830000044521087,0.07600000181251451,-0.05900000114378995
-0.059299588203430176,0.05547844246029854,9.756295204162598,0.044499997049570084,-0.041600000113248825,-0.057999998331069946,-0.015999999942759198,0.3190000098019052,-0.07300000130214508
-0.06371449679136276,0.062383320182561874,9.750387191772461,0.04529999941587448,-0.031700000166893005,-0.057999998331069946,-0.014999999216793838,0.01700000066872456,0.05499999823992851
-0.05521029233932495,0.06867528706789017,9.76025104522705,0.06480000168085098,-0.021800000220537186,-0.04820000007748604,0.10299999973573276,0.0030000000934877653,-0.07300000130214508
-0.05521029233932495,0.06867528706789017,9.76025104522705,0.05480000004172325,-0.021399999037384987,-0.04820000007748604,0.10299999973573276,0.0030000000934877653,-0.07300000130214508
-0.06696103513240814,0.054827217012643814,9.772805213928223,0.04470000043511391,-0.04129999876022339,-0.03839999809861183,-0.010999999647985701,0.1400000015835513,0.13799999679656727
-0.07403828948736191,0.06602250784635544,9.761150360107422,0.04470000043511391,-0.04129999876022339,-0.03839999809861183,-0.07799999992939192,0.0749999994190225,0.06399999977103679
-0.07403828948736191,0.06602250784635544,9.761150360107422,0.03519999980926514,-0.031300000846385956,-0.04820000007748604,-0.07799999992939192,0.0749999994190225,0.06399999977103679
-0.06256527453660965,0.06316861510276794,9.764368057250977,0.045099999755620956,-0.021199999377131462,-0.04820000007748604,-0.01400000015835513,0.04900000055424296,-0.03999999902313467
-0.06559155136346817,0.06200982257723808,9.769186019897461,0.045099999755620956,-0.03059999831020832,-0.04820000007748604,-0.07600000181251451,0.12400000330831876,-0.08799999718388561
-0.06769844889640808,0.0657447800040245,9.77312183380127,0.03529999777674675,-0.03009999915957451,-0.03839999809861183,0.07000000079177565,0.18900000547284757,0.13000000432905762
-0.06424121558666229,0.06309200078248978,9.747542381286621,0.04559999704360962,-0.030299998819828033,-0.06780000030994415,0.017999999727163266,-0.07000000079177565,0.08700000146050021
-0.07819462567567825,0.07369352877140045,9.763228416442871,0.04559999704360962,-0.030299998819828033,-0.06780000030994415,-0.13400000056281244,0.1199999937343507,0.057000003026912535
-0.06497863680124283,0.0725155770778656,9.775716781616211,0.045399997383356094,-0.019999999552965164,-0.03839999809861183,0.07900000232288394,0.11599999750059588,0.05499999823992851
-0.05647442862391472,0.06784210354089737,9.753096580505371,0.045399997383356094,-0.019999999552965164,-0.03839999809861183,0.1419999930303221,0.08200000283325337,0.06299999737754478
-0.05992208048701286,0.06747817993164062,9.757041931152344,0.04559999704360962,-0.020399998873472214,-0.057999998331069946,0.08400000095013078,0.1199999937343507,0.1729999938574018
-0.05493256449699402,0.07386591285467148,9.754437446594238,0.05549999698996544,-0.020600000396370888,-0.057999998331069946,0.08100000043976135,0.20800000425844953,-0.33300000329015367
-0.0531991608440876,0.07943003624677658,9.768218994140625,0.056199997663497925,-0.010999999940395355,-0.04820000007748604,0.0039999999856897995,0.128999995265459,0.08100000043976135
-0.06475836783647537,0.058543018996715546,9.758832931518555,0.04649999737739563,-0.030499998480081558,-0.04820000007748604,-0.10199999734224074,0.05499999823992851,0.0539999991814898
-0.05841852352023125,0.06060203164815903,9.765632629394531,0.04649999737739563,-0.03009999915957451,-0.04820000007748604,0.08499999667351618,0.30799999014359963,0.1930000017066024
-0.06972873210906982,0.05930916592478752,9.751363754272461,0.03739999979734421,-0.030299998819828033,-0.057999998331069946,-0.009999999755783667,0.0269999995907449,0.06399999977103679
-0.04996220022439957,0.07312849164009094,9.748605728149414,0.05700000002980232,-0.020399998873472214,-0.06780000030994415,0.10499999785261017,0.02899999937514897,0.22800001210765014
-0.061837442219257355,0.06449022144079208,9.754570960998535,0.047199998050928116,-0.030499998480081558,-0.057999998331069946,0.06200000165415938,0.07399999702553048,0.007000000079177565
-0.06618531048297882,0.06635769456624985,9.77022933959961,0.047199998050928116,-0.030499998480081558,-0.03839999809861183,0.06700000028140622,0.10900000075647161,0.20999999570522035
-0.053448159247636795,0.06617573648691177,9.766772270202637,0.05729999765753746,-0.030700000002980232,-0.04820000007748604,-0.13300000483942703,0.03400000133744912,0.17599999436777122
-0.06879020482301712,0.07273584604263306,9.752981185913086,0.037699997425079346,-0.020499998703598976,-0.057999998331069946,-0.024000000747902123,-0.01400000015835513,0.2740000021463637
-0.05554547905921936,0.0693265050649643,9.748834609985352,0.05719999969005585,-0.020399998873472214,-0.06780000030994415,-0.021000000237532696,-0.10400000212922476,-0.08700000146050021
-0.055152833461761475,0.07166324555873871,9.768850326538086,0.056599996984004974,-0.02019999921321869,-0.03839999809861183,-0.0749999994190225,0,0.14799999405106096
-0.06057330220937729,0.06064033880829811,9.760652542114258,0.04659999907016754,-0.02969999983906746,-0.04820000007748604,0.06099999926066736,0.19499999315337319,0.21800000151294321
-0.04962701350450516,0.0664534643292427,9.773935317993164,0.05700000002980232,-0.029899999499320984,-0.03839999809861183,-0.007999999971379599,0.14399999781730613,-0.01700000066872456
-0.05156152695417404,0.06494990736246109,9.76489543914795,0.057099997997283936,-0.02979999966919422,-0.04820000007748604,-0.014999999216793838,-0.1319999957758284,-0.1319999957758284
-0.05858132615685463,0.06260358542203903,9.750367164611816,0.046799998730421066,-0.029600000008940697,-0.057999998331069946,-0.05600000063342052,0.14300000209392072,0.06399999977103679
-0.06922116130590439,0.06987238675355911,9.769932746887207,0.037299998104572296,-0.019500000402331352,-0.03839999809861183,-0.24200000559589865,0.2159999967259592,0.09200000008774706
-0.06099468097090721,0.06637685000896454,9.760030746459961,0.047599997371435165,-0.02879999950528145,-0.04820000007748604,0.07900000232288394,0.02899999937514897,0.06099999926066736
-0.058207832276821136,0.0571160763502121,9.76069164276123,0.04749999940395355,-0.03869999945163727,-0.04820000007748604,0.0749999994190225,0.20099999417411205,0.23699998695833197
-0.06323565542697906,0.06716214865446091,9.759723663330078,0.0478999987244606,-0.019199999049305916,-0.04820000007748604,0.008999999863581633,0.11599999750059588,0.19699999794035722
-0.06073610857129097,0.07519709318876266,9.780898094177246,0.04809999838471413,-0.019299998879432678,-0.028599999845027924,0.128999995265459,0.05300000012305109,0.10400000212922476
-0.06108087673783302,0.0782041996717453,9.755644798278809,0.04809999838471413,-0.00969999935477972,-0.057999998331069946,0.1620000008795227,0.18700000068586353,0.2549999900205486
-0.05668511986732483,0.07537904381752014,9.76695442199707,0.04809999838471413,-0.00969999935477972,-0.057999998331069946,-0.0030000000934877653,-0.009999999755783667,-0.013000000266153095
-0.05756618455052376,0.06357084214687347,9.756352424621582,0.04839999973773956,-0.02969999983906746,-0.057999998331069946,-0.06399999977103679,0.0539999991814898,-0.0269999995907449
-0.05527732893824577,0.0657639279961586,9.774079322814941,0.05810000002384186,-0.029399998486042023,-0.03839999809861183,-0.0030000000934877653,0.01700000066872456,-0.031999999885518396
-0.05521029233932495,0.06481582671403885,9.772422790527344,0.05810000002384186,-0.029399998486042023,-0.03839999809861183,-0.0030000000934877653,0.01700000066872456,-0.031999999885518396
-0.055775322020053864,0.06222051382064819,9.757425308227539,0.058399997651576996,-0.02929999865591526,-0.057999998331069946,0.05799999875029794,0.1079999983629796,0.11599999750059588
-0.057336341589689255,0.0660991221666336,9.7474365234375,0.058399997651576996,-0.02929999865591526,-0.06780000030994415,0.08400000095013078,0.029999998433587676,0.048000001495804245
-0.061032988131046295,0.06350380927324295,9.751554489135742,0.04839999973773956,-0.029099998995661736,-0.057999998331069946,-0.10299999973573276,0.009999999755783667,0.08400000095013078
-0.04457045719027519,0.060037001967430115,9.765949249267578,0.06749999523162842,-0.029099998995661736,-0.04820000007748604,0.08899999957737763,0.0749999994190225,0.1180000022875799
-0.050699613988399506,0.06533297896385193,9.757041931152344,0.05769999697804451,-0.029199998825788498,-0.057999998331069946,0.1180000022875799,0.19000000119623298,0.05799999875029794
-0.05951985716819763,0.06424121558666229,9.769856452941895,0.04809999838471413,-0.029500000178813934,-0.03839999809861183,0.015999999942759198,0.16899999762364695,0.15399999507179982
-0.0569915771484375,0.06428910046815872,9.764569282531738,0.058399997651576996,-0.029500000178813934,-0.04820000007748604,-0.12599999475508955,0.19200000598321698,0.19699999794035722
-0.056675542145967484,0.06666415184736252,9.764904975891113,0.05889999866485596,-0.029199998825788498,-0.04820000007748604,0.048000001495804245,0.19699999794035722,-0.15699999558216926
-0.06260358542203903,0.060582879930734634,9.75899600982666,0.04959999769926071,-0.02929999865591526,-0.04820000007748604,-0.12199999852133472,0.21800000151294321,0.046999999102312236
-0.05077622830867767,0.0662427768111229,9.75997257232666,0.04959999769926071,-0.02929999865591526,-0.04820000007748604,0.031999999885518396,0.12400000330831876,0.09200000008774706
-0.05617754906415939,0.05471229553222656,9.769923210144043,0.06019999831914902,-0.03849999979138374,-0.03839999809861183,0.1719999981340164,0.06899999839828364,0.10400000212922476
-0.05819825455546379,0.07156747579574585,9.761706352233887,0.0502999983727932,-0.019299998879432678,-0.04820000007748604,0.06800000267489824,0.13799999679656727,-0.08799999718388561
-0.06866570562124252,0.060793567448854446,9.758075714111328,0.040699999779462814,-0.029099998995661736,-0.057999998331069946,-0.15800000464576788,0.04900000055424296,-0.09000000197086964
