Accelerometer_Gx,Accelerometer_Gy,Accelerometer_Gz,Accelerometer_X,Accelerometer_Y,Accelerometer_Z,Gyroscope_Z,Gyroscope_X,Gyroscope_Y
-0.05702031031250954,0.08462066948413849,9.77623462677002,0.00019999999494757503,-0.00019999999494757503,-0.0486999973654747,-0.06899999839828364,-0.0019999999928448997,-0.0030000000934877653
-0.05620627850294113,0.07834785431623459,9.784614562988281,0.0071000000461936,0.006799999624490738,-0.029099998995661736,0.13100000005244303,-0.07000000079177565,-0.04900000055424296
-0.05176264047622681,0.08689036220312119,9.774807929992676,0.005399999674409628,0.012600000016391277,-0.03889999911189079,0.9039999759218116,-1.332999995543787,-0.5219999820825748
-0.060774415731430054,0.08090486377477646,9.785216331481934,-0.007699999958276749,0,-0.028999999165534973,0.19999999845072666,0.2909999961449817,0.0539999991814898
-0.06515101343393326,0.07086837291717529,9.76325798034668,-0.0066999997943639755,-0.010400000028312206,-0.04859999939799309,-1.0449999465483217,2.701999997212007,0.3339999856733259
-0.04884171113371849,0.08062713593244553,9.764225006103516,0.011899999342858791,0.002699999837204814,-0.04859999939799309,0.05600000063342052,3.1169999433044544,0.5919999762042438
-0.06359957158565521,0.0745362862944603,9.780869483947754,0.007899999618530273,-0.006899999920278788,-0.028999999165534973,-1.271000020570054,0.31999999218507735,-0.3459999877148036
-0.05229894071817398,0.0767868310213089,9.765690803527832,0.017799999564886093,0.006599999964237213,-0.04859999939799309,0.3980000054546825,2.906000031917128,0.7889999741446011
-0.05253836140036583,0.07278373092412949,9.784250259399414,0.016599999740719795,-0.00279999990016222,-0.028999999165534973,-0.3980000054546825,2.0519999222058662,0.3690000094145868
-0.056340355426073074,0.0814124345779419,9.778858184814453,0.016099998727440834,0.0071000000461936,-0.028999999165534973,0.21200000049220435,3.251999912910226,0.4810000106814279
-0.05511452630162239,0.07785943895578384,9.770315170288086,0.021900000050663948,0.0052999998442828655,-0.03879999741911888,2.782000081969662,2.826999929542645,0.6189999807975687
-0.048286259174346924,0.07503427565097809,9.767346382141113,0.023599999025464058,-0.010400000028312206,-0.048499997705221176,2.5209999842066693,0.6590000231763964,0.05499999823992851
-0.05073792114853859,0.07838616520166397,9.774261474609375,0.021399999037384987,-0.0072999997064471245,-0.03869999945163727,-3.0130000679072553,-0.3049999896332302,-0.4019999883482241
-0.052241481840610504,0.08446744084358215,9.781118392944336,0.007899999618530273,-0.009099999442696571,-0.03879999741911888,-2.241000007719993,0.9329999986423336,-0.25599999908414717
-0.052241481840610504,0.08446744084358215,9.781118392944336,0.01759999990463257,0.006899999920278788,-0.028999999165534973,0.8680000231582313,-0.15800000464576788,-0.17899999487814064
-0.06788040697574615,0.07957368344068527,9.770536422729492,-0.003999999724328518,0.0038999998942017555,-0.03879999741911888,1.1680000208343213,-2.234999899977548,-0.7969999932925372
-0.05974011868238449,0.07700709998607635,9.771990776062012,0.00009999999747378752,0.001500000013038516,-0.03879999741911888,-0.9409999644294169,2.1229999520715603,0.06700000028140622
-0.052193596959114075,0.08385452628135681,9.759992599487305,0.01529999915510416,0.00419999985024333,-0.04859999939799309,-0.34899998822517303,-2.6770000107458793,-0.7879999917614289
-0.062498241662979126,0.08121132105588913,9.77365779876709,-0.001500000013038516,0.004799999762326479,-0.03889999911189079,-1.0749999516520161,1.8270000440107177,-0.09399999820462447
-0.050469771027565,0.07488104701042175,9.769233703613281,0.012399999424815178,-0.002099999925121665,-0.03889999911189079,-0.4639999900023835,-1.8329999383097506,-0.5930000119482689
-0.06840712577104568,0.08207323402166367,9.773524284362793,-0.013499999418854713,0.008899999782443047,-0.03889999911189079,-1.7440000121035457,2.9479999323405943,0.08400000095013078
-0.06851247698068619,0.07315722852945328,9.762826919555664,-0.006000000052154064,0.012899999506771564,-0.03889999911189079,1.5620000167150356,0.257999990530918,0.0030000000934877653
-0.0547410286962986,0.08209238201379776,9.771637916564941,-0.002899999963119626,-0.0005999999702908099,-0.04859999939799309,-0.8390000004377092,2.011000004165572,0.0659999978879142
-0.05300762504339218,0.08440997451543808,9.766188621520996,0.016999999061226845,0.004999999888241291,-0.03879999741911888,-1.1240000489228048,1.5250000282074303,-0.05200000106461238
-0.05300762504339218,0.08440997451543808,9.766188621520996,0.02199999988079071,0.00699999975040555,-0.04859999939799309,-1.1240000489228048,1.5250000282074303,-0.05200000106461238
-0.06607038527727127,0.06475836783647537,9.77236557006836,0.016699999570846558,0.010400000028312206,-0.03879999741911888,1.9600000488501446,-2.4320000580004644,-0.18199999538851008
-0.057709839195013046,0.0817476212978363,9.774088859558105,0.004699999932199717,0.0004999999655410647,-0.03879999741911888,0.2069999951948509,-0.5009999785099888,0.3259999932058162
-0.0590122826397419,0.07677725702524185,9.776962280273438,0.0030999998562037945,0,-0.03879999741911888,-0.04500000098543482,1.7070000235959404,0.1629999966029081
-0.053802501410245895,0.07790732383728027,9.785494804382324,0.017099998891353607,0.00009999999747378752,-0.028999999165534973,0.7080000137254794,0.7969999932925372,0.08899999957737763
-0.059184666723012924,0.07192181795835495,9.770564079284668,0.009599999524652958,-0.012000000104308128,-0.03869999945163727,-1.8809999464756615,2.919000016341778,0.043999998591942806
-0.051982905715703964,0.08042602241039276,9.771321296691895,0.025699999183416367,0.002300000051036477,-0.03869999945163727,0.3310000118433829,1.2520000351246652,0.6410000201141798
-0.05747999623417854,0.06771759688854218,9.760662078857422,0.018699999898672104,-0.008200000040233135,-0.048499997705221176,-0.7680000239328679,0.3849999943496062,-0.20099999417411205
-0.054961297661066055,0.0699106901884079,9.775199890136719,0.028699999675154686,-0.006199999712407589,-0.03869999945163727,0.21899999723632863,-1.3159999748647426,-0.363000008393848
-0.06242162734270096,0.07298484444618225,9.77338981628418,0.014599999412894249,-0.006599999964237213,-0.03879999741911888,-0.9219999789840281,-0.17899999487814064,-0.17400000292100043
-0.06199067085981369,0.07693048566579819,9.760135650634766,0.013399999588727951,0.006300000008195639,-0.04859999939799309,1.0919999723310605,-0.7309999820644097,0.019999999511567335
-0.042425256222486496,0.08532934635877609,9.774299621582031,0.030799999833106995,0.004100000020116568,-0.03879999741911888,-1.7010000225752016,2.798999995927001,0.21800000151294321
-0.04774995893239975,0.08142201602458954,9.797772407531738,0.019099999219179153,-0.010099999606609344,-0.00930000003427267,0.38699998579637696,-1.0470000180363719,-0.6189999807975687
-0.04774995893239975,0.08142201602458954,9.797772407531738,0.03790000081062317,0.013100000098347664,-0.009399999864399433,0.38699998579637696,-1.0470000180363719,-0.6189999807975687
-0.04926309734582901,0.07833828032016754,9.772221565246582,0.032999999821186066,0.008700000122189522,-0.03869999945163727,0.10900000075647161,1.0460000356531998,0.3019999891228608
-0.04926309734582901,0.07833828032016754,9.772221565246582,0.032999999821186066,0.008700000122189522,-0.03869999945163727,0.10900000075647161,1.0460000356531998,0.3019999891228608
-0.05687665566802025,0.07846277952194214,9.782248497009277,0.03659999743103981,0.013100000098347664,-0.02889999933540821,-2.14899992092086,1.5680000177357747,0.8059999948236455
-0.05687665566802025,0.07846277952194214,9.782248497009277,0.03659999743103981,0.013100000098347664,-0.02889999933540821,-2.14899992092086,1.5680000177357747,0.8059999948236455
-0.04500141367316246,0.08094316720962524,9.78282356262207,0.050599999725818634,0.01860000006854534,-0.02889999933540821,-1.4210000460885255,-4.042000082881411,-0.885999972859595
-0.05716396123170853,0.07400956004858017,9.778867721557617,0.023899998515844345,0.013799999840557575,-0.029099998995661736,-1.3930000057511756,1.3630000006474812,0.36499999984061876
-0.05694369599223137,0.06937438994646072,9.76673412322998,0.027300000190734863,0.01769999973475933,-0.0486999973654747,-1.0789999879064105,3.2889999014178315,0.38000000239246595
-0.05694369599223137,0.06937438994646072,9.76673412322998,0.027300000190734863,0.01769999973475933,-0.0486999973654747,-1.0789999879064105,3.2889999014178315,0.38000000239246595
-0.047692496329545975,0.07751467078924179,9.77791976928711,0.032999999821186066,0.02410000003874302,-0.029099998995661736,1.820999936268273,-3.8850000739590285,-0.11099999887334903
-0.05784391239285469,0.07433517277240753,9.77845573425293,-0.00029999998514540493,0.007599999662488699,-0.029099998995661736,0.25599999908414717,2.0989999479886046,0.24399999704266945
-0.05665638670325279,0.08551130443811417,9.77600383758545,-0.00029999998514540493,0.007599999662488699,-0.029099998995661736,-1.032999944506844,5.47600000667288,0.6590000231763964
-0.059088896960020065,0.07608772814273834,9.774663925170898,0.018699999898672104,0.009099999442696571,-0.03879999741911888,1.278000003973965,5.464999987014575,0.8669999874142063
-0.05930916592478752,0.07090667635202408,9.777039527893066,0.03629999980330467,0.010199999436736107,-0.03869999945163727,-2.2779999962275985,2.82000005286044,0.8260000160130593
-0.0578247606754303,0.06637685000896454,9.785916328430176,0.04360000044107437,0.010699999518692493,-0.02889999933540821,-1.8099999166099674,2.285000086353215,0.8570000034999258
-0.0549708716571331,0.0719122365117073,9.776578903198242,0.05159999802708626,0.020099999383091927,-0.03869999945163727,2.2480000978456096,-6.77100003132589,-1.242999980232704
-0.0680144801735878,0.08193915337324142,9.772183418273926,0.016200000420212746,0.02449999935925007,-0.03879999741911888,-1.891999966133967,2.254999974527815,-0.2399999874687014
-0.05881116911768913,0.07930553704500198,9.759866714477539,0.027899999171495438,0.033399999141693115,-0.04859999939799309,1.4160000274509588,7.679999598998445,1.1159999764140158
-0.05374504253268242,0.07119398564100266,9.768524169921875,0.06499999761581421,0.027799999341368675,-0.038599997758865356,-1.793999985035801,5.006000175732317,0.6309999828390465
-0.054511185735464096,0.07110778987407684,9.78446102142334,0.07750000059604645,0.020800000056624413,-0.028599999845027924,-1.7639999799321067,-1.7989998969516618,-0.3469999967784022
-0.05564124509692192,0.07707414031028748,9.769904136657715,0.06879999488592148,0.029399998486042023,-0.03849999979138374,0.985000043062639,-3.7919997913333114,-0.5750000088860524
-0.05564124509692192,0.07707414031028748,9.769904136657715,0.06879999488592148,0.029399998486042023,-0.03849999979138374,0.985000043062639,-3.7919997913333114,-0.5750000088860524
-0.05407065153121948,0.07751467078924179,9.779691696166992,0.041099999099969864,0.02630000002682209,-0.02889999933540821,1.4379999600458642,3.1139999961549383,0.6979999764503461
-0.04866933077573776,0.0753694698214531,9.767643928527832,0.05079999938607216,0.01119999960064888,-0.048499997705221176,-0.8560000211167536,-3.2560000558863265,-0.635000019093441
-0.056388236582279205,0.07782112807035446,9.793261528015137,0.043299999088048935,0.022499999031424522,-0.019099999219179153,0.25100000712700693,-1.8650000149014951,-0.5240000002097721
-0.07540777325630188,0.07647079974412918,9.800358772277832,0.01730000041425228,0.011599999852478504,-0.00930000003427267,-2.267999958952465,-0.4709999734062945,-0.09300000248123906
-0.05310339480638504,0.072266586124897,9.784584999084473,0.03519999980926514,0.016699999570846558,-0.028999999165534973,2.059999994714655,1.3359999426933036,0.3049999896332302
-0.06430825591087341,0.07383718341588974,9.785667419433594,0.02850000001490116,0.010799999348819256,-0.02889999933540821,0.5620000244614024,2.435000005149981,0.3139999911643385
-0.05967308580875397,0.07530242949724197,9.788252830505371,0.03629999980330467,0.008700000122189522,-0.019099999219179153,-2.3980000166423756,2.3549999203923253,0.5209999996994026
-0.051341261714696884,0.08262868970632553,9.767902374267578,0.0510999970138073,0.024000000208616257,-0.048499997705221176,-1.8610000853688065,0.42899999294154895,-0.7680000239328679
-0.0681198239326477,0.07260177284479141,9.78620433807373,0.032099999487400055,0.01899999938905239,-0.02889999933540821,1.9639999783828335,-2.018000094291189,-0.30400000725005805
-0.0562828928232193,0.0716823935508728,9.766380310058594,0.046299997717142105,0.014099999330937862,-0.048499997705221176,-1.7430000297203736,2.8180000880940956,0.9920000264665501
-0.062239665538072586,0.07295611500740051,9.78543758392334,0.04360000044107437,0.01860000006854534,-0.02879999950528145,-0.796000010909365,2.245999919635854,0.6530000221556574
-0.05402276664972305,0.07419151812791824,9.780390739440918,0.060499999672174454,0.020999999716877937,-0.02879999950528145,0.5789999917795939,5.032999913521377,1.040000034632461
-0.056100934743881226,0.07376056909561157,9.761457443237305,0.07180000096559525,0.01939999870955944,-0.04829999804496765,1.2689999490820039,5.858999876173583,1.0770000231400663
-0.04818091541528702,0.08073247969150543,9.777076721191406,0.08699999749660492,0.02539999969303608,-0.03830000013113022,-1.242999980232704,3.1139999961549383,0.7660000058056707
-0.05566997826099396,0.07850108295679092,9.762635231018066,0.09349999576807022,0.0279999990016222,-0.04800000041723251,-2.351999973242809,-2.7309999132108236,-0.627999982328677
-0.07685387134552002,0.07736144214868546,9.782649993896484,0.05570000037550926,0.0340999998152256,-0.02850000001490116,3.3550000193676643,4.3719998188569305,0.6360000014766131
-0.05985504016280174,0.07485232502222061,9.772931098937988,0.0892999991774559,0.01249999925494194,-0.038100000470876694,3.0049999953984665,1.6729999822378516,0.16800000190026157
-0.06009446457028389,0.07975564897060394,9.762434005737305,0.09229999780654907,0.01489999983459711,-0.04779999703168869,2.842000092177051,-2.400999963791892,-1.060999984844194
-0.049722783267498016,0.058523863554000854,9.76440715789795,0.09449999779462814,-0.01249999925494194,-0.0478999987244606,-1.1149999940308437,-2.9790000265491665,-0.7530000213810208
-0.06237374246120453,0.06924989074468613,9.766858100891113,0.07660000026226044,-0.00009999999747378752,-0.04800000041723251,-0.33900000431089256,-4.692999926827312,-0.0039999999856897995
-0.05244259163737297,0.07115567475557327,9.770785331726074,0.07249999791383743,0.0005999999702908099,-0.03839999809861183,3.6780000921043907,2.3409999535845034,0.07399999702553048
-0.052452173084020615,0.06916369497776031,9.779251098632812,0.07959999889135361,-0.011899999342858791,-0.0284000001847744,-0.09600000299160849,-2.653000006662924,0.13000000432905762
-0.048544835299253464,0.07414364069700241,9.779834747314453,0.07319999486207962,-0.011599999852478504,-0.02850000001490116,0.15800000464576788,2.891000082726134,0.6949999759399766
-0.06365703791379929,0.07700709998607635,9.777728080749512,0.0714000016450882,-0.002300000051036477,-0.03819999843835831,2.1949999643204263,-4.190999805851593,-1.0530000190571107
-0.05501875653862953,0.08013872057199478,9.768850326538086,0.07029999792575836,-0.007499999832361937,-0.03830000013113022,2.023999988590222,1.248999981253443,-0.3570000073731091
-0.052787356078624725,0.07731355726718903,9.768601417541504,0.07289999723434448,-0.012999999336898327,-0.03819999843835831,0.7369999830851486,-0.6900000106632628,-0.1849999958988795
-0.04879382997751236,0.07948749512434006,9.77823543548584,0.06969999521970749,-0.015399999916553497,-0.0284000001847744,3.2790000775861095,2.303999965076898,0.7620000229121291
-0.060467954725027084,0.08597099035978317,9.77180004119873,0.06459999829530716,-0.023099999874830246,-0.038100000470876694,1.9069999153249613,-3.8520000149841116,-0.6089999968832882
-0.05841852352023125,0.07917146384716034,9.775899887084961,0.06309999525547028,-0.04769999906420708,-0.03819999843835831,3.1929998850860097,0.5129999805514666,-0.1180000022875799
-0.05621585622429848,0.07248684763908386,9.778780937194824,0.05570000037550926,-0.03610000014305115,-0.038100000470876694,0.035000000395887826,-0.13600000534979648,-0.1319999957758284
-0.05621585622429848,0.07248684763908386,9.778780937194824,0.06619999557733536,-0.05429999902844429,-0.028099998831748962,0.035000000395887826,-0.13600000534979648,-0.1319999957758284
-0.05848555639386177,0.07328172028064728,9.78402042388916,0.040300000458955765,-0.03920000046491623,-0.03830000013113022,-0.08100000043976135,6.002000131731555,0.20599999947146552
-0.05887820944190025,0.08178592473268509,9.770257949829102,0.03370000049471855,-0.034699998795986176,-0.028599999845027924,1.7709999633360178,4.094999789519771,0.14399999781730613
-0.06475836783647537,0.0698915347456932,9.78046703338623,0.06599999964237213,-0.0429999977350235,-0.028199998661875725,3.52200006556518,-0.6609999879427407,-0.2839999860606442
-0.058236561715602875,0.09487742930650711,9.770210266113281,0.06509999930858612,-0.034199997782707214,-0.03790000081062317,-0.22700000304405152,2.9900000462074723,0.7660000058056707
-0.0630345419049263,0.07024587690830231,9.770354270935059,0.06509999930858612,-0.034199997782707214,-0.03790000081062317,-0.7930000103989956,4.735999809633951,1.180000022875799
-0.05102522671222687,0.07958326488733292,9.783474922180176,0.09519999474287033,-0.04259999841451645,-0.027799999341368675,-5.200000173162304,-0.44500000455699473,-0.09999999922536333
-0.06335058063268661,0.07238151133060455,9.778446197509766,0.08379999548196793,-0.0364999994635582,-0.0279999990016222,-0.8900000091139895,2.001999949273611,1.4290000118756088
-0.07079175859689713,0.06732495129108429,9.767683029174805,0.07829999923706055,-0.03439999744296074,-0.047599997371435165,0.5059999971475555,-0.5089999976579249,-0.14600000260429016
-0.06696103513240814,0.09123823791742325,9.77469253540039,0.08619999885559082,-0.016099998727440834,-0.03779999911785126,-0.8680000231582313,0.31099999065396905,-0.19600000221697184
-0.0537833496928215,0.0766623392701149,9.776300430297852,0.08819999545812607,-0.017799999564886093,-0.03799999877810478,0.20200000323771067,0.08299999855663877,0.07699999753589991
-0.0537833496928215,0.0766623392701149,9.776300430297852,0.08819999545812607,-0.017799999564886093,-0.03799999877810478,0.20200000323771067,0.08299999855663877,0.07699999753589991
-0.06177040562033653,0.07137593626976013,9.765028953552246,0.07800000160932541,-0.0279999990016222,-0.04779999703168869,0.10999999647985702,8.630000365371764,1.7839999477606676
-0.053706735372543335,0.07933426648378372,9.771502494812012,0.11169999837875366,-0.017799999564886093,-0.03759999945759773,-1.193999989683621,-1.9380000095335337,-0.38400001196643396
-0.070389524102211,0.08010998368263245,9.773035049438477,0.11169999837875366,-0.017799999564886093,-0.03759999945759773,2.3429999183508476,2.6870000480210128,0.8279999807794036
-0.062287550419569016,0.07479485869407654,9.774070739746094,0.09910000115633011,-0.0279999990016222,-0.037699997425079346,0.26200000010488605,0.21700000578955783,-0.2959999881021219
-0.051484912633895874,0.08025363832712173,9.77405071258545,0.10869999974966049,-0.018799999728798866,-0.037699997425079346,-0.9060000474098617,3.3199999956264037,0.9620000213628558
-0.04620809108018875,0.0891026109457016,9.780755043029785,0.12549999356269836,-0.0066999997943639755,-0.027799999341368675,1.1430000343681936,0.6900000106632628,0.21200000049220435
-0.05681919306516647,0.07753382623195648,9.779336929321289,0.11659999936819077,-0.019500000402331352,-0.027699999511241913,0.24599998848944027,-3.8289997798409168,-1.1620000198135825
-0.06321649998426437,0.07806055247783661,9.76340103149414,0.09279999881982803,-0.020099999383091927,-0.047599997371435165,-4.6319999342367515,0.17100000241063099,-0.08100000043976135
-0.042808327823877335,0.0700160339474678,9.770249366760254,0.11180000007152557,-0.02029999904334545,-0.03779999911785126,0.2469999975530389,1.2950000246530096,0.28600000418784144
-0.04948335886001587,0.07629841566085815,9.78418254852295,0.10499999672174454,-0.020899999886751175,-0.0279999990016222,1.7089999883622848,3.00200004824895,0.37100000086135765
-0.06206728518009186,0.07243896275758743,9.77628231048584,0.1014999970793724,-0.024799998849630356,-0.037699997425079346,-0.3319999942265551,-0.8829999723492256,-0.11299999699022645
-0.06600335240364075,0.08175720274448395,9.771484375,0.0982000008225441,-0.013899999670684338,-0.037699997425079346,-0.8889999733699644,-1.5519999794399024,-0.5769999736523967
-0.06276638805866241,0.07897035032510757,9.777737617492676,0.09200000017881393,-0.010699999518692493,-0.03779999911785126,-0.9180000494513394,-0.8200000149923204,-0.38699998579637696
-0.05220317468047142,0.07646122574806213,9.7778902053833,0.09929999709129333,-0.01850000023841858,-0.03790000081062317,0.7170000152565876,0.09399999820462447,0.16699999283666295
-0.05197333171963692,0.07970776408910751,9.760049819946289,0.09879999607801437,-0.010699999518692493,-0.04769999906420708,1.821999918651445,0.01700000066872456,0.32299999269544677
-0.058715399354696274,0.08180508762598038,9.77818775177002,0.08819999545812607,-0.014999999664723873,-0.028099998831748962,-1.0559999662066273,1.2389999439783097,0.07399999702553048
-0.05002924054861069,0.08021533489227295,9.78152084350586,0.1005999967455864,-0.012000000104308128,-0.0279999990016222,0.5240000002097721,3.5930000954308743,0.9159999779632892
-0.04929182305932045,0.07825209200382233,9.775171279907227,0.1119999960064888,-0.013700000010430813,-0.037699997425079346,2.772000044694529,-4.034999992755794,-1.2460000341039263
-0.054329223930835724,0.07461290061473846,9.770401954650879,0.10089999437332153,-0.030399998649954796,-0.03779999911785126,2.8629999356670783,5.064000007729949,1.1769999690045767
-0.04926309734582901,0.07766789942979813,9.773236274719238,0.11299999803304672,-0.027899999171495438,-0.03749999776482582,2.205999983978732,-1.7569999965281957,-0.5949999767146132
-0.061339445412158966,0.0872064083814621,9.781865119934082,0.09809999912977219,-0.023099999874830246,-0.027699999511241913,1.5449999960359913,0.8769999713284867,0.07199999890865307
-0.04768292233347893,0.0779552087187767,9.785198211669922,0.1193000003695488,-0.03700000047683716,-0.027699999511241913,-2.050999939822694,-4.576999835945224,0.2050000037480801
-0.05630204826593399,0.07340622693300247,9.773323059082031,0.09299999475479126,-0.03949999809265137,-0.03779999911785126,-0.8819999899660533,0.6979999764503461,0.3049999896332302
-0.05919424444437027,0.08451531827449799,9.777938842773438,0.08410000056028366,-0.027400000020861626,-0.0279999990016222,0.5149999986786638,0.8669999874142063,-0.6979999764503461
-0.06484455615282059,0.0784531980752945,9.779854774475098,0.08579999953508377,-0.02850000001490116,-0.0279999990016222,-2.449999954340975,-4.519000003947592,-0.7990000114197344
-0.06260358542203903,0.07975564897060394,9.774375915527344,0.05999999865889549,-0.01489999983459711,-0.03819999843835831,-2.7899999410350396,4.472999960548025,1.9010000210259284
-0.06572562456130981,0.07887458056211472,9.779997825622559,0.0746999979019165,-0.0052999998442828655,-0.028299998492002487,-2.3759999773257645,0.28199999461387343,0.5459999861655302
-0.06572562456130981,0.07887458056211472,9.779997825622559,0.0746999979019165,-0.0052999998442828655,-0.028299998492002487,-2.3759999773257645,0.28199999461387343,0.5459999861655302
-0.0446758046746254,0.08564538508653641,9.76597785949707,0.07479999959468842,0.00039999998989515007,-0.04800000041723251,-2.346000078943776,1.7500000131242845,0.6840000096425239
-0.06562986224889755,0.09036675095558167,9.770210266113281,0.0876999944448471,0.028299998492002487,-0.038100000470876694,2.83300003728509,3.1049999412629767,0.9289999623879391
-0.046888045966625214,0.0788075402379036,9.766858100891113,0.11509999632835388,0.010599999688565731,-0.04769999906420708,-4.21900016635406,-2.709000087337624,0.1070000026395942
-0.046888045966625214,0.0788075402379036,9.766858100891113,0.11509999632835388,0.010599999688565731,-0.04769999906420708,-4.21900016635406,-2.709000087337624,0.1070000026395942
-0.06852205097675323,0.07173028588294983,9.779145240783691,0.09529999643564224,0.02499999850988388,-0.03819999843835831,-2.065999889013688,7.1279999319772935,2.576000082498197
-0.05031654238700867,0.07129932194948196,9.77694320678711,0.1151999980211258,0.025599999353289604,-0.03790000081062317,4.851000131576279,-2.339999971201331,-0.33000000277978425
-0.058782439678907394,0.07875965535640717,9.769636154174805,0.09910000115633011,0.02369999885559082,-0.03799999877810478,-5.682999988527518,-1.667999963600285,-0.49600001323327503
-0.05781518295407295,0.0793725773692131,9.771761894226074,0.09380000084638596,0.03909999877214432,-0.038100000470876694,2.4830000133158916,-0.031999999885518396,0.23699998695833197
-0.06115749105811119,0.07652826607227325,9.775870323181152,0.09309999644756317,0.020600000396370888,-0.038100000470876694,-4.145000189338849,1.3140000100983982,-0.6519999864116324
-0.05761406943202019,0.07296568900346756,9.772795677185059,0.09510000050067902,0.02889999933540821,-0.038100000470876694,0.41300000800652964,-2.157999975812821,0.4639999900023835
-0.0640975683927536,0.08300217986106873,9.770430564880371,0.09510000050067902,0.02889999933540821,-0.038100000470876694,0.41300000800652964,-2.157999975812821,0.4639999900023835
-0.06040092185139656,0.08855672925710678,9.77846622467041,0.09669999778270721,0.04349999874830246,-0.028199998661875725,-3.004000013015294,1.3800000213265255,-1.4809999495742083
-0.07136636227369308,0.07328172028064728,9.776252746582031,0.09009999781847,0.03199999779462814,-0.03799999877810478,0.44099999498302667,2.095000018455916,0.004999999877891834
-0.04932055622339249,0.07468951493501663,9.770392417907715,0.09009999781847,0.03199999779462814,-0.03799999877810478,-4.7680000996691065,-11.65300025711074,-2.527000091949114
-0.06230670586228371,0.0727454200387001,9.78664493560791,0.08179999887943268,0.03989999741315842,-0.02850000001490116,-1.0059999932743722,-13.120000239877127,-2.784000046736007
-0.07188351452350616,0.07421068102121353,9.773773193359375,0.031099999323487282,0.042799998074769974,-0.03869999945163727,-4.036000188582378,12.501999601132496,3.7430000142276403
-0.06121494993567467,0.07291781157255173,9.777048110961914,0.085999995470047,0.03319999948143959,-0.03819999843835831,3.3119999231176145,-0.09999999922536333,-0.004999999877891834
-0.06121494993567467,0.07291781157255173,9.777048110961914,0.085999995470047,0.03319999948143959,-0.03819999843835831,3.3119999231176145,-0.09999999922536333,-0.004999999877891834
-0.06114790961146355,0.0695371925830841,9.772289276123047,0.09009999781847,0.03700000047683716,-0.03819999843835831,-10.20299976141487,4.273000068819004,0.3690000094145868
-0.06114790961146355,0.0695371925830841,9.772289276123047,0.09009999781847,0.03700000047683716,-0.03819999843835831,-10.20299976141487,4.273000068819004,0.3690000094145868
-0.060918066650629044,0.08221688866615295,9.784527778625488,0.09160000085830688,0.07069999724626541,-0.0284000001847744,-4.52299993348028,-4.193000197504761,-1.1759999866214046
-0.060918066650629044,0.08221688866615295,9.784527778625488,0.09160000085830688,0.07069999724626541,-0.0284000001847744,-4.52299993348028,-4.193000197504761,-1.1759999866214046
-0.057527877390384674,0.06970957666635513,9.775860786437988,0.07959999889135361,0.07289999723434448,-0.03830000013113022,2.8159999098843396,4.733999844867607,2.14899992092086
-0.06521805375814438,0.08499416708946228,9.775707244873047,0.09519999474287033,0.07259999960660934,-0.038100000470876694,10.02999960747491,3.9790001255245055,2.2309999704448598
-0.04736688733100891,0.07349241524934769,9.781405448913574,0.12229999899864197,0.04169999808073044,-0.028199998661875725,6.5429997790944014,-0.7410000193395431,-1.1349999618594047
-0.06056372448801994,0.08011956512928009,9.782649993896484,0.0997999981045723,0.031099999323487282,-0.028199998661875725,8.59599968368344,2.9160000691922616,2.1060000381142214
-0.057901374995708466,0.07697837054729462,9.77464485168457,0.10619999468326569,0.010199999436736107,-0.03779999911785126,10.904999774119611,3.2570000382694984,-0.8140000139715816
-0.05536352097988129,0.08787677437067032,9.779260635375977,0.1241999939084053,-0.00989999994635582,-0.02759999968111515,7.73700008894314,11.791999729362377,3.2249999616777543
-0.052854396402835846,0.08674672245979309,9.784833908081055,0.16369999945163727,-0.03659999743103981,-0.026599999517202377,9.038000007895183,4.563999851520574,-1.837000081285851
-0.05892609432339668,0.07105033099651337,9.781865119934082,0.16249999403953552,-0.07459999620914459,-0.026200000196695328,0.06399999977103679,5.7799997737991005,2.0839999987976103
-0.06144479289650917,0.0876852422952652,9.77997875213623,0.179299995303154,-0.05509999766945839,-0.02579999901354313,-9.412999591443684,-1.8040000223109345,1.3699999840513923
-0.05755661055445671,0.08040686696767807,9.78384780883789,0.17399999499320984,-0.0421999990940094,-0.026200000196695328,-2.3889999617504145,10.007999568158299,2.360000045751598
-0.05151364579796791,0.07884585112333298,9.78935432434082,0.21689999103546143,-0.0340999998152256,-0.015699999406933784,19.17499965136022,-7.364999812213919,-3.2710000050773207
-0.05831317603588104,0.06494033336639404,9.775056838989258,0.18969999253749847,-0.1354999989271164,-0.03449999913573265,8.635000063844213,1.8380000636690232,-1.7959999498021453
-0.05954858288168907,0.07727525383234024,9.772289276123047,0.19429999589920044,-0.14180000126361847,-0.033900000154972076,17.156999770512442,-0.817000014481951,1.3430000328189202
-0.04824795201420784,0.08344271779060364,9.777575492858887,0.20099999010562897,-0.18230000138282776,-0.032999999821186066,-27.01000014828835,20.569999194990917,12.996999631982598
-0.04824795201420784,0.08344271779060364,9.777575492858887,0.25529998540878296,-0.10859999805688858,-0.03309999778866768,30.816000119872893,-1.3579999820099147,-7.301999854857014
-0.06216305121779442,0.0758291557431221,9.782047271728516,0.2498999983072281,-0.22219999134540558,-0.030899999663233757,-7.981000059305384,-2.507000017398847,-2.0499999574395216
-0.05632119998335838,0.07352115213871002,9.770593643188477,0.2701999843120575,-0.2102999985218048,-0.020499998703598976,-14.569000112859591,0.43699998540905866,4.256999923801426
-0.0460931695997715,0.07739975303411484,9.788962364196777,0.2802000045776367,-0.13920000195503235,-0.01249999925494194,-26.33499987337267,-2.1589999581959933,8.845000206291779
-0.05170518159866333,0.08079952001571655,9.781673431396484,0.26260000467300415,-0.06709999591112137,-0.023799998685717583,29.262999517719585,-1.9519999763413556,-8.100999652833337
-0.05536352097988129,0.07460332661867142,9.782631874084473,0.26260000467300415,-0.06709999591112137,-0.023799998685717583,29.262999517719585,-1.9519999763413556,-8.100999652833337
-0.06482540816068649,0.0741627886891365,9.76602554321289,0.24129998683929443,-0.17719998955726624,-0.04179999977350235,1.7370000286996348,1.3709999664345645,5.8399999974499
-0.056551042944192886,0.06986280530691147,9.77077579498291,0.25349998474121094,-0.18219999969005585,-0.03179999813437462,-6.451999888121852,16.878000203295763,15.834999581183549
-0.06145436689257622,0.07502470165491104,9.769463539123535,0.2816999852657318,-0.16699999570846558,-0.03099999949336052,-14.1220000901754,26.490999686468466,34.68099926550801
-0.056196700781583786,0.08261910825967789,9.785322189331055,0.36039999127388,-0.12129999697208405,-0.01939999870955944,-0.4100000074961602,15.195000610669599,-6.035999959646233
-0.04836287349462509,0.07623138278722763,9.77681827545166,0.41099998354911804,-0.12799999117851257,-0.02709999866783619,-0.6759999904945878,3.0819999195631937,-1.9340000800008448
-0.06547663360834122,0.07620265334844589,9.766839981079102,0.28139999508857727,-0.15079998970031738,-0.041200000792741776,-5.873000056424817,29.63800080881538,-16.944999236411707
-0.06289089471101761,0.08365340530872345,9.774136543273926,0.3610999882221222,-0.12469999492168427,-0.019299998879432678,-2.3490000260932926,28.871001300874212,1.9299999370247447
-0.060439229011535645,0.07397124916315079,9.77574634552002,0.41200000047683716,-0.125,-0.026599999517202377,3.896000093617334,-18.611000195741003,5.788000059751301
-0.0782041996717453,0.06938396394252777,9.776473999023438,0.3425000011920929,-0.13490000367164612,-0.028599999845027924,4.262000049160698,-32.55500043350399,6.211000078352537
-0.053045932203531265,0.08505161851644516,9.754168510437012,0.31459999084472656,-0.13199999928474426,-0.0502999983727932,3.307999993584926,-37.07000136169254,5.490999955863875
-0.06062118709087372,0.07136636227369308,9.774998664855957,0.20149999856948853,-0.15060000121593475,-0.03370000049471855,2.192999999554082,-7.785000097109051,4.363000190851793
-0.06051584333181381,0.07909484952688217,9.793731689453125,0.17329999804496765,-0.14790000021457672,-0.014599999412894249,-2.6209999300711795,37.580001341733634,-1.7689999985696734
-0.06082230061292648,0.08214027434587479,9.778667449951172,0.2619999945163727,-0.14079999923706055,-0.022199999541044235,-0.23900000508552924,24.567999199239104,-0.7440000198499125
-0.05824613943696022,0.0679091364145279,9.767864227294922,0.3278999924659729,-0.14909999072551727,-0.03949999809265137,-2.1949999643204263,12.145999896307677,-1.0880000427983718
-0.059874195605516434,0.07060021907091141,9.792418479919434,0.3554999828338623,-0.14299999177455902,-0.009099999442696571,4.727000181628813,-44.32299973189659,4.308000092560265
-0.05963477864861488,0.06613742560148239,9.76722240447998,0.23249998688697815,-0.16539999842643738,-0.04259999841451645,-0.30400000725005805,-0.7600000047849319,-7.847000285526195
-0.05057511478662491,0.07728482782840729,9.764626502990723,0.23899999260902405,-0.14329999685287476,-0.04270000010728836,5.505000136115108,-85.11199811552605,-9.544999827343352
-0.06199067085981369,0.07066725939512253,9.768257141113281,0.024799998849630356,-0.16509999334812164,-0.04609999805688858,-2.839999913967295,-10.161000074434815,-3.2560000558863265
-0.060889340937137604,0.07773493975400925,9.781874656677246,-0.003399999812245369,-0.14669999480247498,-0.026899999007582664,-3.7810001985618293,-52.89000013991145,-6.38199984063933
-0.0573459193110466,0.08792465925216675,9.772001266479492,-0.12029999494552612,-0.12709999084472656,-0.03669999912381172,-8.233999657672765,-19.53099935618504,-0.19900000272734125
-0.053448159247636795,0.07160577923059464,9.78103256225586,-0.17379999160766602,-0.12349999696016312,-0.02669999934732914,3.6540000880214354,-16.884000524481618,-0.8179999968651231
-0.054233454167842865,0.07700709998607635,9.786117553710938,-0.23119999468326569,-0.12559999525547028,-0.025599999353289604,1.4350000128963476,-9.681999761715467,-0.8399999828208814
-0.06372407078742981,0.08088570833206177,9.770191192626953,-0.26019999384880066,-0.12789998948574066,-0.0348999984562397,-4.567000012113502,-4.881999798898028,-1.249999963636615
-0.05633077770471573,0.07273584604263306,9.783771514892578,-0.2644999921321869,-0.12309999763965607,-0.025100000202655792,-2.838999931584123,-21.53099998102254,-2.303999965076898
-0.042655099183321,0.07539819926023483,9.779394149780273,-0.3051999807357788,-0.11589999496936798,-0.023899998515844345,0.9579999851084613,14.762999683402755,0.325000010822644
-0.062191784381866455,0.07922892272472382,9.772709846496582,-0.28329998254776,-0.10809999704360962,-0.03480000048875809,-3.586000005305258,-16.160000472460265,-2.2779999962275985
-0.05393657833337784,0.08220730721950531,9.77949047088623,-0.32739999890327454,-0.09549999982118607,-0.023799998685717583,0.0019999999928448997,3.073000078114644,0.49600001323327503
-0.06562028080224991,0.07687303423881531,9.771780967712402,-0.3296000063419342,-0.09489999711513519,-0.033799998462200165,-2.4649999035319694,-8.16100030337096,-2.0700000319897884
-0.061530981212854385,0.07331045717000961,9.772040367126465,-0.3531999886035919,-0.09679999947547913,-0.03319999948143959,-0.5789999917795939,5.875000021191162,1.1269999960723214
-0.06606081128120422,0.07917146384716034,9.778168678283691,-0.3337000012397766,-0.08469999581575394,-0.033799998462200165,2.8149999275011672,6.425999919272552,0.2909999961449817
-0.06606081128120422,0.07917146384716034,9.778168678283691,-0.3308999836444855,-0.08460000157356262,-0.02410000003874302,2.8149999275011672,6.425999919272552,0.2909999961449817
-0.0709737166762352,0.07063852995634079,9.765786170959473,-0.31700000166893005,-0.10269999504089355,-0.04429999738931656,-2.338999988818159,-7.35900034480171,-1.5569999980774691
-0.0709737166762352,0.07063852995634079,9.765786170959473,-0.31700000166893005,-0.10269999504089355,-0.04429999738931656,-2.338999988818159,-7.35900034480171,-1.5569999980774691
-0.0585334450006485,0.06085103377699852,9.777756690979004,-0.3084999918937683,-0.10999999940395355,-0.03439999744296074,-2.888999904516378,-3.626000154405791,0.16800000190026157
-0.0433637797832489,0.07950665056705475,9.777153015136719,-0.29739999771118164,-0.0819999948143959,-0.03439999744296074,-0.2399999874687014,4.262999818100459,1.082000041777633
-0.0710790604352951,0.06937438994646072,9.772393226623535,-0.29739999771118164,-0.0819999948143959,-0.03439999744296074,-1.5180000448035194,-0.9380000172799003,-0.05799999875029794
-0.05920381844043732,0.07815632224082947,9.775065422058105,-0.3018999993801117,-0.07660000026226044,-0.03480000048875809,-1.361000035881137,-6.412999934847903,-1.7159999717661958
-0.04663905128836632,0.08060798794031143,9.76854419708252,-0.29839998483657837,-0.07270000129938126,-0.03449999913573265,0.1849999958988795,1.9870000000826167,0.16999999334703236
-0.04701254144310951,0.07140467315912247,9.778839111328125,-0.2922999858856201,-0.08249999582767487,-0.024799998849630356,2.3159999671183757,-2.362000010517942,-0.39699999639108385
-0.05870582535862923,0.0643274113535881,9.758498191833496,-0.31700000166893005,-0.09829999506473541,-0.053999997675418854,-1.3140000100983982,2.016999898464605,0.5530000229302942
-0.07415321469306946,0.07685387134552002,9.772307395935059,-0.31700000166893005,-0.09829999506473541,-0.053999997675418854,1.8459999227344006,0.28499999512424284,0.10600000024610218
-0.05890693888068199,0.08367256075143814,9.772279739379883,-0.3066999912261963,-0.07719999551773071,-0.034699998795986176,-3.4579999123816916,-1.3339999779269591,0.2740000021463637
-0.05940493568778038,0.0960840955376625,9.771676063537598,-0.30949997901916504,-0.04659999907016754,-0.03480000048875809,1.1599999483255323,0.8209999973754926,0.1400000015835513
-0.059797581285238266,0.06603208184242249,9.773207664489746,-0.3060999810695648,-0.08819999545812607,-0.03480000048875809,-0.48299997544777223,1.0249999787197608,0.7720000068264096
-0.058610059320926666,0.07306145876646042,9.776052474975586,-0.3019999861717224,-0.07669999450445175,-0.03500000014901161,-2.0249999709733943,-3.4829998988478192,-0.3759999928184979
-0.057690683752298355,0.07790732383728027,9.78010368347168,-0.3125,-0.059699997305870056,-0.02499999850988388,2.311000055202515,1.9220000779593671,-0.10600000024610218
-0.06458598375320435,0.08712020516395569,9.77797794342041,-0.30719998478889465,-0.05429999902844429,-0.025100000202655792,2.214000056487521,7.759000128259752,0.8900000091139895
-0.05726930499076843,0.07406702637672424,9.76810359954834,-0.27230000495910645,-0.0803999975323677,-0.04519999772310257,-1.1610000374304101,-4.679000173462902,-0.6939999935568044
-0.04398627579212189,0.0837683230638504,9.779748916625977,-0.280599981546402,-0.06350000202655792,-0.025299999862909317,-1.352999963372348,-4.190999805851593,-0.7200000157669572
-0.04398627579212189,0.0837683230638504,9.779748916625977,-0.280599981546402,-0.06350000202655792,-0.025299999862909317,-1.352999963372348,-4.190999805851593,-0.7200000157669572
-0.05435795709490776,0.07341580092906952,9.776808738708496,-0.3034999966621399,-0.06849999725818634,-0.03480000048875809,1.0989999557349714,2.1719999426206433,0.2050000037480801
-0.07078217715024948,0.06784210354089737,9.772576332092285,-0.3174999952316284,-0.0731000006198883,-0.0348999984562397,1.6659999988339407,4.666999957978013,0.46099998949201404
-0.07078217715024948,0.06784210354089737,9.772576332092285,-0.3174999952316284,-0.0731000006198883,-0.0348999984562397,1.6659999988339407,4.666999957978013,0.46099998949201404
-0.05490383133292198,0.0868329107761383,9.772825241088867,-0.2854999899864197,-0.05719999969005585,-0.035099998116493225,0.30799999014359963,-0.149999998838045,-0.45700000659847245
-0.05713523179292679,0.07598238438367844,9.782649993896484,-0.2847000062465668,-0.07739999890327454,-0.025299999862909317,-1.0689999506312773,-2.600000086581152,-0.4420000040466253
-0.055986013263463974,0.07467036694288254,9.778715133666992,-0.2922999858856201,-0.07339999824762344,-0.025200000032782555,-1.1159999764140158,-3.75599999865229,-0.5609999887173774
-0.059586890041828156,0.08111555129289627,9.783819198608398,-0.3084999918937683,-0.06109999865293503,-0.025100000202655792,-1.4079999549421698,-1.9059999329417892,-0.017999999727163266
-0.06879977881908417,0.07504386454820633,9.7759370803833,-0.3228999972343445,-0.06629999727010727,-0.03480000048875809,-1.9669999255323498,-3.7579999634186345,0.07099999651516105
-0.06270892918109894,0.07281246036291122,9.779988288879395,-0.3127000033855438,-0.06260000169277191,-0.025100000202655792,0.11099999887334903,0.17599999436777122,-0.1319999957758284
-0.06435614079236984,0.07336792349815369,9.762357711791992,-0.3107999861240387,-0.06269999593496323,-0.04470000043511391,-0.9899999549784999,-1.9110000583010616,-0.08499999667351618
-0.05612008646130562,0.08086655288934708,9.780257225036621,-0.3107999861240387,-0.06269999593496323,-0.04470000043511391,0.8609999863934674,0.3220000103122746,-0.08200000283325337
-0.05845683068037033,0.0742872953414917,9.768716812133789,-0.31119999289512634,-0.06279999762773514,-0.0348999984562397,0.5009999785099888,0.13000000432905762,-0.3890000039235742
-0.05975927412509918,0.06992983818054199,9.770803451538086,-0.30959999561309814,-0.06379999965429306,-0.0348999984562397,0.4709999734062945,0.5410000208888165,0.31999999218507735
-0.046265553683042526,0.07626011222600937,9.77725887298584,-0.2872999906539917,-0.06480000168085098,-0.03500000014901161,-0.49000001221253614,0.4270000014947782,-0.09500000059811649
-0.04297113046050072,0.07702626287937164,9.773983001708984,-0.28459998965263367,-0.05309999734163284,-0.035099998116493225,0.16599999711327754,0.2839999860606442,0.3999999969014533
-0.050795383751392365,0.08123047649860382,9.773686408996582,-0.29499998688697815,-0.05069999769330025,-0.035099998116493225,1.4350000128963476,1.8109998989931397,0.17100000241063099
-0.05483679473400116,0.07399998605251312,9.765565872192383,-0.28949999809265137,-0.05389999970793724,-0.03519999980926514,0.021999999295971403,-0.46600000812958076,-0.09899999683187131
-0.0490524061024189,0.08145074546337128,9.770325660705566,-0.28610000014305115,-0.05509999766945839,-0.03529999777674675,0.3029999981864594,0.007000000079177565,-0.21800000151294321
-0.06433699280023575,0.08729259669780731,9.782841682434082,-0.289900004863739,-0.04820000007748604,-0.025599999353289604,0.23000000355442093,1.0280000325909833,0.14399999781730613
-0.06542874127626419,0.06933607906103134,9.776291847229004,-0.28630000352859497,-0.0681999996304512,-0.035499997437000275,0.6900000106632628,1.5740000187565135,-0.0269999995907449
-0.05147533863782883,0.07671021670103073,9.778475761413574,-0.2710999846458435,-0.05999999865889549,-0.02579999901354313,-0.46900000863995017,-0.8810000075828812,-0.0329999989439571
-0.05350561812520027,0.08223603665828705,9.769444465637207,-0.2727999985218048,-0.05689999833703041,-0.035599999129772186,-0.06200000165415938,0.24200000559589865,0.09800000110848592
-0.055296480655670166,0.08370129764080048,9.77224063873291,-0.2708999812602997,-0.055299997329711914,-0.0357000008225441,0.34200000482126197,0.6149999979040272,0.015999999942759198
-0.058092910796403885,0.07121313363313675,9.775094985961914,-0.27799999713897705,-0.06579999625682831,-0.0357000008225441,-0.3220000103122746,-0.06700000028140622,0.2890000046982109
-0.06979577243328094,0.08111555129289627,9.771570205688477,-0.28700000047683716,-0.05460000038146973,-0.0357000008225441,0.8119999958443843,2.3029999826937257,0.36199999933024934
-0.05791094899177551,0.07085879147052765,9.784126281738281,-0.26159998774528503,-0.0559999980032444,-0.026099998503923416,-0.2039999946844815,-0.4939999951060778,-0.05300000012305109
-0.058590903878211975,0.06852205097675323,9.771646499633789,-0.2768000066280365,-0.06300000101327896,-0.03579999879002571,0.2469999975530389,1.4429999786834307,0.4579999889816446
-0.055009178817272186,0.08516654372215271,9.773218154907227,-0.2620999813079834,-0.053599998354911804,-0.03590000048279762,0.3690000094145868,0.5560000234406636,0.24399999704266945
-0.06156928837299347,0.07246769964694977,9.774261474609375,-0.26899999380111694,-0.06439999490976334,-0.03590000048279762,-0.6020000134793773,-1.5279999753569469,-0.10999999647985702
-0.06499778479337692,0.07312849164009094,9.781865119934082,-0.2710999846458435,-0.06300000101327896,-0.026099998503923416,0.2929999875917525,-0.7239999986604987,-0.3439999962680328
-0.054683566093444824,0.08889192342758179,9.777383804321289,-0.26249998807907104,-0.044099997729063034,-0.03590000048279762,-0.06899999839828364,-0.6859999744088683,-0.0659999978879142
-0.050086699426174164,0.07661445438861847,9.768649101257324,-0.2630999982357025,-0.05350000038743019,-0.03590000048279762,0.2740000021463637,0.32299999269544677,0.1800000039417393
-0.062172628939151764,0.08089528977870941,9.772604942321777,-0.2710999846458435,-0.053999997675418854,-0.03590000048279762,-0.12100000279794933,-0.3280000113330135,-0.04500000098543482
-0.05625416338443756,0.06983407586812973,9.756093978881836,-0.2613999843597412,-0.06319999694824219,-0.05549999698996544,0.726000016787696,0.4840000111917973,-0.17100000241063099
-0.047309424728155136,0.07510131597518921,9.771771430969238,-0.24969999492168427,-0.06449999660253525,-0.03590000048279762,0.6290000180727021,0.8119999958443843,0.39200000443394367
-0.053515199571847916,0.08016745001077652,9.769195556640625,-0.25599998235702515,-0.05639999732375145,-0.035999998450279236,0.28499999512424284,-0.25599999908414717,-0.22400000253368207
-0.06488286703824997,0.06992026418447495,9.761141777038574,-0.2654999792575836,-0.06669999659061432,-0.04580000042915344,-0.03999999902313467,-0.6059999963729188,-0.05099999867112037
-0.059730544686317444,0.07812758535146713,9.777804374694824,-0.2662000060081482,-0.056599996984004974,-0.035999998450279236,0.2259999939804529,0.3019999891228608,-0.07799999992939192
-0.0591176301240921,0.07456501573324203,9.776196479797363,-0.26420000195503235,-0.06689999997615814,-0.035999998450279236,0.10600000024610218,0.8960000101347283,0.19000000119623298
-0.05154237523674965,0.07888415455818176,9.780630111694336,-0.2515999972820282,-0.057099997997283936,-0.02630000002682209,-0.10600000024610218,0.5129999805514666,0.02600000053230619
-0.05780560523271561,0.07475655525922775,9.761361122131348,-0.258899986743927,-0.06639999896287918,-0.045899998396635056,-0.09099999769425504,-0.5759999912692245,0.06800000267489824
-0.06806236505508423,0.07929596304893494,9.76978874206543,-0.26919999718666077,-0.05609999969601631,-0.03610000014305115,-0.26900001018922354,0.6579999874323713,0.21700000578955783
-0.04569094628095627,0.07957368344068527,9.781558990478516,-0.23709999024868011,-0.0551999993622303,-0.026399999856948853,-0.01700000066872456,0.3529999977991411,0.019000000453128628
-0.05151364579796791,0.07377971708774567,9.768888473510742,-0.24479998648166656,-0.06469999998807907,-0.03619999811053276,-0.26600000967885407,-0.6609999879427407,-0.03400000133744912
-0.06155971437692642,0.0732242688536644,9.7608060836792,-0.2549999952316284,-0.06390000134706497,-0.04600000008940697,0.14900000311465958,0.41499999945330046,0.10299999973573276
-0.06430825591087341,0.07746678590774536,9.765996932983398,-0.25290000438690186,-0.0543999969959259,-0.04609999805688858,-0.17899999487814064,-0.6149999979040272,-0.10900000075647161
-0.060726530849933624,0.08511865884065628,9.766303062438965,-0.25349998474121094,-0.05379999801516533,-0.04609999805688858,0.1939999974299878,0.26500000061525547,0.13499999628619785
-0.059586890041828156,0.07514920085668564,9.787812232971191,-0.25270000100135803,-0.06340000033378601,-0.016699999570846558,-0.0329999989439571,-0.5530000229302942,-0.27500001120996237
-0.059586890041828156,0.07514920085668564,9.787812232971191,-0.25270000100135803,-0.06340000033378601,-0.016699999570846558,-0.0329999989439571,-0.5530000229302942,-0.27500001120996237
-0.04916732758283615,0.06507439911365509,9.771886825561523,-0.24319998919963837,-0.07289999723434448,-0.03629999980330467,-0.07900000232288394,0.06800000267489824,0.04600000004387353
-0.061952363699674606,0.07460332661867142,9.778552055358887,-0.2012999951839447,-0.051500000059604645,-0.02759999968111515,-0.22700000304405152,-0.4070000069857908,-0.17899999487814064
-0.058188680559396744,0.07603026926517487,9.793233871459961,-0.21559999883174896,-0.053700000047683716,-0.017500000074505806,0.0659999978879142,0.4679999728959251,-0.09899999683187131
-0.058188680559396744,0.07603026926517487,9.793233871459961,-0.21559999883174896,-0.053700000047683716,-0.017500000074505806,0.0659999978879142,0.4679999728959251,-0.09899999683187131
-0.06166505813598633,0.0757238119840622,9.777853012084961,-0.1590999960899353,-0.03969999775290489,-0.038100000470876694,0.0969999987149939,0.021000000237532696,-0.004999999877891834
-0.06277596950531006,0.07349241524934769,9.777517318725586,-0.11329999566078186,-0.028599999845027924,-0.038599997758865356,0.13600000534979648,0.4500000231945614,0.07600000181251451
-0.0491769015789032,0.06939353793859482,9.778417587280273,-0.13979999721050262,-0.03799999877810478,-0.0284000001847744,0.08700000146050021,0.010999999647985701,0.0539999991814898
-0.052097827196121216,0.08417055755853653,9.774510383605957,-0.09969999641180038,-0.02029999904334545,-0.038599997758865356,0.1070000026395942,0.3819999938392367,-0.009999999755783667
-0.053189586848020554,0.08546342700719833,9.762835502624512,-0.09969999641180038,-0.02029999904334545,-0.038599997758865356,-0.009999999755783667,-0.32700000226941484,-0.21700000578955783
-0.051695603877305984,0.08214984834194183,9.770708084106445,-0.13599999248981476,-0.029399998486042023,-0.04800000041723251,0.0019999999928448997,0.2959999881021219,0.2039999946844815
-0.0554497092962265,0.07728482782840729,9.776607513427734,-0.18150000274181366,-0.039799999445676804,-0.03749999776482582,-0.031999999885518396,-0.17899999487814064,-0.06099999926066736
-0.06345592439174652,0.08863334357738495,9.780630111694336,-0.12700000405311584,-0.019899999722838402,-0.028599999845027924,-0.021999999295971403,-0.2639999915516568,0.057000003026912535
-0.05313212424516678,0.08300217986106873,9.775947570800781,-0.14839999377727509,-0.03529999777674675,-0.03799999877810478,-0.17700000343136985,-0.4199999914104407,-0.02899999937514897
-0.0591176301240921,0.08229350298643112,9.781549453735352,-0.1817999929189682,-0.03879999741911888,-0.027899999171495438,-0.08799999718388561,-0.015999999942759198,-0.16999999334703236
-0.04824795201420784,0.07623138278722763,9.788990020751953,-0.10269999504089355,-0.028999999165534973,-0.01899999938905239,-0.10999999647985702,0.09399999820462447,-0.19699999794035722
-0.05980715900659561,0.07590577006340027,9.77157974243164,-0.14459998905658722,-0.036399997770786285,-0.03819999843835831,0.019999999511567335,0.12400000330831876,-0.03100000082707969
-0.05836106091737747,0.077476367354393,9.795014381408691,-0.06689999997615814,-0.010999999940395355,-0.019199999049305916,0.017999999727163266,0.05200000106461238,0.22299999347008345
-0.06402094662189484,0.06871359050273895,9.771963119506836,-0.11009999364614487,-0.03059999831020832,-0.038599997758865356,-0.13400000056281244,-0.05600000063342052,0.04200000047506539
-0.05374504253268242,0.06815813481807709,9.76521110534668,-0.07669999450445175,-0.02319999970495701,-0.04859999939799309,0.02600000053230619,-0.16899999762364695,-0.03999999902313467
-0.04791276529431343,0.06794743984937668,9.773456573486328,-0.0551999993622303,-0.016699999570846558,-0.03889999911189079,0.17100000241063099,-0.043999998591942806,-0.06399999977103679
-0.05244259163737297,0.07648037374019623,9.7754487991333,-0.03949999809265137,-0.012299999594688416,-0.03889999911189079,-0.0659999978879142,0.03400000133744912,-0.1199999937343507
-0.05125506967306137,0.08004295080900192,9.780763626098633,-0.026200000196695328,-0.0015999999595806003,-0.029099998995661736,0.010999999647985701,-0.05099999867112037,0.2959999881021219
-0.05879201367497444,0.07037995010614395,9.772738456726074,-0.08969999849796295,-0.02410000003874302,-0.03869999945163727,-0.06200000165415938,-0.4100000074961602,-0.10100000161885533
-0.054606951773166656,0.0806846022605896,9.770794868469238,-0.12019999325275421,-0.023399999365210533,-0.03839999809861183,-0.04900000055424296,0.03899999996469596,0.09999999922536333
-0.053496044129133224,0.08888234943151474,9.785743713378906,-0.08020000159740448,-0.009099999442696571,-0.02889999933540821,-0.06299999737754478,-0.0039999999856897995,0.004999999877891834
-0.054961297661066055,0.0841418206691742,9.772088050842285,-0.05819999799132347,-0.013700000010430813,-0.03879999741911888,0.012000000373951061,0.28699998657101367,0.1199999937343507
-0.06414545327425003,0.07273584604263306,9.777412414550781,-0.11219999939203262,-0.03269999846816063,-0.03849999979138374,-0.04600000004387353,-0.07799999992939192,0.07199999890865307
-0.05440583825111389,0.061291564255952835,9.764214515686035,-0.07750000059604645,-0.03199999779462814,-0.04859999939799309,0.09800000110848592,-0.11400000605382507,0.008999999863581633
-0.05395573005080223,0.07852023839950562,9.77206802368164,-0.05509999766945839,-0.008999999612569809,-0.03889999911189079,0.041000001416626686,-0.009999999755783667,-0.2050000037480801
-0.05647442862391472,0.07548438757658005,9.757962226867676,-0.042899999767541885,-0.014800000004470348,-0.05849999934434891,0.12100000279794933,0.007000000079177565,-0.05900000114378995
-0.06288131326436996,0.07231447100639343,9.763228416442871,-0.03889999911189079,-0.01119999960064888,-0.0486999973654747,0.06299999737754478,-0.12199999852133472,-0.14099999730693671
-0.05231809616088867,0.075934499502182,9.778436660766602,-0.019199999049305916,-0.007499999832361937,-0.029099998995661736,0.049999999612681666,0.24899998899980968,-0.19999999845072666
-0.07485232502222061,0.0821211189031601,9.774624824523926,-0.09309999644756317,-0.011500000022351742,-0.03879999741911888,-0.10100000161885533,0,0.09300000248123906
-0.059041015803813934,0.07335833460092545,9.780879020690918,-0.05559999868273735,-0.0142000000923872,-0.029099998995661736,0.041000001416626686,0.03999999902313467,-0.1189999980109653
-0.05507621914148331,0.08421843498945236,9.778341293334961,-0.03099999949336052,-0.0030999998562037945,-0.029099998995661736,0.21700000578955783,-0.043999998591942806,0.049999999612681666
-0.06252697110176086,0.07527370750904083,9.765507698059082,-0.031300000846385956,-0.010300000198185444,-0.0486999973654747,-0.2549999900205486,-0.14300000209392072,-0.07300000130214508
-0.0665779560804367,0.06694187968969345,9.762530326843262,-0.0851999968290329,-0.03229999914765358,-0.04859999939799309,0.12299999424472013,-0.18400000017549412,0.05999999686717535
-0.052097827196121216,0.07271669805049896,9.771963119506836,-0.11429999768733978,-0.032099999487400055,-0.03849999979138374,0.031999999885518396,0.07000000079177565,0.0009999999964224499
-0.0453844889998436,0.0696616917848587,9.775572776794434,-0.0828000009059906,-0.02149999886751175,-0.028999999165534973,0.07699999753589991,-0.1199999937343507,0.03699999851276524
-0.0453844889998436,0.0696616917848587,9.775572776794434,-0.04580000042915344,-0.015799999237060547,-0.03889999911189079,0.07699999753589991,-0.1199999937343507,0.03699999851276524
-0.05445372313261032,0.0754939615726471,9.766715049743652,-0.04729999974370003,-0.011599999852478504,-0.03889999911189079,-0.07600000181251451,-0.13799999679656727,-0.049999999612681666
-0.05445372313261032,0.0754939615726471,9.766715049743652,-0.0284000001847744,-0.008899999782443047,-0.0486999973654747,-0.07600000181251451,-0.13799999679656727,-0.049999999612681666
-0.06759310513734818,0.07300399988889694,9.765594482421875,-0.029999999329447746,-0.006899999920278788,-0.0486999973654747,-0.12400000330831876,-0.014999999216793838,0.031999999885518396
-0.06759310513734818,0.07300399988889694,9.765594482421875,-0.029999999329447746,-0.006899999920278788,-0.0486999973654747,-0.12400000330831876,-0.014999999216793838,0.031999999885518396
-0.06290046870708466,0.0684933215379715,9.766532897949219,-0.012799999676644802,-0.006000000052154064,-0.0486999973654747,0.038000000906257256,-0.024000000747902123,-0.13100000005244303
-0.06097552925348282,0.075350321829319,9.777019500732422,-0.008999999612569809,-0.004299999680370092,-0.03889999911189079,0.14900000311465958,-0.014999999216793838,0.20999999570522035
-0.051053959876298904,0.07791689783334732,9.778571128845215,-0.05939999967813492,-0.009499999694526196,-0.028999999165534973,0.06800000267489824,0.07600000181251451,0.13600000534979648
-0.05242343991994858,0.08191043138504028,9.779097557067871,-0.02669999934732914,-0.004399999976158142,-0.029099998995661736,0.07600000181251451,-0.07799999992939192,-0.04200000047506539
-0.04998135194182396,0.08016745001077652,9.773236274719238,-0.019600000232458115,-0.003399999812245369,-0.03889999911189079,0,-0.17899999487814064,-0.0969999987149939
-0.04910028725862503,0.06998730450868607,9.77507495880127,-0.06989999860525131,-0.025100000202655792,-0.03879999741911888,-0.019999999511567335,0.03100000082707969,0.1070000026395942
-0.05713523179292679,0.08266700059175491,9.777728080749512,-0.05260000005364418,-0.010099999606609344,-0.029099998995661736,0.048000001495804245,-0.12400000330831876,-0.06500000216452881
-0.05713523179292679,0.08266700059175491,9.777728080749512,-0.05260000005364418,-0.010099999606609344,-0.029099998995661736,0.14799999405106096,0.25400000763737635,0.1079999983629796
-0.06759310513734818,0.06614699959754944,9.778552055358887,-0.09829999506473541,-0.03790000081062317,-0.02889999933540821,-0.0329999989439571,-0.019000000453128628,0.1199999937343507
-0.05950070172548294,0.0787883922457695,9.766149520874023,-0.06669999659061432,-0.013799999840557575,-0.04859999939799309,0.11500000177721047,0.0749999994190225,0.08299999855663877
-0.06168421357870102,0.06894343346357346,9.78041934967041,-0.06669999659061432,-0.013799999840557575,-0.04859999939799309,0.12299999424472013,0,0.1180000022875799
-0.05386953800916672,0.07063852995634079,9.778322219848633,-0.022699998691678047,-0.010900000110268593,-0.029099998995661736,-0.10900000075647161,-0.07900000232288394,-0.04600000004387353
-0.054492030292749405,0.08418970555067062,9.78788948059082,-0.00989999994635582,0.0010999999940395355,-0.019299998879432678,-0.08700000146050021,-0.049999999612681666,-0.023000000021936765
-0.054492030292749405,0.08418970555067062,9.78788948059082,-0.00989999994635582,0.0010999999940395355,-0.019299998879432678,-0.08700000146050021,-0.049999999612681666,-0.023000000021936765
-0.06550535559654236,0.0781850516796112,9.777688980102539,-0.014699999243021011,0.0008999999845400453,-0.03889999911189079,-0.0329999989439571,0.07900000232288394,0.03899999996469596
-0.06262274086475372,0.08448658883571625,9.761322975158691,-0.009800000116229057,0.00029999998514540493,-0.0486999973654747,0.008999999863581633,-0.13000000432905762,0.09200000008774706
-0.06262274086475372,0.08448658883571625,9.761322975158691,-0.009800000116229057,0.00029999998514540493,-0.0486999973654747,0.008999999863581633,-0.13000000432905762,0.09200000008774706
-0.049703627824783325,0.07006391882896423,9.784250259399414,0,-0.0066999997943639755,-0.029099998995661736,-0.128999995265459,-0.1189999980109653,0.01700000066872456
-0.049703627824783325,0.07006391882896423,9.784250259399414,0,-0.0066999997943639755,-0.029099998995661736,-0.128999995265459,-0.1189999980109653,0.01700000066872456
-0.04861186817288399,0.07421068102121353,9.773907661437988,-0.00039999998989515007,-0.006899999920278788,-0.03889999911189079,0.07900000232288394,0.03699999851276524,0.09899999683187131
-0.04861186817288399,0.07421068102121353,9.773907661437988,-0.00039999998989515007,-0.006899999920278788,-0.03889999911189079,0.07900000232288394,0.03699999851276524,0.09899999683187131
-0.0533236600458622,0.08143159002065659,9.779173851013184,-0.00029999998514540493,0.002699999837204814,-0.029099998995661736,0.16500000138989213,0.2929999875917525,-0.09399999820462447
-0.06446148455142975,0.07550355046987534,9.770506858825684,-0.05869999900460243,-0.017799999564886093,-0.03889999911189079,0.13799999679656727,0.02600000053230619,-0.021999999295971403
-0.06446148455142975,0.07550355046987534,9.770506858825684,-0.05869999900460243,-0.017799999564886093,-0.03889999911189079,0.13799999679656727,0.02600000053230619,-0.021999999295971403
-0.060534995049238205,0.07366479188203812,9.772192001342773,-0.027699999511241913,-0.009200000204145908,-0.03889999911189079,-0.006000000186975531,-0.03100000082707969,-0.21899999723632863
-0.060534995049238205,0.07366479188203812,9.772192001342773,-0.027699999511241913,-0.009200000204145908,-0.03889999911189079,-0.006000000186975531,-0.03100000082707969,-0.21899999723632863
-0.055698707699775696,0.07580042630434036,9.782143592834473,-0.00839999970048666,-0.004600000102072954,-0.029099998995661736,-0.019000000453128628,0.031999999885518396,-0.11699999322398127
-0.055698707699775696,0.07580042630434036,9.782143592834473,-0.00839999970048666,-0.004600000102072954,-0.029099998995661736,-0.019000000453128628,0.031999999885518396,-0.11699999322398127
-0.043708544224500656,0.06786125153303146,9.773351669311523,0.0010999999940395355,-0.0026000000070780516,-0.03889999911189079,0.14399999781730613,0.06200000165415938,0.11200000126684104
-0.043708544224500656,0.06786125153303146,9.773351669311523,0.0010999999940395355,-0.0026000000070780516,-0.03889999911189079,0.14399999781730613,0.06200000165415938,0.11200000126684104
-0.061837442219257355,0.0824754610657692,9.780783653259277,-0.006300000008195639,0.004900000058114529,-0.0486999973654747,-0.03599999945432653,-0.08299999855663877,0.06200000165415938
-0.05160941183567047,0.08587522804737091,9.783416748046875,-0.05309999734163284,-0.009599999524652958,-0.028999999165534973,0.0539999991814898,0.12799999954207358,0.1749999986443858
-0.05547844246029854,0.08048348128795624,9.776128768920898,-0.02290000021457672,-0.004799999762326479,-0.03889999911189079,0.08299999855663877,0.024999999806340833,-0.1199999937343507
-0.05547844246029854,0.08048348128795624,9.776128768920898,-0.02290000021457672,-0.004799999762326479,-0.03889999911189079,0.08299999855663877,0.024999999806340833,-0.1199999937343507
-0.05547844246029854,0.08048348128795624,9.776128768920898,-0.02290000021457672,-0.004799999762326479,-0.03889999911189079,0.08299999855663877,0.024999999806340833,-0.1199999937343507
-0.06106172129511833,0.07111737132072449,9.775583267211914,-0.016599999740719795,-0.005699999630451202,-0.03889999911189079,0.0039999999856897995,0.04600000004387353,-0.029999998433587676
-0.0527203232049942,0.07590577006340027,9.774797439575195,0.00009999999747378752,-0.0030999998562037945,-0.03889999911189079,-0.049999999612681666,0.07799999992939192,0.05900000114378995
-0.05223190411925316,0.06494990736246109,9.782660484313965,0.00019999999494757503,-0.00839999970048666,-0.029099998995661736,-0.07099999651516105,-0.08100000043976135,0.06399999977103679
-0.0592421256005764,0.0706193745136261,9.776071548461914,-0.009399999864399433,0.00279999990016222,-0.03889999911189079,0.019999999511567335,0.03599999945432653,0.07699999753589991
-0.05159026011824608,0.07957368344068527,9.786653518676758,0.00029999998514540493,0.008299999870359898,-0.029099998995661736,-0.021999999295971403,-0.05200000106461238,0.07699999753589991
-0.06402094662189484,0.07541734725236893,9.777498245239258,-0.009599999524652958,-0.0013000000035390258,-0.03889999911189079,0.06399999977103679,-0.12799999954207358,-0.09000000197086964
-0.058523863554000854,0.075474813580513,9.775238037109375,-0.009999999776482582,-0.001500000013038516,-0.03889999911189079,0.13000000432905762,0.10100000161885533,0.024999999806340833
-0.04485776275396347,0.08004295080900192,9.769874572753906,0.00969999935477972,0.007899999618530273,-0.03889999911189079,0.0539999991814898,-0.04500000098543482,-0.0539999991814898
-0.055344369262456894,0.06759310513734818,9.77730655670166,-0.00009999999747378752,-0.0018999999156221747,-0.03889999911189079,0.15999999609253868,-0.12700000381868817,0.0030000000934877653
-0.052356403321027756,0.07498639822006226,9.77348518371582,-0.0004999999655410647,-0.0023999998811632395,-0.03889999911189079,0.09300000248123906,0.007999999971379599,-0.0039999999856897995
-0.05146576091647148,0.07852981239557266,9.764388084411621,-0.0004999999655410647,0.0071000000461936,-0.0486999973654747,0.13000000432905762,0.15900000036915327,0.14600000260429016
-0.05760449171066284,0.07382760941982269,9.778820037841797,-0.10659999400377274,-0.030399998649954796,-0.02879999950528145,-0.09399999820462447,-0.04600000004387353,0.06700000028140622
-0.06070737913250923,0.07525454461574554,9.772528648376465,-0.05819999799132347,-0.012399999424815178,-0.03879999741911888,-0.024999999806340833,-0.04600000004387353,0.05099999867112037
-0.05310339480638504,0.07844362407922745,9.77686595916748,-0.023799998685717583,-0.0032999999821186066,-0.03889999911189079,0.03699999851276524,0.031999999885518396,-0.10199999734224074
-0.05952943116426468,0.08157524466514587,9.780745506286621,-0.02149999886751175,-0.002300000051036477,-0.029099998995661736,0.08700000146050021,-0.07399999702553048,0.046999999102312236
-0.05983588844537735,0.06533297896385193,9.78335952758789,-0.00839999970048666,-0.012399999424815178,-0.029099998995661736,-0.0859999990670082,0.07799999992939192,0.023000000021936765
-0.06177040562033653,0.08166143298149109,9.77027702331543,-0.005799999926239252,0.0052999998442828655,-0.03889999911189079,-0.041000001416626686,-0.048000001495804245,-0.09899999683187131
-0.059471968561410904,0.08002379536628723,9.769061088562012,-0.00419999985024333,0.003700000001117587,-0.03889999911189079,0.004999999877891834,0.014999999216793838,0.043999998591942806
-0.06604165583848953,0.06575435400009155,9.778618812561035,-0.002699999837204814,-0.010499999858438969,-0.029099998995661736,-0.01400000015835513,0.13700000107318186,0.19999999845072666
-0.06017107889056206,0.07681556791067123,9.781271934509277,-0.052299998700618744,-0.004999999888241291,-0.029099998995661736,0.09800000110848592,0.0039999999856897995,-0.128999995265459
-0.06267062574625015,0.0720558911561966,9.781654357910156,-0.02459999918937683,-0.011399999260902405,-0.0486999973654747,-0.04900000055424296,-0.05300000012305109,0.038000000906257256
-0.061032988131046295,0.07238151133060455,9.78125286102295,-0.028999999165534973,-0.007499999832361937,-0.029099998995661736,-0.031999999885518396,-0.03699999851276524,0.12299999424472013
-0.06911581754684448,0.07898949831724167,9.771551132202148,-0.03889999911189079,0.002300000051036477,-0.03889999911189079,0.02899999937514897,0.021999999295971403,0.048000001495804245
-0.056694693863391876,0.06522762775421143,9.777603149414062,-0.019299998879432678,-0.01730000041425228,-0.03889999911189079,0.049999999612681666,0.07300000130214508,-0.10999999647985702
-0.060276418924331665,0.07366479188203812,9.780304908752441,-0.02889999933540821,-0.007599999662488699,-0.029099998995661736,0.2289999944908223,-0.08400000095013078,-0.031999999885518396
-0.05687665566802025,0.0803302526473999,9.77784252166748,-0.01939999870955944,0.00139999995008111,-0.03889999911189079,0.05999999686717535,0.13100000005244303,0.0969999987149939
-0.05843767523765564,0.07967903465032578,9.772106170654297,-0.02889999933540821,0.0013000000035390258,-0.03889999911189079,-0.20200000323771067,-0.09300000248123906,0.021999999295971403
-0.059155937284231186,0.07325299829244614,9.78184700012207,-0.029099998995661736,-0.007899999618530273,-0.029099998995661736,-0.11200000126684104,0.0969999987149939,-0.12599999475508955
-0.06484455615282059,0.06658753752708435,9.77600383758545,-0.02879999950528145,-0.01730000041425228,-0.03889999911189079,0.19200000598321698,-0.03999999902313467,0.09500000059811649
-0.05133168399333954,0.07367438077926636,9.77192497253418,-0.019099999219179153,-0.007899999618530273,-0.03889999911189079,0.08700000146050021,-0.007000000079177565,-0.12199999852133472
-0.05997954308986664,0.07788816839456558,9.769942283630371,-0.02889999933540821,0.001500000013038516,-0.03889999911189079,-0.07099999651516105,-0.09200000008774706,-0.0009999999964224499
-0.05472187325358391,0.06996814906597137,9.778504371643066,-0.029099998995661736,-0.007999999448657036,-0.029099998995661736,-0.2549999900205486,0.15699999558216926,-0.11500000177721047
-0.05472187325358391,0.06996814906597137,9.778504371643066,-0.019099999219179153,-0.007899999618530273,-0.029099998995661736,-0.2549999900205486,0.15699999558216926,-0.11500000177721047
-0.05874413251876831,0.08109639585018158,9.775334358215332,-0.0284000001847744,0.0026000000070780516,-0.03889999911189079,-0.13799999679656727,-0.09200000008774706,0.01400000015835513
-0.056292470544576645,0.0735786035656929,9.767087936401367,-0.0284000001847744,0.0026000000070780516,-0.03889999911189079,-0.05600000063342052,-0.06399999977103679,-0.013000000266153095
-0.05064215511083603,0.07034164667129517,9.777067184448242,-0.01899999938905239,-0.0064999996684491634,-0.03889999911189079,-0.0329999989439571,0.08400000095013078,-0.0269999995907449
-0.06176082789897919,0.07608772814273834,9.762242317199707,-0.02850000001490116,-0.006399999838322401,-0.0486999973654747,-0.0039999999856897995,-0.13799999679656727,0.021000000237532696
-0.06176082789897919,0.07608772814273834,9.762242317199707,-0.02850000001490116,-0.006399999838322401,-0.0486999973654747,-0.0039999999856897995,-0.13799999679656727,0.021000000237532696
-0.055583786219358444,0.07108864188194275,9.75943660736084,-0.019099999219179153,-0.0064999996684491634,-0.0486999973654747,-0.012000000373951061,-0.07099999651516105,-0.007999999971379599
-0.06246950849890709,0.06967127323150635,9.781998634338379,-0.029099998995661736,-0.0064999996684491634,-0.029099998995661736,0.0039999999856897995,-0.0969999987149939,-0.007999999971379599
-0.057240575551986694,0.06902004778385162,9.782248497009277,-0.019500000402331352,-0.0064999996684491634,-0.029099998995661736,0.2570000081477458,0.12400000330831876,0.019000000453128628
-0.05189671739935875,0.07758171111345291,9.778618812561035,-0.019199999049305916,0.0024999999441206455,-0.029099998995661736,-0.08899999957737763,0.03599999945432653,0.007000000079177565
-0.0523659773170948,0.07782112807035446,9.767979621887207,-0.019199999049305916,0.0024999999441206455,-0.029099998995661736,0.024999999806340833,0.0749999994190225,-0.035000000395887826
-0.05308423936367035,0.07699752599000931,9.7724609375,-0.01889999955892563,0.002699999837204814,-0.03889999911189079,0.23399998644796255,-0.009999999755783667,-0.007999999971379599
-0.048190489411354065,0.07873092591762543,9.758966445922852,-0.01899999938905239,0.002099999925121665,-0.0486999973654747,-0.15999999609253868,0.006000000186975531,0.07600000181251451
-0.06152140721678734,0.070389524102211,9.768257141113281,-0.02879999950528145,-0.007199999876320362,-0.0486999973654747,0.048000001495804245,0.18900000547284757,-0.2360000045751598
-0.04519294947385788,0.07545565813779831,9.764397621154785,-0.008799999952316284,-0.007400000002235174,-0.0486999973654747,-0.010999999647985701,0.08899999957737763,-0.048000001495804245
-0.05589982122182846,0.07616434246301651,9.7766752243042,-0.018299998715519905,-0.007400000002235174,-0.03889999911189079,0.06399999977103679,0.14399999781730613,0.14300000209392072
-0.07165367156267166,0.06990111619234085,9.778312683105469,-0.03749999776482582,-0.007499999832361937,-0.029099998995661736,0.14699999832767557,-0.06700000028140622,-0.11099999887334903
-0.06290046870708466,0.08158481866121292,9.766963958740234,-0.027899999171495438,0.0017999999690800905,-0.0486999973654747,-0.12599999475508955,0.02800000031671026,0.0429999995335041
-0.05815994739532471,0.07652826607227325,9.774500846862793,-0.027799999341368675,-0.007599999662488699,-0.03889999911189079,-0.03400000133744912,-0.10400000212922476,-0.18600000496247812
-0.07276458293199539,0.08433336019515991,9.777392387390137,-0.03779999911785126,0.002199999988079071,-0.03889999911189079,0.10199999734224074,0.05499999823992851,0.14600000260429016
-0.05295974388718605,0.07597281038761139,9.774807929992676,-0.017999999225139618,-0.007899999618530273,-0.03889999911189079,0.02899999937514897,0.03400000133744912,0.05900000114378995
-0.05080495774745941,0.07628884166479111,9.776646614074707,-0.017899999395012856,-0.007899999618530273,-0.03889999911189079,0.04500000098543482,0.07099999651516105,-0.012000000373951061
-0.04177403077483177,0.08350975811481476,9.774222373962402,-0.007899999618530273,0.0016999999061226845,-0.03889999911189079,-0.13600000534979648,0.0269999995907449,0.057000003026912535
-0.05583278089761734,0.0792672261595726,9.765316009521484,-0.01759999990463257,0.001999999862164259,-0.0486999973654747,0.13400000056281244,-0.15800000464576788,-0.019000000453128628
-0.05552632361650467,0.06512228399515152,9.767816543579102,-0.017999999225139618,-0.017899999395012856,-0.0486999973654747,-0.031999999885518396,0.015999999942759198,-0.0539999991814898
-0.05630204826593399,0.06033388152718544,9.770459175109863,-0.017799999564886093,-0.01759999990463257,-0.03889999911189079,-0.06299999737754478,-0.004999999877891834,0.0969999987149939
-0.06635769456624985,0.08426631987094879,9.774921417236328,-0.027400000020861626,0.002300000051036477,-0.03889999911189079,0.1509999945614304,0.03999999902313467,0.18099999966512467
-0.06412629783153534,0.06873274594545364,9.772153854370117,-0.027400000020861626,-0.007799999788403511,-0.03889999911189079,0.10100000161885533,0.05900000114378995,0.09300000248123906
-0.04345954954624176,0.07543651014566422,9.779117584228516,-0.007699999958276749,-0.008100000210106373,-0.029099998995661736,-0.06299999737754478,-0.0329999989439571,-0.10600000024610218
-0.04760630801320076,0.08013872057199478,9.780562400817871,-0.007799999788403511,0.0017999999690800905,-0.029099998995661736,-0.07099999651516105,-0.12199999852133472,-0.13600000534979648
-0.05231809616088867,0.06977660953998566,9.79023551940918,-0.017799999564886093,-0.007699999958276749,-0.019299998879432678,0.09500000059811649,0.11299999699022645,0.05099999867112037
-0.06026684492826462,0.07495766133069992,9.781530380249023,-0.02719999849796295,-0.007999999448657036,-0.029099998995661736,-0.05200000106461238,-0.07199999890865307,0.09000000197086964
-0.048947058618068695,0.07100244611501694,9.783158302307129,-0.017500000074505806,-0.007899999618530273,-0.029099998995661736,-0.02800000031671026,-0.10499999785261017,0.0539999991814898
-0.053429003804922104,0.08124962449073792,9.775812149047852,-0.017799999564886093,0.0018999999156221747,-0.03889999911189079,0.013000000266153095,0.0969999987149939,0.06099999926066736
-0.060467954725027084,0.06995857506990433,9.774816513061523,-0.02719999849796295,-0.007799999788403511,-0.03889999911189079,-0.1180000022875799,0.009999999755783667,0.07399999702553048
-0.06658753752708435,0.06740156561136246,9.77904987335205,-0.02719999849796295,-0.007599999662488699,-0.029099998995661736,0.019000000453128628,0.0969999987149939,0.029999998433587676
-0.046121902763843536,0.07988972216844559,9.788904190063477,-0.0072999997064471245,0.002099999925121665,-0.019299998879432678,-0.283000003677472,0.02800000031671026,-0.25599999908414717
-0.05152321979403496,0.0739521011710167,9.776521682739258,-0.0072999997064471245,-0.00699999975040555,-0.0486999973654747,-0.15599999985878385,-0.14300000209392072,-0.05799999875029794
-0.05152321979403496,0.0739521011710167,9.776521682739258,-0.016899999231100082,-0.006799999624490738,-0.03889999911189079,-0.15599999985878385,-0.14300000209392072,-0.05799999875029794
-0.055507171899080276,0.08161354809999466,9.767328262329102,-0.01769999973475933,0.003700000001117587,-0.0486999973654747,-0.20999999570522035,0.02600000053230619,0.2929999875917525
-0.05377376824617386,0.08099105954170227,9.77846622467041,-0.017799999564886093,0.004299999680370092,-0.029099998995661736,-0.043999998591942806,0.07000000079177565,0.05300000012305109
-0.05621585622429848,0.06570647656917572,9.789125442504883,-0.01759999990463257,-0.015099999494850636,-0.019299998879432678,-0.14699999832767557,0.014999999216793838,-0.024000000747902123
-0.06060203164815903,0.08145074546337128,9.777986526489258,-0.027300000190734863,0.004799999762326479,-0.029099998995661736,0.0859999990670082,0.05999999686717535,-0.03699999851276524
-0.06060203164815903,0.08145074546337128,9.777986526489258,-0.027300000190734863,0.004799999762326479,-0.029099998995661736,0.0859999990670082,0.05999999686717535,-0.03699999851276524
-0.05890693888068199,0.07580042630434036,9.768372535705566,-0.026899999007582664,-0.005200000014156103,-0.03889999911189079,0.1070000026395942,0.2050000037480801,0.10499999785261017
-0.05334281548857689,0.06797617673873901,9.772528648376465,-0.016699999570846558,-0.00559999980032444,-0.03889999911189079,0.06099999926066736,0.035000000395887826,0.05999999686717535
-0.04736688733100891,0.0723910853266716,9.774395942687988,-0.006799999624490738,-0.005699999630451202,-0.03889999911189079,-0.14300000209392072,-0.07399999702553048,0
-0.061741672456264496,0.07623138278722763,9.78287124633789,-0.026499999687075615,-0.0052999998442828655,-0.029099998995661736,-0.06200000165415938,0.24299998797907083,-0.1199999937343507
-0.06381984055042267,0.06983407586812973,9.769693374633789,-0.026499999687075615,-0.0052999998442828655,-0.029099998995661736,0.057000003026912535,0.02899999937514897,0.08400000095013078
-0.05553590506315231,0.0719122365117073,9.782459259033203,-0.01599999889731407,-0.005200000014156103,-0.029099998995661736,-0.0539999991814898,-0.26000000865811523,-0.015999999942759198
-0.05812164023518562,0.07212293148040771,9.783474922180176,-0.026799999177455902,-0.0050999997183680534,-0.029099998995661736,0.012000000373951061,0.128999995265459,-0.048000001495804245
-0.04983770474791527,0.08152735978364944,9.768515586853027,-0.016599999740719795,0.004600000102072954,-0.03889999911189079,0.07399999702553048,0.06099999926066736,-0.11599999750059588
-0.05408022552728653,0.07546523958444595,9.780582427978516,-0.01640000008046627,-0.0052999998442828655,-0.029099998995661736,0.049999999612681666,0.10199999734224074,0.0329999989439571
-0.05819825455546379,0.06819643825292587,9.782574653625488,-0.02579999901354313,-0.005499999970197678,-0.029099998995661736,0.043999998591942806,0.08299999855663877,0.004999999877891834
-0.0475105382502079,0.0721612423658371,9.78215217590332,-0.006000000052154064,-0.00559999980032444,-0.029099998995661736,0.10400000212922476,0.06399999977103679,0.05999999686717535
-0.05723099783062935,0.07694964855909348,9.770411491394043,-0.015599999576807022,0.0037999998312443495,-0.03889999911189079,-0.014999999216793838,0.019999999511567335,0.13400000056281244
-0.054827217012643814,0.07523539662361145,9.776856422424316,-0.01549999974668026,-0.0058999997563660145,-0.03889999911189079,-0.05600000063342052,-0.08899999957737763,-0.07799999992939192
-0.06309200078248978,0.0755993127822876,9.783321380615234,-0.025499999523162842,-0.005699999630451202,-0.029099998995661736,0.15399999507179982,0.03599999945432653,0.2959999881021219
-0.055631671100854874,0.06750690937042236,9.770679473876953,-0.015799999237060547,-0.006300000008195639,-0.03889999911189079,-0.09800000110848592,-0.017999999727163266,0.09399999820462447
-0.06042007356882095,0.0772465243935585,9.771723747253418,-0.025599999353289604,0.003700000001117587,-0.03889999911189079,-0.010999999647985701,0.02800000031671026,-0.03699999851276524
-0.075474813580513,0.08636365085840225,9.778226852416992,-0.03529999777674675,0.013499999418854713,-0.029099998995661736,-0.19900000272734125,0.038000000906257256,-0.1189999980109653
-0.0646817535161972,0.07442136108875275,9.769319534301758,-0.025599999353289604,-0.00559999980032444,-0.03889999911189079,-0.049999999612681666,0.10600000024610218,0.1199999937343507
-0.06715257465839386,0.08870038390159607,9.778303146362305,-0.03500000014901161,0.0139999995008111,-0.029099998995661736,-0.09999999922536333,0.06800000267489824,-0.03599999945432653
-0.061100028455257416,0.07467036694288254,9.75801944732666,-0.024899998679757118,-0.0050999997183680534,-0.05859999731183052,-0.06399999977103679,-0.006000000186975531,-0.06299999737754478
-0.056148819625377655,0.06938396394252777,9.768035888671875,-0.015099999494850636,-0.004999999888241291,-0.0486999973654747,0.013000000266153095,0.06899999839828364,-0.023000000021936765
-0.05890693888068199,0.07213250547647476,9.788262367248535,-0.02459999918937683,-0.004999999888241291,-0.019299998879432678,0.0269999995907449,0.0749999994190225,-0.23499999551156117
-0.07392337173223495,0.0829351469874382,9.769013404846191,-0.03449999913573265,0.004600000102072954,-0.03889999911189079,0.10199999734224074,0.14099999730693671,0.11599999750059588
-0.05912720412015915,0.06999687850475311,9.764703750610352,-0.02419999986886978,-0.005399999674409628,-0.0486999973654747,0.0749999994190225,0.03599999945432653,0.046999999102312236
-0.04992389306426048,0.07819462567567825,9.76543140411377,-0.014299999922513962,0.003999999724328518,-0.0486999973654747,-0.0019999999928448997,-0.10100000161885533,0.1390000058601659
-0.04717535153031349,0.07743805646896362,9.781185150146484,-0.004699999932199717,0.003999999724328518,-0.029099998995661736,-0.21299999621558977,0.08100000043976135,0.11200000126684104
-0.06531382352113724,0.07622180134057999,9.763172149658203,-0.024299999698996544,-0.0050999997183680534,-0.0486999973654747,0.1729999938574018,0.06800000267489824,0.0009999999964224499
-0.0568670779466629,0.07532158493995667,9.776244163513184,-0.014299999922513962,-0.005499999970197678,-0.03889999911189079,0.10900000075647161,0.0269999995907449,0.0749999994190225
-0.05231809616088867,0.06248866394162178,9.770679473876953,-0.0142000000923872,-0.01549999974668026,-0.03889999911189079,-0.04900000055424296,-0.03400000133744912,-0.019000000453128628
-0.06044880300760269,0.07614518702030182,9.77104377746582,-0.02410000003874302,-0.005499999970197678,-0.03889999911189079,-0.06500000216452881,0.1189999980109653,-0.08200000283325337
-0.05943366140127182,0.07545565813779831,9.779585838317871,-0.02369999885559082,-0.005399999674409628,-0.029099998995661736,0.03100000082707969,0.031999999885518396,-0.07600000181251451
-0.05642654374241829,0.08544426411390305,9.77784252166748,-0.013799999840557575,0.00419999985024333,-0.03889999911189079,0.1509999945614304,-0.17100000241063099,0.0539999991814898
-0.06221093609929085,0.06821559369564056,9.782258033752441,-0.02419999986886978,-0.0058999997563660145,-0.019299998879432678,0.1070000026395942,-0.04200000047506539,-0.11500000177721047
-0.06221093609929085,0.06821559369564056,9.782258033752441,-0.024000000208616257,-0.00559999980032444,-0.029099998995661736,0.1070000026395942,-0.04200000047506539,-0.11500000177721047
-0.04322013258934021,0.07888415455818176,9.761801719665527,-0.0044999998062849045,-0.006000000052154064,-0.029099998995661736,0.031999999885518396,-0.03899999996469596,-0.06899999839828364
-0.04322013258934021,0.07888415455818176,9.761801719665527,-0.00419999985024333,0.0037999998312443495,-0.0486999973654747,0.031999999885518396,-0.03899999996469596,-0.06899999839828364
-0.05350561812520027,0.07697837054729462,9.779509544372559,-0.014399999752640724,0.003599999938160181,-0.029099998995661736,-0.13600000534979648,-0.07099999651516105,-0.04200000047506539
-0.06562986224889755,0.07005434483289719,9.778484344482422,-0.024299999698996544,-0.005699999630451202,-0.029099998995661736,-0.021000000237532696,-0.07699999753589991,0.10100000161885533
-0.03877649083733559,0.07727525383234024,9.764148712158203,-0.024299999698996544,-0.005699999630451202,-0.029099998995661736,0.04500000098543482,0.128999995265459,-0.10100000161885533
-0.05708734691143036,0.0815177783370018,9.773839950561523,-0.014399999752640724,0.003999999724328518,-0.03889999911189079,0.13300000483942703,0.03400000133744912,-0.0749999994190225
-0.0539078451693058,0.08023449033498764,9.772614479064941,-0.014299999922513962,0.003599999938160181,-0.03889999911189079,0.03999999902313467,0.05499999823992851,0.02899999937514897
-0.05597643554210663,0.07045656442642212,9.792045593261719,-0.014099999330937862,-0.006199999712407589,-0.019299998879432678,0.02800000031671026,0.07399999702553048,0.1930000017066024
-0.05080495774745941,0.07302315533161163,9.781012535095215,-0.013599999248981476,-0.006199999712407589,-0.029099998995661736,0.024000000747902123,0.0039999999856897995,0.14300000209392072
-0.059088896960020065,0.07697837054729462,9.764656066894531,-0.023000000044703484,0.003399999812245369,-0.0486999973654747,0.15999999609253868,0.09500000059811649,-0.021999999295971403
-0.06671203672885895,0.09374736249446869,9.77540111541748,-0.02239999920129776,0.012600000016391277,-0.03889999911189079,-0.0269999995907449,0.13400000056281244,0.08700000146050021
-0.06725791096687317,0.07777324318885803,9.782880783081055,-0.03099999949336052,0.00279999990016222,-0.029099998995661736,-0.18799999640924894,0.12199999852133472,-0.06099999926066736
-0.049512092024087906,0.08563580363988876,9.776876449584961,-0.011299999430775642,0.0032999999821186066,-0.03889999911189079,-0.05799999875029794,-0.15200000362502902,-0.20800000425844953
-0.06075526028871536,0.07781155407428741,9.782536506652832,-0.02199999988079071,0.002099999925121665,-0.029099998995661736,-0.1800000039417393,0.07199999890865307,0.05499999823992851
-0.06407841295003891,0.07708371430635452,9.768659591674805,-0.021800000220537186,0.0024999999441206455,-0.03889999911189079,0.19200000598321698,0.06399999977103679,0.17100000241063099
-0.047711651772260666,0.08058883249759674,9.776588439941406,-0.002199999988079071,0.0018999999156221747,-0.03889999911189079,-0.05900000114378995,0.10199999734224074,0.1629999966029081
-0.053256623446941376,0.0714525505900383,9.777661323547363,-0.011699999682605267,-0.007699999958276749,-0.03889999911189079,-0.01700000066872456,-0.0429999995335041,0.04500000098543482
-0.05457821860909462,0.062479086220264435,9.77997875213623,-0.011799999512732029,-0.017400000244379044,-0.029099998995661736,-0.05300000012305109,0.09000000197086964,-0.019999999511567335
-0.04760630801320076,0.06561069935560226,9.767021179199219,-0.0016999999061226845,-0.01719999872148037,-0.0486999973654747,-0.07399999702553048,-0.05499999823992851,-0.1180000022875799
-0.06585970520973206,0.07734229415655136,9.782698631286621,-0.021399999037384987,0.0024999999441206455,-0.029099998995661736,0.05799999875029794,0.21899999723632863,0.012000000373951061
-0.06618531048297882,0.059539008885622025,9.77187728881836,-0.020600000396370888,-0.01719999872148037,-0.03889999911189079,0.09200000008774706,0.12400000330831876,-0.1509999945614304
-0.05352477356791496,0.07840532064437866,9.769970893859863,-0.010499999858438969,0.002099999925121665,-0.03889999911189079,0.1079999983629796,-0.0749999994190225,0.1400000015835513
-0.0530746653676033,0.08004295080900192,9.770498275756836,-0.010699999518692493,0.0016999999061226845,-0.03889999911189079,-0.057000003026912535,0.10400000212922476,0.07199999890865307
-0.059653930366039276,0.07131848484277725,9.77694320678711,-0.02019999921321869,-0.007799999788403511,-0.03889999911189079,0.1180000022875799,-0.0539999991814898,-0.1729999938574018
-0.060908492654561996,0.07015010714530945,9.784212112426758,-0.02019999921321869,-0.007999999448657036,-0.029099998995661736,0.11200000126684104,0.07999999804626934,0.25100000712700693
-0.04923436418175697,0.07907569408416748,9.762088775634766,-0.010400000028312206,0.0013000000035390258,-0.0486999973654747,0.006000000186975531,0.12700000381868817,-0.038000000906257256
-0.054683566093444824,0.07669106870889664,9.771349906921387,-0.010099999606609344,0.0013000000035390258,-0.03889999911189079,0.05999999686717535,0.024000000747902123,0.11299999699022645
-0.05412811413407326,0.07544608414173126,9.767184257507324,-0.009999999776482582,-0.008499999530613422,-0.0486999973654747,-0.06099999926066736,0.06099999926066736,-0.01700000066872456
-0.058475982397794724,0.06706637889146805,9.767585754394531,-0.019500000402331352,-0.008299999870359898,-0.0486999973654747,-0.07999999804626934,-0.01400000015835513,-0.06399999977103679
-0.05527732893824577,0.07091625034809113,9.77530574798584,-0.010099999606609344,-0.007999999448657036,-0.03889999911189079,-0.14900000311465958,-0.17599999436777122,-0.05600000063342052
-0.06223009154200554,0.06171294301748276,9.772212028503418,-0.020499998703598976,-0.017500000074505806,-0.03889999911189079,0.0659999978879142,0.04500000098543482,0.024000000747902123
-0.051408298313617706,0.08118259161710739,9.773093223571777,-0.010499999858438969,0.0018999999156221747,-0.03889999911189079,-0.13700000107318186,-0.07000000079177565,-0.19799999366374263
-0.06365703791379929,0.07875008136034012,9.779040336608887,-0.020600000396370888,0.002099999925121665,-0.029099998995661736,0.10400000212922476,-0.03999999902313467,0.10400000212922476
-0.06104256957769394,0.06964253634214401,9.779480934143066,-0.020600000396370888,-0.007899999618530273,-0.029099998995661736,-0.06200000165415938,0.10900000075647161,0.029999998433587676
-0.043593622744083405,0.07457458972930908,9.782649993896484,-0.00009999999747378752,-0.0072999997064471245,-0.029099998995661736,-0.19099999691961836,-0.2729999930827651,-0.24099999653230003
-0.05069003626704216,0.07711245119571686,9.780582427978516,-0.010799999348819256,0.003000000026077032,-0.029099998995661736,0.13100000005244303,0.20099999417411205,0.11099999887334903
-0.05822698771953583,0.07302315533161163,9.763516426086426,-0.010799999348819256,0.003000000026077032,-0.029099998995661736,-0.16599999711327754,-0.14799999405106096,-0.02600000053230619
-0.040107667446136475,0.07136636227369308,9.780820846557617,-0.0008999999845400453,-0.0066999997943639755,-0.029099998995661736,0.16400000566650674,-0.2050000037480801,-0.0969999987149939
-0.06211517006158829,0.08419928699731827,9.765517234802246,-0.021299999207258224,0.0024999999441206455,-0.0486999973654747,-0.30400000725005805,0.01400000015835513,0.10199999734224074
-0.06211517006158829,0.08419928699731827,9.765517234802246,-0.021299999207258224,0.0024999999441206455,-0.0486999973654747,-0.30400000725005805,0.01400000015835513,0.10199999734224074
-0.04961743578314781,0.07982268184423447,9.771129608154297,-0.011799999512732029,0.003499999875202775,-0.03889999911189079,0.05499999823992851,0.11200000126684104,-0.12799999954207358
-0.0541568398475647,0.0668269544839859,9.766101837158203,-0.011500000022351742,-0.016099998727440834,-0.0486999973654747,-0.14499999354069154,-0.10499999785261017,-0.049999999612681666
-0.0541568398475647,0.0668269544839859,9.766101837158203,-0.011500000022351742,-0.016099998727440834,-0.0486999973654747,-0.14499999354069154,-0.10499999785261017,-0.049999999612681666
-0.061837442219257355,0.07842446863651276,9.771791458129883,-0.021399999037384987,0.004299999680370092,-0.03889999911189079,0.08100000043976135,-0.05999999686717535,0.21100000476881897
-0.05895482376217842,0.0685986652970314,9.77513313293457,-0.021399999037384987,0.004299999680370092,-0.03889999911189079,-0.07900000232288394,0.09600000299160849,-0.009999999755783667
-0.0668269544839859,0.0744117870926857,9.778982162475586,-0.021399999037384987,-0.005499999970197678,-0.029099998995661736,-0.048000001495804245,0.12100000279794933,0.16800000190026157
-0.060774415731430054,0.07567592710256577,9.779126167297363,-0.020999999716877937,-0.0052999998442828655,-0.029099998995661736,-0.1180000022875799,-0.006000000186975531,-0.05999999686717535
-0.054013192653656006,0.08713936805725098,9.772987365722656,-0.01119999960064888,0.014399999752640724,-0.03889999911189079,0.16400000566650674,0.2469999975530389,0.0039999999856897995
-0.06735368072986603,0.07546523958444595,9.778791427612305,-0.030299998819828033,-0.00559999980032444,-0.029099998995661736,0.08299999855663877,0.05300000012305109,-0.05300000012305109
-0.0584089420735836,0.0799950659275055,9.772624015808105,-0.02019999921321869,0.0037999998312443495,-0.03889999911189079,0.0039999999856897995,0.031999999885518396,0.13700000107318186
-0.05940493568778038,0.07465120404958725,9.768218994140625,-0.020099999383091927,-0.0058999997563660145,-0.0486999973654747,0.11099999887334903,0.10400000212922476,0.015999999942759198
-0.05685750022530556,0.07253473997116089,9.76925277709961,-0.009999999776482582,-0.006099999882280827,-0.03889999911189079,-0.08400000095013078,-0.07799999992939192,-0.09200000008774706
-0.06615658104419708,0.08095274865627289,9.775017738342285,-0.019899999722838402,0.0037999998312443495,-0.03889999911189079,0.043999998591942806,-0.03999999902313467,-0.09500000059811649
-0.06814856082201004,0.07112694531679153,9.775266647338867,-0.02969999983906746,-0.006099999882280827,-0.03889999911189079,0.06800000267489824,0.2289999944908223,0.038000000906257256
-0.05829402059316635,0.0662427768111229,9.777460098266602,-0.019299998879432678,-0.016099998727440834,-0.03889999911189079,-0.05499999823992851,-0.057000003026912535,0.007999999971379599
-0.0494067445397377,0.06681738048791885,9.773447036743164,-0.009599999524652958,-0.01589999906718731,-0.03889999911189079,0.019999999511567335,0.1079999983629796,0.04200000047506539
-0.05525817349553108,0.07601111382246017,9.779135704040527,-0.00930000003427267,-0.006099999882280827,-0.029099998995661736,-0.19499999315337319,-0.07600000181251451,-0.09999999922536333
-0.05779602751135826,0.07533115893602371,9.781539916992188,-0.01939999870955944,-0.005699999630451202,-0.029099998995661736,0.09999999922536333,0.06500000216452881,0.13600000534979648
-0.05014416202902794,0.07196970283985138,9.780284881591797,-0.009399999864399433,-0.0058999997563660145,-0.029099998995661736,0.12799999954207358,0.004999999877891834,0.008999999863581633
-0.047194503247737885,0.085434690117836,9.761265754699707,0.00039999998989515007,0.003399999812245369,-0.0486999973654747,-0.18900000547284757,0.07099999651516105,-0.015999999942759198
-0.052480898797512054,0.06975746154785156,9.748969078063965,-0.009200000204145908,-0.006000000052154064,-0.06830000132322311,0.07699999753589991,0.23000000355442093,0.007000000079177565
-0.06216305121779442,0.07792647182941437,9.769233703613281,-0.018400000408291817,0.003499999875202775,-0.03889999911189079,-0.0030000000934877653,0.02800000031671026,0.008999999863581633
-0.05780560523271561,0.07043741643428802,9.776501655578613,-0.018199998885393143,-0.006199999712407589,-0.03889999911189079,0.1189999980109653,0.16599999711327754,-0.046999999102312236
-0.05946239456534386,0.07740933448076248,9.776214599609375,-0.017799999564886093,0.0032999999821186066,-0.03889999911189079,-0.10600000024610218,0.1079999983629796,0.0659999978879142
-0.057384226471185684,0.07507258653640747,9.774873733520508,-0.007699999958276749,-0.005799999926239252,-0.03889999911189079,-0.038000000906257256,0.16400000566650674,0.007999999971379599
-0.057384226471185684,0.07507258653640747,9.774873733520508,-0.007699999958276749,-0.005799999926239252,-0.03889999911189079,-0.038000000906257256,0.16400000566650674,0.007999999971379599
-0.05906016752123833,0.0728699266910553,9.776397705078125,-0.016899999231100082,-0.005699999630451202,-0.03889999911189079,-0.15800000464576788,0.1189999980109653,-0.13100000005244303
-0.05906974524259567,0.07844362407922745,9.77099609375,-0.006899999920278788,0.004399999976158142,-0.029099998995661736,-0.02600000053230619,-0.06200000165415938,0.20599999947146552
-0.05906974524259567,0.07844362407922745,9.77099609375,-0.016899999231100082,0.0044999998062849045,-0.03889999911189079,0.017999999727163266,-0.14600000260429016,-0.01400000015835513
-0.06177040562033653,0.06270892918109894,9.771915435791016,-0.01730000041425228,0.004399999976158142,-0.019299998879432678,0.03400000133744912,0.046999999102312236,0.05300000012305109
-0.05132210999727249,0.0757046565413475,9.779825210571289,-0.01730000041425228,-0.015199999324977398,-0.03889999911189079,-0.07799999992939192,0.08799999718388561,-0.14799999405106096
-0.04639962688088417,0.07977480441331863,9.775142669677734,0.0026000000070780516,0.004399999976158142,-0.03889999911189079,-0.1509999945614304,0.20200000323771067,-0.0859999990670082
-0.05941450968384743,0.07932469248771667,9.77725887298584,-0.01640000008046627,0.004799999762326479,-0.03889999911189079,-0.06299999737754478,-0.15399999507179982,0.2729999930827651
-0.0631398856639862,0.0763079971075058,9.76832389831543,-0.01640000008046627,0.004799999762326479,-0.03889999911189079,-0.024000000747902123,-0.012000000373951061,0.09800000110848592
-0.06442318111658096,0.07229530811309814,9.777900695800781,-0.016999999061226845,-0.004600000102072954,-0.03889999911189079,-0.2159999967259592,-0.2039999946844815,0
-0.06582139432430267,0.07386591285467148,9.77458667755127,-0.017400000244379044,-0.0038999998942017555,-0.03889999911189079,0.05600000063342052,0.07000000079177565,0.23300000406479038
-0.06229712814092636,0.06931692361831665,9.771120071411133,-0.01730000041425228,-0.004100000020116568,-0.03889999911189079,-0.0329999989439571,-0.031999999885518396,-0.02600000053230619
-0.06229712814092636,0.06931692361831665,9.771120071411133,-0.01730000041425228,-0.004100000020116568,-0.03889999911189079,-0.0329999989439571,-0.031999999885518396,-0.02600000053230619
-0.06716214865446091,0.06469132751226425,9.775247573852539,-0.027400000020861626,-0.014099999330937862,-0.03889999911189079,0.08899999957737763,0.09800000110848592,0.04500000098543482
-0.06716214865446091,0.06469132751226425,9.775247573852539,-0.027400000020861626,-0.014099999330937862,-0.03889999911189079,0.08899999957737763,0.09800000110848592,0.04500000098543482
-0.07417237013578415,0.06265147030353546,9.783751487731934,-0.026999998837709427,-0.014299999922513962,-0.029099998995661736,-0.06899999839828364,0.048000001495804245,0.17700000343136985
-0.05975927412509918,0.07064810395240784,9.776406288146973,-0.016699999570846558,-0.004399999976158142,-0.03889999911189079,-0.05799999875029794,0.09999999922536333,0.17799999915475526
-0.05637866258621216,0.08077079057693481,9.760940551757812,-0.006599999964237213,0.005499999970197678,-0.0486999973654747,-0.09300000248123906,-0.2150000010025738,0.12499999903170415
-0.04696466028690338,0.07675810903310776,9.777134895324707,0.002699999837204814,-0.003999999724328518,-0.0486999973654747,-0.17700000343136985,0.0539999991814898,-0.22800001210765014
-0.05324704572558403,0.06725791096687317,9.775735855102539,-0.006799999624490738,-0.004100000020116568,-0.03889999911189079,-0.0009999999964224499,-0.10199999734224074,-0.1729999938574018
-0.060228537768125534,0.07733272016048431,9.77463436126709,-0.016699999570846558,0.006199999712407589,-0.03889999911189079,-0.1079999983629796,0.08700000146050021,0.08100000043976135
-0.05586151406168938,0.08018659800291061,9.766599655151367,-0.0066999997943639755,0.006399999838322401,-0.0486999973654747,-0.06200000165415938,-0.09099999769425504,-0.05300000012305109
-0.06542874127626419,0.07392337173223495,9.758842468261719,-0.016999999061226845,-0.0032999999821186066,-0.0486999973654747,-0.05799999875029794,0.05799999875029794,0.2259999939804529
-0.04452257603406906,0.06411672383546829,9.764636993408203,0.002699999837204814,-0.012899999506771564,-0.0486999973654747,0.06800000267489824,-0.006000000186975531,0.0039999999856897995
-0.06896258890628815,0.06885723769664764,9.762711524963379,-0.026599999517202377,-0.0032999999821186066,-0.0486999973654747,-0.08200000283325337,-0.05499999823992851,0.03100000082707969
-0.056244585663080215,0.07538862526416779,9.774500846862793,-0.00699999975040555,-0.0031999999191612005,-0.03889999911189079,0.06200000165415938,-0.08400000095013078,-0.014999999216793838
-0.06345592439174652,0.06774633377790451,9.774970054626465,-0.016599999740719795,-0.0031999999191612005,-0.03889999911189079,-0.14499999354069154,-0.1079999983629796,-0.15900000036915327
-0.05753745511174202,0.0764133408665657,9.771149635314941,-0.01679999940097332,-0.00279999990016222,-0.03889999911189079,-0.13000000432905762,0.0969999987149939,0.06200000165415938
-0.06664499640464783,0.08132623881101608,9.76308536529541,-0.016599999740719795,0.007400000002235174,-0.0486999973654747,-0.03100000082707969,-0.13100000005244303,-0.043999998591942806
-0.05350561812520027,0.07227616012096405,9.780858993530273,-0.0071000000461936,-0.002199999988079071,-0.029099998995661736,0.06200000165415938,-0.14900000311465958,0.11400000605382507
-0.06617573648691177,0.08047390729188919,9.766963958740234,-0.01730000041425228,0.0072999997064471245,-0.0486999973654747,0.012000000373951061,-0.05799999875029794,-0.07199999890865307
-0.05381207540631294,0.07184520363807678,9.787477493286133,-0.007599999662488699,-0.0023999998811632395,-0.029099998995661736,0.17599999436777122,0.03599999945432653,0.07600000181251451
-0.07308061420917511,0.07200801372528076,9.758172988891602,-0.026999998837709427,-0.003000000026077032,-0.05849999934434891,0.008999999863581633,0.1529999993484144,0.12100000279794933
-0.056531891226768494,0.07538862526416779,9.780974388122559,-0.00699999975040555,-0.003000000026077032,-0.029099998995661736,0.05499999823992851,0.10400000212922476,0.0269999995907449
-0.06283342838287354,0.07534073293209076,9.766159057617188,0.003000000026077032,0.0064999996684491634,-0.03889999911189079,-0.20800000425844953,-0.017999999727163266,-0.1070000026395942
-0.05411853268742561,0.07622180134057999,9.773619651794434,-0.016200000420212746,-0.0032999999821186066,-0.0486999973654747,-0.05799999875029794,-0.09800000110848592,0.02600000053230619
-0.05411853268742561,0.07622180134057999,9.773619651794434,-0.006300000008195639,-0.002699999837204814,-0.03889999911189079,-0.05799999875029794,-0.09800000110848592,0.02600000053230619
-0.06080314517021179,0.05962519720196724,9.768707275390625,-0.01640000008046627,-0.012299999594688416,-0.03889999911189079,0.04900000055424296,-0.03400000133744912,-0.21800000151294321
-0.05393657833337784,0.06660669296979904,9.776933670043945,-0.006599999964237213,-0.012399999424815178,-0.03889999911189079,0.0429999995335041,0.2899999870813831,-0.015999999942759198
-0.04729027301073074,0.08208280801773071,9.774462699890137,0.0038999998942017555,0.00699999975040555,-0.03889999911189079,-0.09999999922536333,0.1719999981340164,0.08100000043976135
-0.05599559098482132,0.06831136345863342,9.790225982666016,-0.015099999494850636,0.007199999876320362,-0.03889999911189079,-0.048000001495804245,0,-0.01700000066872456
-0.05599559098482132,0.06831136345863342,9.790225982666016,-0.0058999997563660145,-0.0024999999441206455,-0.019299998879432678,-0.048000001495804245,0,-0.01700000066872456
-0.05322789400815964,0.08217857778072357,9.771915435791016,-0.005499999970197678,0.0071000000461936,-0.03889999911189079,-0.023000000021936765,0.149999998838045,-0.006000000186975531
-0.05499960482120514,0.07229530811309814,9.774989128112793,-0.0050999997183680534,-0.0024999999441206455,-0.03889999911189079,-0.17400000292100043,0.1719999981340164,-0.1529999993484144
-0.06333142518997192,0.07723694294691086,9.779959678649902,-0.014399999752640724,0.007599999662488699,-0.029099998995661736,-0.22800001210765014,-0.04900000055424296,0.03400000133744912
-0.07007349282503128,0.068263478577137,9.781932830810547,-0.02419999986886978,-0.001500000013038516,-0.029099998995661736,0.0039999999856897995,-0.05499999823992851,0.049999999612681666
-0.04741477221250534,0.07717949151992798,9.785112380981445,-0.02419999986886978,-0.001500000013038516,-0.029099998995661736,0.03400000133744912,-0.06899999839828364,0.11500000177721047
-0.060084883123636246,0.07573339343070984,9.789469718933105,-0.014699999243021011,-0.0015999999595806003,-0.019299998879432678,0.04500000098543482,0.10499999785261017,0.02600000053230619
-0.05076665058732033,0.07810843735933304,9.790848731994629,-0.0044999998062849045,0.007899999618530273,-0.019299998879432678,-0.019000000453128628,0.07799999992939192,0.11400000605382507
-0.06688442081212997,0.08973468095064163,9.780065536499023,-0.014099999330937862,0.01769999973475933,-0.029099998995661736,-0.009999999755783667,0.10999999647985702,0.21800000151294321
-0.06666415184736252,0.0773901715874672,9.777297019958496,-0.013700000010430813,0.007899999618530273,-0.03889999911189079,0.16699999283666295,0.21299999621558977,0.09800000110848592
-0.0607839934527874,0.07703583687543869,9.782833099365234,-0.012899999506771564,0.0072999997064471245,-0.029099998995661736,-0.09500000059811649,0.08400000095013078,0.0009999999964224499
-0.06509356200695038,0.06898174434900284,9.775142669677734,-0.01269999984651804,-0.002199999988079071,-0.03889999911189079,0.05300000012305109,-0.09500000059811649,-0.09800000110848592
-0.05452075973153114,0.07445967197418213,9.78215217590332,-0.0031999999191612005,-0.002300000051036477,-0.029099998995661736,0.06700000028140622,0.06899999839828364,-0.014999999216793838
-0.05453033745288849,0.08012913912534714,9.783885955810547,-0.003000000026077032,0.007199999876320362,-0.029099998995661736,-0.12499999903170415,-0.010999999647985701,0.03599999945432653
-0.06132029369473457,0.0669323056936264,9.775774002075195,-0.012799999676644802,-0.012000000104308128,-0.03889999911189079,0.07000000079177565,0.03599999945432653,-0.16699999283666295
-0.05867709219455719,0.07171113044023514,9.772432327270508,-0.012600000016391277,-0.0023999998811632395,-0.03889999911189079,0.15800000464576788,0.031999999885518396,-0.09999999922536333
-0.05587109178304672,0.07782112807035446,9.777067184448242,-0.002699999837204814,0.00699999975040555,-0.03889999911189079,-0.019999999511567335,0.023000000021936765,0.029999998433587676
-0.06332184374332428,0.06871359050273895,9.775218963623047,-0.012399999424815178,-0.002699999837204814,-0.03889999911189079,0.010999999647985701,0.04900000055424296,0.05499999823992851
-0.06139690801501274,0.07786902040243149,9.773935317993164,-0.012199999764561653,0.00699999975040555,-0.03889999911189079,0.08400000095013078,0.07900000232288394,-0.09600000299160849
-0.053045932203531265,0.08191043138504028,9.788569450378418,-0.002199999988079071,0.0066999997943639755,-0.019299998879432678,-0.03899999996469596,0.05099999867112037,0.024999999806340833
-0.05465483292937279,0.0717877447605133,9.769683837890625,-0.001999999862164259,-0.002899999963119626,-0.03889999911189079,-0.035000000395887826,0.012000000373951061,0.0030000000934877653
-0.06085103377699852,0.08510908484458923,9.774835586547852,-0.011399999260902405,0.0066999997943639755,-0.03889999911189079,-0.05600000063342052,0.006000000186975531,0.05600000063342052
-0.05609135702252388,0.07871177792549133,9.774166107177734,-0.001500000013038516,0.006599999964237213,-0.03889999911189079,0.0659999978879142,0.043999998591942806,0.09999999922536333
-0.05945281684398651,0.07382760941982269,9.780831336975098,-0.010799999348819256,-0.0030999998562037945,-0.029099998995661736,0.01700000066872456,-0.014999999216793838,0.11699999322398127
-0.05945281684398651,0.07382760941982269,9.780831336975098,-0.010799999348819256,-0.0030999998562037945,-0.029099998995661736,0.01700000066872456,-0.014999999216793838,0.11699999322398127
-0.05466441437602043,0.07856812328100204,9.777507781982422,-0.0009999999310821295,0.006300000008195639,-0.03889999911189079,-0.10100000161885533,-0.05600000063342052,0.03999999902313467
-0.06725791096687317,0.07754340022802353,9.77138900756836,-0.019999999552965164,0.005799999926239252,-0.03889999911189079,-0.16999999334703236,-0.16599999711327754,-0.07199999890865307
-0.06725791096687317,0.07754340022802353,9.77138900756836,-0.019999999552965164,0.005799999926239252,-0.03889999911189079,-0.16999999334703236,-0.16599999711327754,-0.07199999890865307
-0.05890693888068199,0.0786638930439949,9.779519081115723,-0.010300000198185444,0.006300000008195639,-0.029099998995661736,0.017999999727163266,-0.11099999887334903,0.048000001495804245
-0.05890693888068199,0.0786638930439949,9.779519081115723,-0.010300000198185444,0.006300000008195639,-0.029099998995661736,0.017999999727163266,-0.11099999887334903,0.048000001495804245
-0.06585970520973206,0.0791427344083786,9.783082008361816,-0.010699999518692493,-0.003399999812245369,-0.03889999911189079,-0.1199999937343507,-0.1189999980109653,0.1830000044521087
-0.04981854930520058,0.07339664548635483,9.781923294067383,-0.0010999999940395355,-0.0030999998562037945,-0.029099998995661736,0.007999999971379599,0.07099999651516105,-0.2050000037480801
-0.04568136855959892,0.08813535422086716,9.78108024597168,-0.0010999999940395355,-0.0030999998562037945,-0.029099998995661736,0.01700000066872456,-0.03699999851276524,-0.28699998657101367
-0.045087605714797974,0.08251377195119858,9.779777526855469,0.008700000122189522,0.0064999996684491634,-0.029099998995661736,0.043999998591942806,0.04200000047506539,0.19099999691961836
-0.0565127357840538,0.07024587690830231,9.784297943115234,-0.0008999999845400453,-0.003399999812245369,-0.029099998995661736,-0.15999999609253868,-0.08700000146050021,-0.0030000000934877653
-0.050536807626485825,0.08266700059175491,9.786471366882324,-0.0008999999845400453,-0.003399999812245369,-0.029099998995661736,-0.019000000453128628,-0.16699999283666295,0.0429999995335041
-0.06087975949048996,0.06629065424203873,9.781749725341797,-0.011299999430775642,-0.01269999984651804,-0.029099998995661736,0.10299999973573276,-0.04900000055424296,0.05200000106461238
-0.05768110603094101,0.0830596461892128,9.77405071258545,-0.0015999999595806003,-0.0030999998562037945,-0.0486999973654747,0.1180000022875799,0.18700000068586353,0.2259999939804529
-0.05768110603094101,0.0830596461892128,9.77405071258545,-0.010799999348819256,0.006300000008195639,-0.03889999911189079,-0.04900000055424296,-0.16500000138989213,-0.0539999991814898
-0.06028600037097931,0.0696616917848587,9.782210350036621,-0.011399999260902405,-0.003599999938160181,-0.029099998995661736,-0.009999999755783667,-0.05600000063342052,-0.15900000036915327
-0.06028600037097931,0.0696616917848587,9.782210350036621,-0.011399999260902405,-0.003599999938160181,-0.029099998995661736,-0.009999999755783667,-0.05600000063342052,-0.15900000036915327
-0.05712565407156944,0.07609730213880539,9.774242401123047,-0.011399999260902405,-0.003599999938160181,-0.029099998995661736,-0.0019999999928448997,-0.07799999992939192,-0.16599999711327754
-0.049138594418764114,0.0723910853266716,9.779787063598633,-0.0018999999156221747,-0.003499999875202775,-0.029099998995661736,0.0969999987149939,0.1400000015835513,-0.043999998591942806
-0.060726530849933624,0.07708371430635452,9.781539916992188,-0.011299999430775642,-0.003700000001117587,-0.019299998879432678,0.049999999612681666,0.1079999983629796,-0.07000000079177565
-0.052030790597200394,0.07279331237077713,9.781329154968262,-0.00139999995008111,-0.00419999985024333,-0.029099998995661736,-0.16599999711327754,0.14900000311465958,-0.12400000330831876
-0.053543925285339355,0.07047571986913681,9.781530380249023,-0.0008999999845400453,-0.003700000001117587,-0.029099998995661736,0.02600000053230619,-0.06800000267489824,0.031999999885518396
-0.04887044429779053,0.07825209200382233,9.78178882598877,-0.0010999999940395355,0.0058999997563660145,-0.029099998995661736,-0.12400000330831876,0.07999999804626934,0.03599999945432653
-0.05900270864367485,0.06568731367588043,9.782536506652832,-0.010599999688565731,-0.013199999928474426,-0.029099998995661736,0.048000001495804245,0.038000000906257256,0.09000000197086964
-0.06157886981964111,0.07691133767366409,9.771225929260254,-0.000699999975040555,-0.003599999938160181,-0.029099998995661736,0.013000000266153095,0.057000003026912535,0.21700000578955783
-0.07037995010614395,0.07514920085668564,9.785179138183594,-0.01979999989271164,-0.003599999938160181,-0.029099998995661736,0.1629999966029081,-0.05200000106461238,0.23699998695833197
-0.05905058979988098,0.08535807579755783,9.779988288879395,-0.010099999606609344,0.005699999630451202,-0.029099998995661736,0.021999999295971403,0.12499999903170415,0.2289999944908223
-0.05274904891848564,0.07119398564100266,9.77371597290039,0,-0.004100000020116568,-0.03889999911189079,-0.04200000047506539,0.01400000015835513,-0.1939999974299878
-0.05051765590906143,0.07147171348333359,9.780802726745605,0.00009999999747378752,-0.0038999998942017555,-0.029099998995661736,-0.043999998591942806,-0.029999998433587676,-0.06399999977103679
-0.0483437180519104,0.0823509618639946,9.783963203430176,0,0.0058999997563660145,-0.029099998995661736,-0.128999995265459,-0.12599999475508955,-0.13600000534979648
-0.047261543571949005,0.06891470402479172,9.778101921081543,0.009399999864399433,-0.003399999812245369,-0.029099998995661736,0.08299999855663877,0.07999999804626934,0.06700000028140622
-0.057853490114212036,0.07296568900346756,9.778016090393066,-0.00989999994635582,-0.003599999938160181,-0.029099998995661736,0.05300000012305109,0.16999999334703236,-0.10900000075647161
-0.04459919035434723,0.07906611263751984,9.767021179199219,0.009999999776482582,0.006000000052154064,-0.0486999973654747,-0.015999999942759198,-0.1419999930303221,-0.0039999999856897995
-0.057211846113204956,0.08273403346538544,9.771368980407715,-0.00009999999747378752,0.006000000052154064,-0.03889999911189079,-0.05200000106461238,0.06899999839828364,0.15900000036915327
-0.05374504253268242,0.07980352640151978,9.776023864746094,0,0.006099999882280827,-0.03889999911189079,-0.029999998433587676,0.03100000082707969,0.038000000906257256
-0.06229712814092636,0.06771759688854218,9.774261474609375,-0.00969999935477972,-0.003499999875202775,-0.03889999911189079,-0.07000000079177565,0.09099999769425504,0.06500000216452881
-0.05455906689167023,0.07455544173717499,9.773102760314941,0.00019999999494757503,-0.0032999999821186066,-0.03889999911189079,0.07399999702553048,-0.1199999937343507,0.019000000453128628
-0.06134902685880661,0.06714299321174622,9.77623462677002,-0.009800000116229057,-0.003499999875202775,-0.03889999911189079,-0.11299999699022645,-0.05900000114378995,0.2039999946844815
-0.06498821079730988,0.08132623881101608,9.76548957824707,-0.00989999994635582,0.006599999964237213,-0.0486999973654747,0.07199999890865307,0.12799999954207358,-0.07199999890865307
-0.05241386592388153,0.06602250784635544,9.777374267578125,0.00009999999747378752,-0.012999999336898327,-0.03889999911189079,-0.1390000058601659,0.03400000133744912,0.048000001495804245
-0.06241204962134361,0.07648995518684387,9.780438423156738,-0.009499999694526196,-0.00279999990016222,-0.029099998995661736,-0.14099999730693671,0.23699998695833197,-0.017999999727163266
-0.0654095932841301,0.07349241524934769,9.791796684265137,-0.008899999782443047,-0.0024999999441206455,-0.019299998879432678,-0.06500000216452881,0.13300000483942703,0.019000000453128628
-0.05501875653862953,0.06878062337636948,9.786941528320312,0.0011999999405816197,-0.002300000051036477,-0.029099998995661736,0.08799999718388561,-0.11500000177721047,0.06899999839828364
-0.04257848486304283,0.07429686933755875,9.781598091125488,0.010599999688565731,-0.0026000000070780516,-0.029099998995661736,0.0539999991814898,0.08499999667351618,0.149999998838045
-0.06441360712051392,0.06669288873672485,9.777527809143066,-0.008700000122189522,-0.012399999424815178,-0.03889999911189079,-0.1199999937343507,-0.15800000464576788,0.05999999686717535
-0.0510731115937233,0.08296387642621994,9.78565788269043,0.0004999999655410647,0.007400000002235174,-0.029099998995661736,-0.05200000106461238,-0.05900000114378995,0.08400000095013078
-0.05274904891848564,0.08323202282190323,9.78068733215332,0.010099999606609344,0.007499999832361937,-0.0486999973654747,0.09300000248123906,0.17599999436777122,-0.0009999999964224499
-0.05274904891848564,0.08323202282190323,9.78068733215332,0.0007999999797903001,0.007199999876320362,-0.029099998995661736,0.16999999334703236,-0.02899999937514897,0.18400000017549412
-0.061933208256959915,0.07796478271484375,9.77126407623291,-0.008999999612569809,0.006599999964237213,-0.03889999911189079,0.04600000004387353,0.08100000043976135,0.08700000146050021
-0.061933208256959915,0.07796478271484375,9.77126407623291,-0.008999999612569809,0.006599999964237213,-0.03889999911189079,0.04600000004387353,0.08100000043976135,0.08700000146050021
-0.06191405653953552,0.07986099272966385,9.76695442199707,0.010799999348819256,0.0064999996684491634,-0.03889999911189079,-0.05799999875029794,0.05799999875029794,0.1079999983629796
-0.056646812707185745,0.07637502998113632,9.77512264251709,0.0015999999595806003,-0.002899999963119626,-0.03889999911189079,-0.07699999753589991,0.013000000266153095,-0.09399999820462447
-0.056646812707185745,0.07637502998113632,9.77512264251709,0.0015999999595806003,-0.002899999963119626,-0.03889999911189079,-0.07699999753589991,0.013000000266153095,-0.09399999820462447
-0.05713523179292679,0.06787082552909851,9.762989044189453,0.0017999999690800905,-0.002899999963119626,-0.0486999973654747,0.038000000906257256,0.13300000483942703,0.049999999612681666
-0.06083187833428383,0.07278373092412949,9.763832092285156,-0.007400000002235174,-0.003000000026077032,-0.0486999973654747,0.09399999820462447,0.1180000022875799,0.010999999647985701
-0.05575616657733917,0.07751467078924179,9.769424438476562,0.0024999999441206455,0.0064999996684491634,-0.03889999911189079,-0.14600000260429016,-0.019000000453128628,0.12400000330831876
-0.05465483292937279,0.07598238438367844,9.782909393310547,0.0024999999441206455,-0.00279999990016222,-0.029099998995661736,0.08499999667351618,-0.03699999851276524,-0.17799999915475526
-0.06085103377699852,0.0696616917848587,9.767433166503906,-0.0072999997064471245,-0.0030999998562037945,-0.0486999973654747,0.07399999702553048,0.004999999877891834,0.029999998433587676
-0.06582139432430267,0.07218997180461884,9.775899887084961,0.0023999998811632395,-0.0031999999191612005,-0.0486999973654747,0.0039999999856897995,0.03599999945432653,0.08799999718388561
-0.06582139432430267,0.07218997180461884,9.775899887084961,-0.0071000000461936,-0.0032999999821186066,-0.03889999911189079,0.0039999999856897995,0.03599999945432653,0.08799999718388561
-0.05860047787427902,0.07031290978193283,9.781817436218262,-0.006899999920278788,-0.0032999999821186066,-0.029099998995661736,-0.009999999755783667,0,0.2549999900205486
-0.05313212424516678,0.0736839547753334,9.765403747558594,0.00279999990016222,-0.0032999999821186066,-0.0486999973654747,-0.035000000395887826,-0.057000003026912535,0.11599999750059588
-0.05631162226200104,0.07912357896566391,9.781051635742188,0.0026000000070780516,0.0064999996684491634,-0.029099998995661736,-0.05600000063342052,0.024999999806340833,0.10999999647985702
-0.06040092185139656,0.07740933448076248,9.764971733093262,-0.00699999975040555,0.006599999964237213,-0.0486999973654747,0.012000000373951061,-0.13400000056281244,-0.1070000026395942
-0.06244077906012535,0.07095456123352051,9.778379440307617,-0.007400000002235174,-0.0030999998562037945,-0.029099998995661736,0.19099999691961836,0.05600000063342052,0.007000000079177565
-0.059108052402734756,0.07185478508472443,9.767816543579102,-0.007199999876320362,-0.003599999938160181,-0.0486999973654747,-0.0039999999856897995,0.007000000079177565,-0.1189999980109653
-0.05175306275486946,0.07059064507484436,9.778676986694336,0.0024999999441206455,-0.003499999875202775,-0.029099998995661736,0.024000000747902123,-0.08100000043976135,0.24200000559589865
