Accelerometer_Gx,Accelerometer_Gy,Accelerometer_Gz,Accelerometer_X,Accelerometer_Y,Accelerometer_Z,Gyroscope_Z,Gyroscope_X,Gyroscope_Y
0.6065757870674133,-0.0547410286962986,9.765250205993652,-0.0009999999310821295,-0.015099999494850636,0.0072999997064471245,0,0.06099999926066736,-0.06099999926066736
0.6063076257705688,-0.03723462298512459,9.78504467010498,-0.0005999999702908099,0,-0.010999999940395355,0.12199999852133472,0.06099999926066736,0
0.6108183264732361,-0.04047158360481262,9.759685516357422,0.008100000210106373,-0.00019999999494757503,-0.04039999842643738,-0.06099999926066736,0.12199999852133472,0
0.6108183264732361,-0.04047158360481262,9.759685516357422,-0.0013000000035390258,-0.008100000210106373,-0.03059999831020832,-0.06099999926066736,0.12199999852133472,0
0.5961657762527466,-0.03130657970905304,9.765910148620605,0.013299999758601189,-0.005799999926239252,-0.030299998819828033,0.06099999926066736,0.06099999926066736,0
0.6084527969360352,-0.05744168907403946,9.752809524536133,-0.012000000104308128,0.002699999837204814,-0.03059999831020832,-0.06099999926066736,0,0
0.5788413882255554,-0.014384363777935505,9.801412582397461,-0.002300000051036477,-0.01249999925494194,-0.040300000458955765,0,0,-0.06099999926066736
0.6058958172798157,-0.058734554797410965,9.757166862487793,-0.029999999329447746,0.025200000032782555,0.008499999530613422,-0.06099999926066736,0,0
0.6180009245872498,-0.055555056780576706,9.776166915893555,0.004900000058114529,-0.004699999932199717,-0.020600000396370888,0.06099999926066736,0.06099999926066736,-0.06099999926066736
0.597209632396698,-0.053237468004226685,9.776339530944824,-0.009800000116229057,-0.0030999998562037945,-0.020800000056624413,0,0.12199999852133472,0
0.6490871906280518,-0.020724210888147354,9.76291275024414,0.026999998837709427,0.018299998715519905,-0.029899999499320984,0,0.12199999852133472,-0.06099999926066736
0.585832417011261,-0.05434837564826012,9.76931095123291,-0.020899999886751175,-0.007199999876320362,-0.020800000056624413,0.06099999926066736,0.12199999852133472,-0.06099999926066736
0.5967404246330261,-0.026499025523662567,9.779509544372559,-0.006399999838322401,0.012399999424815178,-0.011299999430775642,0.06099999926066736,0.1830000044521087,-0.06099999926066736
0.6089699864387512,-0.04782657325267792,9.764244079589844,0.002199999988079071,-0.0052999998442828655,-0.030799999833106995,-0.06099999926066736,0.06099999926066736,-0.06099999926066736
0.5950931906700134,-0.02047521248459816,9.7494478225708,-0.006099999882280827,0.010900000110268593,-0.040699999779462814,0.12199999852133472,0.06099999926066736,-0.06099999926066736
0.6079452633857727,-0.045221682637929916,9.7464599609375,0.002199999988079071,-0.006799999624490738,-0.05040000006556511,0.06099999926066736,0.1830000044521087,-0.06099999926066736
0.6097361445426941,-0.02698744274675846,9.793941497802734,0.0008999999845400453,0.004600000102072954,-0.0013000000035390258,0,0.12199999852133472,0
0.6089412569999695,-0.04461834207177162,9.788664817810059,0.0004999999655410647,-0.00699999975040555,-0.0013000000035390258,-0.06099999926066736,0.1830000044521087,0
0.5797799229621887,-0.042808327823877335,9.801162719726562,-0.016599999740719795,-0.004100000020116568,0.007699999958276749,-0.06099999926066736,0.12199999852133472,-0.06099999926066736
0.6124367713928223,-0.0328197181224823,9.767979621887207,0.012999999336898327,0.005799999926239252,-0.03150000050663948,0,0.12199999852133472,-0.06099999926066736
0.6108853816986084,-0.04307647794485092,9.76548957824707,0.013299999758601189,-0.0038999998942017555,-0.03150000050663948,0.06099999926066736,0.3049999896332302,0
0.5787264108657837,-0.04270298033952713,9.77022933959961,-0.018299998715519905,-0.004600000102072954,-0.02159999869763851,0.12199999852133472,0.12199999852133472,0
0.6019214391708374,-0.03256114199757576,9.769693374633789,0.00039999998989515007,0.003000000026077032,-0.02149999886751175,-0.06099999926066736,0.1830000044521087,-0.06099999926066736
0.6160280704498291,-0.05391742289066315,9.759714126586914,0.013799999840557575,-0.011399999260902405,-0.030899999663233757,0.06099999926066736,0.06099999926066736,0
0.6158077716827393,-0.04064396768808365,9.791441917419434,0.005200000014156103,-0.0005999999702908099,-0.0009999999310821295,0.06099999926066736,0,-0.12199999852133472
0.5878435373306274,-0.048832137137651443,9.76166820526123,-0.019199999049305916,-0.008200000040233135,-0.030700000002980232,-0.06099999926066736,0.1830000044521087,0.06099999926066736
0.5989526510238647,-0.04256890341639519,9.740541458129883,-0.015599999576807022,0.01719999872148037,-0.05049999803304672,-0.06099999926066736,0.06099999926066736,0
0.6206632852554321,-0.04154418781399727,9.771512985229492,-0.004900000058114529,-0.0017999999690800905,-0.050599999725818634,0,0.06099999926066736,-0.06099999926066736
0.5889065265655518,-0.02715982496738434,9.76058578491211,-0.015199999324977398,0.013199999928474426,-0.03099999949336052,0.06099999926066736,0.1830000044521087,0.06099999926066736
0.5944419503211975,-0.03948517516255379,9.794468879699707,-0.001999999862164259,-0.0026000000070780516,-0.0016999999061226845,0.06099999926066736,0.12199999852133472,-0.06099999926066736
0.6085103154182434,-0.017238251864910126,9.763248443603516,0.005699999630451202,0.02029999904334545,-0.03099999949336052,0,0.06099999926066736,0
0.6010786890983582,-0.02040817402303219,9.749016761779785,-0.0037999998312443495,0.010499999858438969,-0.05069999769330025,-0.06099999926066736,0.12199999852133472,0
0.5983588695526123,-0.04445553570985794,9.774559020996094,-0.003499999875202775,-0.008799999952316284,-0.021299999207258224,0.06099999926066736,0.12199999852133472,0.06099999926066736
0.6227222681045532,-0.04518337547779083,9.777277946472168,0.026099998503923416,-0.008999999612569809,-0.021299999207258224,0,0.06099999926066736,0
0.6050339341163635,-0.05506663769483566,9.755577087402344,0.0066999997943639755,-0.018799999728798866,-0.04089999943971634,0.1830000044521087,0.06099999926066736,-0.06099999926066736
0.6083953976631165,-0.05465483292937279,9.802762031555176,0.006799999624490738,-0.019199999049305916,0.007999999448657036,0.06099999926066736,0.1830000044521087,0
0.6065757870674133,-0.048966214060783386,9.759398460388184,0.0072999997064471245,-0.01939999870955944,-0.031099999323487282,0,0.12199999852133472,-0.06099999926066736
0.5987610816955566,-0.01523669995367527,9.785035133361816,-0.002099999925121665,0.019700000062584877,-0.011599999852478504,0,0.06099999926066736,0
0.5916838645935059,-0.024823084473609924,9.739545822143555,-0.011699999682605267,0.00989999994635582,-0.06059999763965607,-0.12199999852133472,0.12199999852133472,-0.06099999926066736
0.5890310406684875,-0.008705317042768002,9.740608215332031,-0.011399999260902405,0.019899999722838402,-0.05079999938607216,-0.12199999852133472,0,0
0.6152044534683228,-0.026048913598060608,9.776578903198242,0.017899999395012856,0.010400000028312206,-0.021399999037384987,0.06099999926066736,0.06099999926066736,0
0.5963860750198364,-0.034035973250865936,9.78828239440918,-0.00139999995008111,0.0004999999655410647,-0.0017999999690800905,0.12199999852133472,-0.06099999926066736,0
0.6076866984367371,-0.015954960137605667,9.781462669372559,0.007999999448657036,0.019600000232458115,-0.011599999852478504,0.06099999926066736,0,0
0.5821932554244995,-0.03468719497323036,9.763592720031738,-0.021199999377131462,-0.00009999999747378752,-0.031199999153614044,-0.06099999926066736,0,0
0.6109715700149536,-0.022476764395833015,9.755547523498535,0.008100000210106373,0.009800000116229057,-0.04099999740719795,0.06099999926066736,-0.06099999926066736,0
0.6012893915176392,-0.0475105382502079,9.757607460021973,-0.0017999999690800905,-0.00989999994635582,-0.04099999740719795,0,0,-0.12199999852133472
0.58021080493927,-0.04514506831765175,9.76050853729248,0.017500000074505806,-0.00009999999747378752,-0.011599999852478504,0,0.1830000044521087,-0.12199999852133472
0.6067864894866943,-0.01959414593875408,9.75827693939209,-0.020999999716877937,-0.00989999994635582,-0.031199999153614044,0.12199999852133472,0.06099999926066736,-0.12199999852133472
0.6116131544113159,-0.04219541326165199,9.78663444519043,0.008499999530613422,-0.010199999436736107,-0.011599999852478504,0,0.12199999852133472,-0.06099999926066736
0.611919641494751,-0.04506845027208328,9.770257949829102,0.008799999952316284,-0.010199999436736107,-0.021399999037384987,0,0.1830000044521087,0.06099999926066736
0.5999007821083069,-0.0386328399181366,9.745559692382812,-0.00039999998989515007,-0.010099999606609344,-0.05089999735355377,0.06099999926066736,0.1830000044521087,0.06099999926066736
0.6218316555023193,-0.03473507612943649,9.768381118774414,0.019500000402331352,-0.0004999999655410647,-0.02149999886751175,-0.06099999926066736,0.1830000044521087,-0.12199999852133472
0.6004657745361328,-0.011808202601969242,9.77307415008545,0.00039999998989515007,0.019099999219179153,-0.02149999886751175,0.12199999852133472,0.1830000044521087,-0.06099999926066736
0.6084145307540894,-0.037052664905786514,9.786846160888672,0.010599999688565731,-0.0007999999797903001,-0.011699999682605267,-0.12199999852133472,0.12199999852133472,0
0.5977938771247864,-0.024449586868286133,9.77721118927002,0.0010999999940395355,0.009200000204145908,-0.02159999869763851,0,0.06099999926066736,-0.12199999852133472
0.5847598314285278,-0.026460716500878334,9.779298782348633,-0.00839999970048666,0.009099999442696571,-0.011799999512732029,0,0,0
0.5949399471282959,-0.03061705268919468,9.791145324707031,0.0013000000035390258,-0.0005999999702908099,-0.001999999862164259,0.06099999926066736,0.12199999852133472,-0.06099999926066736
0.6044210195541382,-0.043210551142692566,9.786059379577637,0.011299999430775642,-0.010499999858438969,-0.011799999512732029,0,0.1830000044521087,-0.12199999852133472
0.6017778515815735,-0.04461834207177162,9.774471282958984,0.001999999862164259,-0.010400000028312206,-0.02159999869763851,0.12199999852133472,0,0
0.5938003659248352,-0.04956955462694168,9.771081924438477,0.001999999862164259,-0.020399998873472214,-0.02159999869763851,0,0.12199999852133472,0
0.6190926432609558,-0.02971683070063591,9.78615665435791,0.021699998527765274,-0.0007999999797903001,-0.011799999512732029,0.12199999852133472,0.06099999926066736,-0.06099999926066736
0.5904197096824646,-0.013101071119308472,9.785399436950684,-0.007400000002235174,0.018199998885393143,-0.011799999512732029,-0.12199999852133472,0.24399999704266945,0
0.6098702549934387,-0.06792829185724258,9.791020393371582,0.011699999682605267,-0.03849999979138374,-0.001999999862164259,0,0.06099999926066736,0
0.5982918739318848,-0.04827668517827988,9.791853904724121,0.0005999999702908099,-0.006199999712407589,-0.0018999999156221747,0,0.1830000044521087,0.06099999926066736
0.5894524455070496,-0.03324109688401222,9.760519027709961,-0.006799999624490738,0.009800000116229057,-0.03139999881386757,-0.06099999926066736,0.06099999926066736,0
0.5988568663597107,-0.04165910929441452,9.773006439208984,0.0015999999595806003,0.00009999999747378752,-0.02159999869763851,0,0.1830000044521087,-0.1830000044521087
0.6041337251663208,-0.007019799202680588,9.79953384399414,0.01209999993443489,0.0072999997064471245,-0.011799999512732029,0,0.12199999852133472,0.06099999926066736
0.5953900814056396,-0.024794353172183037,9.775688171386719,0.007499999832361937,0.015699999406933784,0.007999999448657036,0,0.06099999926066736,-0.12199999852133472
0.5983876585960388,-0.040720582008361816,9.809350967407227,-0.0007999999797903001,-0.010400000028312206,0.01769999973475933,-0.12199999852133472,0.06099999926066736,-0.06099999926066736
0.5932736396789551,-0.028548462316393852,9.757884979248047,-0.008700000122189522,0.007400000002235174,-0.041200000792741776,0,0,0.06099999926066736
0.5995463728904724,-0.02391328662633896,9.769119262695312,0.00019999999494757503,0.004999999888241291,-0.02149999886751175,0,-0.06099999926066736,-0.06099999926066736
0.619475781917572,-0.02542642131447792,9.773935317993164,0.012899999506771564,0.003399999812245369,-0.0210999995470047,0,0.1830000044521087,-0.06099999926066736
0.5974107384681702,-0.017927782610058784,9.769769668579102,-0.004600000102072954,0.008999999612569809,-0.021199999377131462,0,0,-0.12199999852133472
0.6092764139175415,-0.027150247246026993,9.747733116149902,0.003399999812245369,-0.0004999999655410647,-0.05049999803304672,-0.1830000044521087,-0.06099999926066736,-0.06099999926066736
0.6141606569290161,-0.033566705882549286,9.766120910644531,0.008700000122189522,-0.00699999975040555,-0.03059999831020832,0.06099999926066736,0.1830000044521087,0
0.6169953346252441,-0.043756432831287384,9.747753143310547,0.006399999838322401,-0.013100000098347664,-0.05009999871253967,0.12199999852133472,0.12199999852133472,-0.12199999852133472
0.6082612872123718,-0.05427176132798195,9.76863956451416,-0.002899999963119626,-0.02329999953508377,-0.02070000022649765,0.06099999926066736,0.12199999852133472,-0.12199999852133472
0.5986461639404297,-0.04880340397357941,9.795320510864258,-0.012399999424815178,-0.023399999365210533,-0.0010999999940395355,-0.06099999926066736,0.06099999926066736,-0.1830000044521087
0.6050531268119812,-0.01616564951837063,9.765613555908203,-0.0023999998811632395,0.01589999906718731,-0.03059999831020832,0.06099999926066736,0.06099999926066736,0
0.5939918756484985,-0.027542896568775177,9.762194633483887,-0.012000000104308128,0.0058999997563660145,-0.03059999831020832,-0.06099999926066736,0.06099999926066736,0
0.6042007207870483,-0.027609933167696,9.757865905761719,-0.001999999862164259,0.006000000052154064,-0.04039999842643738,0.06099999926066736,0.06099999926066736,0.06099999926066736
0.6155971884727478,-0.04012681916356087,9.75353717803955,0.007799999788403511,-0.013599999248981476,-0.04039999842643738,0,0.24399999704266945,0.06099999926066736
0.5994506478309631,-0.026240449398756027,9.771895408630371,-0.00279999990016222,0.00839999970048666,-0.021299999207258224,-0.12199999852133472,0.12199999852133472,-0.06099999926066736
0.5851333141326904,-0.04861186817288399,9.752608299255371,-0.009099999442696571,-0.013799999840557575,-0.041099999099969864,-0.12199999852133472,0,0
0.5933598279953003,-0.05507621914148331,9.797715187072754,-0.004299999680370092,-0.0066999997943639755,0.007499999832361937,0.06099999926066736,0.12199999852133472,0
0.5919616222381592,-0.035625722259283066,9.763927459716797,-0.004799999762326479,0.006199999712407589,-0.031599998474121094,0,0.06099999926066736,0
0.6225307583808899,-0.044560883194208145,9.76596736907959,0.024000000208616257,-0.0023999998811632395,-0.03099999949336052,0.06099999926066736,0.06099999926066736,0
0.608883798122406,-0.022333113476634026,9.777076721191406,0.0026000000070780516,0.01119999960064888,-0.0210999995470047,0.06099999926066736,0.12199999852133472,-0.12199999852133472
0.5926415324211121,-0.028586769476532936,9.763985633850098,-0.012600000016391277,0.007999999448657036,-0.031099999323487282,0,0,-0.06099999926066736
0.5901802778244019,-0.029295451939105988,9.771934509277344,-0.008899999782443047,-0.0010999999940395355,-0.02149999886751175,0,0.12199999852133472,0
0.5929384231567383,-0.016433799639344215,9.762118339538574,-0.0066999997943639755,0.013399999588727951,-0.03150000050663948,0.12199999852133472,0,0.06099999926066736
0.6139307618141174,-0.0303297471255064,9.77285385131836,0.014499999582767487,-0.00419999985024333,-0.021199999377131462,-0.06099999926066736,0.24399999704266945,-0.06099999926066736
0.6242066621780396,-0.029496565461158752,9.770124435424805,0.027899999171495438,-0.0026000000070780516,-0.021399999037384987,0.12199999852133472,0.06099999926066736,-0.06099999926066736
0.6013085246086121,-0.048065993934869766,9.767097473144531,-0.00139999995008111,-0.016300000250339508,-0.031199999153614044,0,0.1830000044521087,0
0.5992304086685181,-0.04389050602912903,9.746450424194336,-0.00139999995008111,-0.0050999997183680534,-0.05079999938607216,0,0.12199999852133472,0.06099999926066736
0.5876137018203735,-0.028634652495384216,9.742715835571289,-0.009099999442696571,0.01119999960064888,-0.05089999735355377,-0.06099999926066736,0.24399999704266945,-0.12199999852133472
0.6099564433097839,-0.023616405203938484,9.751018524169922,0.012799999676644802,0.010900000110268593,-0.04129999876022339,0,0.06099999926066736,0
0.580421507358551,-0.014317326247692108,9.758048057556152,-0.012899999506771564,0.015599999576807022,-0.04149999842047691,-0.06099999926066736,0.1830000044521087,-0.06099999926066736
0.5990867018699646,-0.004328716546297073,9.79072380065918,0.0031999999191612005,0.007400000002235174,-0.002099999925121665,0,0.06099999926066736,0
0.6096786260604858,-0.024286780506372452,9.74913215637207,0.010199999436736107,-0.0018999999156221747,-0.050999999046325684,-0.06099999926066736,0,-0.06099999926066736
0.5970756411552429,-0.03280056267976761,9.783042907714844,0,-0.0071000000461936,-0.011699999682605267,0,0.06099999926066736,-0.06099999926066736
0.6101383566856384,-0.03218764811754227,9.786835670471191,0.006000000052154064,-0.004399999976158142,-0.011500000022351742,0.06099999926066736,0.12199999852133472,-0.06099999926066736
0.6163824200630188,-0.03624821454286575,9.738165855407715,0.012799999676644802,-0.0037999998312443495,-0.06030000001192093,-0.06099999926066736,0.12199999852133472,-0.12199999852133472
0.5949974656105042,-0.04474284127354622,9.757559776306152,-0.005499999970197678,-0.010199999436736107,-0.04079999774694443,0,0.06099999926066736,-0.12199999852133472
0.5702605843544006,-0.04770207777619362,9.787467956542969,-0.021399999037384987,-0.006199999712407589,-0.01209999993443489,-0.12199999852133472,0.12199999852133472,-0.12199999852133472
0.6043922901153564,-0.02717897854745388,9.772987365722656,0.012000000104308128,0.009399999864399433,-0.02159999869763851,-0.06099999926066736,0.06099999926066736,0.06099999926066736
0.6283726096153259,-0.015514426864683628,9.776358604431152,0.0210999995470047,0.013100000098347664,-0.020999999716877937,0.06099999926066736,0.12199999852133472,0
0.6400084495544434,-0.012440272606909275,9.780495643615723,-0.007799999788403511,-0.026200000196695328,-0.01119999960064888,0.06099999926066736,0.12199999852133472,-0.06099999926066736
0.5970564484596252,-0.03184288367629051,9.78455638885498,0.031599998474121094,0.013100000098347664,-0.01119999960064888,0.06099999926066736,0.06099999926066736,-0.06099999926066736
0.6063459515571594,-0.016079457476735115,9.803135871887207,0.0026000000070780516,0.01269999984651804,0.008299999870359898,-0.06099999926066736,0.06099999926066736,0
0.6205005049705505,-0.02960190922021866,9.780879020690918,0.012600000016391277,-0.006599999964237213,-0.011299999430775642,-0.12199999852133472,0.1830000044521087,-0.06099999926066736
0.5902281403541565,-0.04729985073208809,9.791259765625,-0.016099998727440834,-0.01599999889731407,-0.001500000013038516,0.06099999926066736,0.12199999852133472,-0.06099999926066736
0.6114407777786255,-0.015102623961865902,9.77900218963623,0.003700000001117587,0.013100000098347664,-0.011299999430775642,0,-0.06099999926066736,0.06099999926066736
0.5920860767364502,-0.04085465520620346,9.762118339538574,-0.01599999889731407,-0.016200000420212746,-0.030899999663233757,0.06099999926066736,0.12199999852133472,-0.06099999926066736
0.6170145273208618,-0.017860744148492813,9.7769136428833,0.013700000010430813,0.012899999506771564,-0.0210999995470047,0.06099999926066736,0,0
0.5897684693336487,-0.03427539020776749,9.766427993774414,-0.015599999576807022,-0.006799999624490738,-0.03099999949336052,0.06099999926066736,0.1830000044521087,-0.06099999926066736
0.5718790292739868,-0.03960009664297104,9.762903213500977,-0.03460000082850456,-0.016699999570846558,-0.03099999949336052,0.12199999852133472,0.12199999852133472,0
0.638227105140686,-0.036363136023283005,9.768974304199219,0.0340999998152256,-0.007199999876320362,-0.021199999377131462,0,0.12199999852133472,-0.06099999926066736
0.621103823184967,-0.044943954795598984,9.78674030303955,0.014699999243021011,-0.016899999231100082,-0.011399999260902405,0,0.12199999852133472,-0.06099999926066736
0.6015384197235107,-0.022333113476634026,9.748298645019531,-0.004399999976158142,0.0026000000070780516,-0.05069999769330025,0.06099999926066736,0.12199999852133472,0
0.6039516925811768,-0.057930104434490204,9.773695945739746,0.00559999980032444,-0.03659999743103981,-0.021199999377131462,0,0.1830000044521087,0.06099999926066736
0.6092668175697327,-0.028538884595036507,9.784518241882324,0.006099999882280827,0.0026000000070780516,-0.011500000022351742,0,0.12199999852133472,0.06099999926066736
0.5809099674224854,-0.017401058226823807,9.773869514465332,-0.02279999852180481,0.012299999594688416,-0.021299999207258224,0,0.06099999926066736,0.06099999926066736
0.6189394593238831,-0.030530860647559166,9.778839111328125,0.016300000250339508,-0.0071000000461936,-0.011500000022351742,-0.06099999926066736,0.24399999704266945,-0.06099999926066736
0.5684696435928345,-0.03624821454286575,9.728484153747559,-0.022099999710917473,-0.0023999998811632395,-0.07099999487400055,0,0.12199999852133472,0
0.6021991968154907,-0.028548462316393852,9.763688087463379,0.003499999875202775,0.00419999985024333,-0.03150000050663948,0,0.12199999852133472,0
0.6035399436950684,-0.027609933167696,9.772719383239746,0.007599999662488699,0.0024999999441206455,-0.021399999037384987,-0.06099999926066736,0,-0.12199999852133472
0.6399509906768799,-0.016357185319066048,9.73534107208252,0.028199998661875725,0.009800000116229057,-0.060099996626377106,0.06099999926066736,0.12199999852133472,0
0.6095158457756042,-0.023156719282269478,9.778656959533691,0.0009999999310821295,0,-0.01119999960064888,-0.06099999926066736,-0.06099999926066736,0
0.6051009297370911,-0.023089680820703506,9.76917552947998,0.0009999999310821295,0,-0.01119999960064888,0,0.12199999852133472,-0.06099999926066736
0.6442030668258667,-0.0377996563911438,9.758517265319824,0.00009999999747378752,0,-0.020899999886751175,0.06099999926066736,0.1830000044521087,0
0.6116418838500977,-0.05046019330620766,9.758143424987793,-0.007400000002235174,-0.020399998873472214,-0.04010000079870224,0,0.06099999926066736,-0.06099999926066736
0.5829689502716064,-0.03982993960380554,9.77828311920166,-0.022299999371170998,-0.006300000008195639,-0.011500000022351742,0.06099999926066736,0,-0.06099999926066736
0.6015384197235107,-0.031881190836429596,9.784738540649414,-0.0018999999156221747,0.001999999862164259,-0.011599999852478504,0,0.1830000044521087,0
0.630843460559845,-0.04479072615504265,9.7662935256958,0.027899999171495438,-0.007699999958276749,-0.031199999153614044,-0.06099999926066736,0.1830000044521087,0.06099999926066736
0.5876520276069641,-0.028701690956950188,9.802416801452637,-0.010799999348819256,0.011899999342858791,0.007899999618530273,0.06099999926066736,0.06099999926066736,0
0.5950357913970947,-0.058207832276821136,9.752578735351562,-0.0007999999797903001,-0.027300000190734863,-0.04099999740719795,0,0.12199999852133472,-0.12199999852133472
0.5891172289848328,-0.04697423428297043,9.752015113830566,-0.010199999436736107,-0.007699999958276749,-0.041099999099969864,0,0.12199999852133472,0
0.6108087301254272,-0.011741165071725845,9.756917953491211,0.009599999524652958,0.02159999869763851,-0.041099999099969864,0.06099999926066736,0.06099999926066736,-0.12199999852133472
0.6241875886917114,-0.03634398430585861,9.756190299987793,0.02929999865591526,0.0017999999690800905,-0.041099999099969864,0,0,0
0.6208643913269043,-0.014298172667622566,9.750118255615234,0.019500000402331352,0.021399999037384987,-0.041099999099969864,0,0.06099999926066736,-0.06099999926066736
0.5928426384925842,-0.04877467826008797,9.76209831237793,-0.00969999935477972,-0.017799999564886093,-0.031300000846385956,0.12199999852133472,0.12199999852133472,0
0.6057330369949341,-0.04472368583083153,9.764933586120605,0.010199999436736107,-0.008299999870359898,-0.031300000846385956,0.06099999926066736,-0.06099999926066736,-0.06099999926066736
0.6073994040489197,-0.0316321924328804,9.756237983703613,0.009999999776482582,0.0013000000035390258,-0.041099999099969864,0,0.06099999926066736,0
0.5861963629722595,-0.033901896327733994,9.763995170593262,-0.009399999864399433,0.0013000000035390258,-0.031300000846385956,-0.06099999926066736,0.1830000044521087,0
0.596424400806427,-0.04132392257452011,9.798480987548828,0.0008999999845400453,-0.008200000040233135,0.007799999788403511,0.12199999852133472,0.12199999852133472,-0.12199999852133472
0.6180105209350586,-0.03379655256867409,9.75877571105957,0.02070000022649765,0.0011999999405816197,-0.03139999881386757,0.12199999852133472,0,0
0.6017682552337646,-0.03538630157709122,9.763784408569336,0.010900000110268593,0.010599999688565731,-0.03139999881386757,0,0.12199999852133472,-0.12199999852133472
0.6029461622238159,-0.04697423428297043,9.781865119934082,0.0008999999845400453,0.0008999999845400453,-0.03139999881386757,0,0.12199999852133472,0
0.6025343537330627,-0.03462015464901924,9.775160789489746,0.0011999999405816197,-0.008700000122189522,-0.011799999512732029,-0.06099999926066736,-0.06099999926066736,-0.06099999926066736
0.5734783411026001,-0.05846640467643738,9.770584106445312,-0.027799999341368675,-0.0279999990016222,-0.02159999869763851,0,0,-0.06099999926066736
0.618632972240448,-0.03593217954039574,9.78264045715332,0.020999999716877937,0.0013000000035390258,-0.011799999512732029,-0.06099999926066736,0.12199999852133472,0.06099999926066736
0.608462393283844,-0.022524649277329445,9.77206802368164,0.011399999260902405,0.01119999960064888,-0.02159999869763851,0,0.06099999926066736,-0.12199999852133472
0.5692453980445862,-0.03026270866394043,9.764081001281738,-0.027400000020861626,0.0013000000035390258,-0.03139999881386757,0,0,-0.06099999926066736
0.592210590839386,-0.010649409145116806,9.766742706298828,-0.007799999788403511,0.020800000056624413,-0.03139999881386757,0,0.12199999852133472,0
0.6015384197235107,-0.031622614711523056,9.808699607849121,0.002199999988079071,0.0011999999405816197,0.017500000074505806,-0.06099999926066736,-0.06099999926066736,0
0.5964435338973999,-0.05037400498986244,9.765949249267578,0.002099999925121665,-0.017999999225139618,-0.03139999881386757,-0.06099999926066736,0.06099999926066736,-0.06099999926066736
0.5951889753341675,-0.01914403773844242,9.767193794250488,0.002199999988079071,0.0210999995470047,-0.03139999881386757,0,0,0
0.6058288216590881,-0.0296210628002882,9.740043640136719,0.011899999342858791,0.001500000013038516,-0.050999999046325684,0.12199999852133472,0.1830000044521087,-0.06099999926066736
0.5735549330711365,-0.04412034898996353,9.753662109375,-0.026499999687075615,-0.008499999530613422,-0.04129999876022339,0.06099999926066736,0.06099999926066736,0
0.5973150134086609,-0.029017724096775055,9.770009994506836,0.002899999963119626,0.0009999999310821295,-0.021699998527765274,0.06099999926066736,0.06099999926066736,0
0.5941546559333801,-0.04179318621754646,9.783732414245605,0.003000000026077032,-0.008799999952316284,-0.011899999342858791,0.06099999926066736,0.12199999852133472,-0.12199999852133472
0.6296176314353943,-0.0514274537563324,9.778772354125977,0.03240000084042549,-0.01850000023841858,-0.011899999342858791,0.06099999926066736,0.12199999852133472,0
0.6038081049919128,-0.026977865025401115,9.780284881591797,0.012999999336898327,0.010499999858438969,-0.011899999342858791,0,0.12199999852133472,0.06099999926066736
0.6208260655403137,-0.02386540174484253,9.769233703613281,0.02290000021457672,0.010400000028312206,-0.021699998527765274,-0.06099999926066736,0.06099999926066736,0.06099999926066736
0.6156354546546936,-0.040960002690553665,9.746087074279785,0.023000000044703484,-0.008899999782443047,-0.0510999970138073,0,0.24399999704266945,-0.06099999926066736
0.6069971919059753,-0.048190489411354065,9.787429809570312,0.02199999988079071,-0.02070000022649765,-0.012399999424815178,0.1830000044521087,0.06099999926066736,-0.06099999926066736
0.5948633551597595,-0.04739561676979065,9.803901672363281,0.004799999762326479,0.003399999812245369,-0.012000000104308128,-0.06099999926066736,0,-0.06099999926066736
0.6071791648864746,-0.015648502856492996,9.770641326904297,0.002699999837204814,-0.008499999530613422,0.007699999958276749,0.1830000044521087,0.1830000044521087,-0.1830000044521087
0.6068247556686401,-0.039398983120918274,9.768447875976562,0.00839999970048666,0.0142000000923872,-0.021399999037384987,0.06099999926066736,0.12199999852133472,-0.06099999926066736
0.5868380069732666,-0.04647624120116234,9.775583267211914,-0.004399999976158142,-0.010199999436736107,-0.021800000220537186,0.06099999926066736,0.06099999926066736,-0.06099999926066736
0.6032717823982239,-0.03966713324189186,9.789460182189941,0.002699999837204814,-0.005200000014156103,-0.001999999862164259,0,0.1830000044521087,-0.12199999852133472
0.6132029294967651,-0.02566584199666977,9.783905029296875,0.014499999582767487,0.00930000003427267,-0.011399999260902405,0.06099999926066736,0.12199999852133472,-0.12199999852133472
0.5818771719932556,-0.059088896960020065,9.770468711853027,-0.017899999395012856,-0.021699998527765274,-0.02159999869763851,0,0.12199999852133472,0
0.6028791666030884,-0.034725502133369446,9.770113945007324,0.0008999999845400453,0.0052999998442828655,-0.02149999886751175,0,0.06099999926066736,-0.06099999926066736
0.6073994040489197,-0.028098350390791893,9.772747993469238,0.0071000000461936,0.010300000198185444,-0.021299999207258224,0,0.06099999926066736,-0.06099999926066736
0.6067481637001038,-0.029640216380357742,9.760269165039062,0.004799999762326479,0.00039999998989515007,-0.03099999949336052,0,0.12199999852133472,0
0.6021800637245178,-0.06627149879932404,9.77405071258545,-0.003499999875202775,-0.01939999870955944,-0.021199999377131462,0,0.12199999852133472,-0.12199999852133472
0.5999869108200073,-0.013273454271256924,9.78428840637207,-0.002199999988079071,0.017899999395012856,-0.011599999852478504,0,0,0.06099999926066736
0.6085485816001892,-0.03284844756126404,9.77802562713623,0.004399999976158142,-0.0009999999310821295,-0.011399999260902405,-0.06099999926066736,0.1830000044521087,-0.06099999926066736
0.6002359390258789,-0.028242003172636032,9.738951683044434,-0.004799999762326479,0.008899999782443047,-0.06039999797940254,0,0.12199999852133472,0
0.6010691523551941,-0.03334644436836243,9.751113891601562,-0.0044999998062849045,-0.0008999999845400453,-0.04079999774694443,0.06099999926066736,-0.06099999926066736,-0.06099999926066736
0.5967212319374084,-0.023089680820703506,9.800320625305176,-0.004600000102072954,0.008700000122189522,0.008100000210106373,-0.06099999926066736,0.1830000044521087,0
0.5934747457504272,-0.022687455639243126,9.793971061706543,-0.013899999670684338,0.008799999952316284,-0.0015999999595806003,0,0.12199999852133472,-0.12199999852133472
0.6117568612098694,-0.048659756779670715,9.76335334777832,0.006000000052154064,-0.020499998703598976,-0.031099999323487282,0.06099999926066736,0,-0.06099999926066736
0.6374801397323608,-0.026460716500878334,9.791853904724121,0.03519999980926514,0.008599999360740185,-0.0015999999595806003,-0.12199999852133472,0.06099999926066736,0
0.6295027136802673,-0.0439479686319828,9.789584159851074,-0.003700000001117587,0.008999999612569809,-0.04089999943971634,0,0.12199999852133472,0
0.6295027136802673,-0.0439479686319828,9.789584159851074,0.025599999353289604,-0.010799999348819256,-0.0016999999061226845,0,0.12199999852133472,0
0.5840224027633667,-0.008207323029637337,9.76472282409668,0.006300000008195639,0.008700000122189522,-0.04089999943971634,0,0.06099999926066736,0
0.6219561100006104,-0.043679818511009216,9.75948429107666,-0.022599998861551285,0.018400000408291817,-0.031099999323487282,0.1830000044521087,0,0.06099999926066736
0.6134614944458008,-0.031881190836429596,9.735581398010254,0.016599999740719795,-0.0015999999595806003,-0.060499999672174454,0,0.1830000044521087,0
0.6000826954841614,-0.0513029545545578,9.76228141784668,-0.0023999998811632395,-0.0210999995470047,-0.031099999323487282,0.06099999926066736,0.12199999852133472,-0.12199999852133472
0.6050531268119812,-0.03101927787065506,9.753182411193848,0.007599999662488699,-0.0016999999061226845,-0.04099999740719795,0.06099999926066736,0.12199999852133472,-0.06099999926066736
0.5897684693336487,-0.03071282058954239,9.75556755065918,-0.011599999852478504,-0.0017999999690800905,-0.04099999740719795,-0.06099999926066736,0.1830000044521087,-0.12199999852133472
0.5744456052780151,-0.0257137268781662,9.757932662963867,-0.03059999831020832,0.007999999448657036,-0.04099999740719795,-0.12199999852133472,0.24399999704266945,-0.1830000044521087
0.6285257935523987,-0.05241386592388153,9.796201705932617,0.04259999841451645,-0.022099999710917473,-0.002699999837204814,0.06099999926066736,0.06099999926066736,-0.12199999852133472
0.6192458868026733,-0.028797458857297897,9.766427993774414,0.018199998885393143,-0.001500000013038516,-0.031199999153614044,0.06099999926066736,0.12199999852133472,-0.06099999926066736
0.5794255137443542,-0.03962882608175278,9.77840805053711,-0.011500000022351742,-0.006199999712407589,-0.012199999764561653,0,0.1830000044521087,-0.06099999926066736
0.6485700607299805,-0.0037828385829925537,9.792131423950195,0.028299998492002487,0.011399999260902405,-0.0005999999702908099,0.12199999852133472,0,-0.1830000044521087
0.5887150168418884,-0.017592594027519226,9.79491901397705,-0.017500000074505806,0.006300000008195639,-0.00139999995008111,0,0.12199999852133472,-0.06099999926066736
0.6017682552337646,-0.028548462316393852,9.764800071716309,-0.006099999882280827,-0.0026000000070780516,-0.030899999663233757,0.06099999926066736,0.12199999852133472,-0.06099999926066736
0.5918467044830322,-0.02362598292529583,9.771857261657715,-0.011399999260902405,-0.001999999862164259,-0.021399999037384987,-0.12199999852133472,0,0.06099999926066736
0.6089125275611877,-0.024583663791418076,9.76440715789795,0.005499999970197678,-0.0011999999405816197,-0.031099999323487282,0,0,0
0.6124942898750305,-0.02801216021180153,9.790733337402344,0.002699999837204814,-0.0005999999702908099,-0.001500000013038516,0,0,-0.06099999926066736
0.5923829078674316,-0.03787627071142197,9.740867614746094,-0.014399999752640724,-0.008499999530613422,-0.050599999725818634,0,0.12199999852133472,-0.06099999926066736
0.5833712220191956,-0.059682659804821014,9.774347305297852,-0.016999999061226845,-0.026399999856948853,-0.02159999869763851,0,0,-0.06099999926066736
0.6312743425369263,-0.02147120051085949,9.789823532104492,0.03189999982714653,0.01269999984651804,-0.001999999862164259,-0.06099999926066736,0.06099999926066736,0.06099999926066736
0.6021513342857361,-0.06147352233529091,9.76009750366211,0.0026000000070780516,-0.026200000196695328,-0.03139999881386757,0,0.06099999926066736,0
0.6074185371398926,-0.03011905588209629,9.797666549682617,0.012600000016391277,0.012899999506771564,-0.03150000050663948,0.06099999926066736,0.1830000044521087,0
0.6206920146942139,-0.03578852862119675,9.766656875610352,0.01269999984651804,0.002899999963119626,0.007699999958276749,0.06099999926066736,0.12199999852133472,-0.06099999926066736
0.6044688820838928,-0.013895946554839611,9.751564025878906,0.023000000044703484,0.002699999837204814,-0.03150000050663948,0,0.3049999896332302,0.06099999926066736
0.6115078926086426,-0.03235045075416565,9.762385368347168,0.02319999970495701,-0.0007999999797903001,-0.032099999487400055,-0.06099999926066736,0.12199999852133472,0.06099999926066736
0.597956657409668,-0.019000384956598282,9.78925895690918,0.005499999970197678,0.007599999662488699,-0.002199999988079071,0,0.06099999926066736,-0.06099999926066736
0.5980428457260132,-0.04163037985563278,9.77840805053711,0.0032999999821186066,-0.013700000010430813,-0.011899999342858791,0,0.06099999926066736,-0.06099999926066736
0.6223966479301453,-0.0367366299033165,9.782086372375488,0.014399999752640724,-0.0023999998811632395,-0.011399999260902405,0.06099999926066736,0.1830000044521087,0
0.587364673614502,-0.048209644854068756,9.76450252532959,-0.011399999260902405,-0.01679999940097332,-0.031199999153614044,0.06099999926066736,0,-0.06099999926066736
0.6186138391494751,-0.02960190922021866,9.795167922973633,0.009099999442696571,0.0013000000035390258,-0.0011999999405816197,0,0,-0.06099999926066736
0.6112971901893616,-0.03479253873229027,9.768342971801758,-0.0007999999797903001,0.0008999999845400453,-0.020800000056624413,0,0,-0.06099999926066736
0.5673108696937561,-0.039801210165023804,9.755922317504883,-0.03219999745488167,-0.006899999920278788,-0.04089999943971634,-0.12199999852133472,0.06099999926066736,-0.06099999926066736
0.620797336101532,-0.030396783724427223,9.759628295898438,0.011699999682605267,0.002199999988079071,-0.030799999833106995,0,0.12199999852133472,0
0.5906686782836914,-0.037502776831388474,9.780983924865723,-0.010900000110268593,0.00139999995008111,-0.011599999852478504,0,0.06099999926066736,-0.06099999926066736
0.6346071362495422,-0.04518337547779083,9.761150360107422,0.027499999850988388,-0.006099999882280827,-0.03059999831020832,0,-0.06099999926066736,0.06099999926066736
0.6102437376976013,-0.04535575956106186,9.754916191101074,-0.001999999862164259,-0.006099999882280827,-0.04039999842643738,0,0.06099999926066736,-0.12199999852133472
0.6105310320854187,-0.016931794583797455,9.77856159210205,-0.0017999999690800905,0.02319999970495701,-0.010999999940395355,0,0.12199999852133472,-0.06099999926066736
0.6105214357376099,-0.038642413914203644,9.784440994262695,-0.001500000013038516,-0.006099999882280827,-0.010999999940395355,0,0.12199999852133472,0
0.5845203995704651,-0.02177765779197216,9.776540756225586,-0.02070000022649765,0.013399999588727951,-0.020800000056624413,0.12199999852133472,0.12199999852133472,-0.06099999926066736
0.5859760642051697,-0.03164177015423775,9.770612716674805,-0.020399998873472214,0.0031999999191612005,-0.020800000056624413,0.06099999926066736,0.1830000044521087,0.06099999926066736
0.590707004070282,-0.04588248208165169,9.759398460388184,-0.01979999989271164,-0.006599999964237213,-0.030700000002980232,0.06099999926066736,0.06099999926066736,-0.12199999852133472
0.6154151558876038,-0.03225468471646309,9.763439178466797,-0.00009999999747378752,-0.006799999624490738,-0.0013000000035390258,0.12199999852133472,-0.06099999926066736,-0.06099999926066736
0.5915402173995972,-0.04492479935288429,9.783062934875488,0.010099999606609344,0.002699999837204814,-0.030700000002980232,0,0.06099999926066736,-0.06099999926066736
0.6149842739105225,-0.03646847978234291,9.752243995666504,-0.019299998879432678,-0.0072999997064471245,-0.011099999770522118,0,0.12199999852133472,-0.06099999926066736
0.5998719930648804,-0.011607090011239052,9.794343948364258,-0.008999999612569809,0.021800000220537186,-0.0013000000035390258,-0.06099999926066736,0,0
0.5917987823486328,-0.021212628111243248,9.78402042388916,-0.018699999898672104,0.01209999993443489,-0.011099999770522118,0.12199999852133472,0.12199999852133472,0
0.5958976149559021,-0.04263594374060631,9.77022933959961,-0.008499999530613422,-0.007699999958276749,-0.020999999716877937,0.06099999926066736,0,-0.12199999852133472
0.636053204536438,-0.037713468074798584,9.766236305236816,0.030499998480081558,0.0017999999690800905,-0.030799999833106995,0,0,0
0.5926128029823303,-0.032858025282621384,9.783714294433594,-0.018299998715519905,0.0017999999690800905,-0.01119999960064888,-0.12199999852133472,0.06099999926066736,-0.06099999926066736
0.6218987107276917,-0.023147141560912132,9.780189514160156,0.011099999770522118,0.011899999342858791,-0.01119999960064888,-0.06099999926066736,0.12199999852133472,-0.06099999926066736
0.5981865525245667,-0.05137956887483597,9.766762733459473,-0.008100000210106373,-0.01719999872148037,-0.030799999833106995,0.06099999926066736,0.06099999926066736,0
0.610933244228363,-0.029745562002062798,9.780956268310547,0.0017999999690800905,0.002099999925121665,-0.01119999960064888,0.12199999852133472,0.12199999852133472,-0.06099999926066736
0.6381601095199585,-0.0445513054728508,9.781213760375977,0.031300000846385956,-0.007899999618530273,-0.01119999960064888,-0.06099999926066736,0.1830000044521087,-0.06099999926066736
0.6099085211753845,-0.0034284968860447407,9.800291061401367,0.002300000051036477,0.021399999037384987,0.008299999870359898,0,0,0
0.5953804850578308,-0.031335312873125076,9.760346412658691,-0.0072999997064471245,0.0017999999690800905,-0.030799999833106995,0.06099999926066736,0.06099999926066736,-0.06099999926066736
0.5989909768104553,-0.025321077555418015,9.770794868469238,-0.0071000000461936,0.011399999260902405,-0.0210999995470047,0.12199999852133472,0.1830000044521087,0.12199999852133472
0.5995751619338989,-0.023807941004633904,9.81313419342041,0.016599999740719795,0.006199999712407589,0.016599999740719795,0.06099999926066736,0,0.06099999926066736
0.6070641875267029,-0.05357265844941139,9.780257225036621,0.010799999348819256,-0.00989999994635582,-0.011699999682605267,0,0.1830000044521087,0
0.6133178472518921,-0.03293463960289955,9.776876449584961,0.012999999336898327,0.006099999882280827,-0.0210999995470047,0.12199999852133472,0.1830000044521087,0.06099999926066736
0.6089795827865601,-0.018952501937747,9.792610168457031,0.0015999999595806003,0.011899999342858791,-0.00139999995008111,0.06099999926066736,0.06099999926066736,-0.06099999926066736
0.5751255750656128,-0.032599449157714844,9.779192924499512,-0.01850000023841858,-0.005200000014156103,-0.011799999512732029,0,0,-0.06099999926066736
0.5908315181732178,-0.04805641621351242,9.770009994506836,0.02239999920129776,-0.0037999998312443495,-0.030899999663233757,0.06099999926066736,0.06099999926066736,0
0.6009159088134766,-0.03430412337183952,9.753326416015625,-0.011799999512732029,-0.016300000250339508,-0.021399999037384987,-0.06099999926066736,0.06099999926066736,-0.06099999926066736
0.6016437411308289,-0.01289038173854351,9.774041175842285,-0.001500000013038516,0.01489999983459711,-0.021399999037384987,-0.12199999852133472,0.06099999926066736,0
0.6011649370193481,-0.04808514937758446,9.773725509643555,-0.0013000000035390258,-0.01589999906718731,-0.021399999037384987,0,0.12199999852133472,-0.06099999926066736
0.606508731842041,-0.04679227992892265,9.784566879272461,0.004900000058114529,-0.003599999938160181,-0.011399999260902405,0.12199999852133472,0.1830000044521087,0.06099999926066736
0.6020363569259644,-0.013972560875117779,9.786826133728027,-0.004299999680370092,0.02539999969303608,-0.011399999260902405,0.12199999852133472,0,-0.06099999926066736
0.600006103515625,-0.028203696012496948,9.766629219055176,-0.004299999680370092,0.015199999324977398,-0.03099999949336052,0,0.12199999852133472,-0.12199999852133472
0.6213049292564392,-0.023329101502895355,9.759512901306152,0.01549999974668026,0.015099999494850636,-0.03099999949336052,0.06099999926066736,0.12199999852133472,-0.06099999926066736
0.5984067916870117,-0.04124730825424194,9.761198043823242,-0.003700000001117587,-0.0044999998062849045,-0.031099999323487282,-0.06099999926066736,0,0
0.5922009944915771,0.009672574698925018,9.750663757324219,-0.013499999418854713,0.024899998679757118,-0.04089999943971634,0.06099999926066736,0.12199999852133472,-0.06099999926066736
0.584539532661438,-0.047759536653757095,9.754570960998535,-0.013199999928474426,-0.004600000102072954,-0.04089999943971634,0.06099999926066736,0.06099999926066736,-0.06099999926066736
0.6030515432357788,-0.036813244223594666,9.7628173828125,-0.0031999999191612005,0.004900000058114529,-0.031099999323487282,0,0.1830000044521087,-0.06099999926066736
0.5956391096115112,-0.0107834842056036,9.776876449584961,-0.002699999837204814,0.02449999935925007,-0.021299999207258224,0.06099999926066736,0.12199999852133472,0
0.596098780632019,-0.03702393174171448,9.770813941955566,-0.0023999998811632395,0.004699999932199717,-0.021299999207258224,0.06099999926066736,0.24399999704266945,-0.06099999926066736
0.6254804134368896,-0.042904093861579895,9.765527725219727,0.04569999873638153,-0.01209999993443489,-0.03229999914765358,0.06099999926066736,0.12199999852133472,0
0.6144383549690247,-0.051197610795497894,9.767721176147461,0.020999999716877937,-0.013199999928474426,-0.03139999881386757,0.06099999926066736,0.06099999926066736,-0.1830000044521087
0.5767727494239807,-0.030770281329751015,9.782258033752441,-0.00989999994635582,0.0031999999191612005,-0.012299999594688416,0.1830000044521087,0.1830000044521087,-0.06099999926066736
0.608577311038971,-0.026317063719034195,9.794526100158691,0.025499999523162842,0.009399999864399433,-0.00279999990016222,0,0.12199999852133472,0
0.6028121113777161,-0.020465634763240814,9.747178077697754,0.012000000104308128,0.007400000002235174,-0.05159999802708626,0,0.1830000044521087,0.06099999926066736
0.6108949780464172,-0.02147120051085949,9.791853904724121,0.009800000116229057,0.0032999999821186066,-0.0018999999156221747,0.06099999926066736,0.06099999926066736,0
0.575336217880249,-0.03499365225434303,9.758009910583496,-0.01599999889731407,-0.0052999998442828655,-0.04129999876022339,0,0.06099999926066736,-0.12199999852133472
0.5942025780677795,-0.050297390669584274,9.785638809204102,-0.005200000014156103,0.003399999812245369,-0.0414000004529953,0.12199999852133472,0.24399999704266945,0
0.6029844880104065,-0.06619488447904587,9.777344703674316,0.0023999998811632395,-0.015099999494850636,-0.011799999512732029,0.12199999852133472,0.12199999852133472,0.06099999926066736
0.6237565875053406,-0.0560338981449604,9.750261306762695,0.030299998819828033,-0.014599999412894249,-0.041099999099969864,0,0.12199999852133472,-0.12199999852133472
0.5806513428688049,-0.02018790878355503,9.780179977416992,-0.011299999430775642,0.008799999952316284,-0.012199999764561653,0.12199999852133472,0.3049999896332302,0
0.6057617664337158,-0.05363012105226517,9.780668258666992,0.025200000032782555,-0.02279999852180481,-0.012600000016391277,0,0.12199999852133472,0
0.6051201224327087,-0.04161122441291809,9.750885009765625,0.01899999938905239,-0.00989999994635582,-0.04169999808073044,0,-0.12199999852133472,-0.12199999852133472
0.6081559658050537,-0.06128198653459549,9.746583938598633,0.013899999670684338,-0.023000000044703484,-0.0510999970138073,-0.12199999852133472,0.12199999852133472,-0.06099999926066736
0.5963190197944641,-0.03736870363354683,9.797599792480469,0.0026000000070780516,0.003599999938160181,0.007699999958276749,0,0.06099999926066736,0.06099999926066736
0.6086061000823975,-0.04203260317444801,9.750022888183594,0.009200000204145908,-0.004699999932199717,-0.041099999099969864,0,0.06099999926066736,-0.06099999926066736
0.580086350440979,-0.05122634023427963,9.751574516296387,-0.015799999237060547,-0.011099999770522118,-0.04129999876022339,0,0.1830000044521087,-0.06099999926066736
0.619810938835144,-0.01388636976480484,9.763755798339844,0.016200000420212746,0.019700000062584877,-0.031099999323487282,0,0.12199999852133472,-0.12199999852133472
0.5856504440307617,-0.031478963792324066,9.77463436126709,-0.008899999782443047,0.00009999999747378752,-0.02149999886751175,0.06099999926066736,0.1830000044521087,0.12199999852133472
0.6320213675498962,-0.03693774342536926,9.756649017333984,0.022499999031424522,0,-0.040699999779462814,0,0.12199999852133472,0
0.5850471258163452,-0.03585556522011757,9.809677124023438,-0.009999999776482582,0,0.01769999973475933,0.06099999926066736,0.06099999926066736,0
0.5885235071182251,-0.04193683713674545,9.785055160522461,-0.006399999838322401,-0.006099999882280827,-0.011899999342858791,0,0.24399999704266945,0.06099999926066736
0.5999581813812256,-0.04284663498401642,9.743586540222168,0.012000000104308128,-0.00930000003427267,-0.05159999802708626,-0.06099999926066736,0.12199999852133472,-0.06099999926066736
0.5839362144470215,-0.041410114616155624,9.753297805786133,-0.006199999712407589,-0.0071000000461936,-0.04189999774098396,0.06099999926066736,0.06099999926066736,-0.06099999926066736
0.6105980277061462,-0.022400150075554848,9.74438190460205,0.01759999990463257,0.009599999524652958,-0.05139999836683273,-0.06099999926066736,0.1830000044521087,0.06099999926066736
0.5981386303901672,-0.04450342059135437,9.777565002441406,0.004999999888241291,-0.006399999838322401,-0.021800000220537186,0.06099999926066736,0.12199999852133472,-0.06099999926066736
0.5868092775344849,-0.0406343899667263,9.781693458557129,0.0031999999191612005,0.002099999925121665,-0.021699998527765274,0.12199999852133472,0.1830000044521087,-0.1830000044521087
0.5681632161140442,-0.03879564255475998,9.78815746307373,0.002899999963119626,-0.010799999348819256,-0.012399999424815178,0,0,0
0.5741487145423889,-0.026364948600530624,9.763439178466797,-0.008799999952316284,-0.005799999926239252,-0.0030999998562037945,-0.12199999852133472,0,0
0.5897493362426758,-0.019728220999240875,9.778800964355469,0.007400000002235174,0.006799999624490738,-0.01269999984651804,-0.06099999926066736,0.1830000044521087,0
0.6341665387153625,-0.03773261979222298,9.786730766296387,0.03460000082850456,-0.0016999999061226845,-0.011399999260902405,0,0,-0.06099999926066736
0.6059437394142151,-0.036382291465997696,9.779729843139648,0.0030999998562037945,-0.0009999999310821295,-0.011299999430775642,0.1830000044521087,0.06099999926066736,0
0.5923638343811035,-0.01679771952331066,9.772594451904297,-0.012000000104308128,0.012799999676644802,-0.021399999037384987,-0.06099999926066736,0.12199999852133472,0
0.5824039578437805,-0.029946673661470413,9.77699089050293,-0.015399999916553497,-0.0044999998062849045,-0.021699998527765274,0,0.06099999926066736,0
0.6113929152488708,-0.03405512496829033,9.76810359954834,0.009800000116229057,-0.0032999999821186066,-0.031300000846385956,0.06099999926066736,0.06099999926066736,-0.06099999926066736
0.6034632921218872,-0.042712558060884476,9.798174858093262,0.006000000052154064,-0.007699999958276749,0.008100000210106373,0,-0.06099999926066736,-0.06099999926066736
0.6250016093254089,-0.05589982122182846,9.768621444702148,0.01730000041425228,-0.01209999993443489,-0.02070000022649765,0.12199999852133472,0,-0.06099999926066736
0.6299144625663757,-0.047568000853061676,9.775104522705078,0.01719999872148037,-0.0026000000070780516,-0.02070000022649765,-0.06099999926066736,0.1830000044521087,-0.06099999926066736
0.6279608011245728,-0.033566705882549286,9.762740135192871,0.017799999564886093,0.007199999876320362,-0.03059999831020832,-0.06099999926066736,0.06099999926066736,-0.06099999926066736
0.6146873235702515,-0.05170518159866333,9.791346549987793,0.008100000210106373,-0.01209999993443489,-0.0011999999405816197,0.06099999926066736,0.06099999926066736,-0.12199999852133472
0.6258347630500793,-0.03770388662815094,9.765288352966309,0.017999999225139618,0.007199999876320362,-0.03059999831020832,0.06099999926066736,0.12199999852133472,-0.06099999926066736
0.5999677777290344,-0.04388092830777168,9.766475677490234,-0.010900000110268593,-0.002699999837204814,-0.03059999831020832,0,0.12199999852133472,-0.06099999926066736
0.6007722020149231,-0.05974011868238449,9.778264999389648,-0.010599999688565731,-0.022199999541044235,-0.010999999940395355,0.12199999852133472,0,-0.12199999852133472
0.5856983661651611,-0.04601655527949333,9.789076805114746,-0.02029999904334545,-0.003000000026077032,-0.0011999999405816197,0.06099999926066736,0.06099999926066736,0
0.6065183281898499,-0.022045807912945747,9.755021095275879,-0.0004999999655410647,0.016300000250339508,-0.04050000011920929,-0.06099999926066736,0.06099999926066736,0.06099999926066736
0.5869624614715576,-0.04019385948777199,9.770966529846191,-0.019899999722838402,-0.003000000026077032,-0.020899999886751175,-0.06099999926066736,0,0.12199999852133472
0.5959838032722473,-0.015849614515900612,9.747780799865723,-0.010099999606609344,0.026499999687075615,-0.0502999983727932,0.06099999926066736,0.1830000044521087,0
0.6005615592002869,-0.04043327644467354,9.761446952819824,0.00989999994635582,-0.022499999031424522,-0.020899999886751175,-0.06099999926066736,0.06099999926066736,-0.06099999926066736
0.5926989912986755,-0.05112099274992943,9.751229286193848,-0.01889999955892563,-0.012199999764561653,-0.04050000011920929,0,0.12199999852133472,-0.06099999926066736
0.5971235036849976,-0.026642676442861557,9.739880561828613,-0.008700000122189522,0.016999999061226845,-0.05040000006556511,0,0.06099999926066736,0.06099999926066736
0.6260071396827698,-0.04113238677382469,9.80135440826416,0.020600000396370888,-0.0023999998811632395,0.00839999970048666,0.12199999852133472,0.1830000044521087,0
0.6139020323753357,-0.03943729028105736,9.80064582824707,0.01119999960064888,-0.00279999990016222,0.00839999970048666,0.06099999926066736,0.06099999926066736,0.06099999926066736
0.5964627265930176,-0.039398983120918274,9.739737510681152,-0.008100000210106373,-0.002899999963119626,-0.05040000006556511,0.06099999926066736,0.1830000044521087,-0.06099999926066736
0.6204429864883423,-0.05921339616179466,9.779212951660156,0.011799999512732029,-0.022499999031424522,-0.01119999960064888,0.12199999852133472,0.06099999926066736,-0.06099999926066736
0.6165643930435181,-0.04720408096909523,9.782267570495605,0.011899999342858791,-0.0032999999821186066,-0.01119999960064888,-0.06099999926066736,0.24399999704266945,-0.12199999852133472
0.6040762066841125,-0.008916007354855537,9.776415824890137,0.034199997782707214,0.015799999237060547,-0.02290000021457672,0.06099999926066736,0.1830000044521087,0.12199999852133472
0.6009350419044495,-0.041218578815460205,9.771110534667969,0.012399999424815178,-0.0071000000461936,-0.022199999541044235,0.06099999926066736,0.1830000044521087,-0.06099999926066736
0.6264668107032776,-0.029372066259384155,9.784096717834473,0.022299999371170998,0.0013000000035390258,-0.011299999430775642,0,0.06099999926066736,0
0.5932831764221191,-0.0393415205180645,9.785188674926758,-0.010599999688565731,-0.005200000014156103,-0.011599999852478504,0.06099999926066736,0.12199999852133472,-0.06099999926066736
0.6041145920753479,-0.021748928353190422,9.78418254852295,0.00559999980032444,0.008899999782443047,-0.011399999260902405,0,0.12199999852133472,-0.06099999926066736
0.604995608329773,-0.05103480443358421,9.764789581298828,0.003999999724328518,-0.01529999915510416,-0.030899999663233757,0.06099999926066736,0.06099999926066736,0
0.6242066621780396,-0.025321077555418015,9.765833854675293,0.01679999940097332,0.010099999606609344,-0.030499998480081558,-0.06099999926066736,0.06099999926066736,-0.12199999852133472
0.6052542328834534,-0.04727111756801605,9.74268627166748,-0.002699999837204814,-0.0072999997064471245,-0.05009999871253967,-0.06099999926066736,0,-0.06099999926066736
0.5801054835319519,-0.03892971947789192,9.767683029174805,-0.023499999195337296,-0.004999999888241291,-0.03099999949336052,0,0.12199999852133472,-0.12199999852133472
0.6120824813842773,-0.015169661492109299,9.796910285949707,0.002899999963119626,0.011699999682605267,-0.001500000013038516,-0.06099999926066736,0.12199999852133472,0
0.6055989265441895,-0.01912488415837288,9.766035079956055,0.001999999862164259,0.009099999442696571,-0.030799999833106995,0,-0.12199999852133472,-0.06099999926066736
0.5964435338973999,-0.0498855859041214,9.76908016204834,0.0016999999061226845,-0.010499999858438969,-0.0405999980866909,0.06099999926066736,0.12199999852133472,-0.06099999926066736
0.5927852392196655,-0.03624821454286575,9.78490161895752,-0.007799999788403511,-0.03009999915957451,-0.020999999716877937,0,0.06099999926066736,0
0.6187766194343567,-0.038920141756534576,9.777460098266602,-0.01730000041425228,-0.010599999688565731,-0.01119999960064888,0,0.06099999926066736,0
0.5934555530548096,-0.00838928297162056,9.786423683166504,-0.01679999940097332,0.00839999970048666,-0.011299999430775642,0.06099999926066736,0.06099999926066736,0
0.5907357931137085,-0.04281790181994438,9.768850326538086,-0.016599999740719795,-0.020999999716877937,-0.0210999995470047,0,0.06099999926066736,-0.06099999926066736
0.5984450578689575,-0.051360417157411575,9.765594482421875,-0.006599999964237213,-0.030799999833106995,-0.030899999663233757,0.06099999926066736,0.1830000044521087,-0.06099999926066736
0.6081846952438354,-0.03734954819083214,9.784250259399414,0.003599999938160181,-0.011299999430775642,-0.011299999430775642,-0.06099999926066736,0.12199999852133472,-0.1830000044521087
0.5905729532241821,-0.03988740220665932,9.778982162475586,-0.01549999974668026,-0.020899999886751175,-0.011299999430775642,-0.06099999926066736,0.12199999852133472,-0.12199999852133472
0.6068726778030396,0.0010438719764351845,9.773859024047852,0.004299999680370092,0.008599999360740185,-0.021199999377131462,-0.06099999926066736,0.06099999926066736,-0.12199999852133472
0.5759013295173645,-0.028615498915314674,9.767087936401367,-0.024799998849630356,-0.0009999999310821295,-0.03099999949336052,-0.06099999926066736,0.06099999926066736,-0.06099999926066736
0.6009255051612854,-0.04431188479065895,9.780831336975098,-0.004999999888241291,-0.02029999904334545,-0.011399999260902405,0,0,-0.06099999926066736
0.6052542328834534,-0.017266983166337013,9.788741111755371,0.004699999932199717,0.008899999782443047,-0.0015999999595806003,0.06099999926066736,0.06099999926066736,-0.06099999926066736
0.5784391760826111,-0.014298172667622566,9.753326416015625,-0.024399999529123306,0.008700000122189522,-0.04079999774694443,0.06099999926066736,0.06099999926066736,0
0.5744838714599609,-0.06626192480325699,9.798979759216309,-0.033799998462200165,-0.04010000079870224,0.008100000210106373,-0.06099999926066736,0.1830000044521087,0
0.6008584499359131,-0.02580949477851391,9.776578903198242,-0.0038999998942017555,-0.000699999975040555,-0.021299999207258224,0,0,0
0.6191213726997375,-0.034371159970760345,9.751267433166504,0.015599999576807022,-0.010499999858438969,-0.04089999943971634,0.06099999926066736,0.06099999926066736,-0.06099999926066736
0.5981481671333313,-0.03553953021764755,9.789948463439941,-0.003700000001117587,-0.010499999858438969,-0.0016999999061226845,0.06099999926066736,0.06099999926066736,-0.06099999926066736
0.6101192235946655,-0.044656649231910706,9.786375999450684,0.006099999882280827,-0.020399998873472214,-0.011500000022351742,0,0.06099999926066736,0.06099999926066736
0.5775197744369507,-0.013704410754144192,9.79660415649414,-0.02279999852180481,0.008799999952316284,-0.0016999999061226845,0,0.06099999926066736,-0.06099999926066736
0.6060777902603149,-0.04901409521698952,9.766983032226562,0.006599999964237213,-0.03019999898970127,-0.031099999323487282,0,0.12199999852133472,0.06099999926066736
0.5954474806785583,-0.02042732760310173,9.759723663330078,-0.002699999837204814,-0.000699999975040555,-0.031099999323487282,0,0,-0.12199999852133472
0.5998624563217163,-0.01317768543958664,9.7608060836792,-0.002699999837204814,0.008899999782443047,-0.031099999323487282,0,0.1830000044521087,-0.12199999852133472
0.5807663202285767,-0.0392170213162899,9.783714294433594,-0.011899999342858791,-0.029999999329447746,-0.021399999037384987,0.06099999926066736,0.12199999852133472,-0.12199999852133472
0.6123409867286682,-0.05085284262895584,9.768409729003906,-0.021299999207258224,-0.02019999921321869,-0.011599999852478504,0.06099999926066736,0.06099999926066736,-0.06099999926066736
0.5965584516525269,-0.05327577516436577,9.778523445129395,-0.0011999999405816197,-0.029899999499320984,-0.011599999852478504,0,0.1830000044521087,-0.12199999852133472
0.6323661208152771,-0.026546908542513847,9.80624771118164,0.03799999877810478,-0.0004999999655410647,0.007899999618530273,-0.06099999926066736,0.12199999852133472,-0.12199999852133472
0.6074280738830566,-0.030080748721957207,9.7836275100708,0.008799999952316284,-0.009999999776482582,-0.011599999852478504,0.06099999926066736,0,0
0.6161525845527649,-0.036363136023283005,9.750548362731934,0.01850000023841858,-0.010099999606609344,-0.041099999099969864,0.06099999926066736,0.24399999704266945,-0.1830000044521087
0.6046603918075562,-0.028328193351626396,9.780121803283691,0.04259999841451645,0.0009999999310821295,-0.013599999248981476,0,0.1830000044521087,0
0.59697026014328,-0.046504974365234375,9.769166946411133,0.016099998727440834,-0.00930000003427267,-0.02239999920129776,-0.06099999926066736,0.06099999926066736,-0.06099999926066736
0.6234596967697144,-0.05666596442461014,9.793817520141602,0.017899999395012856,-0.007400000002235174,-0.0010999999940395355,-0.06099999926066736,0.12199999852133472,0.06099999926066736
0.5908697843551636,-0.02900814823806286,9.789718627929688,-0.011299999430775642,0.006599999964237213,-0.0017999999690800905,0.06099999926066736,0.12199999852133472,0.06099999926066736
0.6292153596878052,-0.04151545837521553,9.795762062072754,0.014599999412894249,-0.0016999999061226845,-0.0009999999310821295,0.06099999926066736,0.1830000044521087,0
0.6093913316726685,-0.0482192225754261,9.760346412658691,-0.0037999998312443495,-0.009099999442696571,-0.030399998649954796,0,-0.06099999926066736,0
0.5892417430877686,-0.030799010768532753,9.764463424682617,-0.018199998885393143,0.007799999788403511,-0.030799999833106995,-0.06099999926066736,0.1830000044521087,0.06099999926066736
0.5953804850578308,-0.01782243698835373,9.773331642150879,-0.005699999630451202,0.01860000006854534,-0.0210999995470047,-0.06099999926066736,0.12199999852133472,0
0.5991250872612,-0.05338112264871597,9.786826133728027,-0.003499999875202775,-0.01209999993443489,-0.011500000022351742,0,0.12199999852133472,0
0.6065853834152222,-0.02021663822233677,9.786337852478027,0.003700000001117587,0.010499999858438969,-0.011299999430775642,0.12199999852133472,0,0.12199999852133472
0.6243982315063477,-0.015581464394927025,9.772805213928223,0.015699999406933784,0.013799999840557575,-0.02070000022649765,0.06099999926066736,0.1830000044521087,0.06099999926066736
0.591224193572998,-0.027906814590096474,9.763439178466797,-0.02290000021457672,0.0037999998312443495,-0.030499998480081558,0.06099999926066736,0.06099999926066736,-0.06099999926066736
0.5967308282852173,-0.04410119727253914,9.795369148254395,-0.012899999506771564,-0.015799999237060547,-0.0010999999940395355,0,0.1830000044521087,-0.12199999852133472
0.6156258583068848,-0.03190034255385399,9.790742874145508,0.0071000000461936,-0.006000000052154064,-0.0010999999940395355,0.06099999926066736,0.06099999926066736,0
0.6040953993797302,-0.016510413959622383,9.785944938659668,-0.02199999988079071,-0.01589999906718731,-0.010999999940395355,0,-0.06099999926066736,0.06099999926066736
0.6144479513168335,-0.02580949477851391,9.7925443649292,-0.0024999999441206455,0.013299999758601189,-0.010900000110268593,0.12199999852133472,0.1830000044521087,-0.06099999926066736
0.6178668141365051,-0.028136657550930977,9.772815704345703,0.007999999448657036,0.003499999875202775,-0.020800000056624413,-0.06099999926066736,0.12199999852133472,0
0.6080601811408997,-0.034399889409542084,9.760499954223633,0.007999999448657036,0.003499999875202775,-0.020800000056624413,-0.06099999926066736,0.12199999852133472,0
0.6228659749031067,-0.023022644221782684,9.802695274353027,0.018400000408291817,0.0038999998942017555,0.008499999530613422,-0.06099999926066736,0.12199999852133472,0
0.5940014719963074,-0.037828389555215836,9.760442733764648,-0.010599999688565731,-0.005699999630451202,-0.030700000002980232,0,0,-0.06099999926066736
0.6188628673553467,-0.04429273307323456,9.793510437011719,0.008799999952316284,-0.01529999915510416,-0.0011999999405816197,0,0.1830000044521087,0
0.6002072095870972,-0.012325351126492023,9.775420188903809,-0.010199999436736107,0.013899999670684338,-0.020899999886751175,0,0.06099999926066736,0
0.5901228785514832,-0.022045807912945747,9.77299690246582,-0.01979999989271164,0.004100000020116568,-0.020899999886751175,-0.06099999926066736,0.24399999704266945,0.06099999926066736
0.5858132839202881,0.002250549616292119,9.750741004943848,0.01860000006854534,0.01249999925494194,-0.042799998074769974,-0.06099999926066736,0,0
0.6033101081848145,-0.03954263776540756,9.802215576171875,0.01209999993443489,-0.006899999920278788,0.0071000000461936,-0.06099999926066736,0.1830000044521087,0
0.5862346887588501,-0.030291439965367317,9.777469635009766,0.00139999995008111,0.001999999862164259,-0.022199999541044235,0.06099999926066736,0,-0.06099999926066736
0.615922749042511,-0.02803131379187107,9.766800880432129,0.02149999886751175,0.008299999870359898,-0.03139999881386757,0.06099999926066736,0.24399999704266945,0
0.5816090703010559,-0.007153874728828669,9.75605583190918,-0.002899999963119626,0.01589999906718731,-0.04209999740123749,-0.06099999926066736,0.06099999926066736,0.06099999926066736
0.6184223294258118,-0.020705057308077812,9.726263046264648,0.029500000178813934,0.005200000014156103,-0.07109999656677246,0,0.06099999926066736,0
0.6269265413284302,-0.024047361686825752,9.76645565032959,0.026899999007582664,0.003599999938160181,-0.031199999153614044,-0.1830000044521087,0,-0.06099999926066736
0.6010786890983582,-0.02841438539326191,9.7689847946167,-0.001999999862164259,0.002699999837204814,-0.021399999037384987,-0.06099999926066736,0.06099999926066736,0.06099999926066736
0.6115078926086426,-0.03132573515176773,9.774759292602539,0.004799999762326479,-0.0044999998062849045,-0.021199999377131462,0.06099999926066736,0.06099999926066736,-0.12199999852133472
0.617665708065033,-0.05386953800916672,9.77104377746582,0.009499999694526196,-0.016300000250339508,-0.020899999886751175,0,0,0
0.5886288285255432,-0.017573440447449684,9.797331809997559,-0.011099999770522118,0.012999999336898327,0.007899999618530273,0.06099999926066736,0.06099999926066736,0
0.6014904975891113,-0.026144681498408318,9.752598762512207,-0.00139999995008111,0.0023999998811632395,-0.04099999740719795,0,0.12199999852133472,0
0.6125612854957581,-0.02087743952870369,9.791308403015137,0.01850000023841858,0.0023999998811632395,-0.06069999933242798,0.06099999926066736,0.06099999926066736,0
0.5795978903770447,-0.01907699927687645,9.793213844299316,0.008999999612569809,0.0024999999441206455,-0.0017999999690800905,0.06099999926066736,0.24399999704266945,0
0.5986749529838562,-0.0601998046040535,9.758976936340332,0,-0.03689999878406525,-0.031300000846385956,-0.06099999926066736,0.06099999926066736,0
0.5768781304359436,-0.029467834159731865,9.761343002319336,-0.01939999870955944,-0.0072999997064471245,-0.031300000846385956,-0.06099999926066736,0.12199999852133472,0
0.5943270325660706,-0.029850905761122704,9.763985633850098,0.0004999999655410647,-0.007199999876320362,-0.031300000846385956,0.12199999852133472,0.24399999704266945,0
0.6127049326896667,-0.050891149789094925,9.749649047851562,0.010999999940395355,-0.02709999866783619,-0.041200000792741776,0.06099999926066736,0.06099999926066736,0.06099999926066736
0.5820591449737549,-0.02815581113100052,9.769549369812012,-0.018199998885393143,0.002099999925121665,-0.02159999869763851,0.06099999926066736,0.12199999852133472,-0.06099999926066736
0.6056085228919983,-0.003390189725905657,9.782296180725098,0.011500000022351742,0.011699999682605267,-0.011799999512732029,-0.12199999852133472,0.06099999926066736,-0.06099999926066736
0.5952273011207581,-0.042339060455560684,9.786826133728027,0.0017999999690800905,-0.01730000041425228,-0.011799999512732029,0.06099999926066736,0.06099999926066736,-0.06099999926066736
0.6174167394638062,-0.03643017262220383,9.766695022583008,0.02159999869763851,-0.007699999958276749,-0.03139999881386757,0.06099999926066736,0.06099999926066736,0
0.6004657745361328,-0.030550014227628708,9.767165184020996,0.002099999925121665,-0.007799999788403511,-0.03139999881386757,0,0.12199999852133472,-0.06099999926066736
0.6165452003479004,-0.028452694416046143,9.77791976928711,0.022099999710917473,0.0018999999156221747,-0.011799999512732029,0,0.06099999926066736,0.06099999926066736
0.5867422223091125,-0.021672314032912254,9.774079322814941,-0.0071000000461936,0.0018999999156221747,-0.021699998527765274,-0.06099999926066736,0.06099999926066736,-0.06099999926066736
0.6295313835144043,-0.0330495610833168,9.751382827758789,0.03219999745488167,-0.007699999958276749,-0.04129999876022339,-0.06099999926066736,0.1830000044521087,0
0.6210367679595947,-0.03715800866484642,9.769769668579102,0.02290000021457672,-0.007499999832361937,-0.021699998527765274,-0.06099999926066736,0.1830000044521087,-0.06099999926066736
0.5908411145210266,-0.0490524061024189,9.770478248596191,-0.0058999997563660145,-0.026999998837709427,-0.021699998527765274,0.06099999926066736,0.06099999926066736,0
0.621458113193512,-0.0434882827103138,9.785571098327637,0.023399999365210533,-0.01719999872148037,-0.011899999342858791,0.06099999926066736,-0.06099999926066736,0
0.5795212984085083,-0.04215710610151291,9.788932800292969,-0.015699999406933784,-0.01719999872148037,-0.002099999925121665,-0.06099999926066736,0.06099999926066736,0
0.628889799118042,-0.011769895441830158,9.793510437011719,0.032899998128414154,0.012199999764561653,-0.002099999925121665,0.06099999926066736,0.12199999852133472,0.06099999926066736
0.6107129454612732,-0.02068590372800827,9.762136459350586,0.0037999998312443495,-0.01719999872148037,-0.04129999876022339,0,0.06099999926066736,0
0.6209889054298401,-0.04077804088592529,9.770210266113281,0.013700000010430813,0.002300000051036477,-0.03150000050663948,0,0.12199999852133472,0
0.616008996963501,-0.03307829052209854,9.779787063598633,0.023899998515844345,-0.016999999061226845,-0.021800000220537186,0,0.1830000044521087,0.12199999852133472
0.6094009280204773,-0.032618604600429535,9.775467872619629,0.014599999412894249,-0.0071000000461936,-0.021800000220537186,0,0.06099999926066736,-0.1830000044521087
0.5932257175445557,-0.03274310380220413,9.758075714111328,-0.004799999762326479,-0.0071000000461936,-0.0414000004529953,0.1830000044521087,0.1830000044521087,-0.06099999926066736
0.6241204738616943,-0.05573701485991478,9.752857208251953,0.0348999984562397,-0.02719999849796295,-0.0414000004529953,0,0,-0.06099999926066736
0.6057808995246887,-0.0607839934527874,9.781367301940918,0.015199999324977398,-0.03700000047683716,-0.012000000104308128,0,0.1830000044521087,0
0.6038177013397217,-0.04964616894721985,9.773313522338867,0.015699999406933784,-0.02709999866783619,-0.021900000050663948,0,0.12199999852133472,-0.06099999926066736
0.6047753095626831,-0.026508601382374763,9.75784683227539,0.01599999889731407,0.002199999988079071,-0.04149999842047691,0,0.24399999704266945,0.06099999926066736
0.6024290323257446,-0.03305913507938385,9.766197204589844,0.006899999920278788,-0.007499999832361937,-0.031700000166893005,0.06099999926066736,0.12199999852133472,-0.06099999926066736
0.6137584447860718,-0.0338827446103096,9.781950950622559,0.026799999177455902,-0.007699999958276749,-0.01209999993443489,-0.06099999926066736,0.12199999852133472,0
0.6101958155632019,-0.055986013263463974,9.767691612243652,0.01730000041425228,-0.02709999866783619,-0.03179999813437462,0,0.12199999852133472,0
0.606834352016449,-0.05560293793678284,9.775659561157227,0.01759999990463257,-0.02709999866783619,-0.02199999988079071,0,0.1830000044521087,-0.06099999926066736
0.6030802726745605,-0.02905603125691414,9.747005462646484,0.008299999870359898,-0.007499999832361937,-0.05139999836683273,-0.06099999926066736,0.12199999852133472,0
0.6162866950035095,-0.016338031738996506,9.761821746826172,0.028299998492002487,0.012199999764561653,-0.03179999813437462,-0.06099999926066736,0.06099999926066736,-0.06099999926066736
0.5909751653671265,-0.03841257095336914,9.775602340698242,-0.0008999999845400453,-0.016899999231100082,-0.02199999988079071,-0.06099999926066736,-0.06099999926066736,0
0.6099085211753845,-0.036554671823978424,9.799965858459473,0.018400000408291817,-0.006899999920278788,0.0072999997064471245,0,0,-0.1830000044521087
0.5973341464996338,-0.01853111945092678,9.774462699890137,0.008899999782443047,0.012199999764561653,-0.02199999988079071,0,0.12199999852133472,0.06099999926066736
0.5973341464996338,-0.01853111945092678,9.774462699890137,0.008899999782443047,0.012199999764561653,-0.02199999988079071,0,0.12199999852133472,0.06099999926066736
0.6205005049705505,-0.038048651069402695,9.787439346313477,0.02879999950528145,-0.0072999997064471245,-0.012199999764561653,0,0.24399999704266945,0.12199999852133472
0.5884565114974976,-0.0387381836771965,9.76876449584961,0.00009999999747378752,-0.017099998891353607,-0.022099999710917473,0.06099999926066736,0.1830000044521087,0
0.5988855957984924,-0.010544064454734325,9.774606704711914,0.039799999445676804,-0.01730000041425228,-0.03189999982714653,0,0,0
0.5903430581092834,-0.012564770877361298,9.775420188903809,0.010499999858438969,0.012000000104308128,-0.022099999710917473,0,0.1830000044521087,0
0.591674268245697,-0.03346136584877968,9.757492065429688,0.0011999999405816197,-0.007499999832361937,-0.04179999977350235,0.12199999852133472,0.12199999852133472,0.06099999926066736
0.6114982962608337,-0.020015526562929153,9.757089614868164,0.0210999995470047,0.0018999999156221747,-0.04179999977350235,0.06099999926066736,0.06099999926066736,0.06099999926066736
0.5776346921920776,-0.025100810453295708,9.78695011138916,-0.007999999448657036,0.0016999999061226845,-0.012399999424815178,0.12199999852133472,0.3049999896332302,0.12199999852133472
0.6023045182228088,-0.060467954725027084,9.762271881103516,0.012299999594688416,-0.037699997425079346,-0.03199999779462814,0.06099999926066736,0.06099999926066736,0
0.6024960875511169,-0.03213018923997879,9.772642135620117,0.01249999925494194,-0.00839999970048666,-0.022199999541044235,-0.06099999926066736,0.1830000044521087,-0.12199999852133472
0.6146203279495239,-0.049042828381061554,9.785762786865234,0.032499998807907104,-0.027799999341368675,-0.01249999925494194,0,0.12199999852133472,0.06099999926066736
0.6101670861244202,-0.027542896568775177,9.749753952026367,0.023000000044703484,0.001500000013038516,-0.04189999774098396,-0.06099999926066736,0.12199999852133472,-0.06099999926066736
0.5718119740486145,-0.03908294811844826,9.774347305297852,-0.015699999406933784,-0.017799999564886093,-0.022299999371170998,-0.06099999926066736,0.1830000044521087,0
0.5991728901863098,-0.048688482493162155,9.75468635559082,0.0139999995008111,-0.027400000020861626,-0.041999999433755875,0.06099999926066736,0.06099999926066736,-0.06099999926066736
0.5830264091491699,-0.04083550348877907,9.767911911010742,-0.0052999998442828655,-0.017799999564886093,-0.03219999745488167,0,0.1830000044521087,0
0.5978321433067322,-0.019373880699276924,9.777872085571289,0.014699999243021011,0.0016999999061226845,-0.02239999920129776,0.12199999852133472,-0.12199999852133472,-0.12199999852133472
0.6170815229415894,-0.022658726200461388,9.760719299316406,0.03399999812245369,0.00139999995008111,-0.03219999745488167,0.06099999926066736,0.12199999852133472,-0.06099999926066736
0.5757672190666199,-0.051695603877305984,9.755644798278809,-0.004799999762326479,-0.028099998831748962,-0.041999999433755875,0,0.12199999852133472,-0.06099999926066736
0.6159898042678833,-0.0492822490632534,9.774118423461914,0.03460000082850456,-0.0279999990016222,-0.02239999920129776,-0.06099999926066736,0.06099999926066736,0.06099999926066736
0.5961849093437195,-0.04004063084721565,9.766667366027832,0.01489999983459711,-0.017799999564886093,-0.03219999745488167,0.06099999926066736,0,0
0.6113258600234985,-0.037617698311805725,9.778800964355469,0.02419999986886978,-0.007999999448657036,-0.012600000016391277,0,0.06099999926066736,-0.06099999926066736
0.6113258600234985,-0.037617698311805725,9.778800964355469,0.02419999986886978,-0.007999999448657036,-0.012600000016391277,0,0.06099999926066736,-0.06099999926066736
0.5915880799293518,-0.04198472201824188,9.804429054260254,0.004699999932199717,-0.01730000041425228,0.00699999975040555,0.12199999852133472,0.1830000044521087,-0.06099999926066736
0.6026109457015991,-0.04527914524078369,9.755098342895508,0.02459999918937683,0.0018999999156221747,-0.06159999966621399,-0.06099999926066736,0.12199999852133472,-0.06099999926066736
0.5890406370162964,-0.020446481183171272,9.789536476135254,0.01489999983459711,-0.01730000041425228,-0.041999999433755875,0.06099999926066736,0.06099999926066736,0
0.5953326225280762,-0.023051373660564423,9.781156539916992,0.01489999983459711,0.0018999999156221747,-0.012600000016391277,0.06099999926066736,0.1830000044521087,0
0.5863399505615234,-0.023060951381921768,9.747474670410156,0.01489999983459711,0.0018999999156221747,-0.012600000016391277,0.06099999926066736,0.1830000044521087,0
0.6051584482192993,-0.028443116694688797,9.757415771484375,0.025299999862909317,0.001500000013038516,-0.041999999433755875,-0.06099999926066736,0.06099999926066736,0
0.5882936120033264,-0.025100810453295708,9.760787010192871,0.005799999926239252,0.0016999999061226845,-0.03219999745488167,0.12199999852133472,0.1830000044521087,-0.06099999926066736
0.6075717806816101,-0.02201707847416401,9.77628231048584,0.025499999523162842,0.0013000000035390258,-0.02239999920129776,0,0.1830000044521087,0
0.5986749529838562,-0.038824375718832016,9.776205062866211,0.01589999906718731,-0.017899999395012856,-0.02239999920129776,0,0.1830000044521087,-0.06099999926066736
0.60304194688797,-0.013512874953448772,9.771703720092773,0.016099998727440834,0.01119999960064888,-0.022499999031424522,0.12199999852133472,0.12199999852133472,0.1830000044521087
0.5845587253570557,-0.030751127749681473,9.788924217224121,0.016099998727440834,0.01119999960064888,-0.022499999031424522,0.06099999926066736,0.1830000044521087,-0.06099999926066736
0.6231436729431152,-0.02708321064710617,9.75735855102539,0.04639999940991402,0.0008999999845400453,-0.04209999740123749,0.06099999926066736,0.1830000044521087,0.12199999852133472
0.6020172238349915,-0.04441722854971886,9.7612943649292,0.017400000244379044,-0.018699999898672104,-0.03229999914765358,0.06099999926066736,0.1830000044521087,0
0.5928905010223389,-0.05978800728917122,9.796489715576172,0.007999999448657036,-0.03830000013113022,-0.002899999963119626,0.06099999926066736,0.1830000044521087,0
0.5917125940322876,-0.000641646038275212,9.792121887207031,0.008499999530613422,0.010400000028312206,-0.003000000026077032,0.12199999852133472,0.1830000044521087,-0.06099999926066736
0.6303837299346924,-0.020791247487068176,9.780390739440918,0.04809999838471413,0.00019999999494757503,-0.022599998861551285,0,0.1830000044521087,0.06099999926066736
0.6303837299346924,-0.020791247487068176,9.780390739440918,0.04809999838471413,0.000699999975040555,-0.012799999676644802,0,0.1830000044521087,0.06099999926066736
0.5893950462341309,-0.0438426211476326,9.787362098693848,0.009399999864399433,-0.018799999728798866,-0.012799999676644802,0,0,0
0.6146777868270874,-0.03627694398164749,9.744707107543945,0.03909999877214432,-0.009399999864399433,-0.05209999904036522,-0.06099999926066736,0.12199999852133472,0
0.6146777868270874,-0.03627694398164749,9.744707107543945,0.03909999877214432,-0.009399999864399433,-0.05209999904036522,-0.06099999926066736,0.12199999852133472,0
0.5936949849128723,-0.01058237161487341,9.756956100463867,0.009999999776482582,0.010199999436736107,-0.04230000078678131,0,0.06099999926066736,0
0.6010404229164124,-0.02211284637451172,9.752052307128906,0.019500000402331352,0.00039999998989515007,-0.012899999506771564,-0.06099999926066736,0.12199999852133472,-0.06099999926066736
0.6029653549194336,-0.03688985854387283,9.770200729370117,0.019600000232458115,0.0005999999702908099,-0.04230000078678131,0,0,0
0.6191884279251099,-0.038948871195316315,9.780438423156738,0.019199999049305916,-0.008999999612569809,-0.022599998861551285,0,0.12199999852133472,-0.06099999926066736
0.6031568646430969,-0.017056293785572052,9.777938842773438,0.03830000013113022,-0.018299998715519905,-0.012799999676644802,0.06099999926066736,0,-0.12199999852133472
0.6254900097846985,-0.01324472390115261,9.769885063171387,0.0471000000834465,0.010400000028312206,-0.022599998861551285,0,0.1830000044521087,-0.06099999926066736
0.6021896600723267,-0.03793372958898544,9.772316932678223,0.017799999564886093,-0.008999999612569809,-0.022599998861551285,0.06099999926066736,0,-0.06099999926066736
0.6075430512428284,-0.007584830746054649,9.767721176147461,0.02719999849796295,0.010199999436736107,-0.03229999914765358,0.06099999926066736,0,-0.06099999926066736
0.6048519611358643,-0.04267425090074539,9.759005546569824,0.026799999177455902,-0.01899999938905239,-0.03229999914765358,-0.06099999926066736,0.12199999852133472,-0.06099999926066736
0.5751734375953674,-0.027523742988705635,9.779882431030273,-0.002099999925121665,0.0005999999702908099,-0.01269999984651804,0,0.12199999852133472,-0.06099999926066736
0.6069971919059753,-0.019756952300667763,9.7922945022583,0.026499999687075615,0.0005999999702908099,-0.002899999963119626,-0.06099999926066736,0.06099999926066736,0.06099999926066736
0.6006477475166321,-0.034725502133369446,9.792428970336914,0.016200000420212746,-0.008599999360740185,-0.002899999963119626,0,0.12199999852133472,0
0.5952751636505127,-0.02557007409632206,9.75267505645752,0.016300000250339508,0.0010999999940395355,-0.04209999740123749,-0.06099999926066736,0.06099999926066736,-0.12199999852133472
0.6136434674263,-0.0405290462076664,9.743318557739258,0.0357000008225441,-0.01809999905526638,-0.051899999380111694,0.06099999926066736,0.06099999926066736,-0.12199999852133472
0.5985312461853027,-0.03161304071545601,9.770977020263672,0.01599999889731407,-0.008299999870359898,-0.022499999031424522,0.06099999926066736,0.06099999926066736,-0.12199999852133472
0.6020459532737732,-0.02817496471107006,9.751574516296387,0.01599999889731407,0.0011999999405816197,-0.04209999740123749,-0.06099999926066736,0,0
0.6050052046775818,-0.057144805788993835,9.762548446655273,0.02539999969303608,-0.02759999968111515,-0.03219999745488167,0,0,-0.12199999852133472
0.5862442255020142,-0.02907518669962883,9.795186996459961,0.00559999980032444,-0.007699999958276749,-0.00279999990016222,-0.06099999926066736,0.12199999852133472,0.06099999926066736
0.584750235080719,-0.010122684761881828,9.775918006896973,0.005799999926239252,0.011799999512732029,-0.02239999920129776,0.06099999926066736,0.06099999926066736,0.06099999926066736
0.6004849076271057,-0.039724595844745636,9.763018608093262,0.01549999974668026,-0.017500000074505806,-0.03219999745488167,0,0.1830000044521087,-0.12199999852133472
0.6004849076271057,-0.039724595844745636,9.763018608093262,0.01549999974668026,-0.017500000074505806,-0.03219999745488167,0,0.1830000044521087,-0.12199999852133472
0.6019980311393738,-0.042214564979076385,9.777087211608887,0.01549999974668026,-0.007499999832361937,-0.00279999990016222,0,0,0.06099999926066736
0.6284492015838623,-0.014355633407831192,9.755165100097656,0.044099997729063034,0.011799999512732029,-0.041999999433755875,0,0,-0.06099999926066736
0.6026014685630798,-0.003217807039618492,9.76587200164795,0.014499999582767487,0.011699999682605267,-0.03219999745488167,-0.06099999926066736,0.1830000044521087,-0.06099999926066736
0.6162770986557007,-0.03640144318342209,9.762223243713379,0.034199997782707214,-0.007599999662488699,-0.03219999745488167,0,0.06099999926066736,-0.06099999926066736
0.582911491394043,-0.026738446205854416,9.762970924377441,-0.004799999762326479,0.002099999925121665,-0.03219999745488167,-0.06099999926066736,-0.06099999926066736,-0.06099999926066736
0.6091519594192505,-0.03973417356610298,9.791154861450195,0.023599999025464058,-0.016699999570846558,-0.002699999837204814,0,0,0.06099999926066736
0.5803640484809875,-0.0414675734937191,9.758238792419434,-0.005699999630451202,-0.016499999910593033,-0.04189999774098396,0,0.06099999926066736,-0.06099999926066736
0.6073036789894104,-0.03243664652109146,9.779260635375977,0.02319999970495701,-0.0064999996684491634,-0.01249999925494194,-0.06099999926066736,0.12199999852133472,-0.12199999852133472
0.6096212267875671,-0.031076738610863686,9.763323783874512,0.02319999970495701,-0.006300000008195639,-0.032099999487400055,0.06099999926066736,0.12199999852133472,-0.12199999852133472
0.6129252314567566,-0.035980064421892166,9.787850379943848,0.032099999487400055,-0.006300000008195639,-0.0026000000070780516,0,0.24399999704266945,0
0.6061352491378784,-0.024401701986789703,9.755538940429688,0.023000000044703484,0.003499999875202775,-0.04189999774098396,0,0.12199999852133472,-0.06099999926066736
0.6023236513137817,-0.021739350631833076,9.774491310119629,0.013499999418854713,0.003399999812245369,-0.022299999371170998,0,0.12199999852133472,0
0.6032143831253052,-0.05902186036109924,9.783838272094727,0.013799999840557575,-0.035599999129772186,-0.01249999925494194,0.06099999926066736,0.1830000044521087,-0.12199999852133472
0.610176682472229,-0.035510800778865814,9.784058570861816,0.024000000208616257,-0.006300000008195639,-0.01249999925494194,-0.06099999926066736,0.12199999852133472,0
0.5950835943222046,-0.021413739770650864,9.770315170288086,0.014499999582767487,0.003499999875202775,-0.02239999920129776,0.12199999852133472,0.24399999704266945,-0.06099999926066736
0.5834286212921143,-0.011549629271030426,9.78103256225586,0.0348999984562397,0.0031999999191612005,-0.03219999745488167,0.06099999926066736,0,0
0.5834286212921143,-0.011549629271030426,9.78103256225586,-0.0037999998312443495,0.01249999925494194,-0.012600000016391277,0.06099999926066736,0,0
0.591549813747406,-0.021710621193051338,9.76712703704834,0.0058999997563660145,0.0024999999441206455,-0.03219999745488167,0,0.24399999704266945,0
0.590707004070282,-0.014269442297518253,9.802560806274414,0.006599999964237213,0.012299999594688416,0.006799999624490738,0.12199999852133472,0.06099999926066736,-0.06099999926066736
0.6155971884727478,-0.038709454238414764,9.754695892333984,0.03619999811053276,-0.01730000041425228,-0.04209999740123749,-0.06099999926066736,0.1830000044521087,0.06099999926066736
0.6155971884727478,-0.038709454238414764,9.754695892333984,0.03619999811053276,-0.01730000041425228,-0.04209999740123749,-0.06099999926066736,0.1830000044521087,0.06099999926066736
0.6040188074111938,-0.019948488101363182,9.799094200134277,0.026799999177455902,0.0023999998811632395,-0.01269999984651804,0,0.12199999852133472,0.06099999926066736
0.5979375243186951,-0.01751597970724106,9.767375946044922,0.026999998837709427,0.0023999998811632395,0.006799999624490738,-0.1830000044521087,0.06099999926066736,-0.06099999926066736
0.6107704639434814,-0.0481138750910759,9.7937593460083,0.027499999850988388,-0.026200000196695328,-0.002899999963119626,-0.06099999926066736,-0.06099999926066736,-0.12199999852133472
0.5984354615211487,-0.031335312873125076,9.768802642822266,0.017500000074505806,-0.006399999838322401,-0.022499999031424522,0,0,0
0.6077824831008911,-0.03937982767820358,9.774740219116211,0.02719999849796295,-0.016200000420212746,-0.022499999031424522,0,0.12199999852133472,0.06099999926066736
0.6054936051368713,-0.018052279949188232,9.77316951751709,0.027499999850988388,0.013100000098347664,-0.022499999031424522,-0.06099999926066736,0.06099999926066736,0.06099999926066736
0.6047466397285461,-0.030080748721957207,9.726837158203125,0.02759999968111515,-0.006199999712407589,-0.07159999758005142,0,0.1830000044521087,0.06099999926066736
0.5975640416145325,-0.030205247923731804,9.77628231048584,0.017799999564886093,0.003399999812245369,-0.012799999676644802,0.06099999926066736,0.06099999926066736,0
0.5975640416145325,-0.030205247923731804,9.77628231048584,0.017500000074505806,-0.006399999838322401,-0.022499999031424522,0.06099999926066736,0.06099999926066736,0
0.5926989912986755,-0.0380294993519783,9.741901397705078,0.007699999958276749,-0.0064999996684491634,-0.05199999734759331,0.06099999926066736,0.1830000044521087,-0.06099999926066736
0.5962424278259277,-0.04362235590815544,9.809292793273926,0.01759999990463257,-0.016099998727440834,0.016599999740719795,-0.06099999926066736,0,0
0.5997858047485352,-0.025254039093852043,9.779969215393066,0.01719999872148037,0.003499999875202775,-0.01269999984651804,0,0.06099999926066736,0
0.5970564484596252,-0.03703351318836212,9.756160736083984,0.017099998891353607,-0.006199999712407589,-0.04209999740123749,0,0.12199999852133472,0
0.6128007173538208,-0.03042551688849926,9.775420188903809,0.026799999177455902,-0.006000000052154064,-0.022499999031424522,0.06099999926066736,-0.06099999926066736,-0.06099999926066736
0.6028599739074707,-0.034399889409542084,9.749159812927246,0.026200000196695328,0.003399999812245369,-0.04209999740123749,-0.06099999926066736,0.12199999852133472,0.06099999926066736
0.5735645294189453,-0.019258959218859673,9.793971061706543,-0.012199999764561653,0.0032999999821186066,-0.002899999963119626,-0.12199999852133472,0.12199999852133472,0
0.5735645294189453,-0.019258959218859673,9.793971061706543,-0.012199999764561653,0.0032999999821186066,-0.002899999963119626,-0.12199999852133472,0.12199999852133472,0
0.6009159088134766,-0.009442731738090515,9.789986610412598,0.016899999231100082,0.012999999336898327,-0.002899999963119626,0.06099999926066736,0.12199999852133472,0
0.577385663986206,-0.038900990039110184,9.77677059173584,-0.002300000051036477,-0.016200000420212746,-0.022499999031424522,0,0,0
0.5825954675674438,-0.03485957533121109,9.784297943115234,-0.0023999998811632395,-0.0064999996684491634,-0.01269999984651804,0,0.06099999926066736,0
0.576179027557373,-0.023807941004633904,9.761993408203125,-0.002300000051036477,0.0031999999191612005,-0.03229999914765358,0,0.06099999926066736,0
0.5822123885154724,-0.018023550510406494,9.776684761047363,-0.002300000051036477,0.0031999999191612005,-0.03229999914765358,0,0.1830000044521087,0
0.604219913482666,-0.036880284547805786,9.767107009887695,0.027300000190734863,-0.0066999997943639755,-0.03229999914765358,0,0.06099999926066736,-0.06099999926066736
0.5882745385169983,-0.02919010818004608,9.799860000610352,0.007699999958276749,-0.0064999996684491634,0.006799999624490738,-0.06099999926066736,0.1830000044521087,-0.06099999926066736
0.5794925689697266,-0.05194459855556488,9.767068862915039,-0.001500000013038516,-0.025599999353289604,-0.03240000084042549,0,0,-0.06099999926066736
0.6373172998428345,-0.024516625329852104,9.78991985321045,0.0551999993622303,0.003599999938160181,-0.00279999990016222,0,-0.12199999852133472,0
0.5864166021347046,-0.021720197051763535,9.786941528320312,0.004900000058114529,0.003599999938160181,-0.012600000016391277,0.12199999852133472,0,0
0.5864166021347046,-0.021720197051763535,9.786941528320312,0.004900000058114529,0.003599999938160181,-0.012600000016391277,0.12199999852133472,0,0
0.5746083855628967,-0.012440272606909275,9.771512985229492,-0.004699999932199717,0.012799999676644802,-0.02239999920129776,-0.06099999926066736,0.06099999926066736,-0.06099999926066736
0.5798085927963257,-0.045087605714797974,9.7771635055542,-0.0044999998062849045,-0.016099998727440834,-0.02239999920129776,-0.06099999926066736,0.12199999852133472,-0.06099999926066736
0.5906686782836914,-0.010898405686020851,9.772843360900879,0.005399999674409628,0.013199999928474426,-0.02239999920129776,0,0.06099999926066736,-0.06099999926066736
0.6006860136985779,-0.01819593273103237,9.786864280700684,0.014999999664723873,0.012899999506771564,-0.012600000016391277,0.06099999926066736,0.1830000044521087,-0.06099999926066736
0.5868571400642395,-0.04002147540450096,9.783369064331055,0.00559999980032444,-0.016300000250339508,-0.012600000016391277,-0.06099999926066736,0.06099999926066736,0
0.5901036858558655,-0.029161376878619194,9.747255325317383,0.005699999630451202,-0.006199999712407589,-0.05179999768733978,0.06099999926066736,0.12199999852133472,-0.12199999852133472
0.6056564450263977,-0.04526956379413605,9.76094913482666,0.0058999997563660145,0.0032999999821186066,-0.03219999745488167,0,0.06099999926066736,-0.12199999852133472
0.5940972566604614,-0.03323151916265488,9.771943092346191,0.015199999324977398,-0.0064999996684491634,-0.02239999920129776,0.06099999926066736,0.12199999852133472,-0.06099999926066736
0.5948729515075684,-0.055583786219358444,9.755318641662598,0.01529999915510416,-0.025999998673796654,-0.041999999433755875,0.12199999852133472,0.06099999926066736,0
0.6012797951698303,-0.036363136023283005,9.760394096374512,0.01529999915510416,-0.006599999964237213,-0.03219999745488167,-0.06099999926066736,0.12199999852133472,-0.12199999852133472
0.5998815894126892,-0.059797581285238266,9.770584106445312,0.01529999915510416,-0.03529999777674675,-0.02239999920129776,0,0.12199999852133472,-0.12199999852133472
0.5979662537574768,-0.03794331103563309,9.790753364562988,0.015099999494850636,-0.005699999630451202,-0.00279999990016222,0,0,-0.06099999926066736
0.5869816541671753,-0.0342370830476284,9.779528617858887,0.005200000014156103,-0.00559999980032444,-0.012600000016391277,-0.06099999926066736,0.06099999926066736,0
0.5735166668891907,-0.029036877676844597,9.767624855041504,-0.0139999995008111,-0.005399999674409628,-0.03219999745488167,-0.06099999926066736,0,-0.06099999926066736
0.5956103801727295,-0.015792153775691986,9.752608299255371,-0.0139999995008111,-0.005399999674409628,-0.03219999745488167,0.06099999926066736,0,0.06099999926066736
0.6241013407707214,-0.019067423418164253,9.765661239624023,0.04389999806880951,0.013799999840557575,-0.03219999745488167,0,0.06099999926066736,-0.12199999852133472
0.6189777851104736,-0.021337125450372696,9.77469253540039,0.03370000049471855,0.0038999998942017555,-0.022299999371170998,-0.12199999852133472,0.12199999852133472,-0.12199999852133472
0.6137488484382629,-0.03160346299409866,9.757826805114746,0.03359999880194664,-0.005399999674409628,-0.04189999774098396,0.06099999926066736,0,0
0.6218699216842651,-0.053208738565444946,9.767423629760742,0.03319999948143959,-0.024799998849630356,-0.032099999487400055,-0.06099999926066736,0.06099999926066736,0
0.6072365641593933,-0.029659369960427284,9.776128768920898,0.0037999998312443495,0.0142000000923872,-0.022299999371170998,0.06099999926066736,0.06099999926066736,0.06099999926066736
0.6182307600975037,-0.02187342569231987,9.744611740112305,0.032999999821186066,0.003999999724328518,-0.05169999971985817,0,0.12199999852133472,0
0.5966159105300903,-0.042147524654865265,9.752158164978027,0.013499999418854713,-0.01529999915510416,-0.04189999774098396,0.06099999926066736,-0.06099999926066736,-0.06099999926066736
0.5966159105300903,-0.042147524654865265,9.752158164978027,0.013499999418854713,-0.01529999915510416,-0.04189999774098396,0.06099999926066736,-0.06099999926066736,-0.06099999926066736
0.6106842756271362,-0.033537980169057846,9.754044532775879,0.02290000021457672,-0.00559999980032444,-0.04189999774098396,0.06099999926066736,0.06099999926066736,0
0.6052254438400269,-0.030435092747211456,9.759705543518066,0.022699998691678047,-0.005699999630451202,-0.032099999487400055,0.06099999926066736,0.12199999852133472,-0.12199999852133472
0.591013491153717,-0.051360417157411575,9.795550346374512,0.0032999999821186066,0.013100000098347664,-0.002699999837204814,-0.06099999926066736,0.12199999852133472,-0.12199999852133472
0.612226128578186,-0.034725502133369446,9.756036758422852,0.023399999365210533,-0.0050999997183680534,-0.04189999774098396,0,0.06099999926066736,-0.12199999852133472
0.6168612837791443,-0.02353021502494812,9.769655227661133,0.03269999846816063,0.0044999998062849045,-0.022299999371170998,-0.06099999926066736,0.1830000044521087,0
0.6168612837791443,-0.02353021502494812,9.769655227661133,0.03269999846816063,0.0044999998062849045,-0.022299999371170998,-0.06099999926066736,0.1830000044521087,0
0.6154534816741943,-0.03857537731528282,9.7494478225708,0.032899998128414154,-0.014699999243021011,-0.04189999774098396,-0.06099999926066736,0.06099999926066736,-0.06099999926066736
0.5930054187774658,-0.017707515507936478,9.776501655578613,0.003499999875202775,0.014499999582767487,-0.022299999371170998,-0.12199999852133472,0.12199999852133472,0
0.5657306909561157,-0.031814150512218475,9.761773109436035,-0.01549999974668026,-0.004600000102072954,-0.032099999487400055,0.06099999926066736,0.06099999926066736,0
0.5883128046989441,-0.031076738610863686,9.770257949829102,0.004600000102072954,-0.004299999680370092,-0.02239999920129776,0.06099999926066736,0.3049999896332302,-0.12199999852133472
0.6030610799789429,-0.024143129587173462,9.759943962097168,0.01529999915510416,0.005200000014156103,-0.03219999745488167,-0.06099999926066736,0,0.06099999926066736
0.615147054195404,-0.029237991198897362,9.780831336975098,0.03480000048875809,-0.004299999680370092,-0.012600000016391277,-0.06099999926066736,0.06099999926066736,0.06099999926066736
0.6138924360275269,-0.03439031168818474,9.78073501586914,0.0348999984562397,-0.004100000020116568,-0.012600000016391277,0.12199999852133472,0,-0.06099999926066736
0.6018544435501099,-0.055009178817272186,9.760834693908691,0.015199999324977398,-0.024000000208616257,-0.03219999745488167,-0.06099999926066736,0.06099999926066736,-0.06099999926066736
0.6057808995246887,-0.023118412122130394,9.740263938903809,0.025200000032782555,0.005499999970197678,-0.05179999768733978,0,0,0
0.604009211063385,-0.026202142238616943,9.74538803100586,0.025100000202655792,0.005399999674409628,-0.05179999768733978,0,0.1830000044521087,-0.06099999926066736
0.6048328280448914,-0.02396116964519024,9.769750595092773,0.015799999237060547,-0.00419999985024333,-0.00279999990016222,0.12199999852133472,0.06099999926066736,0
0.6048328280448914,-0.02396116964519024,9.769750595092773,0.025699999183416367,0.0050999997183680534,-0.02239999920129776,0.06099999926066736,0.06099999926066736,-0.12199999852133472
0.6268594264984131,-0.02478477731347084,9.753806114196777,0.045399997383356094,0.004900000058114529,-0.04209999740123749,0,0.24399999704266945,0.06099999926066736
0.6189202666282654,-0.028203696012496948,9.75698471069336,0.03619999811053276,0.004900000058114529,-0.04209999740123749,0.12199999852133472,0,0
0.5940684676170349,-0.028692113235592842,9.777824401855469,0.016599999740719795,0.004600000102072954,-0.022499999031424522,0.12199999852133472,-0.12199999852133472,-0.12199999852133472
0.6026588678359985,-0.009509769268333912,9.769501686096191,0.016200000420212746,0.0139999995008111,-0.022499999031424522,0.12199999852133472,0,-0.06099999926066736
0.6132795214653015,-0.022505495697259903,9.76041316986084,0.0357000008225441,0.0037999998312443495,-0.03229999914765358,0,0.1830000044521087,0.06099999926066736
0.6247142553329468,-0.027552472427487373,9.779854774475098,0.045899998396635056,0.0037999998312443495,-0.01269999984651804,0.12199999852133472,0,-0.12199999852133472
0.5893183350563049,-0.036075834184885025,9.753546714782715,0.006599999964237213,-0.006300000008195639,-0.04209999740123749,0,0.12199999852133472,-0.1830000044521087
0.5818293690681458,-0.04148672893643379,9.773188591003418,-0.00279999990016222,-0.01599999889731407,-0.022499999031424522,0,0,0
0.5966542363166809,-0.03892971947789192,9.763774871826172,0.016699999570846558,-0.01599999889731407,-0.03229999914765358,0,0.24399999704266945,0
0.5966542363166809,-0.03892971947789192,9.763774871826172,0.016699999570846558,-0.01599999889731407,-0.03229999914765358,0,0.24399999704266945,0
0.5956677794456482,-0.03569275885820389,9.7420072555542,0.01769999973475933,-0.006199999712407589,-0.05199999734759331,0.06099999926066736,0.12199999852133472,0
0.5981865525245667,-0.02284068427979946,9.761428833007812,0.017999999225139618,0.0032999999821186066,-0.03240000084042549,0,0.06099999926066736,0
0.6007052063941956,-0.039274487644433975,9.76961612701416,0.017999999225139618,0.0032999999821186066,-0.03240000084042549,0,0.1830000044521087,-0.06099999926066736
0.6090179085731506,-0.04073015972971916,9.745109558105469,0.01809999905526638,-0.016099998727440834,-0.022599998861551285,0,-0.06099999926066736,-0.12199999852133472
0.6088742017745972,-0.030435092747211456,9.748289108276367,0.028199998661875725,-0.006300000008195639,-0.05199999734759331,0,0.06099999926066736,0
0.6223104596138,-0.029305029660463333,9.777986526489258,0.037699997425079346,-0.006199999712407589,-0.012799999676644802,0,0.12199999852133472,0
0.6089029312133789,-0.0229843370616436,9.758545875549316,0.0279999990016222,0.003499999875202775,-0.0421999990940094,0,0.06099999926066736,-0.06099999926066736
0.5686707496643066,-0.03537672385573387,9.775247573852539,-0.01119999960064888,-0.006199999712407589,-0.022599998861551285,0,0.12199999852133472,-0.12199999852133472
0.5822123885154724,-0.023846248164772987,9.736384391784668,0.01809999905526638,0.003599999938160181,-0.05199999734759331,-0.12199999852133472,0,0
0.5814079642295837,-0.0550953708589077,9.769912719726562,-0.001999999862164259,0.003399999812245369,-0.061799999326467514,-0.12199999852133472,0,0
0.6063076257705688,-0.033968932926654816,9.768878936767578,-0.002199999988079071,-0.02499999850988388,-0.022499999031424522,0,0.06099999926066736,0
0.6063076257705688,-0.033968932926654816,9.768878936767578,0.026399999856948853,-0.005200000014156103,-0.022499999031424522,0,0.06099999926066736,-0.06099999926066736
0.6015862226486206,-0.048142608255147934,9.780610084533691,0.01589999906718731,-0.024000000208616257,-0.012600000016391277,0.06099999926066736,0.12199999852133472,-0.06099999926066736
0.6341761350631714,-0.04784572497010231,9.769262313842773,0.053199999034404755,-0.013700000010430813,-0.022299999371170998,0.06099999926066736,0.12199999852133472,0.06099999926066736
0.6039038896560669,-0.053515199571847916,9.752004623413086,0.023499999195337296,-0.02329999953508377,-0.04189999774098396,0.06099999926066736,0.12199999852133472,0
0.6061831712722778,-0.07142382860183716,9.764244079589844,0.023099999874830246,-0.04230000078678131,-0.032099999487400055,0.12199999852133472,0,-0.06099999926066736
0.6185468435287476,-0.03190034255385399,9.764578819274902,0.032099999487400055,-0.0032999999821186066,-0.03199999779462814,0,-0.12199999852133472,-0.06099999926066736
0.6262369751930237,-0.021241357550024986,9.758143424987793,0.0405999980866909,0.006300000008195639,-0.04179999977350235,0.12199999852133472,0,-0.06099999926066736
0.6262369751930237,-0.021241357550024986,9.758143424987793,0.0405999980866909,0.006300000008195639,-0.04179999977350235,0.12199999852133472,0,-0.06099999926066736
0.6171773076057434,-0.05090072751045227,9.786481857299805,0.029600000008940697,-0.022599998861551285,-0.012299999594688416,0.06099999926066736,0.12199999852133472,-0.06099999926066736
0.617244303226471,-0.02211284637451172,9.771943092346191,0.028999999165534973,0.0064999996684491634,-0.022099999710917473,0.06099999926066736,0.1830000044521087,0
0.6253271698951721,-0.02791639044880867,9.796585083007812,0.037299998104572296,0.006000000052154064,-0.0023999998811632395,0,0,0.12199999852133472
0.6012893915176392,-0.03768473491072655,9.76903247833252,0.007400000002235174,-0.003599999938160181,-0.021900000050663948,0,0.12199999852133472,0.06099999926066736
0.6030132174491882,-0.03688985854387283,9.769808769226074,-0.002199999988079071,-0.013100000098347664,-0.041600000113248825,0.06099999926066736,0.1830000044521087,0.06099999926066736
0.5930054187774658,-0.028184542432427406,9.778484344482422,-0.001999999862164259,0.006000000052154064,-0.012199999764561653,0.06099999926066736,0.12199999852133472,0
0.6060777902603149,-0.035252224653959274,9.788846969604492,0.01679999940097332,-0.003599999938160181,-0.002300000051036477,0,0.06099999926066736,-0.06099999926066736
0.6007435321807861,-0.03490746021270752,9.746383666992188,0.006799999624490738,-0.003599999938160181,-0.05130000039935112,0,0.12199999852133472,0
0.6018352508544922,-0.03643017262220383,9.761446952819824,0.006799999624490738,-0.003499999875202775,-0.031700000166893005,0.12199999852133472,0.06099999926066736,-0.06099999926066736
0.6077058911323547,-0.04718492925167084,9.787774085998535,0.015799999237060547,-0.013100000098347664,-0.002199999988079071,-0.06099999926066736,0.1830000044521087,0
0.6118143200874329,-0.042712558060884476,9.761926651000977,0.015799999237060547,-0.01269999984651804,-0.031700000166893005,0,0.06099999926066736,-0.06099999926066736
0.6051009297370911,-0.04737646505236626,9.774213790893555,0.01529999915510416,-0.012399999424815178,-0.021800000220537186,0.06099999926066736,0,-0.12199999852133472
0.6451416015625,-0.03611414134502411,9.765182495117188,0.05339999869465828,-0.002699999837204814,-0.031599998474121094,0.12199999852133472,0.06099999926066736,0
0.6017299294471741,-0.034821268171072006,9.794708251953125,0.00419999985024333,-0.002899999963119626,-0.002099999925121665,-0.12199999852133472,0.1830000044521087,-0.12199999852133472
0.6048614978790283,-0.02670971490442753,9.759054183959961,0.0139999995008111,0.0071000000461936,-0.031599998474121094,0,0.06099999926066736,-0.1830000044521087
0.6110672950744629,-0.031335312873125076,9.75846004486084,0.013700000010430813,-0.0024999999441206455,-0.04129999876022339,0,0.06099999926066736,0
0.6067768931388855,-0.033451784402132034,9.75822925567627,0.013399999588727951,-0.0024999999441206455,-0.04129999876022339,0.12199999852133472,0.12199999852133472,0
0.611804723739624,-0.03398808836936951,9.749016761779785,0.013299999758601189,-0.002699999837204814,-0.0510999970138073,0.12199999852133472,0.1830000044521087,-0.12199999852133472
0.5959168076515198,-0.04633259028196335,9.762213706970215,0.003700000001117587,-0.01269999984651804,-0.03150000050663948,0.06099999926066736,0.12199999852133472,0.06099999926066736
0.6130305528640747,-0.0440724641084671,9.782622337341309,0.022699998691678047,-0.012399999424815178,-0.011899999342858791,0,0.06099999926066736,-0.06099999926066736
0.6064895987510681,-0.041199423372745514,9.781376838684082,0.01249999925494194,-0.01209999993443489,-0.011899999342858791,-0.06099999926066736,0.06099999926066736,-0.06099999926066736
0.555292010307312,-0.022380996495485306,9.801267623901367,-0.04490000009536743,0.007400000002235174,0.007599999662488699,0.06099999926066736,0.24399999704266945,-0.06099999926066736
0.5816377401351929,-0.014930241741240025,9.762299537658691,0.0139999995008111,-0.01209999993443489,-0.021699998527765274,0,0.12199999852133472,-0.06099999926066736
0.6308338642120361,-0.02372175082564354,9.763172149658203,0.03309999778866768,0.007199999876320362,-0.03150000050663948,-0.06099999926066736,0.06099999926066736,-0.06099999926066736
0.6297995448112488,-0.040203433483839035,9.764110565185547,0.032499998807907104,-0.012000000104308128,-0.03150000050663948,0.06099999926066736,0.06099999926066736,-0.12199999852133472
0.5884181261062622,-0.033729515969753265,9.76041316986084,-0.006599999964237213,-0.002300000051036477,-0.03150000050663948,0,-0.06099999926066736,0
0.5766195058822632,-0.017851168289780617,9.76302719116211,-0.006599999964237213,-0.002300000051036477,-0.03150000050663948,-0.06099999926066736,-0.06099999926066736,0
0.5963382124900818,-0.06969999521970749,9.77584171295166,0.0023999998811632395,-0.04079999774694443,-0.02159999869763851,-0.06099999926066736,0.06099999926066736,0.12199999852133472
0.5877190828323364,-0.02033155970275402,9.765881538391113,-0.0072999997064471245,0.008299999870359898,-0.03139999881386757,0,0.1830000044521087,0
0.6122452616691589,-0.03358586132526398,9.760604858398438,0.012199999764561653,-0.00139999995008111,-0.03139999881386757,0,0,0.06099999926066736
0.6170719861984253,-0.0056407395750284195,9.754369735717773,0.02149999886751175,0.017999999225139618,-0.041200000792741776,0,0.3049999896332302,-0.12199999852133472
0.5753650069236755,-0.05896440148353577,9.748135566711426,-0.016999999061226845,-0.030899999663233757,-0.0510999970138073,0,0.1830000044521087,0
0.6358903646469116,-0.04437892138957977,9.768447875976562,0.04189999774098396,-0.011299999430775642,-0.021699998527765274,0.06099999926066736,0.06099999926066736,0
0.6079261302947998,-0.044369347393512726,9.766264915466309,0.012299999594688416,-0.011399999260902405,-0.03150000050663948,0,0.12199999852133472,0.06099999926066736
0.5870677828788757,-0.026297910138964653,9.739928245544434,-0.0071000000461936,0.008200000040233135,-0.0510999970138073,0.06099999926066736,0.1830000044521087,0
0.601959764957428,-0.048659756779670715,9.78271770477295,0.00279999990016222,-0.021199999377131462,-0.011899999342858791,-0.06099999926066736,0,0
0.5970468521118164,-0.02827073261141777,9.799113273620605,0.0026000000070780516,0.008299999870359898,0.007699999958276749,0.06099999926066736,0,0
0.5999485850334167,-0.04376600682735443,9.77153205871582,0.002300000051036477,-0.011299999430775642,-0.02159999869763851,0.06099999926066736,0.12199999852133472,0
0.6247237920761108,-0.01971864514052868,9.765584945678711,0.03179999813437462,0.007999999448657036,-0.03139999881386757,0.06099999926066736,0.06099999926066736,-0.06099999926066736
0.6093530654907227,-0.029046455398201942,9.760269165039062,0.012000000104308128,-0.0017999999690800905,-0.03139999881386757,0,0.1830000044521087,-0.06099999926066736
0.6002359390258789,-0.04090254381299019,9.775285720825195,0.0024999999441206455,-0.011599999852478504,-0.02159999869763851,0.06099999926066736,0.1830000044521087,0.12199999852133472
0.5774048566818237,-0.05360138788819313,9.794084548950195,-0.016699999570846558,-0.021399999037384987,-0.001999999862164259,0.06099999926066736,0.12199999852133472,0
0.5865315794944763,-0.0249954666942358,9.770459175109863,-0.0066999997943639755,0.007699999958276749,-0.021699998527765274,-0.06099999926066736,0.06099999926066736,-0.06099999926066736
0.6016533374786377,-0.014346056617796421,9.775296211242676,0.031599998474121094,-0.0017999999690800905,-0.02159999869763851,-0.06099999926066736,0,-0.06099999926066736
0.5785349011421204,-0.028423961251974106,9.757722854614258,-0.01730000041425228,0.007699999958276749,-0.041200000792741776,0.12199999852133472,0.06099999926066736,-0.06099999926066736
0.5853631496429443,-0.046294283121824265,9.768840789794922,-0.01730000041425228,0.007699999958276749,-0.041200000792741776,-0.06099999926066736,0.06099999926066736,-0.06099999926066736
0.6013468503952026,-0.03132573515176773,9.772911071777344,0.002099999925121665,-0.0017999999690800905,-0.02159999869763851,0,-0.06099999926066736,0
0.6125134229660034,-0.037665579468011856,9.76036548614502,0.011299999430775642,-0.0016999999061226845,-0.03139999881386757,0.06099999926066736,-0.06099999926066736,-0.06099999926066736
0.5829498171806335,-0.02687252126634121,9.77224063873291,-0.01809999905526638,0.007699999958276749,-0.02159999869763851,-0.06099999926066736,0.06099999926066736,-0.06099999926066736
0.6038751006126404,-0.025981876999139786,9.806746482849121,0.010900000110268593,0.007699999958276749,0.01759999990463257,0.06099999926066736,0.1830000044521087,-0.12199999852133472
0.6145915389060974,-0.02905603125691414,9.764301300048828,0.020600000396370888,-0.002099999925121665,-0.03139999881386757,0.06099999926066736,0.06099999926066736,0.06099999926066736
0.6064608693122864,-0.018167201429605484,9.766111373901367,0.010499999858438969,0.017099998891353607,-0.031300000846385956,0.06099999926066736,0.24399999704266945,-0.12199999852133472
0.5948537588119507,-0.032618604600429535,9.75948429107666,0.0009999999310821295,-0.0026000000070780516,-0.03139999881386757,0,-0.12199999852133472,-0.06099999926066736
0.5904580354690552,-0.05180094763636589,9.77758502960205,-0.009099999442696571,-0.021699998527765274,-0.02149999886751175,0.06099999926066736,0.1830000044521087,-0.06099999926066736
0.5865123867988586,-0.04472368583083153,9.75841236114502,-0.008799999952316284,-0.011899999342858791,-0.041200000792741776,0,0.12199999852133472,0
0.5940014719963074,-0.039370253682136536,9.768553733825684,0.0009999999310821295,-0.011599999852478504,-0.02159999869763851,0.06099999926066736,0.12199999852133472,0
0.587881863117218,-0.03179499879479408,9.763124465942383,-0.008599999360740185,-0.0018999999156221747,-0.03139999881386757,-0.06099999926066736,0,-0.06099999926066736
0.6117280721664429,-0.05930916592478752,9.7662935256958,0.010499999858438969,-0.030700000002980232,-0.031300000846385956,0,0.12199999852133472,0
0.615376889705658,-0.03712927922606468,9.758862495422363,0.019999999552965164,-0.0011999999405816197,-0.031300000846385956,0,0.12199999852133472,-0.06099999926066736
0.6169283390045166,-0.05746084079146385,9.757683753967285,0.01979999989271164,-0.03019999898970127,-0.041099999099969864,0.12199999852133472,0.06099999926066736,0
0.5773665308952332,-0.058590903878211975,9.736499786376953,-0.019299998879432678,-0.03019999898970127,-0.06069999933242798,0.06099999926066736,0.12199999852133472,0.06099999926066736
0.6027737855911255,-0.02637452445924282,9.762530326843262,0.00029999998514540493,0.008299999870359898,-0.031300000846385956,0.12199999852133472,-0.06099999926066736,0
0.6003699898719788,-0.041055772453546524,9.762530326843262,0.00029999998514540493,0.008299999870359898,-0.031300000846385956,0,0.12199999852133472,-0.06099999926066736
0.6003699898719788,-0.041055772453546524,9.762530326843262,-0.00009999999747378752,-0.011299999430775642,-0.031300000846385956,0,0.12199999852133472,-0.06099999926066736
0.6125900149345398,-0.06983407586812973,9.76636028289795,0.010199999436736107,-0.03989999741315842,-0.031300000846385956,0.06099999926066736,0.06099999926066736,-0.06099999926066736
0.5797799229621887,-0.043497856706380844,9.76020336151123,-0.01889999955892563,-0.010400000028312206,-0.031300000846385956,0,0.1830000044521087,0
0.6180392503738403,-0.035865142941474915,9.770401954650879,0.019999999552965164,-0.0005999999702908099,-0.02149999886751175,-0.1830000044521087,0.1830000044521087,-0.06099999926066736
0.5978513360023499,-0.04852567985653877,9.783943176269531,0.0005999999702908099,-0.019199999049305916,-0.011699999682605267,0,0.1830000044521087,0.06099999926066736
0.5903239846229553,-0.041860222816467285,9.758038520812988,-0.008799999952316284,-0.009200000204145908,-0.041200000792741776,-0.06099999926066736,0.1830000044521087,0
0.6047275066375732,-0.05452075973153114,9.780715942382812,0.010699999518692493,-0.018299998715519905,-0.011699999682605267,0,0.1830000044521087,-0.06099999926066736
0.6121973991394043,-0.025962723419070244,9.775047302246094,0.010699999518692493,0.010900000110268593,-0.02149999886751175,0.06099999926066736,0,-0.06099999926066736
0.6053116321563721,-0.049722783267498016,9.757473945617676,0.010300000198185444,-0.018400000408291817,-0.041099999099969864,0.06099999926066736,0.24399999704266945,0
0.6209409832954407,-0.05080495774745941,9.794373512268066,0.019600000232458115,-0.01769999973475933,-0.0018999999156221747,0,0.06099999926066736,-0.12199999852133472
0.5979183316230774,-0.04094085097312927,9.77224063873291,0,-0.007699999958276749,-0.02149999886751175,0.06099999926066736,-0.06099999926066736,0.06099999926066736
0.6083858013153076,-0.0306840892881155,9.755845069885254,0.009099999442696571,0.0018999999156221747,-0.041099999099969864,0,0.1830000044521087,0
0.616142988204956,-0.026623522862792015,9.762701988220215,0.01889999955892563,0.011500000022351742,-0.031199999153614044,-0.12199999852133472,0.12199999852133472,-0.06099999926066736
0.5949399471282959,-0.030837317928671837,9.742208480834961,-0.0005999999702908099,0.002099999925121665,-0.05089999735355377,0.06099999926066736,0.06099999926066736,0
0.6153481602668762,-0.024210166186094284,9.780400276184082,0.018299998715519905,0.011399999260902405,-0.011599999852478504,-0.06099999926066736,0.12199999852133472,-0.12199999852133472
0.6079165935516357,-0.03741658478975296,9.774884223937988,0.00839999970048666,0.0017999999690800905,-0.021399999037384987,-0.06099999926066736,0.1830000044521087,0
0.5867326855659485,-0.0020781669300049543,9.791585922241211,-0.010499999858438969,0.020800000056624413,-0.0017999999690800905,0,0,0
0.5998528599739075,-0.040366239845752716,9.760480880737305,-0.0008999999845400453,-0.008299999870359898,-0.031199999153614044,0,0.1830000044521087,-0.06099999926066736
0.6223871111869812,-0.019498378038406372,9.78428840637207,0.018400000408291817,0.010900000110268593,-0.011599999852478504,-0.06099999926066736,0.12199999852133472,-0.06099999926066736
0.5788892507553101,-0.04424484819173813,9.781386375427246,-0.0010999999940395355,0.010999999940395355,-0.031199999153614044,-0.06099999926066736,0.12199999852133472,-0.06099999926066736
0.5834574103355408,-0.0334039032459259,9.753317832946777,-0.020099999383091927,0.00139999995008111,-0.041099999099969864,-0.12199999852133472,0.06099999926066736,-0.12199999852133472
0.5920860767364502,-0.03502238169312477,9.775985717773438,-0.010199999436736107,0.0016999999061226845,-0.02149999886751175,0.06099999926066736,0,-0.06099999926066736
0.6090466380119324,-0.032570719718933105,9.731271743774414,0.008999999612569809,0.0015999999595806003,-0.06069999933242798,0.06099999926066736,0.24399999704266945,-0.06099999926066736
0.6350763440132141,-0.03487873077392578,9.771733283996582,0.03799999877810478,0.00139999995008111,-0.021399999037384987,0.12199999852133472,0.12199999852133472,0
0.605417013168335,-0.041668687015771866,9.789374351501465,0.00839999970048666,-0.008299999870359898,-0.0017999999690800905,0,0.12199999852133472,0
0.6042773723602295,-0.023903708904981613,9.758526802062988,0.008299999870359898,0.01119999960064888,-0.04099999740719795,-0.06099999926066736,0.1830000044521087,0
0.6009159088134766,-0.04165910929441452,9.76472282409668,-0.0010999999940395355,-0.007999999448657036,-0.031199999153614044,0,0,-0.06099999926066736
0.5774144530296326,-0.02987963706254959,9.787525177001953,-0.02029999904334545,0.0015999999595806003,-0.0017999999690800905,-0.06099999926066736,0.06099999926066736,0
0.6286982297897339,-0.04051946848630905,9.784623146057129,0.027799999341368675,-0.007699999958276749,-0.011599999852478504,0,0.06099999926066736,-0.24399999704266945
0.6089795827865601,-0.02637452445924282,9.772480010986328,0.007999999448657036,0.011599999852478504,-0.021399999037384987,0,0.1830000044521087,-0.06099999926066736
0.6270988583564758,-0.03839341551065445,9.787458419799805,0.02709999866783619,-0.007699999958276749,-0.011500000022351742,0,0,-0.12199999852133472
0.591434895992279,-0.038517918437719345,9.775334358215332,-0.01209999993443489,-0.007499999832361937,-0.021299999207258224,0.06099999926066736,0.06099999926066736,-0.12199999852133472
0.6224349737167358,-0.04539406672120094,9.749926567077637,0.016899999231100082,-0.007599999662488699,-0.04089999943971634,0.06099999926066736,0.06099999926066736,-0.06099999926066736
0.611919641494751,-0.04863102361559868,9.729413032531738,0.00699999975040555,-0.017400000244379044,-0.07029999792575836,0,0.06099999926066736,0
0.5965297222137451,-0.03378697484731674,9.740991592407227,-0.00279999990016222,0.002099999925121665,-0.05069999769330025,0,0.12199999852133472,-0.06099999926066736
0.5791478157043457,-0.023166295140981674,9.781731605529785,-0.021900000050663948,0.011699999682605267,-0.011500000022351742,0,0.12199999852133472,0
0.6145819425582886,-0.03797203674912453,9.78636646270752,0.016899999231100082,0.0018999999156221747,-0.011500000022351742,0,0.06099999926066736,-0.06099999926066736
0.6416460275650024,-0.0420709103345871,9.774884223937988,0.045399997383356094,-0.007599999662488699,-0.021299999207258224,0.06099999926066736,0.12199999852133472,-0.06099999926066736
0.5971522331237793,-0.033729515969753265,9.782516479492188,-0.003399999812245369,0.0018999999156221747,-0.011500000022351742,0,0.12199999852133472,-0.12199999852133472
0.5980907678604126,-0.020197484642267227,9.75855541229248,0.006199999712407589,0.021199999377131462,-0.021299999207258224,0.12199999852133472,0.12199999852133472,0
0.6072174310684204,-0.02497631311416626,9.786749839782715,-0.003399999812245369,0.010999999940395355,-0.04089999943971634,0,0.12199999852133472,-0.06099999926066736
0.6009159088134766,-0.02040817402303219,9.770048141479492,0.006399999838322401,0.010599999688565731,-0.011500000022351742,-0.06099999926066736,0.06099999926066736,0
0.6111247539520264,-0.039370253682136536,9.784757614135742,-0.0031999999191612005,0.010499999858438969,-0.021299999207258224,0,0.06099999926066736,0.06099999926066736
0.5943557620048523,-0.03784754127264023,9.75926399230957,0.006300000008195639,-0.008700000122189522,-0.011500000022351742,0,0.06099999926066736,0.06099999926066736
0.6192746758460999,-0.04909071326255798,9.791940689086914,0.01529999915510416,-0.01769999973475933,-0.0015999999595806003,0.06099999926066736,0.12199999852133472,0
0.59688401222229,-0.04405330866575241,9.762136459350586,-0.004100000020116568,-0.007899999618530273,-0.03099999949336052,-0.06099999926066736,0,-0.06099999926066736
