Accelerometer_Gx,Accelerometer_Gy,Accelerometer_Gz,Accelerometer_X,Accelerometer_Y,Accelerometer_Z,Gyroscope_Z,Gyroscope_X,Gyroscope_Y
0.6187862157821655,-0.07459375262260437,9.77889633178711,0.007799999788403511,-0.006799999624490738,-0.03229999914765358,0.12199999852133472,0.06099999926066736,-0.06099999926066736
0.5938290357589722,-0.04772122949361801,9.790972709655762,0.0008999999845400453,0,0.01640000008046627,0,0.06099999926066736,0
0.6125996112823486,-0.034399889409542084,9.772164344787598,0.018199998885393143,0.007499999832361937,-0.02199999988079071,0.06099999926066736,0.06099999926066736,-0.12199999852133472
0.5992974042892456,-0.04545152559876442,9.776838302612305,0.005699999630451202,-0.0016999999061226845,-0.021800000220537186,-0.06099999926066736,0.06099999926066736,-0.06099999926066736
0.6318298578262329,-0.057547032833099365,9.765440940856934,0.02539999969303608,-0.015399999916553497,-0.03099999949336052,0.06099999926066736,0.12199999852133472,0.06099999926066736
0.5961562395095825,-0.05454949289560318,9.752904891967773,-0.0032999999821186066,-0.004299999680370092,-0.04089999943971634,-0.12199999852133472,0.12199999852133472,-0.06099999926066736
0.6016437411308289,-0.04633259028196335,9.766303062438965,-0.002699999837204814,0.003999999724328518,-0.031099999323487282,-0.06099999926066736,0.12199999852133472,-0.06099999926066736
0.5847119092941284,-0.0488225594162941,9.773964881896973,-0.008200000040233135,-0.003499999875202775,-0.02149999886751175,-0.12199999852133472,0.24399999704266945,-0.06099999926066736
0.5899983644485474,-0.043277591466903687,9.770133972167969,-0.008299999870359898,0.005499999970197678,-0.02149999886751175,0,0.06099999926066736,-0.06099999926066736
0.5780177712440491,-0.023511061444878578,9.774970054626465,-0.012399999424815178,0.01679999940097332,-0.021900000050663948,0.06099999926066736,0.12199999852133472,-0.1830000044521087
0.5978992581367493,-0.023922862485051155,9.751832962036133,0.0050999997183680534,0.012600000016391277,-0.0414000004529953,0,0,-0.06099999926066736
0.5916838645935059,-0.06383899599313736,9.757444381713867,-0.004100000020116568,-0.019700000062584877,-0.0414000004529953,0.06099999926066736,0,0.06099999926066736
0.5816760659217834,-0.025627534836530685,9.78264045715332,-0.007899999618530273,0.010599999688565731,-0.012399999424815178,-0.06099999926066736,0.06099999926066736,-0.12199999852133472
0.6061352491378784,-0.027360936626791954,9.792936325073242,0.008899999782443047,0.004399999976158142,-0.0017999999690800905,0,0.1830000044521087,-0.06099999926066736
0.6135477423667908,-0.058428097516298294,9.798490524291992,0.012000000104308128,-0.021299999207258224,0.008299999870359898,0.06099999926066736,-0.06099999926066736,-0.1830000044521087
0.5914444327354431,-0.046437934041023254,9.790168762207031,-0.008599999360740185,-0.0008999999845400453,-0.0018999999156221747,0.06099999926066736,0.1830000044521087,0.06099999926066736
0.6045933961868286,-0.026834214106202126,9.745779991149902,0.008999999612569809,0.01549999974668026,-0.05089999735355377,0,0.1830000044521087,-0.06099999926066736
0.613873302936554,-0.01583046093583107,9.78068733215332,0.010699999518692493,0.014399999752640724,-0.01119999960064888,0.06099999926066736,0.06099999926066736,-0.06099999926066736
0.6053020358085632,-0.03460100293159485,9.779414176940918,0.00039999998989515007,-0.0030999998562037945,-0.011099999770522118,0,0.12199999852133472,0
0.5864070653915405,-0.04952166602015495,9.751727104187012,-0.018799999728798866,-0.022699998691678047,-0.0405999980866909,0.06099999926066736,0.12199999852133472,-0.06099999926066736
0.6091040372848511,-0.03274310380220413,9.779911994934082,0.0009999999310821295,-0.0032999999821186066,-0.01119999960064888,0,-0.06099999926066736,-0.12199999852133472
0.5757959485054016,-0.056436121463775635,9.798317909240723,-0.0284000001847744,-0.02279999852180481,0.00839999970048666,0,0.12199999852133472,-0.12199999852133472
0.5959646701812744,-0.033451784402132034,9.78427791595459,-0.018199998885393143,0.006399999838322401,-0.020999999716877937,0,0.12199999852133472,0
0.6015479564666748,-0.0616171769797802,9.78433609008789,-0.007999999448657036,-0.03269999846816063,-0.01119999960064888,0,0.12199999852133472,-0.06099999926066736
0.6080889105796814,-0.03028186224400997,9.780850410461426,-0.007999999448657036,-0.03269999846816063,-0.01119999960064888,0.06099999926066736,0.12199999852133472,0.06099999926066736
0.5872784852981567,-0.047692496329545975,9.774740219116211,-0.017099998891353607,-0.013199999928474426,-0.020999999716877937,-0.06099999926066736,0.06099999926066736,0
0.6033579707145691,-0.02780146896839142,9.77348518371582,0.0024999999441206455,0.006399999838322401,-0.0210999995470047,0,0.1830000044521087,-0.06099999926066736
0.5769930481910706,-0.046524129807949066,9.767145156860352,-0.026200000196695328,-0.012999999336898327,-0.030899999663233757,-0.06099999926066736,0.12199999852133472,0
0.5917795896530151,-0.047386039048433304,9.788081169128418,-0.01589999906718731,-0.012799999676644802,-0.001500000013038516,0.06099999926066736,-0.06099999926066736,0
0.6095924973487854,-0.04580586776137352,9.806276321411133,0.003399999812245369,-0.012799999676644802,0.008200000040233135,-0.06099999926066736,0.24399999704266945,-0.06099999926066736
0.5837447047233582,-0.03872860595583916,9.750693321228027,-0.01809999905526638,-0.007499999832361937,-0.041200000792741776,0,0.12199999852133472,0
0.5814462304115295,-0.050345271825790405,9.790102005004883,-0.006000000052154064,-0.005799999926239252,-0.0026000000070780516,0,0.12199999852133472,0.06099999926066736
0.5782858729362488,-0.021365856751799583,9.808565139770508,-0.003399999812245369,0.015399999916553497,0.016699999570846558,0.06099999926066736,0.06099999926066736,-0.06099999926066736
0.5626086592674255,-0.04812345653772354,9.772327423095703,-0.016300000250339508,-0.009800000116229057,-0.02279999852180481,0.06099999926066736,-0.06099999926066736,0
0.5871157050132751,-0.0279642753303051,9.771034240722656,0.008200000040233135,0.012999999336898327,-0.022499999031424522,-0.06099999926066736,0.06099999926066736,-0.12199999852133472
0.5870869755744934,-0.04379473999142647,9.773456573486328,0.0050999997183680534,-0.00419999985024333,-0.02239999920129776,-0.06099999926066736,0.1830000044521087,0
0.5704712271690369,-0.06556282192468643,9.782602310180664,-0.008499999530613422,-0.013899999670684338,-0.012899999506771564,0.1830000044521087,0.06099999926066736,-0.06099999926066736
0.5806418061256409,-0.03773261979222298,9.795809745788574,0.0004999999655410647,0.006899999920278788,-0.0030999998562037945,0,0,-0.06099999926066736
0.5830838680267334,-0.022122424095869064,9.771608352661133,0,0.01209999993443489,-0.022599998861551285,0.06099999926066736,0.06099999926066736,-0.06099999926066736
0.6005806922912598,-0.018023550510406494,9.805280685424805,0.011099999770522118,0.011899999342858791,0.007199999876320362,0,-0.06099999926066736,-0.06099999926066736
0.6032238602638245,-0.03455311805009842,9.767308235168457,0.007799999788403511,-0.005699999630451202,-0.03179999813437462,0.12199999852133472,0.12199999852133472,0
0.6061448454856873,-0.0456143319606781,9.77094841003418,0.017899999395012856,-0.015799999237060547,-0.02199999988079071,-0.06099999926066736,0.1830000044521087,-0.06099999926066736
0.6139978170394897,-0.04725196585059166,9.775218963623047,0.008599999360740185,-0.005799999926239252,0.0072999997064471245,0.06099999926066736,0.06099999926066736,-0.06099999926066736
0.608251690864563,-0.023693019524216652,9.782286643981934,0.028599999845027924,-0.015599999576807022,-0.02199999988079071,0.1830000044521087,0,0
0.5780656337738037,-0.05321831628680229,9.777623176574707,0.01889999955892563,0.003700000001117587,-0.012199999764561653,0,0.1830000044521087,-0.06099999926066736
0.6020268201828003,-0.03344221040606499,9.796201705932617,0.009499999694526196,-0.006399999838322401,-0.0024999999441206455,0.06099999926066736,0.12199999852133472,-0.06099999926066736
0.5989717841148376,-0.058523863554000854,9.744171142578125,0.00989999994635582,-0.035999998450279236,-0.051500000059604645,0,0.1830000044521087,0.06099999926066736
0.5852674245834351,-0.040059782564640045,9.788626670837402,0.0004999999655410647,-0.016200000420212746,-0.0024999999441206455,0.06099999926066736,0.12199999852133472,0.06099999926066736
0.590592086315155,-0.0393415205180645,9.748978614807129,0.0008999999845400453,-0.01640000008046627,-0.05159999802708626,0,0.06099999926066736,0
0.5945760607719421,-0.038144420832395554,9.785810470581055,0.010799999348819256,-0.0064999996684491634,-0.012299999594688416,0.06099999926066736,0.24399999704266945,0
0.6159036159515381,-0.03500322625041008,9.796114921569824,0.029600000008940697,-0.00019999999494757503,-0.0024999999441206455,-0.06099999926066736,0,-0.12199999852133472
0.58355313539505,-0.04350743442773819,9.802149772644043,-0.00419999985024333,-0.0044999998062849045,0.006899999920278788,0.12199999852133472,0,-0.12199999852133472
0.5804694294929504,-0.03987782448530197,9.778695106506348,-0.002899999963119626,-0.003000000026077032,-0.01269999984651804,0.12199999852133472,0.12199999852133472,-0.06099999926066736
0.5942216515541077,-0.03967671096324921,9.79965877532959,0.010300000198185444,-0.001999999862164259,0.007199999876320362,0.06099999926066736,0.12199999852133472,0.06099999926066736
0.5861771702766418,-0.04267425090074539,9.769109725952148,0.00019999999494757503,-0.001500000013038516,-0.022099999710917473,0.12199999852133472,0.06099999926066736,0.06099999926066736
0.5949399471282959,-0.0366121344268322,9.78418254852295,0.006199999712407589,0.004999999888241291,-0.012000000104308128,0.06099999926066736,0.06099999926066736,-0.06099999926066736
0.6169762015342712,-0.04483860731124878,9.805672645568848,0.016300000250339508,-0.003000000026077032,0.007999999448657036,0.12199999852133472,0.1830000044521087,-0.06099999926066736
0.6006573438644409,-0.030492553487420082,9.782793998718262,-0.001999999862164259,0.004100000020116568,-0.011500000022351742,0.06099999926066736,0.06099999926066736,-0.1830000044521087
0.5786498188972473,-0.056694693863391876,9.75256061553955,-0.017500000074505806,-0.012299999594688416,-0.041200000792741776,0.06099999926066736,0.1830000044521087,-0.06099999926066736
0.5788701176643372,-0.059443242847919464,9.759206771850586,-0.012999999336898327,-0.01640000008046627,-0.031700000166893005,-0.06099999926066736,0,0
0.6244556903839111,-0.03028186224400997,9.80593204498291,0.02149999886751175,0.007699999958276749,0.008299999870359898,0.06099999926066736,0.12199999852133472,-0.06099999926066736
0.5894716382026672,-0.028893226757645607,9.77735424041748,-0.01730000041425228,0.007499999832361937,-0.020999999716877937,0,0.1830000044521087,0
0.5839362144470215,-0.018540697172284126,9.779059410095215,-0.026599999517202377,0.02709999866783619,-0.01119999960064888,0.06099999926066736,0,-0.06099999926066736
0.5964722037315369,-0.029228415340185165,9.768946647644043,0.002699999837204814,-0.0023999998811632395,0.01809999905526638,-0.06099999926066736,-0.06099999926066736,-0.06099999926066736
0.5978513360023499,-0.03303040564060211,9.771474838256836,-0.006899999920278788,0.0071000000461936,-0.020999999716877937,0,0.12199999852133472,0
0.5574180483818054,-0.05780560523271561,9.81393814086914,-0.006899999920278788,0.0071000000461936,-0.020999999716877937,-0.06099999926066736,-0.06099999926066736,0
0.583869218826294,-0.051858410239219666,9.793482780456543,-0.04569999873638153,-0.022199999541044235,0.017999999225139618,-0.06099999926066736,0.1830000044521087,0
0.608788013458252,-0.034936193376779556,9.774989128112793,0.003700000001117587,0.007499999832361937,-0.0210999995470047,-0.06099999926066736,0.1830000044521087,0
0.5740529894828796,-0.016596606001257896,9.794353485107422,-0.03480000048875809,0.02719999849796295,-0.001500000013038516,0.06099999926066736,0,-0.06099999926066736
0.5988951921463013,-0.04957912862300873,9.765144348144531,-0.0052999998442828655,-0.01209999993443489,-0.03099999949336052,0.06099999926066736,0.12199999852133472,-0.06099999926066736
0.6096116304397583,-0.022448034957051277,9.774070739746094,0.004699999932199717,0.016999999061226845,-0.021199999377131462,0.06099999926066736,0,0
0.5881692171096802,-0.05827486887574196,9.770928382873535,-0.014800000004470348,-0.022199999541044235,-0.021199999377131462,0.12199999852133472,-0.06099999926066736,0
0.5855738520622253,-0.031191660091280937,9.753297805786133,-0.01489999983459711,0.0066999997943639755,-0.04079999774694443,0,0,0
0.5859569311141968,-0.015418658964335918,9.760815620422363,-0.01489999983459711,0.02630000002682209,-0.03099999949336052,0.06099999926066736,-0.06099999926066736,0
0.5770888328552246,-0.04850652813911438,9.803001403808594,-0.02449999935925007,-0.012999999336898327,0.008100000210106373,0,0,-0.06099999926066736
0.6079452633857727,-0.03575979545712471,9.768447875976562,-0.02449999935925007,-0.012999999336898327,0.008100000210106373,0,0,-0.06099999926066736
0.6079452633857727,-0.03575979545712471,9.768447875976562,0.004799999762326479,0.0064999996684491634,-0.021199999377131462,0.06099999926066736,0,0
0.574340283870697,-0.040797196328639984,9.76223373413086,-0.034199997782707214,-0.003399999812245369,-0.03099999949336052,0.06099999926066736,0.06099999926066736,-0.06099999926066736
0.559745192527771,-0.05091987922787666,9.775218963623047,-0.04360000044107437,-0.013299999758601189,-0.021199999377131462,0.06099999926066736,0.1830000044521087,-0.06099999926066736
0.5805939435958862,-0.043995849788188934,9.78989028930664,-0.02329999953508377,-0.003599999938160181,-0.0015999999595806003,-0.06099999926066736,0.06099999926066736,0.06099999926066736
0.5970277190208435,-0.03160346299409866,9.770257949829102,-0.003499999875202775,0.006199999712407589,-0.021299999207258224,-0.06099999926066736,0.06099999926066736,0
0.5778070688247681,-0.04639962688088417,9.753767013549805,-0.02279999852180481,-0.0032999999821186066,-0.04089999943971634,0.12199999852133472,0.12199999852133472,0
0.5970181226730347,-0.053706735372543335,9.783244132995605,-0.002899999963119626,-0.013299999758601189,-0.011500000022351742,0,0.1830000044521087,0.06099999926066736
0.6154822111129761,-0.04931097850203514,9.78002643585205,0.016999999061226845,-0.013199999928474426,-0.011500000022351742,0.06099999926066736,0,0
0.5647347569465637,-0.04697423428297043,9.77420425415039,-0.0024999999441206455,0.006099999882280827,-0.011500000022351742,0,0,-0.1830000044521087
0.5984833836555481,-0.04901409521698952,9.7665433883667,-0.04149999842047691,-0.003599999938160181,-0.021299999207258224,0.06099999926066736,0.06099999926066736,0.12199999852133472
0.6021417379379272,-0.02561795897781849,9.78553295135498,-0.0026000000070780516,-0.013499999418854713,-0.031099999323487282,0.06099999926066736,0,0
0.6132795214653015,-0.01317768543958664,9.773859024047852,0.016999999061226845,0.024899998679757118,-0.021299999207258224,0,0.06099999926066736,-0.06099999926066736
0.5903526544570923,-0.0688476637005806,9.760279655456543,-0.01209999993443489,-0.03359999880194664,-0.031099999323487282,0.06099999926066736,-0.06099999926066736,0
0.5878244042396545,-0.06324522942304611,9.780313491821289,-0.012199999764561653,-0.02369999885559082,-0.011500000022351742,-0.06099999926066736,0,-0.06099999926066736
0.5834956765174866,-0.0335283987224102,9.771292686462402,-0.021800000220537186,0.005699999630451202,-0.021299999207258224,-0.06099999926066736,0.06099999926066736,-0.12199999852133472
0.6044784784317017,-0.012516886927187443,9.790828704833984,0.007499999832361937,0.02499999850988388,-0.0016999999061226845,-0.06099999926066736,0.06099999926066736,0.06099999926066736
0.572616457939148,-0.030770281329751015,9.797369956970215,-0.03099999949336052,0.005499999970197678,0.007899999618530273,0,0.12199999852133472,0.06099999926066736
0.5663148760795593,-0.023453600704669952,9.75446605682373,-0.030499998480081558,0.01529999915510416,-0.04099999740719795,0.12199999852133472,0.06099999926066736,-0.06099999926066736
0.6039516925811768,-0.043469127267599106,9.757387161254883,0.008700000122189522,-0.004600000102072954,-0.04099999740719795,0.06099999926066736,0.12199999852133472,0
0.6109619736671448,-0.028797458857297897,9.76369857788086,0.008999999612569809,0.004900000058114529,-0.031199999153614044,0,0,0
0.5709213018417358,-0.04791276529431343,9.773303985595703,-0.029899999499320984,-0.014499999582767487,-0.021399999037384987,0,-0.06099999926066736,-0.06099999926066736
0.5988760590553284,-0.049895163625478745,9.797867774963379,-0.0005999999702908099,-0.014299999922513962,0.007899999618530273,0,0.06099999926066736,0
0.5854780673980713,-0.03961925208568573,9.791126251220703,-0.010099999606609344,-0.004399999976158142,-0.0017999999690800905,-0.06099999926066736,0.06099999926066736,0
0.5951602458953857,-0.049914319068193436,9.817816734313965,-0.00009999999747378752,-0.013899999670684338,0.01769999973475933,-0.06099999926066736,0.06099999926066736,-0.06099999926066736
0.593302309513092,-0.024286780506372452,9.756621360778809,-0.00969999935477972,0.01549999974668026,-0.041099999099969864,0.06099999926066736,0.06099999926066736,-0.06099999926066736
0.5887054204940796,-0.037330396473407745,9.757137298583984,-0.009499999694526196,0.005499999970197678,-0.041099999099969864,0,0.1830000044521087,-0.06099999926066736
0.5984067916870117,-0.055583786219358444,9.76859188079834,0.000699999975040555,-0.013899999670684338,-0.02149999886751175,-0.06099999926066736,0.12199999852133472,-0.12199999852133472
0.6027642488479614,-0.04699338972568512,9.774654388427734,0.0009999999310821295,-0.0038999998942017555,-0.02149999886751175,0.06099999926066736,0.06099999926066736,-0.06099999926066736
0.6101287603378296,-0.05517198517918587,9.773619651794434,0.010900000110268593,-0.013700000010430813,-0.02149999886751175,0.06099999926066736,0,-0.12199999852133472
0.5808620452880859,-0.011156979948282242,9.776962280273438,-0.018299998715519905,0.02499999850988388,-0.02159999869763851,0,0.06099999926066736,-0.12199999852133472
0.6078494787216187,-0.026087220758199692,9.765824317932129,0.00139999995008111,-0.014099999330937862,-0.041200000792741776,0,0.06099999926066736,0
0.6232585906982422,-0.012325351126492023,9.783388137817383,0.030299998819828033,0.024699999019503593,-0.011699999682605267,0.06099999926066736,0.06099999926066736,0.06099999926066736
0.5902281403541565,-0.07505343854427338,9.755692481994629,-0.008599999360740185,-0.03399999812245369,-0.041200000792741776,0.06099999926066736,0.1830000044521087,0
0.6049094200134277,-0.03483084589242935,9.774395942687988,0.011299999430775642,0.004900000058114529,-0.02159999869763851,0.06099999926066736,0.06099999926066736,-0.12199999852133472
0.5899408459663391,-0.041927263140678406,9.784202575683594,-0.007899999618530273,-0.004900000058114529,-0.011799999512732029,-0.06099999926066736,0.12199999852133472,-0.06099999926066736
0.578582763671875,-0.04149630293250084,9.724337577819824,-0.017400000244379044,-0.004699999932199717,-0.0705999955534935,-0.12199999852133472,0.1830000044521087,-0.12199999852133472
0.5879680514335632,-0.03652593865990639,9.779394149780273,0.0030999998562037945,0.003000000026077032,-0.012399999424815178,-0.06099999926066736,0,-0.06099999926066736
0.5976406335830688,-0.018071433529257774,9.777182579040527,0.006000000052154064,0.011699999682605267,-0.021900000050663948,0.06099999926066736,0.06099999926066736,0
0.6030610799789429,-0.04204218462109566,9.785216331481934,0.003000000026077032,-0.009499999694526196,-0.011899999342858791,-0.12199999852133472,0,-0.06099999926066736
0.5799331068992615,-0.05761406943202019,9.78200912475586,-0.010400000028312206,-0.01759999990463257,-0.012199999764561653,0,0,0
0.5963669419288635,-0.0571160763502121,9.781645774841309,0.005399999674409628,-0.004900000058114529,-0.012000000104308128,0,0.06099999926066736,0.06099999926066736
0.6046891212463379,-0.05395573005080223,9.80005168914795,0.009599999524652958,-0.003000000026077032,0.007899999618530273,0.06099999926066736,0.06099999926066736,0.06099999926066736
0.6050147414207458,-0.016759412363171577,9.781271934509277,0.006099999882280827,0.02329999953508377,-0.011500000022351742,0,0,-0.12199999852133472
0.5948441624641418,-0.06482540816068649,9.802618026733398,-0.002099999925121665,-0.01599999889731407,0.007999999448657036,-0.06099999926066736,0.06099999926066736,0
0.6154343485832214,-0.04003105312585831,9.78974723815918,0.009499999694526196,0.001999999862164259,-0.0011999999405816197,-0.06099999926066736,0,0
0.5847981572151184,-0.04219541326165199,9.773256301879883,-0.014999999664723873,0.0015999999595806003,-0.0210999995470047,0.12199999852133472,0.06099999926066736,-0.06099999926066736
0.5849226117134094,-0.031000124290585518,9.781578063964844,-0.00989999994635582,0.007199999876320362,-0.011699999682605267,0,0.1830000044521087,-0.06099999926066736
0.5805556178092957,-0.051743488758802414,9.785207748413086,-0.019199999049305916,-0.012299999594688416,-0.011699999682605267,0,-0.06099999926066736,-0.24399999704266945
0.6120536923408508,-0.052547939121723175,9.794927597045898,0.015399999916553497,-0.013700000010430813,-0.002199999988079071,0,0.12199999852133472,0.06099999926066736
0.5974107384681702,-0.07039910554885864,9.769214630126953,0.003599999938160181,-0.02239999920129776,-0.021699998527765274,-0.06099999926066736,0,0
0.5810440182685852,-0.05215528979897499,9.781817436218262,-0.003999999724328518,0.004399999976158142,-0.012000000104308128,0.06099999926066736,0.1830000044521087,0
0.5909368991851807,-0.04733815789222717,9.802839279174805,0.0008999999845400453,0.003700000001117587,0.007199999876320362,0.12199999852133472,0.24399999704266945,0
0.5855259299278259,-0.02971683070063591,9.768908500671387,0.002899999963119626,0.010199999436736107,-0.022199999541044235,0.1830000044521087,-0.06099999926066736,0
0.5815611481666565,-0.04545152559876442,9.75571060180664,-0.006000000052154064,0,-0.04189999774098396,0.06099999926066736,0.06099999926066736,-0.06099999926066736
0.6037697792053223,-0.034849997609853745,9.792255401611328,0.011799999512732029,0.004799999762326479,-0.001999999862164259,0.06099999926066736,-0.06099999926066736,-0.1830000044521087
0.5853248238563538,-0.02881661243736744,9.774998664855957,-0.006099999882280827,0.003399999812245369,-0.021699998527765274,-0.06099999926066736,0.06099999926066736,0
0.5937811732292175,-0.059558164328336716,9.797840118408203,0.0024999999441206455,-0.015699999406933784,0.007699999958276749,0,0.24399999704266945,-0.06099999926066736
0.6063267588615417,-0.04238694906234741,9.764033317565918,0.01679999940097332,0.0005999999702908099,-0.031700000166893005,0.06099999926066736,0.06099999926066736,-0.06099999926066736
0.5941929817199707,-0.05260540172457695,9.804600715637207,0.004600000102072954,-0.005699999630451202,0.007599999662488699,0.12199999852133472,0.06099999926066736,-0.12199999852133472
0.5920190215110779,-0.03215891495347023,9.773476600646973,-0.0038999998942017555,0.00969999935477972,-0.021800000220537186,0.06099999926066736,0,-0.06099999926066736
0.591578483581543,-0.02806004323065281,9.770880699157715,-0.0030999998562037945,0.013700000010430813,-0.021900000050663948,0,0.12199999852133472,-0.06099999926066736
0.5715821385383606,-0.03165134787559509,9.772546768188477,-0.016200000420212746,0.002699999837204814,-0.022299999371170998,0,0,-0.06099999926066736
0.5865027904510498,-0.04437892138957977,9.723360061645508,0.002099999925121665,-0.005799999926239252,-0.07119999825954437,0,0.06099999926066736,-0.12199999852133472
0.5863495469093323,-0.03523306921124458,9.785379409790039,0.0010999999940395355,0.002300000051036477,-0.012299999594688416,0.12199999852133472,0.1830000044521087,-0.06099999926066736
0.5831605195999146,-0.06667372584342957,9.789852142333984,-0.0044999998062849045,-0.014999999664723873,-0.002699999837204814,0,0,0
0.5900749564170837,-0.0513029545545578,9.778964042663574,0.0031999999191612005,-0.003499999875202775,-0.012399999424815178,-0.12199999852133472,0.06099999926066736,-0.06099999926066736
0.5785253047943115,-0.051245495676994324,9.778398513793945,-0.004399999976158142,-0.001999999862164259,-0.01249999925494194,0.12199999852133472,-0.06099999926066736,0
0.6096116304397583,-0.03691859170794487,9.772058486938477,0.01719999872148037,0.012199999764561653,-0.021900000050663948,-0.06099999926066736,-0.06099999926066736,0
0.5879489183425903,-0.03817315399646759,9.784192085266113,-0.0024999999441206455,0.012399999424815178,-0.01209999993443489,0,0.06099999926066736,-0.12199999852133472
0.6074376702308655,-0.048851292580366135,9.785944938659668,0.01719999872148037,-0.0071000000461936,-0.01209999993443489,0.06099999926066736,0.06099999926066736,-0.06099999926066736
0.5971426367759705,-0.040394969284534454,9.786720275878906,0.007499999832361937,0.0023999998811632395,-0.01209999993443489,0,0.12199999852133472,-0.06099999926066736
0.6087976098060608,-0.04322970658540726,9.771081924438477,-0.011599999852478504,0.0023999998811632395,-0.021900000050663948,-0.06099999926066736,0.12199999852133472,-0.06099999926066736
0.5989430546760559,-0.041668687015771866,9.785648345947266,0.008299999870359898,0.0024999999441206455,-0.01209999993443489,0,0.06099999926066736,0
0.5864548683166504,-0.060678645968437195,9.782191276550293,-0.0011999999405816197,-0.016899999231100082,-0.012199999764561653,-0.06099999926066736,0.12199999852133472,0.06099999926066736
0.6150895953178406,-0.055344369262456894,9.762682914733887,0.0284000001847744,-0.006899999920278788,-0.03179999813437462,-0.06099999926066736,0.1830000044521087,-0.06099999926066736
0.5762843489646912,-0.04932055622339249,9.778043746948242,0.0284000001847744,-0.006899999920278788,-0.03179999813437462,0.06099999926066736,0.12199999852133472,0
0.5527924299240112,-0.025627534836530685,9.7724609375,-0.03920000046491623,0.022299999371170998,-0.02199999988079071,-0.06099999926066736,0.1830000044521087,0
0.5910230875015259,-0.055296480655670166,9.784719467163086,0.0004999999655410647,-0.006799999624490738,-0.012299999594688416,-0.06099999926066736,0.06099999926066736,-0.12199999852133472
0.5823177695274353,-0.04572925344109535,9.77187728881836,-0.009099999442696571,0.0030999998562037945,-0.022099999710917473,-0.06099999926066736,0.1830000044521087,0.06099999926066736
0.6010786890983582,-0.02687252126634121,9.785944938659668,0.010900000110268593,0.022699998691678047,-0.012299999594688416,-0.06099999926066736,0.06099999926066736,-0.06099999926066736
0.6017682552337646,-0.01324472390115261,9.779519081115723,0.010999999940395355,0.032499998807907104,-0.012299999594688416,0,0,0
0.6099468469619751,-0.015035586431622505,9.757636070251465,0.02070000022649765,0.03240000084042549,-0.04169999808073044,-0.06099999926066736,0,0
0.5878627300262451,-0.03239833936095238,9.77949047088623,0.0010999999940395355,0.012899999506771564,-0.012299999594688416,0.06099999926066736,0.06099999926066736,0.06099999926066736
0.5946334600448608,-0.06313031166791916,9.798720359802246,0.010999999940395355,-0.01640000008046627,0.007199999876320362,-0.06099999926066736,0.12199999852133472,0
0.5705286860466003,-0.006866570562124252,9.789460182189941,-0.017799999564886093,0.03229999914765358,-0.0024999999441206455,0.12199999852133472,0.1830000044521087,0.06099999926066736
0.5913199186325073,-0.010620678775012493,9.77769947052002,0.002199999988079071,0.03179999813437462,-0.022199999541044235,-0.06099999926066736,0.12199999852133472,0.12199999852133472
0.6071599721908569,-0.04186980053782463,9.772327423095703,0.02199999988079071,0.0026000000070780516,-0.022199999541044235,-0.12199999852133472,0.06099999926066736,-0.24399999704266945
0.6007627248764038,-0.026834214106202126,9.799420356750488,0.018400000408291817,0.015699999406933784,0.006799999624490738,0,0.06099999926066736,0
0.5992304086685181,-0.03797203674912453,9.79410457611084,0.0064999996684491634,0.002099999925121665,-0.002300000051036477,0.06099999926066736,0.12199999852133472,0.06099999926066736
0.5849513411521912,-0.04722323641180992,9.769856452941895,-0.0023999998811632395,-0.005399999674409628,-0.021900000050663948,-0.06099999926066736,0,0.06099999926066736
0.5905058979988098,-0.04948335886001587,9.775956153869629,0.00419999985024333,0.014699999243021011,-0.011899999342858791,0,0.06099999926066736,0.06099999926066736
0.5988568663597107,-0.03933194652199745,9.775764465332031,-0.004100000020116568,-0.017400000244379044,-0.021800000220537186,0.06099999926066736,0.06099999926066736,-0.06099999926066736
0.5964818000793457,-0.0457388311624527,9.785955429077148,0.0018999999156221747,-0.0031999999191612005,-0.011799999512732029,0,0.06099999926066736,-0.06099999926066736
0.5805460214614868,-0.03125869855284691,9.765316009521484,-0.013499999418854713,0.004900000058114529,-0.031599998474121094,-0.06099999926066736,0.06099999926066736,0
0.5808620452880859,-0.025033773854374886,9.76636028289795,-0.010300000198185444,0.010900000110268593,-0.03179999813437462,0.06099999926066736,0.06099999926066736,-0.06099999926066736
0.603262186050415,0.009806649759411812,9.780284881591797,0.005200000014156103,0.01209999993443489,-0.012000000104308128,-0.06099999926066736,0.06099999926066736,-0.06099999926066736
0.5837159156799316,-0.042808327823877335,9.793951034545898,-0.007400000002235174,-0.008799999952316284,-0.0026000000070780516,-0.06099999926066736,0,0.06099999926066736
0.5780560374259949,-0.04343082010746002,9.745301246643066,-0.007400000002235174,-0.008599999360740185,-0.05159999802708626,0,0,-0.06099999926066736
0.6064704656600952,-0.03798161819577217,9.786059379577637,0.021900000050663948,0.0010999999940395355,-0.012399999424815178,-0.06099999926066736,0.06099999926066736,-0.12199999852133472
0.5888299345970154,-0.03495534509420395,9.796114921569824,0.0024999999441206455,0.0011999999405816197,-0.0026000000070780516,0,0,0
0.5802204012870789,-0.040557775646448135,9.787994384765625,-0.007199999876320362,-0.008499999530613422,-0.0026000000070780516,0.06099999926066736,0.1830000044521087,0
0.593742847442627,-0.03258029371500015,9.771915435791016,0.003000000026077032,0.0010999999940395355,-0.022299999371170998,0.06099999926066736,0.06099999926066736,0.06099999926066736
0.5778070688247681,-0.07459375262260437,9.768659591674805,-0.0064999996684491634,-0.038100000470876694,-0.022299999371170998,0,-0.06099999926066736,0
0.6020938754081726,-0.05033569782972336,9.788924217224121,0.01269999984651804,-0.018400000408291817,-0.0026000000070780516,0.06099999926066736,0,-0.06099999926066736
0.5998145937919617,-0.03728250786662102,9.780295372009277,0.01269999984651804,0.0008999999845400453,-0.012399999424815178,0.12199999852133472,0.12199999852133472,-0.12199999852133472
0.5958592891693115,-0.058495137840509415,9.760040283203125,0.012999999336898327,-0.028699999675154686,-0.032099999487400055,0,0,-0.06099999926066736
0.5929096937179565,-0.03640144318342209,9.773016929626465,0.0031999999191612005,0.0005999999702908099,-0.022299999371170998,0.06099999926066736,0.06099999926066736,-0.06099999926066736
0.5995272994041443,-0.03214934095740318,9.777326583862305,0.013100000098347664,0.00039999998989515007,-0.022299999371170998,0.12199999852133472,0.06099999926066736,-0.06099999926066736
0.5889353156089783,-0.03824976831674576,9.779767990112305,0.003399999812245369,0.00009999999747378752,-0.01249999925494194,0.06099999926066736,0.06099999926066736,0
0.5732006430625916,-0.05566040053963661,9.775650024414062,-0.01589999906718731,-0.019500000402331352,-0.022299999371170998,0.06099999926066736,0.12199999852133472,0
0.5969893932342529,-0.0502399280667305,9.754111289978027,0.013700000010430813,-0.019600000232458115,-0.04189999774098396,0,0.06099999926066736,-0.12199999852133472
0.5971330404281616,-0.06068822368979454,9.783445358276367,0.013799999840557575,-0.029199998825788498,-0.01249999925494194,0,0.1830000044521087,0
0.5848364233970642,-0.04773080348968506,9.787764549255371,0.0044999998062849045,0.00009999999747378752,-0.01249999925494194,-0.12199999852133472,0.12199999852133472,0.06099999926066736
0.563441812992096,-0.03753150627017021,9.76979923248291,0.004699999932199717,-0.009200000204145908,-0.002699999837204814,0.06099999926066736,0.12199999852133472,0
0.5997762680053711,-0.0629100427031517,9.788138389587402,0.014800000004470348,-0.028699999675154686,-0.00279999990016222,-0.06099999926066736,0.1830000044521087,-0.12199999852133472
0.5995463728904724,-0.030703242868185043,9.781492233276367,0.015199999324977398,0.0007999999797903001,-0.012600000016391277,-0.06099999926066736,0.06099999926066736,-0.12199999852133472
0.6064034104347229,-0.024047361686825752,9.790665626525879,0.024699999019503593,0.010499999858438969,-0.00279999990016222,0,0.1830000044521087,-0.06099999926066736
0.5949304103851318,-0.039255332201719284,9.785006523132324,0.01529999915510416,-0.008899999782443047,-0.012600000016391277,-0.06099999926066736,0.12199999852133472,-0.06099999926066736
0.5967978239059448,-0.03274310380220413,9.789833068847656,0.015399999916553497,0.0009999999310821295,-0.00279999990016222,0.06099999926066736,0.06099999926066736,0
0.6002072095870972,-0.029898790642619133,9.779078483581543,0.015399999916553497,0.0007999999797903001,-0.012600000016391277,-0.06099999926066736,0,-0.12199999852133472
0.5897589325904846,-0.042051758617162704,9.781261444091797,0.005499999970197678,-0.008700000122189522,-0.012600000016391277,-0.06099999926066736,0,-0.06099999926066736
0.580632209777832,-0.05122634023427963,9.793453216552734,-0.004100000020116568,-0.01809999905526638,-0.00279999990016222,0,0.06099999926066736,0
0.6247142553329468,-0.02293645218014717,9.763009071350098,0.04470000043511391,0.01119999960064888,-0.03219999745488167,0.06099999926066736,0,-0.12199999852133472
0.5956103801727295,-0.03071282058954239,9.769904136657715,0.015199999324977398,0.0011999999405816197,-0.02239999920129776,0.06099999926066736,0.06099999926066736,0
0.589720606803894,-0.0373208150267601,9.796038627624512,0.005399999674409628,0.0009999999310821295,-0.00279999990016222,0.12199999852133472,0,0.06099999926066736
0.5719748139381409,-0.05594770610332489,9.801689147949219,-0.013899999670684338,-0.01860000006854534,0.006899999920278788,0.12199999852133472,0.12199999852133472,-0.06099999926066736
0.5979662537574768,-0.055459290742874146,9.740427017211914,0.015599999576807022,-0.018799999728798866,-0.05179999768733978,-0.12199999852133472,0.24399999704266945,-0.06099999926066736
0.5851045846939087,-0.0430094376206398,9.777670860290527,0.013100000098347664,-0.0071000000461936,-0.02279999852180481,0.06099999926066736,0.12199999852133472,-0.06099999926066736
0.5800767540931702,-0.05527732893824577,9.776300430297852,0.00139999995008111,-0.009200000204145908,-0.022699998691678047,-0.06099999926066736,0.06099999926066736,0
0.6012606620788574,-0.03243664652109146,9.768669128417969,0.012399999424815178,0.006399999838322401,-0.022199999541044235,0,0,0
0.598052442073822,-0.023501483723521233,9.783426284790039,0.0066999997943639755,0.009200000204145908,-0.01209999993443489,0,0.06099999926066736,0
0.5878627300262451,-0.038613684475421906,9.770249366760254,-0.002300000051036477,-0.00699999975040555,-0.021900000050663948,0,0.06099999926066736,-0.06099999926066736
0.5896535515785217,-0.02987963706254959,9.786883354187012,-0.0015999999595806003,0.0015999999595806003,-0.012199999764561653,0.12199999852133472,0.06099999926066736,-0.06099999926066736
0.5847981572151184,-0.0592421256005764,9.75441837310791,-0.016200000420212746,-0.013599999248981476,-0.032099999487400055,0.06099999926066736,0.1830000044521087,0
0.5847981572151184,-0.0592421256005764,9.75441837310791,0.002099999925121665,-0.017999999225139618,-0.04179999977350235,0.06099999926066736,0.1830000044521087,0
0.5952751636505127,-0.035434186458587646,9.79512882232666,0.0064999996684491634,0.003399999812245369,-0.002300000051036477,0,-0.06099999926066736,-0.06099999926066736
0.5863878726959229,-0.03769431263208389,9.76940631866455,-0.00279999990016222,0.0024999999441206455,-0.021900000050663948,0,0.12199999852133472,0.06099999926066736
0.5678375959396362,-0.05234682559967041,9.778905868530273,-0.02199999988079071,-0.016999999061226845,-0.01209999993443489,0,0.12199999852133472,0
0.5839170813560486,-0.035798102617263794,9.780677795410156,-0.011899999342858791,0.0024999999441206455,-0.01209999993443489,0.12199999852133472,-0.06099999926066736,0.06099999926066736
0.5819059610366821,-0.05092945694923401,9.800722122192383,-0.012000000104308128,-0.01730000041425228,0.007400000002235174,-0.06099999926066736,0.12199999852133472,-0.12199999852133472
0.6258538961410522,-0.0360279455780983,9.791078567504883,0.03709999844431877,0.002300000051036477,-0.002300000051036477,0,0.06099999926066736,0.06099999926066736
0.6096690893173218,-0.03630567714571953,9.787784576416016,0.017500000074505806,0.002300000051036477,-0.002300000051036477,0.12199999852133472,0.06099999926066736,-0.06099999926066736
0.5791286826133728,-0.040845081210136414,9.768065452575684,-0.011599999852478504,-0.007699999958276749,-0.03179999813437462,-0.12199999852133472,0.12199999852133472,0
0.5886480212211609,-0.028184542432427406,9.798979759216309,-0.001500000013038516,0.012000000104308128,0.0072999997064471245,0,0,0
0.5635471940040588,-0.040797196328639984,9.795618057250977,-0.030700000002980232,-0.007400000002235174,-0.0023999998811632395,0.06099999926066736,0.12199999852133472,0
0.5442882180213928,-0.04952166602015495,9.802311897277832,-0.04969999939203262,-0.01730000041425228,0.0072999997064471245,0.06099999926066736,0.24399999704266945,0.06099999926066736
0.578257143497467,-0.03964798152446747,9.79503345489502,0.0018999999156221747,-0.007499999832361937,-0.0030999998562037945,-0.12199999852133472,0.12199999852133472,-0.06099999926066736
0.5924787521362305,-0.042521022260189056,9.754849433898926,0.007499999832361937,-0.004900000058114529,-0.04209999740123749,0,0.12199999852133472,0
0.5842810273170471,-0.056081779301166534,9.775630950927734,0.00419999985024333,-0.008899999782443047,-0.022299999371170998,-0.06099999926066736,0.1830000044521087,0
0.5664873123168945,-0.06002742424607277,9.7776517868042,-0.010099999606609344,-0.01209999993443489,-0.022599998861551285,-0.06099999926066736,0.06099999926066736,-0.12199999852133472
0.5967212319374084,-0.03888183459639549,9.741795539855957,0.014499999582767487,0.006000000052154064,-0.05169999971985817,0.06099999926066736,0,0.06099999926066736
0.5806992650032043,-0.025838224217295647,9.788607597351074,-0.0023999998811632395,0.011899999342858791,-0.002899999963119626,0.06099999926066736,0,0.06099999926066736
0.5865123867988586,-0.0408833883702755,9.776100158691406,-0.008200000040233135,-0.011399999260902405,-0.012899999506771564,0.06099999926066736,0.06099999926066736,-0.06099999926066736
0.5859856605529785,-0.0573459193110466,9.763909339904785,0.007199999876320362,-0.0011999999405816197,-0.022499999031424522,0,0.12199999852133472,0.12199999852133472
0.5836297869682312,-0.05815994739532471,9.768821716308594,0.004999999888241291,-0.008299999870359898,-0.032099999487400055,0.12199999852133472,-0.06099999926066736,-0.06099999926066736
0.5852386355400085,-0.03725377470254898,9.769147872924805,0.0037999998312443495,0.011399999260902405,-0.022299999371170998,0,0.06099999926066736,0
0.5856887698173523,-0.0376751609146595,9.765412330627441,0.0038999998942017555,0.011399999260902405,-0.032099999487400055,0.06099999926066736,0.12199999852133472,0
0.6050052046775818,-0.035577837377786636,9.767212867736816,0.023799998685717583,0.01119999960064888,-0.032099999487400055,0.12199999852133472,0,0
0.5792340040206909,-0.03983951732516289,9.775429725646973,-0.005499999970197678,0.0009999999310821295,-0.022299999371170998,0.24399999704266945,0.12199999852133472,-0.06099999926066736
0.5992686748504639,-0.04908113554120064,9.790963172912598,0.02149999886751175,-0.013899999670684338,-0.0030999998562037945,0,0,-0.12199999852133472
0.5959646701812744,-0.0514274537563324,9.788924217224121,0.009099999442696571,-0.006000000052154064,-0.0023999998811632395,0,0.12199999852133472,0.06099999926066736
0.5951410531997681,-0.030061595141887665,9.776780128479004,0.006399999838322401,0.009599999524652958,-0.021800000220537186,0,0.06099999926066736,0.06099999926066736
0.5714192986488342,-0.02907518669962883,9.788856506347656,-0.012199999764561653,0.0050999997183680534,-0.002899999963119626,0,0.1830000044521087,0
0.6085869073867798,-0.058715399354696274,9.777641296386719,0.019299998879432678,-0.01730000041425228,-0.02199999988079071,-0.06099999926066736,0.24399999704266945,-0.06099999926066736
0.5853440165519714,-0.03883394971489906,9.787832260131836,0.0066999997943639755,-0.0010999999940395355,-0.00279999990016222,0,0.12199999852133472,0.06099999926066736
0.5900174975395203,-0.03460100293159485,9.756036758422852,0.004999999888241291,0.006799999624490738,-0.041999999433755875,-0.06099999926066736,0.06099999926066736,-0.06099999926066736
0.6091710925102234,-0.042310334742069244,9.76384162902832,0.01730000041425228,-0.0018999999156221747,-0.031700000166893005,0.1830000044521087,0.24399999704266945,-0.06099999926066736
0.6074090003967285,-0.03241749107837677,9.788761138916016,0.02589999884366989,0.0050999997183680534,-0.00279999990016222,0.06099999926066736,-0.06099999926066736,-0.06099999926066736
0.5756139755249023,-0.04932055622339249,9.762616157531738,-0.0030999998562037945,-0.010699999518692493,-0.03219999745488167,0,-0.06099999926066736,0.06099999926066736
0.5919424295425415,-0.03817315399646759,9.785313606262207,0.003599999938160181,0.0052999998442828655,-0.01249999925494194,0,0.1830000044521087,0
0.604459285736084,-0.036219481378793716,9.773581504821777,0.01589999906718731,0.003599999938160181,-0.021800000220537186,0,0.12199999852133472,0.12199999852133472
0.6048040986061096,-0.05661807954311371,9.786720275878906,0.009599999524652958,-0.009599999524652958,-0.011599999852478504,0.12199999852133472,0.06099999926066736,0
0.6037027835845947,-0.031574733555316925,9.78171157836914,0.005799999926239252,0.006000000052154064,-0.011399999260902405,-0.06099999926066736,-0.06099999926066736,0.06099999926066736
0.5962998867034912,-0.047596730291843414,9.772451400756836,0.0032999999821186066,-0.008299999870359898,-0.011299999430775642,0,0.12199999852133472,-0.06099999926066736
0.6007627248764038,-0.049205634742975235,9.73658561706543,0.0058999997563660145,-0.001500000013038516,-0.021800000220537186,0,0.06099999926066736,-0.06099999926066736
0.5951027870178223,-0.04837245121598244,9.776924133300781,0.002699999837204814,-0.006199999712407589,-0.02159999869763851,0,0.1830000044521087,-0.06099999926066736
0.5866464972496033,-0.02113601379096508,9.79187297821045,-0.0032999999821186066,0.011500000022351742,-0.002300000051036477,-0.06099999926066736,-0.12199999852133472,0
0.5897301435470581,-0.050345271825790405,9.783369064331055,-0.0026000000070780516,-0.011599999852478504,-0.01209999993443489,0,0.06099999926066736,0
0.6013947129249573,-0.01599326729774475,9.779088020324707,0.004399999976158142,0.01769999973475933,-0.012000000104308128,0.12199999852133472,0,-0.06099999926066736
0.5948824882507324,-0.020082563161849976,9.774807929992676,0.002699999837204814,0.005399999674409628,-0.021699998527765274,0.06099999926066736,0.1830000044521087,-0.12199999852133472
0.5807567238807678,-0.04768292233347893,9.816370964050293,-0.010499999858438969,-0.009499999694526196,0.017099998891353607,0,-0.12199999852133472,-0.06099999926066736
0.5967308282852173,-0.05205952003598213,9.78450870513916,0.0050999997183680534,-0.012000000104308128,-0.012000000104308128,-0.06099999926066736,0.1830000044521087,-0.06099999926066736
0.5963669419288635,-0.06154056265950203,9.78249740600586,0.0032999999821186066,-0.013700000010430813,-0.011799999512732029,0,0.06099999926066736,0
0.5885809659957886,-0.05428134277462959,9.759129524230957,-0.005200000014156103,-0.002899999963119626,-0.03150000050663948,0,0.06099999926066736,0
0.6118813753128052,-0.041553765535354614,9.775678634643555,0.014499999582767487,0.006799999624490738,-0.021699998527765274,0,0,-0.06099999926066736
0.5832563042640686,-0.030559591948986053,9.769424438476562,-0.014800000004470348,0.016599999740719795,-0.021699998527765274,0.06099999926066736,0,0
0.5880925059318542,-0.021547814831137657,9.788932800292969,-0.004999999888241291,0.026200000196695328,-0.002099999925121665,0,0.06099999926066736,-0.12199999852133472
0.5974586606025696,-0.032503679394721985,9.801918983459473,0.004900000058114529,0.016300000250339508,0.007599999662488699,-0.06099999926066736,0,0
0.5711416006088257,-0.04156334325671196,9.78553295135498,-0.024399999529123306,0.006599999964237213,-0.011899999342858791,0,0.12199999852133472,0
0.5654816627502441,-0.0588877871632576,9.80161190032959,-0.024000000208616257,-0.012799999676644802,0.007599999662488699,0.06099999926066736,-0.06099999926066736,-0.24399999704266945
0.564073920249939,-0.04518337547779083,9.780888557434082,-0.018299998715519905,-0.0023999998811632395,-0.012899999506771564,0,0,0
0.5869624614715576,-0.02457408793270588,9.792879104614258,0.004399999976158142,0.0071000000461936,-0.002699999837204814,0.12199999852133472,0,-0.06099999926066736
0.5716779232025146,-0.04056735336780548,9.775870323181152,-0.011099999770522118,-0.008999999612569809,-0.022599998861551285,0.06099999926066736,0.1830000044521087,-0.06099999926066736
0.592756450176239,-0.02267787978053093,9.792102813720703,0.01899999938905239,-0.012899999506771564,-0.02199999988079071,0.06099999926066736,0.06099999926066736,-0.06099999926066736
0.5943174958229065,-0.015255853533744812,9.768381118774414,-0.00019999999494757503,0.008299999870359898,-0.0023999998811632395,0.06099999926066736,-0.06099999926066736,0
0.5969893932342529,-0.039705440402030945,9.757521629333496,0.0044999998062849045,-0.012999999336898327,-0.0414000004529953,-0.06099999926066736,0.06099999926066736,0
0.5620627999305725,-0.03430412337183952,9.797591209411621,-0.018400000408291817,-0.0015999999595806003,0.006599999964237213,0,-0.06099999926066736,0
0.5877956748008728,-0.040222588926553726,9.76058578491211,0.007699999958276749,-0.008599999360740185,-0.03229999914765358,-0.06099999926066736,0.06099999926066736,0
0.5949304103851318,-0.039896976202726364,9.794554710388184,0.008599999360740185,-0.004100000020116568,-0.0023999998811632395,0.06099999926066736,0.06099999926066736,0.06099999926066736
0.5846544504165649,-0.036478057503700256,9.76810359954834,-0.0011999999405816197,0.00419999985024333,-0.03179999813437462,0.06099999926066736,0.12199999852133472,-0.12199999852133472
0.5874891877174377,-0.06546705216169357,9.790043830871582,-0.0007999999797903001,-0.025299999862909317,-0.0023999998811632395,-0.06099999926066736,-0.06099999926066736,-0.06099999926066736
0.5665063858032227,-0.03644932433962822,9.776761054992676,-0.020600000396370888,0.00419999985024333,-0.02199999988079071,-0.06099999926066736,0,0
0.5792436003684998,-0.02891238033771515,9.779461860656738,-0.010799999348819256,0.004399999976158142,-0.012199999764561653,-0.06099999926066736,0.24399999704266945,-0.12199999852133472
0.5870199799537659,-0.05337154492735863,9.757185935974121,0.010900000110268593,-0.016599999740719795,-0.04230000078678131,0,0.12199999852133472,-0.06099999926066736
0.5855355262756348,-0.03263775631785393,9.76663875579834,0.0071000000461936,0.001999999862164259,-0.03229999914765358,0,0.06099999926066736,0
0.6039708852767944,-0.025196578353643417,9.737908363342285,0.020499998703598976,0.009399999864399433,-0.061400000005960464,0.06099999926066736,-0.12199999852133472,0.06099999926066736
0.5645336508750916,-0.040912117809057236,9.7865571975708,-0.017099998891353607,-0.006000000052154064,-0.012999999336898327,0,0.06099999926066736,-0.06099999926066736
0.5974682569503784,-0.025953145697712898,9.780237197875977,0.013100000098347664,0.008200000040233135,-0.01249999925494194,0,0.06099999926066736,-0.12199999852133472
0.5711607933044434,-0.023731326684355736,9.786194801330566,-0.010499999858438969,0.005200000014156103,-0.012799999676644802,0,0.06099999926066736,-0.06099999926066736
0.5813025832176208,-0.027341783046722412,9.770009994506836,-0.0007999999797903001,0.003700000001117587,-0.022599998861551285,0,0.06099999926066736,0
0.5783337950706482,-0.04133350029587746,9.791011810302734,-0.00039999998989515007,-0.008299999870359898,-0.003000000026077032,0.06099999926066736,0.12199999852133472,-0.06099999926066736
0.5733059644699097,-0.02645113877952099,9.803997039794922,0.0052999998442828655,-0.010300000198185444,-0.00279999990016222,0.06099999926066736,0,-0.06099999926066736
0.5920382142066956,-0.034725502133369446,9.774375915527344,0.007599999662488699,0.001500000013038516,-0.022499999031424522,0.06099999926066736,0,-0.06099999926066736
0.5755948424339294,-0.03691859170794487,9.768372535705566,0.007599999662488699,0.001500000013038516,-0.022499999031424522,0,0.06099999926066736,0.06099999926066736
0.5976789593696594,-0.04616978392004967,9.789775848388672,0.017500000074505806,-0.00839999970048666,-0.002899999963119626,-0.06099999926066736,0,-0.06099999926066736
0.5999677777290344,-0.03527137637138367,9.776272773742676,0.017500000074505806,-0.00839999970048666,-0.002899999963119626,0,0.12199999852133472,-0.06099999926066736
0.5992304086685181,-0.02810792811214924,9.784767150878906,0.017799999564886093,0.011299999430775642,-0.01269999984651804,0.06099999926066736,0,-0.06099999926066736
0.5762077569961548,-0.06026684492826462,9.795971870422363,-0.0016999999061226845,-0.027899999171495438,-0.002899999963119626,-0.12199999852133472,0.12199999852133472,-0.06099999926066736
0.582700788974762,-0.04196557030081749,9.775956153869629,-0.00139999995008111,-0.007899999618530273,-0.022599998861551285,0.12199999852133472,0.12199999852133472,-0.06099999926066736
0.574876606464386,-0.029352912679314613,9.772700309753418,-0.0010999999940395355,0.00139999995008111,-0.022599998861551285,0.06099999926066736,0.12199999852133472,-0.06099999926066736
0.5910804867744446,-0.0754939615726471,9.794210433959961,0.008999999612569809,-0.037699997425079346,-0.003000000026077032,-0.12199999852133472,0.06099999926066736,-0.12199999852133472
0.6098702549934387,-0.03940856084227562,9.767882347106934,0.028699999675154686,-0.007899999618530273,-0.03240000084042549,0,0.06099999926066736,-0.12199999852133472
0.5921913981437683,-0.025416845455765724,9.788463592529297,0.009099999442696571,0.011500000022351742,-0.003000000026077032,0,0,-0.06099999926066736
0.5883224010467529,-0.07665276527404785,9.778034210205078,0.009099999442696571,-0.04699999839067459,-0.012799999676644802,0,0,0
0.5641313791275024,-0.03511814773082733,9.780582427978516,-0.020099999383091927,0.0018999999156221747,-0.012799999676644802,-0.06099999926066736,0.12199999852133472,0
0.5943078994750977,-0.05277778208255768,9.814638137817383,0.019299998879432678,-0.017400000244379044,0.016499999910593033,-0.06099999926066736,0.06099999926066736,0.12199999852133472
0.5664968490600586,-0.030837317928671837,9.776052474975586,-0.00989999994635582,0.002300000051036477,-0.022599998861551285,-0.12199999852133472,0,0
0.6042965054512024,-0.04161122441291809,9.778800964355469,0.029099998995661736,-0.00699999975040555,-0.012799999676644802,0,0.06099999926066736,-0.06099999926066736
0.5896727442741394,-0.025838224217295647,9.802024841308594,0.009599999524652958,0.012399999424815178,0.0066999997943639755,0,0,-0.12199999852133472
0.5791286826133728,-0.032570719718933105,9.77828311920166,-0.00009999999747378752,0.0024999999441206455,-0.012799999676644802,0,0,-0.06099999926066736
0.5823943614959717,-0.026125527918338776,9.78996753692627,-0.00009999999747378752,0.012199999764561653,-0.003000000026077032,0,0,-0.06099999926066736
0.578161358833313,-0.0351947620511055,9.790254592895508,-0.00009999999747378752,0.0023999998811632395,-0.003000000026077032,-0.06099999926066736,0.12199999852133472,0
0.5926607251167297,-0.050651729106903076,9.798873901367188,0.009800000116229057,-0.01679999940097332,0.0066999997943639755,-0.06099999926066736,0.12199999852133472,0
0.5853631496429443,-0.0392170213162899,9.787802696228027,0.010099999606609344,0.00279999990016222,-0.012899999506771564,0,0.06099999926066736,-0.06099999926066736
0.5853631496429443,-0.0392170213162899,9.787802696228027,0.010099999606609344,-0.006599999964237213,-0.003000000026077032,0,0.06099999926066736,-0.06099999926066736
0.5771079659461975,-0.04358404874801636,9.806832313537598,0.019899999722838402,0.012799999676644802,-0.012899999506771564,0,0,-0.06099999926066736
0.5993356704711914,-0.03164177015423775,9.796326637268066,0.019600000232458115,0.0031999999191612005,-0.003000000026077032,-0.06099999926066736,0.12199999852133472,-0.1830000044521087
0.6053595542907715,-0.033633746206760406,9.760126113891602,0.029600000008940697,0.003399999812245369,-0.032499998807907104,-0.06099999926066736,0.12199999852133472,-0.06099999926066736
0.6016054153442383,-0.02653733268380165,9.764062881469727,0.019999999552965164,0.013299999758601189,-0.032499998807907104,0,0.1830000044521087,-0.06099999926066736
0.5976214408874512,-0.020484788343310356,9.759628295898438,0.020399998873472214,0.013199999928474426,-0.032499998807907104,0.06099999926066736,0.12199999852133472,-0.06099999926066736
0.5638919472694397,-0.025819070637226105,9.786615371704102,-0.018199998885393143,0.012899999506771564,-0.012899999506771564,0,0,-0.06099999926066736
0.6008201241493225,-0.030530860647559166,9.810739517211914,0.02070000022649765,0.003000000026077032,0.01640000008046627,0.06099999926066736,0.12199999852133472,0
0.5682685375213623,-0.03611414134502411,9.792695999145508,-0.008100000210106373,0.00279999990016222,-0.0030999998562037945,-0.06099999926066736,0.06099999926066736,-0.06099999926066736
0.5865602493286133,-0.046150632202625275,9.815929412841797,0.011399999260902405,-0.0066999997943639755,0.01640000008046627,0.06099999926066736,0.06099999926066736,-0.06099999926066736
0.597745954990387,-0.06132987141609192,9.783034324645996,0.021199999377131462,-0.026200000196695328,-0.012899999506771564,0,0.06099999926066736,0
0.5678471922874451,-0.0322355292737484,9.772422790527344,-0.007899999618530273,0.0030999998562037945,-0.022699998691678047,0,0.06099999926066736,0
0.587661623954773,-0.025081656873226166,9.759034156799316,0.011699999682605267,0.012799999676644802,-0.032600000500679016,0.06099999926066736,0,0
0.5851045846939087,-0.0521361343562603,9.795780181884766,0.011500000022351742,-0.01640000008046627,-0.0030999998562037945,-0.06099999926066736,0.1830000044521087,0
0.6013851165771484,-0.04588248208165169,9.827977180480957,0.02159999869763851,-0.006300000008195639,0.026200000196695328,0,0,0
0.5871348977088928,-0.04026089608669281,9.764196395874023,0.011699999682605267,-0.006300000008195639,-0.032600000500679016,0.12199999852133472,0.06099999926066736,-0.06099999926066736
0.5765716433525085,-0.03689943626523018,9.767289161682129,0.001999999862164259,0.0030999998562037945,-0.032600000500679016,-0.06099999926066736,0,0
0.5749627947807312,-0.008101978339254856,9.768659591674805,0.001999999862164259,0.022599998861551285,-0.02279999852180481,0,0.12199999852133472,-0.12199999852133472
0.5733921527862549,-0.014030021615326405,9.787583351135254,-0.007199999876320362,0.022199999541044235,-0.0031999999191612005,-0.06099999926066736,0.06099999926066736,0
0.5874221920967102,-0.007134721148759127,9.774654388427734,-0.00699999975040555,0.022199999541044235,-0.02279999852180481,0.06099999926066736,0.12199999852133472,-0.12199999852133472
0.5693220496177673,-0.03142150491476059,9.777200698852539,0.01269999984651804,0.021800000220537186,-0.02279999852180481,0.06099999926066736,0,0
0.5683164596557617,-0.03727293387055397,9.791078567504883,-0.006599999964237213,0.002099999925121665,-0.02279999852180481,0,0.12199999852133472,-0.06099999926066736
0.5986844897270203,-0.019565416499972343,9.791460990905762,0.022699998691678047,0.011500000022351742,-0.0031999999191612005,0.06099999926066736,0.12199999852133472,-0.06099999926066736
0.5830647349357605,-0.0340072400867939,9.790063858032227,0.0032999999821186066,0.001500000013038516,-0.0031999999191612005,0,0.12199999852133472,0
0.6018161177635193,-0.04921520873904228,9.793787956237793,0.022699998691678047,-0.01759999990463257,-0.0031999999191612005,0,0.12199999852133472,0
0.5557038187980652,-0.03703351318836212,9.759599685668945,-0.01599999889731407,0.0018999999156221747,-0.03269999846816063,0.06099999926066736,0.1830000044521087,0
0.5803545117378235,-0.04026089608669281,9.786787986755371,0.003999999724328518,-0.007899999618530273,-0.013100000098347664,0.12199999852133472,0.1830000044521087,0
0.5949399471282959,-0.036382291465997696,9.788262367248535,0.023499999195337296,0.00139999995008111,-0.0032999999821186066,0,0.06099999926066736,0.06099999926066736
0.5999965071678162,-0.05193502455949783,9.78913402557373,0.02319999970495701,-0.01769999973475933,-0.0031999999191612005,-0.06099999926066736,0.06099999926066736,-0.06099999926066736
0.5983397364616394,-0.03928406164050102,9.784700393676758,0.023000000044703484,-0.007599999662488699,-0.012999999336898327,0,0.12199999852133472,0
0.5876424312591553,-0.03616202250123024,9.793731689453125,0.013199999928474426,0.002099999925121665,-0.0031999999191612005,0,0.12199999852133472,-0.06099999926066736
0.6093147397041321,-0.04820007085800171,9.805558204650879,0.032600000500679016,-0.017099998891353607,0.0064999996684491634,0,0,0
0.5678089261054993,-0.0338827446103096,9.799592018127441,-0.006399999838322401,0.002300000051036477,0.0064999996684491634,0.12199999852133472,0,-0.06099999926066736
0.5678279995918274,-0.025483882054686546,9.77721118927002,-0.006399999838322401,0.011699999682605267,-0.02279999852180481,0.06099999926066736,0.1830000044521087,0
0.5774431228637695,-0.05422388017177582,9.788999557495117,0.0037999998312443495,-0.017400000244379044,-0.0032999999821186066,0,0.06099999926066736,0
0.5862346887588501,-0.04112280532717705,9.775525093078613,0.013599999248981476,-0.007499999832361937,-0.02290000021457672,0.06099999926066736,0.1830000044521087,-0.12199999852133472
0.5578298568725586,-0.03803907707333565,9.764578819274902,-0.015099999494850636,0.001999999862164259,-0.03269999846816063,0,0.06099999926066736,-0.06099999926066736
0.6016916036605835,-0.02682463638484478,9.794161796569824,0.023599999025464058,0.011500000022351742,-0.0032999999821186066,0.06099999926066736,0.12199999852133472,-0.06099999926066736
0.556920051574707,-0.030253130942583084,9.776350021362305,-0.015099999494850636,0.001500000013038516,-0.02290000021457672,-0.06099999926066736,0,-0.06099999926066736
0.5794830322265625,-0.0431339368224144,9.788932800292969,0.004299999680370092,-0.007899999618530273,-0.0032999999821186066,0,0.06099999926066736,-0.06099999926066736
0.5819442272186279,-0.02362598292529583,9.779155731201172,0.03350000083446503,-0.017500000074505806,-0.02290000021457672,0,0.12199999852133472,0
0.5969415307044983,-0.043028589338064194,9.785475730895996,0.004299999680370092,0.011699999682605267,-0.013100000098347664,0.12199999852133472,0.24399999704266945,0
0.6115652918815613,-0.03630567714571953,9.810873031616211,0.023899998515844345,-0.007899999618530273,-0.013100000098347664,0,0,0
0.5953996777534485,-0.04352658987045288,9.781807899475098,0.049300000071525574,0.0004999999655410647,0.01529999915510416,0,0.06099999926066736,-0.06099999926066736
0.594595193862915,-0.04736688733100891,9.753469467163086,0.012399999424815178,-0.003000000026077032,-0.04179999977350235,0,0.06099999926066736,0
0.5729995369911194,-0.04308605194091797,9.77397346496582,-0.011500000022351742,-0.0018999999156221747,-0.022499999031424522,-0.1830000044521087,0.06099999926066736,-0.06099999926066736
0.6019885540008545,-0.04822879657149315,9.7865571975708,0.010400000028312206,-0.006599999964237213,-0.012299999594688416,0.12199999852133472,0,-0.06099999926066736
0.5894524455070496,-0.036458905786275864,9.790762901306152,0.00019999999494757503,0.0064999996684491634,-0.0024999999441206455,0.06099999926066736,0,0
0.6000826954841614,-0.041343074291944504,9.79671859741211,0.005499999970197678,-0.0017999999690800905,-0.002199999988079071,0,0.1830000044521087,0
0.5903622508049011,-0.03439031168818474,9.770066261291504,-0.0030999998562037945,0.005799999926239252,-0.021900000050663948,-0.06099999926066736,0.12199999852133472,0
0.5878435373306274,-0.03007117286324501,9.775009155273438,-0.002300000051036477,0.004299999680370092,-0.021900000050663948,0.06099999926066736,0,0
0.5702796578407288,-0.03826892003417015,9.761887550354004,-0.016899999231100082,0.0030999998562037945,-0.03199999779462814,0,0.1830000044521087,0
0.5693028569221497,-0.039580944925546646,9.76645565032959,-0.01249999925494194,-0.004799999762326479,-0.03229999914765358,0,0.12199999852133472,-0.06099999926066736
0.5485690832138062,-0.03646847978234291,9.773581504821777,-0.031700000166893005,0.004900000058114529,-0.022499999031424522,0.06099999926066736,0,0
0.574579656124115,-0.03746446967124939,9.794889450073242,-0.01209999993443489,0.004699999932199717,-0.002899999963119626,-0.06099999926066736,0.1830000044521087,-0.12199999852133472
0.5662861466407776,-0.04296155646443367,9.780016899108887,-0.011599999852478504,-0.004900000058114529,-0.01269999984651804,0,0.12199999852133472,0
0.5823177695274353,-0.05893566831946373,9.786605834960938,-0.00139999995008111,-0.024399999529123306,-0.01269999984651804,0,-0.06099999926066736,-0.12199999852133472
0.5772133469581604,-0.03122996725142002,9.769214630126953,-0.0015999999595806003,0.004900000058114529,-0.022499999031424522,0,0,0
0.6017299294471741,-0.020015526562929153,9.777364730834961,0.017899999395012856,0.014599999412894249,-0.022499999031424522,0.12199999852133472,0.12199999852133472,0
0.6015192270278931,-0.04791276529431343,9.7942476272583,0.01809999905526638,-0.01489999983459711,-0.002899999963119626,0,0.06099999926066736,0
0.5742157697677612,-0.032072726637125015,9.78378963470459,-0.010999999940395355,0.004600000102072954,-0.012799999676644802,0,0.1830000044521087,0
0.582049548625946,-0.03283886983990669,9.806371688842773,-0.010499999858438969,0.004600000102072954,-0.012799999676644802,0,-0.06099999926066736,0
0.5903909802436829,-0.05381207540631294,9.783502578735352,-0.00029999998514540493,0.004399999976158142,0.0066999997943639755,0,0.1830000044521087,0
0.5895290374755859,-0.053208738565444946,9.76717472076416,0.009599999524652958,-0.014999999664723873,-0.03240000084042549,-0.12199999852133472,0.12199999852133472,-0.06099999926066736
0.5997188091278076,-0.014729129150509834,9.811323165893555,0.019600000232458115,0.024299999698996544,0.016499999910593033,0,0.12199999852133472,0
0.565701961517334,-0.05632119998335838,9.777200698852539,-0.00930000003427267,-0.014699999243021011,-0.022699998691678047,0.06099999926066736,0.1830000044521087,0.06099999926066736
0.5803161859512329,-0.03933194652199745,9.774711608886719,0.0008999999845400453,-0.0050999997183680534,-0.022699998691678047,-0.06099999926066736,0,0
0.5678471922874451,-0.0510731115937233,9.805242538452148,-0.008700000122189522,-0.014599999412894249,0.006599999964237213,-0.06099999926066736,0.24399999704266945,0
0.5683547258377075,-0.05792052671313286,9.786826133728027,0.010999999940395355,-0.027499999850988388,-0.0139999995008111,0.06099999926066736,0.06099999926066736,0
0.5891843438148499,-0.031038431450724602,9.755672454833984,0.019700000062584877,0.0010999999940395355,-0.042799998074769974,-0.06099999926066736,-0.12199999852133472,-0.12199999852133472
0.5896056890487671,-0.02992752008140087,9.777804374694824,0.011099999770522118,0.0007999999797903001,-0.022699998691678047,-0.06099999926066736,0,-0.06099999926066736
0.5886096954345703,-0.06625235080718994,9.796517372131348,0.004900000058114529,-0.012799999676644802,-0.002699999837204814,0,0,0
0.6016820669174194,-0.03978205472230911,9.810154914855957,0.010499999858438969,0.004600000102072954,0.017099998891353607,0,0,-0.06099999926066736
0.5642942190170288,-0.027648240327835083,9.78996753692627,-0.015699999406933784,0.013199999928474426,-0.0031999999191612005,0.06099999926066736,0.06099999926066736,0
0.5790807604789734,-0.046437934041023254,9.776128768920898,0.0024999999441206455,-0.004699999932199717,-0.02279999852180481,0.06099999926066736,0.1830000044521087,-0.06099999926066736
0.5769834518432617,-0.028088774532079697,9.808249473571777,0.002300000051036477,0.009800000116229057,0.016300000250339508,0.12199999852133472,0.12199999852133472,0
0.575661838054657,-0.06532340496778488,9.774998664855957,0.001500000013038516,-0.020800000056624413,-0.022699998691678047,-0.06099999926066736,0.06099999926066736,0
0.5946143865585327,-0.00839885976165533,9.797475814819336,0.01249999925494194,0.01640000008046627,0.0071000000461936,-0.12199999852133472,0.12199999852133472,-0.1830000044521087
0.5917987823486328,-0.018828002735972404,9.792936325073242,0.0142000000923872,0.017999999225139618,-0.0032999999821186066,0,0.24399999704266945,0.06099999926066736
0.5849896669387817,-0.03765600547194481,9.809446334838867,0.022299999371170998,-0.000699999975040555,0.015799999237060547,-0.06099999926066736,0,-0.12199999852133472
0.5735645294189453,-0.016558298841118813,9.787859916687012,0.0013000000035390258,0.010300000198185444,-0.003700000001117587,-0.12199999852133472,0.06099999926066736,0.06099999926066736
0.5621585845947266,-0.01674983650445938,9.80646800994873,0.011299999430775642,-0.018699999898672104,-0.013499999418854713,-0.06099999926066736,-0.06099999926066736,0
0.5739763379096985,-0.04949294030666351,9.819847106933594,-0.007999999448657036,0.010799999348819256,0.006000000052154064,0,0.06099999926066736,0.06099999926066736
0.5457247495651245,-0.05481764301657677,9.800492286682129,-0.027699999511241913,-0.028099998831748962,0.006000000052154064,0.06099999926066736,0.06099999926066736,0
0.5934268236160278,-0.04305732250213623,9.768697738647461,0.02149999886751175,-0.01850000023841858,-0.02329999953508377,0,0.12199999852133472,0
0.5890023112297058,-0.0423007532954216,9.793042182922363,0.021800000220537186,-0.01850000023841858,-0.003700000001117587,0.12199999852133472,0.06099999926066736,-0.06099999926066736
0.6050435304641724,-0.034064702689647675,9.7979736328125,0.04149999842047691,-0.008999999612569809,0.006000000052154064,-0.12199999852133472,0.06099999926066736,0
0.5904963612556458,-0.04305732250213623,9.783186912536621,0.022099999710917473,-0.01850000023841858,-0.013599999248981476,0,0.06099999926066736,-0.06099999926066736
0.592536211013794,-0.004012682009488344,9.798643112182617,0.022199999541044235,0.010799999348819256,0.0058999997563660145,-0.06099999926066736,0.24399999704266945,0
0.5986078977584839,-0.05511452630162239,9.776291847229004,0.03269999846816063,-0.028199998661875725,-0.023399999365210533,0.06099999926066736,0.06099999926066736,-0.06099999926066736
0.6056276559829712,-0.03460100293159485,9.80969524383545,0.04270000010728836,-0.008700000122189522,0.015699999406933784,0,0.06099999926066736,-0.06099999926066736
0.5833424925804138,-0.02893153391778469,9.77197265625,0.013399999588727951,-0.008700000122189522,-0.023399999365210533,-0.12199999852133472,0.1830000044521087,-0.1830000044521087
0.5821453332901001,-0.062124744057655334,9.793998718261719,0.013899999670684338,-0.03779999911785126,-0.0038999998942017555,0.12199999852133472,0.1830000044521087,0
0.6036069989204407,-0.029659369960427284,9.782631874084473,0.043800000101327896,-0.008700000122189522,-0.013700000010430813,0,0.12199999852133472,0
0.588207483291626,-0.050393156707286835,9.794746398925781,0.02449999935925007,-0.028299998492002487,-0.0038999998942017555,-0.06099999926066736,0,-0.06099999926066736
0.5826816558837891,-0.05490383133292198,9.79104995727539,0.014699999243021011,-0.028099998831748962,-0.0038999998942017555,0,-0.06099999926066736,0
0.5960125923156738,-0.03910209983587265,9.787994384765625,0.0340999998152256,-0.018299998715519905,-0.0038999998942017555,0,0.12199999852133472,0.06099999926066736
0.6050339341163635,-0.055009178817272186,9.781012535095215,0.044199999421834946,-0.0279999990016222,-0.013700000010430813,0,0,0
0.5985408425331116,-0.051082685589790344,9.799266815185547,0.034299999475479126,-0.0279999990016222,0.005799999926239252,0,0.12199999852133472,0
0.5838596224784851,-0.04516422376036644,9.788454055786133,0.014999999664723873,-0.018199998885393143,-0.0038999998942017555,0,0.12199999852133472,-0.06099999926066736
0.5980141162872314,-0.038048651069402695,9.774519920349121,0.0348999984562397,-0.00839999970048666,-0.023499999195337296,0.06099999926066736,0,0
0.5941355228424072,-0.03301125392317772,9.792745590209961,0.025100000202655792,-0.018299998715519905,0.015599999576807022,-0.12199999852133472,0.12199999852133472,0
0.592545747756958,-0.042951975017786026,9.780582427978516,0.03519999980926514,-0.008200000040233135,-0.0038999998942017555,0,0.1830000044521087,0
0.5781901478767395,-0.0334039032459259,9.766168594360352,0.016099998727440834,-0.007999999448657036,-0.033399999141693115,0,0.06099999926066736,-0.06099999926066736
0.5850375294685364,-0.023396139964461327,9.804781913757324,0.025699999183416367,0.0016999999061226845,0.005699999630451202,-0.06099999926066736,0.12199999852133472,0.06099999926066736
0.5817718505859375,-0.020867861807346344,9.788846969604492,0.01599999889731407,0.0017999999690800905,-0.003999999724328518,-0.06099999926066736,0,-0.06099999926066736
0.5971043109893799,-0.02981259860098362,9.77169418334961,0.03529999777674675,-0.007699999958276749,-0.023599999025464058,0.06099999926066736,0.06099999926066736,0
0.579540491104126,-0.057096924632787704,9.761476516723633,0.015799999237060547,-0.027300000190734863,-0.033399999141693115,0,0.12199999852133472,-0.12199999852133472
0.5952942967414856,-0.0438426211476326,9.759024620056152,0.035499997437000275,-0.017400000244379044,-0.033399999141693115,-0.06099999926066736,0.12199999852133472,0
0.6033675670623779,-0.028998570516705513,9.795052528381348,0.04479999840259552,-0.0072999997064471245,-0.0038999998942017555,0,0,0
0.5908506512641907,-0.045106757432222366,9.772825241088867,0.02499999850988388,-0.016999999061226845,-0.023499999195337296,0.06099999926066736,0,-0.06099999926066736
0.6017203330993652,-0.02563711255788803,9.770172119140625,0.03449999913573265,0.0023999998811632395,-0.023499999195337296,0.06099999926066736,0.1830000044521087,-0.06099999926066736
0.5863208770751953,-0.0539078451693058,9.783608436584473,0.024899998679757118,-0.026799999177455902,-0.013700000010430813,0,0.06099999926066736,0
0.5747041702270508,-0.054396264255046844,9.770191192626953,0.015099999494850636,-0.026599999517202377,-0.023499999195337296,-0.06099999926066736,0.06099999926066736,-0.06099999926066736
0.5866177082061768,-0.04476199299097061,9.777192115783691,0.024899998679757118,-0.016499999910593033,-0.023499999195337296,0.06099999926066736,0.1830000044521087,0
0.5656349658966064,-0.04504929855465889,9.785207748413086,0.005699999630451202,-0.016499999910593033,-0.013700000010430813,0.06099999926066736,0.12199999852133472,0
0.5824709534645081,-0.039820361882448196,9.813191413879395,0.015699999406933784,-0.01640000008046627,0.015599999576807022,-0.06099999926066736,0,-0.12199999852133472
0.5735549330711365,-0.040394969284534454,9.794401168823242,0.005699999630451202,-0.01599999889731407,-0.0038999998942017555,0,0.12199999852133472,-0.06099999926066736
0.5788509249687195,-0.05466441437602043,9.773140907287598,0.015699999406933784,-0.025499999523162842,-0.023599999025464058,0,0.12199999852133472,-0.06099999926066736
0.6276447772979736,-0.03303040564060211,9.809188842773438,0.06439999490976334,-0.0058999997563660145,0.015599999576807022,0.06099999926066736,0.24399999704266945,0
0.5982152223587036,-0.036506786942481995,9.776664733886719,0.0357000008225441,-0.006000000052154064,-0.023599999025464058,0,0.06099999926066736,-0.06099999926066736
0.5739858746528625,-0.04978981614112854,9.775975227355957,0.025999998673796654,-0.015799999237060547,-0.033399999141693115,-0.06099999926066736,0.06099999926066736,0
0.5880542397499084,-0.04287536069750786,9.774070739746094,0.006599999964237213,-0.025599999353289604,-0.023599999025464058,0.1830000044521087,0.12199999852133472,-0.12199999852133472
0.5875083804130554,-0.03218764811754227,9.783072471618652,0.02669999934732914,-0.006300000008195639,-0.013799999840557575,0,0.12199999852133472,-0.12199999852133472
0.5986270308494568,-0.04639962688088417,9.799572944641113,0.03669999912381172,-0.016099998727440834,0.005699999630451202,-0.06099999926066736,0,-0.06099999926066736
0.5987898707389832,-0.05798756331205368,9.787927627563477,0.03659999743103981,-0.035499997437000275,-0.003999999724328518,0.06099999926066736,0.12199999852133472,0
0.5851524472236633,-0.01851196587085724,9.771839141845703,0.02709999866783619,0.013299999758601189,-0.02369999885559082,0.06099999926066736,0.12199999852133472,-0.06099999926066736
0.5952177047729492,-0.03145023435354233,9.780458450317383,0.03720000013709068,-0.006399999838322401,-0.013899999670684338,0.06099999926066736,0.24399999704266945,0
0.5948250889778137,-0.05914635956287384,9.779183387756348,0.03779999911785126,-0.035999998450279236,-0.013899999670684338,0.06099999926066736,0,0
0.6009063124656677,-0.05106353387236595,9.76242446899414,0.03779999911785126,-0.02630000002682209,-0.03350000083446503,0.06099999926066736,0.12199999852133472,0.06099999926066736
0.5831030011177063,-0.044091615825891495,9.782536506652832,0.01850000023841858,-0.016599999740719795,-0.013899999670684338,0,0.12199999852133472,0.06099999926066736
0.6062789559364319,-0.033614594489336014,9.77769947052002,0.04809999838471413,-0.006799999624490738,-0.02369999885559082,-0.06099999926066736,0.06099999926066736,-0.12199999852133472
0.5946430563926697,-0.026748022064566612,9.783004760742188,0.03839999809861183,0.0030999998562037945,-0.013899999670684338,0.06099999926066736,0,-0.06099999926066736
0.5854589343070984,-0.04344039410352707,9.765057563781738,0.02850000001490116,-0.016599999740719795,-0.03350000083446503,0,0,-0.06099999926066736
0.5925649404525757,-0.019019538536667824,9.79263973236084,0.0284000001847744,0.01269999984651804,-0.004100000020116568,0,0.1830000044521087,-0.06099999926066736
0.5980045199394226,-0.05758533999323845,9.7989501953125,0.038599997758865356,-0.03619999811053276,0.00559999980032444,-0.12199999852133472,0.12199999852133472,0.06099999926066736
0.592421293258667,-0.04617936164140701,9.779959678649902,0.029099998995661736,-0.016200000420212746,-0.0139999995008111,0,0.24399999704266945,-0.12199999852133472
0.6005710959434509,-0.0541568398475647,9.782957077026367,0.03959999978542328,-0.025999998673796654,-0.0139999995008111,0,0.12199999852133472,0.12199999852133472
0.57770174741745,-0.060429647564888,9.778523445129395,0.02029999904334545,-0.0357000008225441,-0.0139999995008111,0.06099999926066736,0.12199999852133472,-0.06099999926066736
0.5999391078948975,-0.041649531573057175,9.769444465637207,0.04010000079870224,-0.016200000420212746,-0.023799998685717583,0.06099999926066736,0,-0.06099999926066736
0.5877094864845276,-0.06430825591087341,9.771446228027344,0.030299998819828033,-0.03590000048279762,-0.023799998685717583,0,0.1830000044521087,0
0.5876902937889099,-0.025254039093852043,9.803499221801758,0.030700000002980232,0.0031999999191612005,0.005499999970197678,0.12199999852133472,0.12199999852133472,-0.06099999926066736
0.5991345643997192,-0.02978386916220188,9.805855751037598,0.040699999779462814,0.012600000016391277,-0.014099999330937862,0.06099999926066736,-0.06099999926066736,-0.06099999926066736
0.5738805532455444,-0.03307829052209854,9.805951118469238,0.040699999779462814,-0.00699999975040555,0.005499999970197678,0.06099999926066736,-0.06099999926066736,-0.12199999852133472
0.5866655707359314,-0.04434061422944069,9.76548957824707,0.030499998480081558,-0.01719999872148037,-0.03359999880194664,-0.12199999852133472,0.12199999852133472,-0.12199999852133472
0.5956295132637024,-0.03916914016008377,9.778733253479004,0.04050000011920929,-0.01679999940097332,-0.0139999995008111,0,0,-0.06099999926066736
0.5963094234466553,-0.033537980169057846,9.803193092346191,0.04039999842643738,-0.00699999975040555,0.005499999970197678,-0.12199999852133472,0.12199999852133472,-0.06099999926066736
0.6071120500564575,-0.03492661193013191,9.793539047241211,0.04859999939799309,-0.006399999838322401,-0.004100000020116568,0,0.06099999926066736,-0.06099999926066736
0.6077632904052734,-0.015073893591761589,9.784652709960938,0.047599997371435165,0.012799999676644802,-0.013899999670684338,0,0.24399999704266945,-0.12199999852133472
0.5880351066589355,-0.03820187970995903,9.797447204589844,0.028599999845027924,-0.0066999997943639755,0.00559999980032444,-0.06099999926066736,-0.06099999926066736,0
0.6158652901649475,-0.06403053551912308,9.828198432922363,0.05779999867081642,-0.03590000048279762,0.025200000032782555,0.06099999926066736,0.24399999704266945,0
0.5672821402549744,-0.05097734183073044,9.78406810760498,0.009499999694526196,-0.02630000002682209,-0.0139999995008111,0.06099999926066736,0.06099999926066736,0
0.5928426384925842,-0.018847156316041946,9.776808738708496,0.029199998825788498,0.01269999984651804,-0.023799998685717583,0,0,-0.06099999926066736
0.6078112125396729,-0.03239833936095238,9.766753196716309,0.0486999973654747,-0.006799999624490738,-0.03359999880194664,0,0.06099999926066736,-0.06099999926066736
0.5931969881057739,-0.03379655256867409,9.808623313903809,0.029199998825788498,-0.006799999624490738,0.015399999916553497,0.06099999926066736,0,-0.06099999926066736
0.5760161876678467,-0.038709454238414764,9.786079406738281,0.01939999870955944,-0.01679999940097332,-0.0139999995008111,0.12199999852133472,0.1830000044521087,0
0.5881404280662537,-0.0482192225754261,9.78200912475586,0.029600000008940697,-0.026799999177455902,-0.0139999995008111,0.06099999926066736,0.12199999852133472,0
0.5930533409118652,-0.0523659773170948,9.762385368347168,0.029899999499320984,-0.026899999007582664,-0.03359999880194664,0,0.06099999926066736,-0.06099999926066736
0.5836105942726135,-0.05387911573052406,9.767404556274414,0.02019999921321869,-0.026899999007582664,-0.03359999880194664,0,0.12199999852133472,-0.06099999926066736
0.591760516166687,-0.0399257093667984,9.765230178833008,0.030299998819828033,-0.017099998891353607,-0.03359999880194664,-0.12199999852133472,0.06099999926066736,-0.06099999926066736
0.604009211063385,-0.058801595121622086,9.793233871459961,0.049799997359514236,-0.03619999811053276,-0.00419999985024333,0,0.06099999926066736,-0.06099999926066736
0.5791094899177551,-0.03749319911003113,9.783321380615234,0.020499998703598976,-0.006799999624490738,-0.0139999995008111,-0.06099999926066736,0.12199999852133472,0
0.5983684659004211,-0.036621708422899246,9.7853422164917,0.04919999837875366,-0.0064999996684491634,-0.023799998685717583,-0.06099999926066736,0.06099999926066736,-0.06099999926066736
0.5896823406219482,-0.05469314008951187,9.772624015808105,0.03869999945163727,-0.006099999882280827,-0.013899999670684338,0,0.06099999926066736,-0.06099999926066736
0.6083188056945801,-0.014700398780405521,9.788214683532715,0.02850000001490116,-0.025100000202655792,-0.02369999885559082,0,0,-0.06099999926066736
0.5889065265655518,-0.023693019524216652,9.76094913482666,0.02630000002682209,0.003499999875202775,-0.033399999141693115,0.06099999926066736,0.1830000044521087,0
0.5905154943466187,-0.05476018041372299,9.774270057678223,0.02630000002682209,-0.025499999523162842,-0.023599999025464058,0,0.12199999852133472,0
0.5904388427734375,-0.04045243188738823,9.80349063873291,0.02579999901354313,-0.015199999324977398,0.005699999630451202,0,0.12199999852133472,-0.06099999926066736
0.5760736465454102,-0.025435999035835266,9.782526016235352,0.01589999906718731,0.00419999985024333,-0.013799999840557575,0,0.12199999852133472,-0.06099999926066736
0.6023045182228088,-0.05623500794172287,9.77077579498291,0.03519999980926514,-0.024699999019503593,-0.023599999025464058,0,0.12199999852133472,0
0.5745987892150879,-0.05170518159866333,9.777230262756348,0.006000000052154064,-0.02419999986886978,-0.023599999025464058,-0.06099999926066736,0.12199999852133472,0
0.5813696384429932,-0.04222413897514343,9.792831420898438,0.01549999974668026,-0.013799999840557575,-0.0038999998942017555,-0.06099999926066736,0,0
0.6188628673553467,-0.040299203246831894,9.791719436645508,0.05249999836087227,-0.012999999336898327,-0.0037999998312443495,-0.06099999926066736,0,-0.06099999926066736
0.5878913998603821,-0.05792052671313286,9.798423767089844,0.022499999031424522,-0.031599998474121094,0.0058999997563660145,-0.1830000044521087,0.06099999926066736,-0.06099999926066736
0.6047370433807373,-0.040222588926553726,9.7855806350708,0.041200000792741776,-0.01119999960064888,-0.013499999418854713,0,0,-0.06099999926066736
0.5895290374755859,-0.04682100564241409,9.793740272521973,0.020800000056624413,-0.010799999348819256,-0.003700000001117587,0.12199999852133472,0.06099999926066736,0.06099999926066736
0.5823655724525452,-0.060429647564888,9.786405563354492,0.010900000110268593,-0.03009999915957451,-0.013499999418854713,0.06099999926066736,0.06099999926066736,0
0.5712085962295532,-0.04301901534199715,9.769492149353027,0.0013000000035390258,-0.010499999858438969,-0.02329999953508377,0,0.06099999926066736,0
0.5843672156333923,-0.05014416202902794,9.802072525024414,0.020499998703598976,-0.019700000062584877,0.006099999882280827,0,0.1830000044521087,-0.06099999926066736
0.6031472682952881,-0.05028781294822693,9.780218124389648,0.03009999915957451,-0.019299998879432678,-0.013399999588727951,0,0,-0.06099999926066736
0.6002742052078247,-0.01968991383910179,9.768372535705566,0.029600000008940697,0.009800000116229057,-0.02319999970495701,0.06099999926066736,-0.06099999926066736,0.06099999926066736
0.5973724722862244,-0.05260540172457695,9.793539047241211,0.028299998492002487,-0.01889999955892563,-0.003499999875202775,0,0,-0.06099999926066736
0.5865315794944763,-0.027102364227175713,9.773265838623047,0.00839999970048666,-0.018299998715519905,-0.003499999875202775,-0.06099999926066736,0.06099999926066736,-0.06099999926066736
0.5985695719718933,-0.03386358916759491,9.78658676147461,0.01809999905526638,0.010999999940395355,-0.023099999874830246,0,0.12199999852133472,0
0.5979183316230774,-0.06600335240364075,9.801736831665039,0.027799999341368675,0.0010999999940395355,-0.013299999758601189,0,0.06099999926066736,0
0.5845491290092468,-0.049732357263565063,9.758631706237793,0.01759999990463257,-0.017500000074505806,-0.04270000010728836,0,0.06099999926066736,-0.12199999852133472
0.5874795913696289,-0.04653370380401611,9.778973579406738,0.017400000244379044,-0.007499999832361937,-0.013299999758601189,0,0.1830000044521087,0.06099999926066736
0.5841852426528931,-0.024440009146928787,9.794238090515137,0.01730000041425228,0.011599999852478504,-0.003499999875202775,0.12199999852133472,0,0.06099999926066736
0.5822985768318176,-0.035223495215177536,9.75663948059082,0.007400000002235174,0.001500000013038516,-0.04270000010728836,0,0.12199999852133472,-0.1830000044521087
0.5775484442710876,-0.047951072454452515,9.752215385437012,0.007599999662488699,-0.017899999395012856,-0.04270000010728836,-0.12199999852133472,0.06099999926066736,0
0.5875849723815918,-0.05611051246523857,9.761457443237305,0.01730000041425228,-0.017400000244379044,-0.032899998128414154,-0.06099999926066736,0,0.06099999926066736
0.5976885557174683,-0.006186617538332939,9.76663875579834,0.026799999177455902,0.021699998527765274,-0.032899998128414154,-0.06099999926066736,0.06099999926066736,0
0.6051009297370911,-0.03643975034356117,9.781865119934082,0.035999998450279236,0.002199999988079071,-0.013199999928474426,-0.06099999926066736,0,0
0.5841181874275208,-0.052030790597200394,9.818774223327637,0.0064999996684491634,-0.016899999231100082,0.016099998727440834,-0.12199999852133472,0.1830000044521087,0
0.5779315829277039,-0.025799917057156563,9.7605562210083,0.006899999920278788,0.012600000016391277,-0.03280000016093254,0.06099999926066736,0.1830000044521087,0
0.5935800671577454,-0.05575616657733917,9.772863388061523,0.016899999231100082,-0.016599999740719795,-0.023099999874830246,-0.06099999926066736,0.06099999926066736,-0.12199999852133472
0.5818867683410645,-0.04884171113371849,9.784584999084473,0.0071000000461936,-0.016099998727440834,-0.013199999928474426,0.1830000044521087,0.1830000044521087,-0.06099999926066736
0.5827103853225708,-0.04842033237218857,9.765690803527832,0.007599999662488699,-0.016599999740719795,-0.032899998128414154,0,0.06099999926066736,0
0.5989334583282471,-0.07374140620231628,9.790111541748047,0.027300000190734863,-0.03610000014305115,-0.003499999875202775,0.06099999926066736,0.1830000044521087,-0.06099999926066736
0.5815803408622742,-0.04874594509601593,9.771427154541016,0.008200000040233135,-0.016599999740719795,-0.023099999874830246,0,-0.06099999926066736,-0.12199999852133472
0.5930437445640564,-0.03547249361872673,9.793261528015137,0.01769999973475933,0.002899999963119626,-0.003499999875202775,0,0.06099999926066736,-0.06099999926066736
0.5889544486999512,-0.02134670317173004,9.771072387695312,0.017899999395012856,0.01269999984651804,-0.023099999874830246,-0.06099999926066736,0,0.06099999926066736
0.5794925689697266,-0.05772899091243744,9.773897171020508,0.007999999448657036,-0.026200000196695328,-0.023099999874830246,0.06099999926066736,0.06099999926066736,-0.06099999926066736
0.6115748882293701,-0.04620809108018875,9.7927827835083,0.017999999225139618,-0.016599999740719795,-0.013299999758601189,-0.06099999926066736,0.12199999852133472,-0.12199999852133472
0.5804981589317322,-0.06564901024103165,9.778398513793945,0.03759999945759773,-0.0066999997943639755,-0.003499999875202775,0,0,0.12199999852133472
0.5725877285003662,-0.01999637298285961,9.787496566772461,-0.0013000000035390258,0.012999999336898327,-0.003499999875202775,-0.06099999926066736,0.12199999852133472,0
0.6105022430419922,-0.03357628732919693,9.775554656982422,0.038100000470876694,0.0032999999821186066,-0.023099999874830246,0,0.1830000044521087,0
0.5570158362388611,-0.05047934874892235,9.789872169494629,-0.009999999776482582,-0.015599999576807022,-0.003599999938160181,0.06099999926066736,0,-0.06099999926066736
0.5848556160926819,-0.032455798238515854,9.792207717895508,0.01860000006854534,0.003599999938160181,-0.003499999875202775,0.06099999926066736,0.12199999852133472,-0.06099999926066736
0.571323573589325,-0.027408821508288383,9.770257949829102,-0.0005999999702908099,0.012999999336898327,-0.02319999970495701,-0.06099999926066736,0.3049999896332302,0
0.5977555513381958,-0.0659937709569931,9.776933670043945,0.029600000008940697,-0.025999998673796654,-0.02319999970495701,0.1830000044521087,0.1830000044521087,0
0.5855068564414978,-0.040414124727249146,9.787707328796387,0.020399998873472214,-0.006799999624490738,-0.003599999938160181,0.12199999852133472,0.1830000044521087,0
0.5921148061752319,-0.016127342358231544,9.80299186706543,0.020800000056624413,0.022099999710917473,0.006000000052154064,0,0.1830000044521087,-0.06099999926066736
0.5679142475128174,-0.044091615825891495,9.740139961242676,0.0016999999061226845,-0.0072999997064471245,-0.05269999802112579,0,0.12199999852133472,-0.06099999926066736
0.5814366340637207,-0.03265691176056862,9.773792266845703,0.011799999512732029,0.0023999998811632395,-0.02329999953508377,0.12199999852133472,0,0.06099999926066736
0.5929480195045471,-0.059232551604509354,9.776081085205078,0.02159999869763851,-0.02719999849796295,-0.02329999953508377,0.06099999926066736,0.12199999852133472,-0.12199999852133472
0.6007722020149231,-0.03530968725681305,9.769166946411133,0.031599998474121094,0.001999999862164259,-0.02329999953508377,0,0.06099999926066736,0
0.5846640467643738,-0.047146622091531754,9.770306587219238,0.021900000050663948,-0.007699999958276749,-0.02329999953508377,0.06099999926066736,0,-0.12199999852133472
0.5826720595359802,-0.057192690670490265,9.797054290771484,0.012000000104308128,-0.01759999990463257,-0.003700000001117587,0,0.24399999704266945,0
0.6049190163612366,-0.028998570516705513,9.772164344787598,0.0421999990940094,0.0018999999156221747,-0.023399999365210533,0,0.12199999852133472,0
0.600331723690033,-0.044896069914102554,9.766523361206055,0.03269999846816063,-0.007799999788403511,-0.03319999948143959,0.06099999926066736,0.12199999852133472,0
0.585382342338562,-0.06560112535953522,9.785543441772461,0.023099999874830246,-0.027499999850988388,-0.013599999248981476,0,0.12199999852133472,0
0.6012415289878845,-0.03121081367135048,9.750271797180176,0.03319999948143959,0.0017999999690800905,-0.0429999977350235,-0.06099999926066736,0.06099999926066736,0
0.5940876603126526,-0.04996220022439957,9.797322273254395,0.033299997448921204,0.001999999862164259,-0.023399999365210533,0.12199999852133472,0.06099999926066736,-0.12199999852133472
0.609851062297821,-0.029793445020914078,9.77659797668457,0.033299997448921204,-0.01730000041425228,0.0058999997563660145,0,0.06099999926066736,-0.24399999704266945
0.6043252348899841,-0.04118026793003082,9.793980598449707,0.04339999705553055,-0.007899999618530273,-0.0037999998312443495,0.1830000044521087,0.06099999926066736,0.06099999926066736
0.5887342095375061,-0.04389050602912903,9.751439094543457,0.023899998515844345,-0.00839999970048666,-0.04309999942779541,0.06099999926066736,-0.12199999852133472,-0.12199999852133472
0.6080793738365173,-0.0617225207388401,9.761858940124512,0.04309999942779541,-0.028099998831748962,-0.03319999948143959,0.06099999926066736,0.12199999852133472,-0.06099999926066736
0.5853057503700256,-0.048209644854068756,9.76891803741455,0.02369999885559082,-0.018400000408291817,-0.023399999365210533,0,0.06099999926066736,-0.06099999926066736
0.5753650069236755,-0.05864836648106575,9.795990943908691,0.0139999995008111,-0.028099998831748962,-0.0037999998312443495,-0.12199999852133472,0.06099999926066736,0.12199999852133472
0.5979758501052856,-0.04219541326165199,9.789507865905762,0.03359999880194664,-0.008100000210106373,-0.0037999998312443495,-0.06099999926066736,0.12199999852133472,0
0.57303786277771,-0.04281790181994438,9.7937593460083,0.0044999998062849045,-0.007899999618530273,-0.0038999998942017555,-0.12199999852133472,0.12199999852133472,0
0.5882458090782166,-0.05326620116829872,9.768908500671387,0.024399999529123306,-0.01730000041425228,-0.023499999195337296,-0.06099999926066736,0.12199999852133472,0.06099999926066736
0.5934651494026184,-0.05763322487473488,9.767117500305176,0.024699999019503593,-0.026899999007582664,-0.033299997448921204,0.12199999852133472,0,0.06099999926066736
0.5922393202781677,-0.049943044781684875,9.768428802490234,0.02459999918937683,-0.017400000244379044,-0.023499999195337296,-0.06099999926066736,0.12199999852133472,-0.1830000044521087
0.5673587918281555,-0.03485957533121109,9.771446228027344,0.0052999998442828655,0.002300000051036477,-0.023499999195337296,0,0.1830000044521087,-0.06099999926066736
0.5959742665290833,-0.055631671100854874,9.786577224731445,0.0340999998152256,-0.016699999570846558,-0.013700000010430813,0,0,-0.06099999926066736
0.6138637065887451,-0.053304508328437805,9.770362854003906,0.052400000393390656,-0.016300000250339508,-0.023399999365210533,0.06099999926066736,0.24399999704266945,-0.06099999926066736
0.5802874565124512,-0.04623682424426079,9.769587516784668,0.013899999670684338,-0.0066999997943639755,-0.023399999365210533,-0.12199999852133472,0.12199999852133472,-0.12199999852133472
0.5866273045539856,-0.047644615173339844,9.791145324707031,0.023899998515844345,-0.006300000008195639,-0.0037999998312443495,0.06099999926066736,0.06099999926066736,-0.06099999926066736
0.6060969233512878,-0.043708544224500656,9.791633605957031,0.04339999705553055,-0.0064999996684491634,-0.0037999998312443495,0.06099999926066736,0.06099999926066736,-0.1830000044521087
0.5983588695526123,-0.0266618300229311,9.764838218688965,0.03359999880194664,0.012799999676644802,-0.033299997448921204,0.12199999852133472,0,-0.12199999852133472
0.5916168093681335,-0.038211461156606674,9.778552055358887,0.02369999885559082,0.002699999837204814,-0.013599999248981476,0.06099999926066736,0,-0.06099999926066736
0.6158269643783569,-0.05499960482120514,9.794698715209961,0.05269999802112579,-0.016899999231100082,-0.0037999998312443495,0.12199999852133472,0.1830000044521087,0.06099999926066736
0.591367781162262,-0.013752294704318047,9.763726234436035,0.03350000083446503,-0.026899999007582664,-0.013599999248981476,-0.06099999926066736,0.12199999852133472,0
0.6031759977340698,-0.05120718851685524,9.77202033996582,0.03399999812245369,-0.016999999061226845,-0.023499999195337296,0,0.12199999852133472,-0.06099999926066736
0.5878052115440369,-0.040979158133268356,9.779126167297363,0.03399999812245369,-0.016999999061226845,-0.023499999195337296,0.06099999926066736,0,-0.06099999926066736
0.6173209547996521,-0.0393415205180645,9.782315254211426,0.053599998354911804,-0.0072999997064471245,-0.013700000010430813,-0.06099999926066736,0.06099999926066736,0
0.5792818665504456,-0.03540545701980591,9.736336708068848,0.014299999922513962,0.0026000000070780516,-0.06269999593496323,0,0.1830000044521087,-0.1830000044521087
0.5846161246299744,-0.057211846113204956,9.802043914794922,0.024699999019503593,-0.016899999231100082,0.005799999926239252,-0.06099999926066736,0,-0.06099999926066736
0.5918275117874146,-0.05780560523271561,9.761590957641602,0.024699999019503593,-0.026499999687075615,-0.033299997448921204,0.12199999852133472,0.12199999852133472,-0.06099999926066736
0.5952751636505127,-0.06192363426089287,9.815393447875977,0.034699998795986176,-0.026799999177455902,0.015599999576807022,0,0,-0.06099999926066736
0.5737656354904175,-0.036219481378793716,9.784786224365234,0.0052999998442828655,0.0024999999441206455,-0.013700000010430813,0,0.1830000044521087,-0.12199999852133472
0.6021034121513367,-0.036506786942481995,9.774213790893555,0.035099998116493225,0.0024999999441206455,-0.023499999195337296,-0.12199999852133472,0.24399999704266945,0
0.586588978767395,-0.0423007532954216,9.785993576049805,0.025999998673796654,-0.006899999920278788,-0.013799999840557575,-0.06099999926066736,0.1830000044521087,-0.06099999926066736
0.5738709568977356,-0.025799917057156563,9.790129661560059,0.006799999624490738,0.01269999984651804,-0.003999999724328518,-0.12199999852133472,0.06099999926066736,0
0.5881787538528442,-0.05227978900074959,9.759244918823242,0.026599999517202377,-0.016200000420212746,-0.033399999141693115,-0.12199999852133472,0.1830000044521087,-0.06099999926066736
0.5961657762527466,-0.03809653967618942,9.784173965454102,0.03669999912381172,0.003599999938160181,-0.013799999840557575,0,0.06099999926066736,0
0.6075717806816101,-0.02857719175517559,9.761245727539062,0.04649999737739563,0.013299999758601189,-0.033399999141693115,0.12199999852133472,0,0
0.5931682586669922,-0.057211846113204956,9.765565872192383,0.026899999007582664,-0.016300000250339508,-0.033399999141693115,0,0.06099999926066736,-0.06099999926066736
0.5683643221855164,-0.04509718343615532,9.776397705078125,0.007400000002235174,-0.0064999996684491634,-0.023599999025464058,-0.06099999926066736,0.06099999926066736,-0.06099999926066736
0.5759299993515015,-0.028242003172636032,9.795445442199707,0.01719999872148037,0.013100000098347664,-0.003999999724328518,0,0.12199999852133472,0
0.5721950531005859,-0.0404045470058918,9.777910232543945,0.007699999958276749,-0.006399999838322401,-0.023599999025464058,0.06099999926066736,0.12199999852133472,-0.06099999926066736
0.613212525844574,-0.05455906689167023,9.7766752243042,0.017799999564886093,-0.0064999996684491634,-0.03350000083446503,0,0.06099999926066736,0.06099999926066736
0.6072269678115845,-0.02748543582856655,9.782305717468262,0.05700000002980232,-0.016300000250339508,-0.02369999885559082,-0.06099999926066736,0.06099999926066736,-0.06099999926066736
0.6149171590805054,-0.059136781841516495,9.807158470153809,0.04559999704360962,0.01249999925494194,-0.013799999840557575,0.12199999852133472,0.12199999852133472,0
0.5924596190452576,-0.057307612150907516,9.794564247131348,0.054099999368190765,-0.025699999183416367,0.015599999576807022,0,0.06099999926066736,-0.12199999852133472
0.5908793807029724,-0.04440765455365181,9.77415657043457,0.02329999953508377,-0.005499999970197678,-0.023399999365210533,0,0.12199999852133472,0.06099999926066736
0.5924500226974487,-0.030205247923731804,9.766561508178711,0.02319999970495701,0.00419999985024333,-0.03319999948143959,0,0.1830000044521087,0.06099999926066736
0.5789849758148193,-0.04390966147184372,9.776501655578613,0.013499999418854713,-0.005399999674409628,-0.023399999365210533,0,0.12199999852133472,-0.06099999926066736
0.6055989265441895,-0.02071463316679001,9.786826133728027,0.04179999977350235,0.013599999248981476,-0.013499999418854713,-0.06099999926066736,0.06099999926066736,0
0.5997284054756165,-0.04784572497010231,9.776300430297852,0.03139999881386757,-0.00559999980032444,-0.02329999953508377,0,0,0
0.601088285446167,-0.048065993934869766,9.768572807312012,0.030700000002980232,-0.014999999664723873,-0.02329999953508377,0,0.1830000044521087,-0.06099999926066736
0.5864644646644592,-0.026077644899487495,9.799160957336426,0.020600000396370888,0.013799999840557575,0.006099999882280827,-0.12199999852133472,0,0.12199999852133472
0.6198492646217346,-0.05193502455949783,9.782851219177246,0.04839999973773956,-0.014699999243021011,-0.013399999588727951,0,0,-0.12199999852133472
0.5725685358047485,-0.04653370380401611,9.763429641723633,-0.0005999999702908099,-0.004799999762326479,-0.032999999821186066,0,0,-0.06099999926066736
0.5805556178092957,-0.05045061931014061,9.767298698425293,0.008999999612569809,-0.014399999752640724,-0.032999999821186066,0.06099999926066736,0.06099999926066736,-0.06099999926066736
0.5961945056915283,-0.050441041588783264,9.789536476135254,0.027400000020861626,-0.013899999670684338,-0.003499999875202775,0,0.12199999852133472,-0.06099999926066736
0.595466673374176,-0.05021119862794876,9.754523277282715,0.027300000190734863,-0.013700000010430813,-0.04270000010728836,-0.06099999926066736,0.1830000044521087,-0.06099999926066736
0.6104926466941833,-0.06721960753202438,9.769233703613281,0.03680000081658363,-0.032499998807907104,-0.023099999874830246,-0.06099999926066736,0.1830000044521087,0.06099999926066736
0.5685558319091797,-0.04572925344109535,9.762510299682617,-0.0017999999690800905,-0.002899999963119626,-0.032899998128414154,-0.06099999926066736,0.12199999852133472,0.06099999926066736
0.5684505105018616,-0.034610580652952194,9.794564247131348,-0.00139999995008111,0.006799999624490738,-0.003499999875202775,0,0.06099999926066736,-0.06099999926066736
0.5660275816917419,-0.04871721565723419,9.780562400817871,-0.0011999999405816197,-0.012399999424815178,-0.013299999758601189,0,0.12199999852133472,0
0.5964435338973999,-0.05744168907403946,9.80348014831543,0.017999999225139618,-0.0026000000070780516,0.006199999712407589,-0.06099999926066736,0.1830000044521087,-0.06099999926066736
0.5712277889251709,-0.06591715663671494,9.805520057678223,0.027499999850988388,-0.011799999512732029,0.006199999712407589,0.06099999926066736,0.06099999926066736,-0.12199999852133472
0.6128199100494385,-0.04352658987045288,9.797130584716797,-0.0018999999156221747,-0.020800000056624413,0.006199999712407589,0,0,0
0.5914731621742249,-0.05157110467553139,9.795637130737305,0.036399997770786285,-0.00139999995008111,0.006300000008195639,-0.12199999852133472,0.06099999926066736,-0.06099999926066736
0.5951410531997681,-0.033356018364429474,9.761390686035156,0.02539999969303608,0.008999999612569809,-0.03280000016093254,-0.06099999926066736,0.12199999852133472,-0.06099999926066736
0.5970468521118164,-0.03611414134502411,9.764071464538574,0.02539999969303608,0.008999999612569809,-0.03280000016093254,-0.06099999926066736,0.06099999926066736,-0.06099999926066736
0.5847119092941284,-0.06106172129511833,9.790120124816895,0.014699999243021011,-0.01939999870955944,-0.0032999999821186066,0,0.06099999926066736,-0.06099999926066736
0.578343391418457,-0.010975020006299019,9.783885955810547,0.004799999762326479,0.02889999933540821,-0.013100000098347664,-0.06099999926066736,0.06099999926066736,-0.06099999926066736
0.5701456069946289,-0.047903187572956085,9.7778902053833,-0.004900000058114529,-0.00989999994635582,-0.02290000021457672,0,0.06099999926066736,-0.06099999926066736
0.5905537605285645,-0.05514325201511383,9.7694730758667,0.014299999922513962,-0.00969999935477972,-0.02290000021457672,0,0.24399999704266945,-0.06099999926066736
0.5944515466690063,-0.04481945559382439,9.79312801361084,0.02369999885559082,0,-0.0031999999191612005,-0.06099999926066736,0.12199999852133472,0
0.5944994688034058,-0.056148819625377655,9.79196834564209,0.023000000044703484,-0.009200000204145908,-0.0031999999191612005,0,0.1830000044521087,-0.06099999926066736
0.5870773792266846,-0.045652639120817184,9.768333435058594,0.013299999758601189,0.0004999999655410647,-0.032600000500679016,0.12199999852133472,0.12199999852133472,0
0.5958210229873657,-0.03042551688849926,9.792045593261719,0.02239999920129776,0.00969999935477972,-0.0031999999191612005,0,-0.12199999852133472,-0.06099999926066736
0.5693315863609314,-0.04879382997751236,9.801976203918457,-0.0072999997064471245,-0.009499999694526196,0.006599999964237213,0.06099999926066736,0.06099999926066736,-0.06099999926066736
0.5771941542625427,-0.04909071326255798,9.773955345153809,0.002300000051036477,-0.009499999694526196,-0.02279999852180481,0.06099999926066736,0.1830000044521087,0
0.6049477458000183,-0.034706346690654755,9.755768775939941,0.031700000166893005,0.00969999935477972,-0.042399998754262924,-0.12199999852133472,-0.12199999852133472,-0.24399999704266945
0.5934938788414001,-0.050536807626485825,9.795703887939453,0.011599999852478504,-0.009499999694526196,-0.0030999998562037945,-0.12199999852133472,0,0.06099999926066736
0.5991058945655823,-0.07314765453338623,9.779088020324707,0.0210999995470047,-0.028599999845027924,-0.012899999506771564,0.06099999926066736,0.06099999926066736,-0.06099999926066736
0.5873168110847473,-0.04793192073702812,9.777095794677734,0.01119999960064888,-0.009099999442696571,-0.022699998691678047,0.12199999852133472,-0.06099999926066736,-0.06099999926066736
0.6039804816246033,-0.03620990738272667,9.774730682373047,0.030399998649954796,0.010099999606609344,-0.022699998691678047,-0.06099999926066736,0.06099999926066736,-0.12199999852133472
0.6229808330535889,-0.041860222816467285,9.7506742477417,0.020499998703598976,0.019999999552965164,-0.022699998691678047,0,0.24399999704266945,0
0.5927277207374573,-0.03968628868460655,9.80233097076416,0.049799997359514236,0.0005999999702908099,-0.04230000078678131,0,0.12199999852133472,0
0.5775101780891418,-0.03733997046947479,9.798385620117188,0.0013000000035390258,0.010400000028312206,0.006599999964237213,-0.12199999852133472,0.24399999704266945,-0.06099999926066736
0.5813217759132385,-0.04980897158384323,9.776846885681152,0.0017999999690800905,-0.008700000122189522,-0.022699998691678047,0.06099999926066736,0.3049999896332302,-0.06099999926066736
0.5939822793006897,-0.04424484819173813,9.77387809753418,0.022099999710917473,0.0007999999797903001,-0.02279999852180481,0,0.12199999852133472,0.06099999926066736
0.6082421541213989,-0.025014620274305344,9.795158386230469,0.03189999982714653,0.020399998873472214,-0.0031999999191612005,0,0.12199999852133472,0.06099999926066736
0.6080315113067627,-0.05162856727838516,9.793329238891602,0.03179999813437462,-0.008899999782443047,-0.0030999998562037945,0.12199999852133472,0.12199999852133472,-0.12199999852133472
0.6078494787216187,-0.020226215943694115,9.789153099060059,0.03179999813437462,0.019999999552965164,-0.0030999998562037945,-0.12199999852133472,0.12199999852133472,0
0.5940588712692261,-0.03275267779827118,9.77464485168457,0.02199999988079071,0.010599999688565731,-0.02279999852180481,0,0.06099999926066736,-0.12199999852133472
0.5953517556190491,-0.05920381844043732,9.759628295898438,0.021900000050663948,-0.018699999898672104,-0.032600000500679016,0,0.1830000044521087,-0.06099999926066736
0.5792914628982544,0.00010534487955737859,9.764904975891113,0.0026000000070780516,0.03019999898970127,-0.032600000500679016,0.06099999926066736,0.1830000044521087,0.06099999926066736
0.5958592891693115,-0.020915746688842773,9.794363021850586,0.02239999920129776,0.020099999383091927,-0.0031999999191612005,0,0.1830000044521087,-0.06099999926066736
0.5955241918563843,-0.030368054285645485,9.757089614868164,0.022599998861551285,0.010300000198185444,-0.042399998754262924,-0.06099999926066736,0.06099999926066736,-0.06099999926066736
0.618518054485321,-0.02936249040067196,9.764176368713379,0.04209999740123749,0.010499999858438969,-0.032600000500679016,-0.06099999926066736,0.12199999852133472,0
0.5850183963775635,-0.046409204602241516,9.778417587280273,0.012799999676644802,0.0008999999845400453,-0.012999999336898327,-0.06099999926066736,0.12199999852133472,-0.12199999852133472
0.5867900848388672,-0.05810248479247093,9.784594535827637,0.01249999925494194,-0.017999999225139618,-0.012999999336898327,0.12199999852133472,0.12199999852133472,-0.06099999926066736
0.5724153518676758,-0.039609674364328384,9.787084579467773,-0.0066999997943639755,0.0011999999405816197,-0.012999999336898327,-0.06099999926066736,0.1830000044521087,-0.06099999926066736
0.5854876637458801,-0.017314866185188293,9.789536476135254,0.012600000016391277,0.029500000178813934,-0.0031999999191612005,0.12199999852133472,0.06099999926066736,0
0.5883607268333435,-0.02661394700407982,9.808919906616211,0.012299999594688416,0.01899999938905239,0.01640000008046627,0,0.1830000044521087,-0.12199999852133472
0.5864548683166504,-0.04874594509601593,9.785351753234863,0.012199999764561653,-0.009999999776482582,-0.012999999336898327,0.06099999926066736,0.1830000044521087,0.06099999926066736
0.6077632904052734,-0.05440583825111389,9.775247573852539,0.01209999993443489,-0.00029999998514540493,0.006599999964237213,-0.06099999926066736,0.1830000044521087,0
0.5986940860748291,-0.03910209983587265,9.774395942687988,0.032499998807907104,-0.009800000116229057,-0.02279999852180481,0.06099999926066736,0.06099999926066736,-0.06099999926066736
0.6032238602638245,-0.03878606855869293,9.773629188537598,0.02279999852180481,0,-0.02279999852180481,0,0.06099999926066736,0.06099999926066736
0.5896631479263306,-0.032570719718933105,9.792036056518555,0.012899999506771564,0.009800000116229057,-0.0031999999191612005,-0.06099999926066736,0.24399999704266945,-0.12199999852133472
0.5833712220191956,-0.07197927683591843,9.78477668762207,0.003499999875202775,-0.029099998995661736,-0.012999999336898327,0,0.06099999926066736,-0.06099999926066736
0.5702317953109741,-0.01981441304087639,9.766312599182129,-0.006199999712407589,0.01979999989271164,-0.032600000500679016,-0.06099999926066736,0.06099999926066736,-0.06099999926066736
0.5681632161140442,-0.05199248343706131,9.774375915527344,-0.006300000008195639,-0.00930000003427267,-0.02279999852180481,0.12199999852133472,0,0
0.5931395292282104,-0.04832456633448601,9.776224136352539,0.012999999336898327,-0.009599999524652958,-0.02279999852180481,-0.06099999926066736,0.06099999926066736,0.12199999852133472
0.5928522348403931,-0.04796064645051956,9.782028198242188,0.012899999506771564,-0.00930000003427267,-0.012999999336898327,0.06099999926066736,0.12199999852133472,-0.12199999852133472
0.6048614978790283,-0.03837426379323006,9.743529319763184,0.032600000500679016,0.00029999998514540493,-0.05219999700784683,0,0.12199999852133472,-0.1830000044521087
0.5989430546760559,-0.04167826473712921,9.775160789489746,0.02290000021457672,0.00029999998514540493,-0.02279999852180481,0.12199999852133472,-0.06099999926066736,0.06099999926066736
0.5754895210266113,-0.0643465667963028,9.780802726745605,0.00279999990016222,-0.01899999938905239,-0.012999999336898327,0,0.1830000044521087,0.06099999926066736
0.5794734358787537,-0.029793445020914078,9.740196228027344,0.003000000026077032,0.010199999436736107,-0.05219999700784683,0.06099999926066736,0.06099999926066736,-0.06099999926066736
0.5698774456977844,-0.028347346931695938,9.779308319091797,-0.006599999964237213,0.01939999870955944,-0.012999999336898327,0,0.12199999852133472,-0.06099999926066736
0.5794447064399719,-0.036669593304395676,9.771014213562012,0.0030999998562037945,0.009399999864399433,-0.02279999852180481,0.06099999926066736,0.12199999852133472,0
0.6234117746353149,-0.032120607793331146,9.780094146728516,0.05069999769330025,0.008999999612569809,-0.012899999506771564,0.06099999926066736,0,-0.06099999926066736
0.5949878692626953,-0.03205357491970062,9.796862602233887,0.02019999921321869,0.00839999970048666,-0.0030999998562037945,0,0.06099999926066736,0
0.5703850388526917,-0.04339251294732094,9.764415740966797,-0.009099999442696571,-0.0011999999405816197,-0.032499998807907104,0.06099999926066736,0.1830000044521087,0
0.5990867018699646,-0.036219481378793716,9.761256217956543,0.02019999921321869,0.008200000040233135,-0.032499998807907104,-0.06099999926066736,0.06099999926066736,0
0.6000539660453796,-0.03076070360839367,9.761744499206543,0.019899999722838402,0.008299999870359898,-0.032499998807907104,-0.06099999926066736,0,0
0.5971330404281616,-0.04023216664791107,9.769761085510254,0.009499999694526196,-0.010699999518692493,0.0066999997943639755,0.06099999926066736,0.06099999926066736,0
0.5567476749420166,-0.057451263070106506,9.797503471374512,0.020099999383091927,-0.0008999999845400453,-0.022699998691678047,-0.06099999926066736,0,-0.1830000044521087
0.6008297204971313,-0.02713109366595745,9.802828788757324,-0.01899999938905239,-0.010799999348819256,0.0066999997943639755,-0.06099999926066736,0,-0.06099999926066736
0.5978992581367493,-0.05268201604485512,9.790072441101074,0.019500000402331352,-0.010400000028312206,-0.003000000026077032,0,0.06099999926066736,-0.12199999852133472
0.6076197028160095,-0.025292346253991127,9.785849571228027,0.029199998825788498,0.018799999728798866,-0.012799999676644802,0.06099999926066736,0,0
0.6122931241989136,-0.05172433331608772,9.783445358276367,0.02879999950528145,-0.010599999688565731,-0.012799999676644802,0,0.06099999926066736,-0.12199999852133472
0.584328830242157,-0.03604710102081299,9.777105331420898,0.009200000204145908,0.008899999782443047,-0.022599998861551285,0,0.06099999926066736,-0.1830000044521087
0.594260036945343,-0.022955605760216713,9.80358600616455,0.018799999728798866,0.01860000006854534,0.0066999997943639755,-0.12199999852133472,0,0
0.5703659057617188,-0.045154642313718796,9.751717567443848,-0.010699999518692493,-0.0004999999655410647,-0.0421999990940094,-0.1830000044521087,0.12199999852133472,0.06099999926066736
0.5916168093681335,-0.04479072615504265,9.765776634216309,0.008999999612569809,0,-0.03240000084042549,0.06099999926066736,0.12199999852133472,0
0.587786078453064,-0.04390966147184372,9.785226821899414,0.009099999442696571,-0.00009999999747378752,-0.012799999676644802,0,0.12199999852133472,-0.12199999852133472
0.5985312461853027,-0.046504974365234375,9.787755012512207,0.01809999905526638,-0.00009999999747378752,-0.002899999963119626,0,0.12199999852133472,-0.12199999852133472
0.5714097023010254,-0.026479871943593025,9.779394149780273,-0.010799999348819256,0.01889999955892563,-0.012799999676644802,0,0.12199999852133472,-0.06099999926066736
0.5843192934989929,-0.01218169741332531,9.758401870727539,0.008700000122189522,0.0284000001847744,-0.0421999990940094,0,0.06099999926066736,0
0.580086350440979,-0.056627657264471054,9.782516479492188,-0.0009999999310821295,-0.010400000028312206,-0.012799999676644802,0,0,-0.06099999926066736
0.573823094367981,-0.0432392843067646,9.8178071975708,-0.010799999348819256,-0.0005999999702908099,0.016599999740719795,0,0.06099999926066736,-0.06099999926066736
0.6104256510734558,-0.05727888271212578,9.782238960266113,0.027499999850988388,-0.010099999606609344,-0.01269999984651804,0.06099999926066736,0,-0.06099999926066736
0.607255756855011,-0.05313212424516678,9.797896385192871,0.026599999517202377,-0.009999999776482582,0.006899999920278788,0.06099999926066736,0.06099999926066736,-0.06099999926066736
0.6009446382522583,-0.05294058471918106,9.786710739135742,0.016300000250339508,-0.00989999994635582,-0.012600000016391277,0,0.12199999852133472,0
0.5959933996200562,-0.033921051770448685,9.804716110229492,0.01599999889731407,0.009399999864399433,0.006899999920278788,0,0.06099999926066736,-0.06099999926066736
0.5854014754295349,-0.042243294417858124,9.772106170654297,0.0058999997563660145,-0.00989999994635582,-0.012600000016391277,0.12199999852133472,0,-0.12199999852133472
0.6139307618141174,-0.05268201604485512,9.780121803283691,0.00559999980032444,-0.00039999998989515007,-0.02239999920129776,-0.06099999926066736,-0.06099999926066736,-0.12199999852133472
0.5707201957702637,-0.0676601380109787,9.800424575805664,0.033900000154972076,-0.009599999524652958,-0.01249999925494194,0,-0.06099999926066736,0
0.5913103818893433,-0.04223372042179108,9.792917251586914,0.003999999724328518,0.0011999999405816197,-0.002699999837204814,0.06099999926066736,0.12199999852133472,-0.06099999926066736
0.5803736448287964,-0.03919786959886551,9.778637886047363,-0.005399999674409628,0.0009999999310821295,-0.01249999925494194,-0.06099999926066736,0.06099999926066736,0.06099999926066736
0.5673971176147461,-0.036765363067388535,9.757089614868164,-0.015099999494850636,0.010900000110268593,-0.04189999774098396,-0.06099999926066736,0.06099999926066736,0
0.5732101798057556,-0.041601650416851044,9.790283203125,-0.014699999243021011,0.0011999999405816197,-0.002699999837204814,0,0.12199999852133472,-0.1830000044521087
0.5843480229377747,-0.0453844889998436,9.782392501831055,0.004799999762326479,0.0011999999405816197,-0.01249999925494194,0.06099999926066736,0.12199999852133472,0
0.5637770295143127,-0.03303040564060211,9.767854690551758,-0.02410000003874302,0.010699999518692493,-0.03219999745488167,0,0.12199999852133472,0
0.5891076922416687,-0.011903970502316952,9.772153854370117,0.005200000014156103,0.02979999966919422,-0.02239999920129776,0,0.06099999926066736,0
0.5851907730102539,-0.052854396402835846,9.7947359085083,0.004999999888241291,-0.008899999782443047,-0.002699999837204814,0.06099999926066736,0.12199999852133472,0
0.5686229467391968,-0.013522451743483543,9.793684005737305,-0.013899999670684338,0.029099998995661736,-0.00279999990016222,0.06099999926066736,0.1830000044521087,-0.06099999926066736
0.5777495503425598,-0.0558040551841259,9.766322135925293,-0.0037999998312443495,-0.009999999776482582,-0.03219999745488167,0.06099999926066736,0,-0.12199999852133472
0.5995751619338989,-0.05376419425010681,9.792562484741211,0.014999999664723873,-0.00989999994635582,-0.002699999837204814,-0.06099999926066736,0.06099999926066736,-0.06099999926066736
0.5872880816459656,-0.01784159056842327,9.786596298217773,0.004999999888241291,0.02879999950528145,-0.01249999925494194,0,0.12199999852133472,0
0.5841852426528931,-0.07165367156267166,9.775372505187988,0.004999999888241291,-0.029399998486042023,-0.022299999371170998,-0.06099999926066736,0.06099999926066736,0
0.5863974690437317,-0.03573106601834297,9.778149604797363,0.004799999762326479,0.00969999935477972,-0.01249999925494194,0.1830000044521087,0.06099999926066736,0
0.5921913981437683,-0.03594175726175308,9.79427719116211,0.004600000102072954,0.008899999782443047,-0.002699999837204814,0.06099999926066736,0.06099999926066736,-0.06099999926066736
0.5782954692840576,-0.03349009156227112,9.78886604309082,-0.004999999888241291,0.008499999530613422,-0.002699999837204814,-0.06099999926066736,0.06099999926066736,-0.06099999926066736
0.5816569328308105,-0.01689348742365837,9.7868070602417,-0.004900000058114529,0.027699999511241913,-0.01249999925494194,-0.06099999926066736,0.1830000044521087,0.06099999926066736
0.5552728176116943,-0.04186980053782463,9.802139282226562,0.024299999698996544,-0.030299998819828033,-0.022299999371170998,0,0.06099999926066736,-0.12199999852133472
0.5941546559333801,-0.03225468471646309,9.794429779052734,-0.033299997448921204,-0.000699999975040555,0.006899999920278788,0.06099999926066736,0.1830000044521087,0
0.5893662571907043,-0.0377996563911438,9.792763710021973,0.014999999664723873,0.008700000122189522,-0.002699999837204814,0.12199999852133472,0.12199999852133472,-0.12199999852133472
0.5927085280418396,-0.04861186817288399,9.774654388427734,0.0052999998442828655,-0.011299999430775642,-0.02239999920129776,-0.06099999926066736,0.06099999926066736,-0.06099999926066736
0.6024960875511169,-0.04516422376036644,9.775630950927734,0.01489999983459711,-0.0013000000035390258,-0.02239999920129776,0,0.06099999926066736,-0.06099999926066736
0.5711032748222351,-0.05118803307414055,9.819645881652832,-0.0142000000923872,-0.010900000110268593,0.01679999940097332,-0.06099999926066736,-0.06099999926066736,-0.06099999926066736
0.5901515483856201,-0.04881298542022705,9.76237678527832,0.004799999762326479,-0.010599999688565731,-0.032099999487400055,-0.06099999926066736,0,-0.06099999926066736
0.5862537622451782,-0.029295451939105988,9.80081844329834,0.0044999998062849045,0.008899999782443047,0.00699999975040555,-0.12199999852133472,0,-0.06099999926066736
0.5994793772697449,-0.034677617251873016,9.80766487121582,0.013899999670684338,0.009099999442696571,0.01679999940097332,0,0.12199999852133472,0
0.5927756428718567,-0.03028186224400997,9.771551132202148,0.004100000020116568,0.008999999612569809,-0.022299999371170998,0.12199999852133472,0.12199999852133472,-0.06099999926066736
0.5783816576004028,-0.03242706507444382,9.778571128845215,-0.005399999674409628,0.008499999530613422,-0.01249999925494194,-0.06099999926066736,0.1830000044521087,-0.1830000044521087
0.5982056856155396,-0.02793554589152336,9.785293579101562,0.014099999330937862,0.01809999905526638,-0.01249999925494194,0,0.06099999926066736,0
0.586703896522522,-0.038134846836328506,9.789737701416016,0.004100000020116568,0.007999999448657036,-0.002699999837204814,0.06099999926066736,0,-0.06099999926066736
0.6032047867774963,-0.049301404505968094,9.760241508483887,0.013599999248981476,-0.011500000022351742,-0.032099999487400055,0.12199999852133472,0.12199999852133472,-0.12199999852133472
0.57695472240448,-0.05531563609838486,9.803997039794922,-0.005699999630451202,-0.011500000022351742,0.00699999975040555,-0.06099999926066736,0.12199999852133472,0
0.6004753708839417,-0.037857115268707275,9.803183555603027,0.013599999248981476,0.007999999448657036,0.00699999975040555,0.06099999926066736,0.12199999852133472,-0.12199999852133472
0.5776633620262146,-0.03637271001935005,9.771245002746582,-0.005699999630451202,0.007699999958276749,-0.022299999371170998,0,0.12199999852133472,0
0.5985312461853027,-0.046246398240327835,9.772594451904297,0.013700000010430813,-0.0018999999156221747,-0.022299999371170998,0,0.24399999704266945,-0.12199999852133472
0.5697146654129028,-0.02767697162926197,9.748068809509277,-0.015099999494850636,0.017400000244379044,-0.05169999971985817,-0.06099999926066736,0.1830000044521087,0.06099999926066736
0.6282193660736084,-0.055909398943185806,9.769549369812012,0.043299999088048935,-0.011500000022351742,-0.022299999371170998,0,0.06099999926066736,-0.12199999852133472
0.5876806974411011,-0.04839160665869713,9.781243324279785,0.0038999998942017555,-0.011299999430775642,-0.01249999925494194,0,0.24399999704266945,-0.12199999852133472
0.5776059627532959,-0.0490524061024189,9.762213706970215,0.00419999985024333,-0.00139999995008111,-0.032099999487400055,0.06099999926066736,0.12199999852133472,-0.06099999926066736
0.6036931872367859,-0.07046613842248917,9.785686492919922,-0.0050999997183680534,-0.011099999770522118,-0.032099999487400055,0.12199999852133472,0.06099999926066736,0
0.5849609375,-0.05240428447723389,9.78264045715332,0.003999999724328518,-0.010599999688565731,-0.01249999925494194,0,0,-0.12199999852133472
0.5848747491836548,-0.032762255519628525,9.784815788269043,0.003700000001117587,0.008700000122189522,-0.01249999925494194,0,0.1830000044521087,0
0.5882936120033264,-0.065055251121521,9.765202522277832,0.0038999998942017555,-0.02029999904334545,-0.032099999487400055,-0.06099999926066736,0,0
0.5788605213165283,-0.062431201338768005,9.768372535705566,-0.0058999997563660145,-0.01979999989271164,-0.022299999371170998,0.06099999926066736,0.12199999852133472,0
