Accelerometer_Gx,Accelerometer_Gy,Accelerometer_Gz,Accelerometer_X,Accelerometer_Y,Accelerometer_Z,Gyroscope_Z,Gyroscope_X,Gyroscope_Y
0.5885522365570068,-0.030913932248950005,9.759695053100586,0.009599999524652958,-0.008299999870359898,-0.041099999099969864,0.12199999852133472,0.06099999926066736,0.06099999926066736
0.5983588695526123,-0.04737646505236626,9.767959594726562,-0.010999999940395355,-0.017099998891353607,-0.03059999831020832,0.06099999926066736,0.06099999926066736,0.06099999926066736
0.6117376685142517,-0.027542896568775177,9.763649940490723,-0.0011999999405816197,0.0017999999690800905,-0.03059999831020832,0,0.06099999926066736,0
0.5997092127799988,-0.024114398285746574,9.771512985229492,-0.007899999618530273,0.0011999999405816197,-0.020999999716877937,-0.06099999926066736,0.12199999852133472,0.06099999926066736
0.6068056225776672,-0.03168007731437683,9.770938873291016,0.0009999999310821295,-0.005499999970197678,-0.020999999716877937,0,-0.06099999926066736,0
0.6102724671363831,-0.019488802179694176,9.750636100769043,0,0.0031999999191612005,-0.04050000011920929,0.06099999926066736,0.06099999926066736,-0.12199999852133472
0.6011936068534851,-0.01618480309844017,9.805817604064941,-0.0044999998062849045,0.006399999838322401,0.008100000210106373,0,0.12199999852133472,-0.06099999926066736
0.5901036858558655,-0.014537593349814415,9.777019500732422,-0.010099999606609344,0.004399999976158142,-0.02149999886751175,0.06099999926066736,0.12199999852133472,-0.12199999852133472
0.5939056873321533,-0.021883003413677216,9.760892868041992,-0.0004999999655410647,-0.003999999724328518,-0.031300000846385956,0.06099999926066736,0.24399999704266945,-0.12199999852133472
0.5834956765174866,-0.0075273700058460236,9.75894832611084,-0.014399999752640724,0.003999999724328518,-0.031599998474121094,-0.06099999926066736,0.1830000044521087,0
0.5897397398948669,-0.008983044885098934,9.772480010986328,-0.0030999998562037945,0.002699999837204814,-0.021900000050663948,0.06099999926066736,0.1830000044521087,-0.12199999852133472
0.6203184723854065,-0.02246718853712082,9.798701286315918,0.014399999752640724,-0.0037999998312443495,0.008100000210106373,-0.06099999926066736,0.12199999852133472,0
0.6058192253112793,-0.03349009156227112,9.788081169128418,0.002099999925121665,-0.0058999997563660145,-0.00139999995008111,0.06099999926066736,0.1830000044521087,0
0.5857845544815063,-0.0326952189207077,9.797599792480469,-0.00989999994635582,-0.003599999938160181,0.007799999788403511,0.06099999926066736,0.12199999852133472,-0.06099999926066736
0.6208547949790955,-0.006971915252506733,9.748825073242188,-0.007799999788403511,-0.002899999963119626,-0.03139999881386757,-0.06099999926066736,0,-0.1830000044521087
0.593723714351654,-0.002432508859783411,9.734230041503906,0.016999999061226845,0.013199999928474426,-0.05079999938607216,-0.06099999926066736,0,-0.06099999926066736
0.6047466397285461,-0.01670195162296295,9.778388977050781,0.004299999680370092,0.00559999980032444,-0.011399999260902405,0.06099999926066736,0.12199999852133472,-0.06099999926066736
0.5995463728904724,-0.02857719175517559,9.766580581665039,-0.00419999985024333,-0.0030999998562037945,-0.031099999323487282,-0.06099999926066736,0.06099999926066736,-0.06099999926066736
0.6017969250679016,-0.013005303218960762,9.762012481689453,-0.003399999812245369,0.004799999762326479,-0.031099999323487282,-0.06099999926066736,0.06099999926066736,0
0.6091710925102234,-0.029640216380357742,9.769731521606445,0.0064999996684491634,-0.014499999582767487,-0.021299999207258224,0.12199999852133472,0.06099999926066736,-0.1830000044521087
0.6190926432609558,-0.04173572361469269,9.772221565246582,0.01640000008046627,-0.024699999019503593,-0.021299999207258224,0,0.06099999926066736,-0.06099999926066736
0.6013468503952026,-0.030799010768532753,9.744860649108887,-0.002899999963119626,-0.01489999983459711,-0.05069999769330025,0.12199999852133472,0.12199999852133472,-0.06099999926066736
0.5884660482406616,0.01418325025588274,9.756074905395508,-0.012399999424815178,0.004299999680370092,-0.04099999740719795,0.06099999926066736,0.1830000044521087,0
0.5898259282112122,-0.01758301816880703,9.785399436950684,-0.011799999512732029,0.004100000020116568,-0.011599999852478504,0.06099999926066736,0.06099999926066736,-0.12199999852133472
0.6304699182510376,-0.03179499879479408,9.814129829406738,0.027400000020861626,-0.01549999974668026,0.01769999973475933,-0.06099999926066736,0.06099999926066736,-0.06099999926066736
0.6126857995986938,-0.042310334742069244,9.76063346862793,0.007899999618530273,-0.025100000202655792,-0.031199999153614044,0,0.12199999852133472,0
0.6056851148605347,-0.01468124520033598,9.751544952392578,0.008200000040233135,0.00419999985024333,-0.04099999740719795,0.12199999852133472,0.1830000044521087,0
0.6089699864387512,-0.04156334325671196,9.779078483581543,0.008700000122189522,-0.025299999862909317,-0.011599999852478504,0.06099999926066736,0.06099999926066736,0
0.5801150798797607,-0.030243555083870888,9.778656959533691,-0.020399998873472214,-0.015599999576807022,-0.011699999682605267,0.06099999926066736,0.24399999704266945,0.06099999926066736
0.5965105295181274,-0.021911732852458954,9.761571884155273,-0.00029999998514540493,-0.00139999995008111,-0.031300000846385956,-0.06099999926066736,0,0.06099999926066736
0.6053499579429626,-0.02692040428519249,9.774022102355957,0.004299999680370092,-0.0005999999702908099,-0.021199999377131462,0.06099999926066736,0.12199999852133472,-0.12199999852133472
0.6108278632164001,-0.03165134787559509,9.778034210205078,0.001999999862164259,-0.005399999674409628,-0.01119999960064888,0,0.06099999926066736,-0.06099999926066736
0.5784487128257751,-0.019795259460806847,9.774481773376465,-0.018699999898672104,0.002899999963119626,-0.02149999886751175,0.12199999852133472,0.12199999852133472,-0.06099999926066736
0.6007243394851685,-0.031507693231105804,9.77184772491455,0.00029999998514540493,-0.004699999932199717,-0.02149999886751175,0.06099999926066736,0.06099999926066736,0
0.6186712980270386,-0.024918852373957634,9.74685287475586,-0.00009999999747378752,-0.016099998727440834,-0.02149999886751175,0,0.06099999926066736,-0.06099999926066736
0.6186712980270386,-0.024918852373957634,9.74685287475586,0.014800000004470348,0.010400000028312206,-0.050599999725818634,0.06099999926066736,0.12199999852133472,0
0.6091328263282776,-0.013464991003274918,9.781261444091797,-0.010499999858438969,0.0139999995008111,-0.031300000846385956,0.06099999926066736,0.12199999852133472,-0.06099999926066736
0.5804311037063599,-0.017046716064214706,9.803384780883789,0.004600000102072954,0.0072999997064471245,-0.011399999260902405,0.06099999926066736,0.3049999896332302,-0.06099999926066736
0.5912337899208069,-0.028941109776496887,9.766561508178711,-0.003599999938160181,-0.014099999330937862,-0.031700000166893005,-0.06099999926066736,0.12199999852133472,-0.06099999926066736
0.6053499579429626,-0.028117503970861435,9.770488739013672,0.010499999858438969,-0.00279999990016222,-0.02159999869763851,0,0.12199999852133472,-0.12199999852133472
0.5977172255516052,-0.0181288942694664,9.786816596984863,0.00029999998514540493,0.003999999724328518,-0.011699999682605267,-0.06099999926066736,-0.06099999926066736,-0.06099999926066736
0.6255091428756714,-0.014805743470788002,9.774251937866211,0.01939999870955944,0.00279999990016222,-0.020899999886751175,-0.06099999926066736,0.12199999852133472,-0.06099999926066736
0.5834764838218689,-0.03664086014032364,9.753814697265625,-0.02319999970495701,-0.012799999676644802,-0.04089999943971634,0,-0.06099999926066736,0
0.5927852392196655,-0.024143129587173462,9.751075744628906,-0.010799999348819256,-0.002199999988079071,-0.041099999099969864,0.06099999926066736,-0.06099999926066736,-0.06099999926066736
0.604545533657074,-0.04377558454871178,9.761102676391602,0.0052999998442828655,-0.015099999494850636,-0.03099999949336052,0.12199999852133472,0.06099999926066736,0
0.6072269678115845,-0.022601265460252762,9.741250038146973,0.003499999875202775,0.0030999998562037945,-0.05049999803304672,-0.12199999852133472,0.12199999852133472,0
0.6168134212493896,0.0052002063021063805,9.770344734191895,0.007799999788403511,0.008100000210106373,-0.020800000056624413,0.06099999926066736,0,-0.06099999926066736
0.5868092775344849,-0.0031699230894446373,9.779346466064453,-0.012399999424815178,0.004399999976158142,-0.011500000022351742,0,0,0
0.5993548631668091,-0.010869675315916538,9.77987289428711,-0.0018999999156221747,0.002899999963119626,-0.011599999852478504,0,-0.06099999926066736,0
0.5970373153686523,-0.007412448525428772,9.764578819274902,-0.002099999925121665,0.002899999963119626,-0.031199999153614044,0,0.1830000044521087,-0.06099999926066736
0.6228946447372437,-0.023281218484044075,9.765028953552246,0.027699999511241913,-0.006799999624490738,-0.031199999153614044,0.06099999926066736,0,-0.06099999926066736
0.6053786873817444,-0.01679771952331066,9.785916328430176,0.008100000210106373,0.002699999837204814,-0.011599999852478504,-0.12199999852133472,0.06099999926066736,0
0.5748478174209595,-0.006406883709132671,9.767902374267578,-0.020999999716877937,0.003000000026077032,-0.031199999153614044,0,0.06099999926066736,0
0.6004370450973511,-0.026250027120113373,9.770362854003906,0.00839999970048666,-0.0066999997943639755,-0.031199999153614044,0,0.06099999926066736,0.06099999926066736
0.6004370450973511,-0.026250027120113373,9.770362854003906,-0.0009999999310821295,-0.00699999975040555,-0.021399999037384987,0,0.06099999926066736,0.06099999926066736
0.6099372506141663,-0.024449586868286133,9.78325366973877,0.008899999782443047,-0.00699999975040555,-0.011599999852478504,-0.1830000044521087,0.12199999852133472,0.06099999926066736
0.5922871828079224,-0.022074539214372635,9.768017768859863,-0.010300000198185444,-0.006399999838322401,-0.031300000846385956,0,0.1830000044521087,0.06099999926066736
0.5914922952651978,-0.016002843156456947,9.781396865844727,-0.00969999935477972,0.0032999999821186066,-0.011699999682605267,0.12199999852133472,-0.06099999926066736,0
0.621343195438385,-0.021806389093399048,9.777824401855469,0.019600000232458115,-0.006300000008195639,-0.02149999886751175,-0.06099999926066736,0.12199999852133472,-0.06099999926066736
0.621343195438385,-0.021806389093399048,9.777824401855469,0.019600000232458115,-0.006300000008195639,-0.02149999886751175,-0.06099999926066736,0.12199999852133472,-0.06099999926066736
0.584003210067749,-0.04064396768808365,9.756621360778809,-0.019099999219179153,-0.025699999183416367,-0.041099999099969864,0,0.12199999852133472,0
0.6100426316261292,-0.007019799202680588,9.771723747253418,0.010799999348819256,0.0037999998312443495,-0.02159999869763851,0,0.3049999896332302,-0.06099999926066736
0.6006573438644409,-0.01258392445743084,9.757071495056152,0.002899999963119626,0.007999999448657036,-0.04129999876022339,0.1830000044521087,0.1830000044521087,-0.06099999926066736
0.6097744107246399,-0.008619125932455063,9.740397453308105,0.013199999928474426,0.008299999870359898,-0.0510999970138073,0,0.12199999852133472,-0.12199999852133472
0.6019406318664551,-0.008877700194716454,9.773505210876465,0.0016999999061226845,0.004999999888241291,-0.02159999869763851,0.06099999926066736,-0.06099999926066736,-0.06099999926066736
0.6121208071708679,-0.01571553945541382,9.770498275756836,0.006799999624490738,0.0030999998562037945,-0.021299999207258224,0.06099999926066736,0.06099999926066736,0
0.5770409107208252,-0.039705440402030945,9.755423545837402,-0.017500000074505806,-0.019999999552965164,-0.041200000792741776,0,0.24399999704266945,-0.06099999926066736
0.6124081015586853,-0.0008714894065633416,9.764119148254395,0.012999999336898327,0.009099999442696571,-0.03150000050663948,0,0.12199999852133472,-0.06099999926066736
0.5847023725509644,-0.014020444825291634,9.76122760772705,-0.004999999888241291,0.0064999996684491634,-0.031599998474121094,-0.06099999926066736,0.24399999704266945,0
0.6050052046775818,-0.041410114616155624,9.777957916259766,0.015099999494850636,-0.021900000050663948,-0.012000000104308128,0.06099999926066736,0.12199999852133472,-0.1830000044521087
0.6035208106040955,-0.040011897683143616,9.789641380310059,0.00699999975040555,-0.010099999606609344,-0.0016999999061226845,-0.06099999926066736,0,-0.12199999852133472
0.5853440165519714,-0.03587471693754196,9.782018661499023,-0.00839999970048666,-0.00009999999747378752,-0.011799999512732029,0,0.12199999852133472,0
0.5927756428718567,-0.036985624581575394,9.757501602172852,0.006799999624490738,0.006000000052154064,-0.011500000022351742,0,0.12199999852133472,-0.06099999926066736
0.5927756428718567,-0.036985624581575394,9.757501602172852,-0.010300000198185444,-0.0031999999191612005,-0.041099999099969864,0,0.12199999852133472,-0.06099999926066736
0.6006094217300415,-0.009289502166211605,9.750137329101562,-0.000699999975040555,0.012399999424815178,-0.041099999099969864,0,0.06099999926066736,-0.06099999926066736
0.6005710959434509,-0.023903708904981613,9.79100227355957,-0.007199999876320362,0.008100000210106373,-0.021699998527765274,0.06099999926066736,0,-0.06099999926066736
0.5973724722862244,-0.04464707151055336,9.738213539123535,0.0010999999940395355,-0.0007999999797903001,-0.001999999862164259,-0.06099999926066736,0.12199999852133472,0
0.6073802709579468,-0.0075465235859155655,9.741623878479004,0.0005999999702908099,-0.017400000244379044,-0.06079999729990959,0.06099999926066736,0.12199999852133472,0
0.6005806922912598,-0.01578257791697979,9.755721092224121,-0.0016999999061226845,0.00699999975040555,-0.04099999740719795,-0.06099999926066736,0.1830000044521087,0
0.5824613571166992,-0.04658158868551254,9.774864196777344,-0.020800000056624413,-0.022099999710917473,-0.021399999037384987,0,0.1830000044521087,0
0.600216805934906,-0.013627796433866024,9.748661994934082,-0.000699999975040555,0.007199999876320362,-0.05089999735355377,-0.12199999852133472,0.1830000044521087,0.12199999852133472
0.5961275100708008,-0.006129156332463026,9.789200782775879,0.0031999999191612005,0.008299999870359898,-0.002099999925121665,0,0.12199999852133472,0
0.592430830001831,-0.01248815655708313,9.76722240447998,-0.004799999762326479,0.00559999980032444,-0.031599998474121094,0,0.1830000044521087,0
0.5816569328308105,-0.02836650051176548,9.774290084838867,-0.009499999694526196,-0.0026000000070780516,-0.022099999710917473,0.06099999926066736,0.1830000044521087,0
0.5832467079162598,-0.030387207865715027,9.77588939666748,-0.006399999838322401,-0.00839999970048666,-0.022299999371170998,0,0.06099999926066736,0.06099999926066736
0.6010212302207947,-0.017381904646754265,9.762787818908691,0.008899999782443047,0.007999999448657036,-0.03179999813437462,-0.06099999926066736,0.06099999926066736,-0.1830000044521087
0.5966638326644897,-0.038450878113508224,9.748011589050293,0.006399999838322401,-0.016499999910593033,-0.05130000039935112,0.12199999852133472,0.24399999704266945,-0.12199999852133472
0.6238715052604675,-0.018148047849535942,9.791154861450195,0.037299998104572296,0.011299999430775642,-0.0023999998811632395,0,0.06099999926066736,-0.1830000044521087
0.5837255120277405,-0.007211335469037294,9.741010665893555,-0.009599999524652958,0.008799999952316284,-0.051500000059604645,-0.06099999926066736,0.1830000044521087,-0.06099999926066736
0.598923921585083,-0.005420472472906113,9.790159225463867,0.004699999932199717,0.004100000020116568,-0.002199999988079071,-0.06099999926066736,0.06099999926066736,-0.12199999852133472
0.6000730991363525,-0.004405331332236528,9.760078430175781,0.0032999999821186066,0.0032999999821186066,-0.03150000050663948,0.06099999926066736,0.12199999852133472,-0.06099999926066736
0.5969032049179077,-0.00019153613538946956,9.817127227783203,0.002699999837204814,0.001999999862164259,0.017400000244379044,0,0,0
0.5753936767578125,-0.044177811592817307,9.744180679321289,-0.014099999330937862,-0.021900000050663948,-0.05130000039935112,0,0.24399999704266945,0.12199999852133472
0.5913103818893433,-0.03988740220665932,9.755989074707031,-0.001999999862164259,-0.021399999037384987,-0.041600000113248825,0.12199999852133472,0.1830000044521087,-0.06099999926066736
0.5959742665290833,-0.05028781294822693,9.763104438781738,0.005399999674409628,-0.022699998691678047,-0.031599998474121094,0,0.06099999926066736,0
0.6020268201828003,-0.031009700149297714,9.772173881530762,0.0032999999821186066,-0.002099999925121665,-0.021699998527765274,-0.06099999926066736,0,0
0.5535298585891724,-0.007785943802446127,9.77258586883545,-0.032099999487400055,0.012199999764561653,-0.022499999031424522,0.06099999926066736,0,-0.06099999926066736
0.5959551334381104,-0.044608764350414276,9.797447204589844,0.01809999905526638,0.007999999448657036,0.017099998891353607,0,0.06099999926066736,0
0.6079931855201721,-0.03324109688401222,9.79899787902832,0.009599999524652958,-0.0018999999156221747,0.007799999788403511,0.06099999926066736,0.1830000044521087,0
0.5940588712692261,-0.014326903037726879,9.792016983032227,0.00009999999747378752,0.009999999776482582,-0.0018999999156221747,0.06099999926066736,0.06099999926066736,0.06099999926066736
0.6118813753128052,-0.02248634211719036,9.777929306030273,0.006599999964237213,0,-0.011500000022351742,0.06099999926066736,0,-0.12199999852133472
0.5872880816459656,-0.04373727738857269,9.7588529586792,-0.010400000028312206,-0.015199999324977398,-0.031300000846385956,0.12199999852133472,0.06099999926066736,0
0.5685175657272339,-0.005861005745828152,9.761754035949707,-0.02290000021457672,0.010400000028312206,-0.031700000166893005,-0.06099999926066736,0.1830000044521087,0
0.5995942950248718,-0.019009962677955627,9.796585083007812,0.006899999920278788,0.010499999858438969,-0.002300000051036477,0,0.12199999852133472,-0.06099999926066736
0.5930437445640564,-0.017448943108320236,9.783388137817383,-0.0024999999441206455,0.010499999858438969,-0.01209999993443489,-0.06099999926066736,0.12199999852133472,0
0.6033005118370056,-0.0347159244120121,9.757597923278809,0.007499999832361937,-0.008799999952316284,-0.041600000113248825,-0.06099999926066736,0.06099999926066736,-0.12199999852133472
0.5845299959182739,-0.028069620952010155,9.77361011505127,-0.001999999862164259,0.0009999999310821295,-0.02199999988079071,0.06099999926066736,0.1830000044521087,0.12199999852133472
0.5872306227684021,-0.008073247969150543,9.750299453735352,-0.001500000013038516,0.010699999518692493,-0.041600000113248825,-0.06099999926066736,0,-0.06099999926066736
0.5864836573600769,-0.04382346570491791,9.778101921081543,-0.001500000013038516,-0.01850000023841858,-0.012199999764561653,0.06099999926066736,0.12199999852133472,-0.06099999926066736
0.5981769561767578,-0.006876147352159023,9.782554626464844,0.008599999360740185,0.010599999688565731,-0.012199999764561653,-0.06099999926066736,0.24399999704266945,-0.06099999926066736
0.5887725353240967,-0.027475858107209206,9.780811309814453,0.002199999988079071,-0.00009999999747378752,-0.012399999424815178,0.06099999926066736,0.1830000044521087,0
0.6125900149345398,-0.04641878232359886,9.790283203125,0.008999999612569809,-0.007999999448657036,-0.0017999999690800905,0,0.06099999926066736,-0.06099999926066736
0.5977172255516052,-0.03077985718846321,9.783339500427246,-0.0005999999702908099,0.0009999999310821295,-0.011599999852478504,0.12199999852133472,0,-0.12199999852133472
0.5759491324424744,-0.01368525717407465,9.787735939025879,-0.011699999682605267,0.011599999852478504,-0.0023999998811632395,0.06099999926066736,0.12199999852133472,0
0.5884660482406616,-0.00803494080901146,9.796919822692871,-0.0008999999845400453,0.006799999624490738,-0.0023999998811632395,0,0.12199999852133472,0
0.6129730939865112,-0.0017525556031614542,9.74170970916748,0.02329999953508377,0.00559999980032444,-0.0510999970138073,0,0.1830000044521087,-0.06099999926066736
0.6240918040275574,-0.03296336904168129,9.765364646911621,0.009399999864399433,0.0038999998942017555,-0.02149999886751175,0,0,0
0.5940684676170349,-0.019211074337363243,9.772968292236328,0.0210999995470047,-0.011500000022351742,-0.030799999833106995,0,0,0
0.5910900831222534,-0.036985624581575394,9.786970138549805,-0.009999999776482582,-0.006899999920278788,-0.011699999682605267,0,0.1830000044521087,-0.06099999926066736
0.6075525879859924,-0.023089680820703506,9.740474700927734,-0.009999999776482582,-0.006899999920278788,-0.011699999682605267,-0.06099999926066736,0,-0.12199999852133472
0.5765908360481262,-0.021509507670998573,9.763094902038574,-0.021900000050663948,0.0023999998811632395,-0.031199999153614044,0.06099999926066736,0.1830000044521087,0
0.605091392993927,-0.015418658964335918,9.7637939453125,0.007899999618530273,0.012000000104308128,-0.031199999153614044,0.06099999926066736,0.1830000044521087,-0.06099999926066736
0.594595193862915,-0.02606806717813015,9.797054290771484,-0.0013000000035390258,0.001999999862164259,-0.0017999999690800905,0.06099999926066736,0.12199999852133472,0
0.5782380104064941,-0.013828909024596214,9.764148712158203,-0.020499998703598976,0.011599999852478504,-0.031300000846385956,-0.06099999926066736,0.06099999926066736,0
0.6008201241493225,-0.02693955786526203,9.765316009521484,-0.000699999975040555,0.001999999862164259,-0.031300000846385956,0,0.1830000044521087,0.06099999926066736
0.574665904045105,-0.025771187618374825,9.787592887878418,-0.01979999989271164,0.001999999862164259,-0.0018999999156221747,-0.06099999926066736,0.1830000044521087,0.06099999926066736
0.6034250259399414,-0.031201235949993134,9.807703018188477,0.009999999776482582,-0.007499999832361937,0.01759999990463257,0.12199999852133472,0.06099999926066736,-0.06099999926066736
0.6027737855911255,-0.0283186174929142,9.784614562988281,0.00039999998989515007,0.0017999999690800905,-0.011699999682605267,0.06099999926066736,0.12199999852133472,0
0.6003413200378418,-0.019086576998233795,9.795167922973633,0.000699999975040555,0.011399999260902405,-0.0018999999156221747,0.06099999926066736,0.06099999926066736,0.06099999926066736
0.5872976779937744,-0.024957159534096718,9.75943660736084,-0.008799999952316284,0.00139999995008111,-0.03139999881386757,-0.06099999926066736,0.06099999926066736,-0.06099999926066736
0.5970468521118164,-0.013225569389760494,9.774548530578613,0.0010999999940395355,0.011399999260902405,-0.02159999869763851,-0.12199999852133472,0.12199999852133472,-0.06099999926066736
0.6062406301498413,-0.004596867132931948,9.745166778564453,0.01119999960064888,0.011699999682605267,-0.050999999046325684,0,0.1830000044521087,0.06099999926066736
0.5841085910797119,-0.006684611551463604,9.737515449523926,-0.01759999990463257,0.011599999852478504,-0.06079999729990959,0.06099999926066736,0.12199999852133472,0
0.6026109457015991,-0.013646950013935566,9.772327423095703,0.021800000220537186,0.011399999260902405,-0.041200000792741776,-0.12199999852133472,0.06099999926066736,-0.06099999926066736
0.6026109457015991,-0.013646950013935566,9.772327423095703,0.002300000051036477,0.011399999260902405,-0.02159999869763851,-0.12199999852133472,0.06099999926066736,-0.06099999926066736
0.6003029942512512,-0.008446743711829185,9.727651596069336,0.0024999999441206455,0.011699999682605267,-0.07069999724626541,0.12199999852133472,0.12199999852133472,-0.06099999926066736
0.5907740592956543,-0.023262064903974533,9.765670776367188,-0.006899999920278788,0.001500000013038516,-0.03150000050663948,-0.06099999926066736,0.24399999704266945,-0.06099999926066736
0.6003987193107605,-0.023874979466199875,9.80112361907959,0.014499999582767487,-0.0008999999845400453,0.00699999975040555,0.06099999926066736,0.06099999926066736,0
0.5808141827583313,-0.019613299518823624,9.775640487670898,-0.012399999424815178,-0.0037999998312443495,-0.021900000050663948,0,0.06099999926066736,0
0.6076866984367371,-0.007422025315463543,9.75158405303955,0.012199999764561653,0.004399999976158142,-0.04129999876022339,0.06099999926066736,0,-0.06099999926066736
0.6168420910835266,-0.01597411371767521,9.768065452575684,0.012199999764561653,0.004399999976158142,-0.04129999876022339,0.06099999926066736,0.12199999852133472,-0.06099999926066736
0.5812164545059204,-0.020178331062197685,9.735054016113281,0.014999999664723873,0.003000000026077032,-0.03099999949336052,0.06099999926066736,0.24399999704266945,-0.06099999926066736
0.5960603952407837,-0.026843789964914322,9.774022102355957,0.006599999964237213,-0.004799999762326479,-0.021900000050663948,0,0.06099999926066736,-0.06099999926066736
0.5923734307289124,-0.020293252542614937,9.788454055786133,-0.0015999999595806003,-0.0026000000070780516,-0.0023999998811632395,0.06099999926066736,0.12199999852133472,0
0.5973724722862244,-0.03213976323604584,9.75682258605957,0.006199999712407589,-0.00989999994635582,-0.04149999842047691,-0.06099999926066736,0.06099999926066736,-0.06099999926066736
0.6037410497665405,-0.04464707151055336,9.769186019897461,0.010699999518692493,-0.013399999588727951,-0.02159999869763851,-0.06099999926066736,0.06099999926066736,0
0.5815994739532471,-0.04578671231865883,9.772690773010254,-0.013299999758601189,-0.009200000204145908,-0.021900000050663948,0,0,0.06099999926066736
0.5974586606025696,-0.010084377601742744,9.779605865478516,0.003599999938160181,0.012600000016391277,-0.011899999342858791,0.12199999852133472,0,0
0.5901707410812378,-0.030272286385297775,9.76269245147705,-0.004999999888241291,-0.005399999674409628,-0.031599998474121094,-0.12199999852133472,0.06099999926066736,-0.06099999926066736
0.580747127532959,-0.020360291004180908,9.750367164611816,-0.011899999342858791,0.003599999938160181,-0.041600000113248825,0,0,0
0.5920669436454773,-0.013551182113587856,9.765786170959473,-0.001999999862164259,0.00969999935477972,-0.03179999813437462,-0.06099999926066736,0.1830000044521087,-0.12199999852133472
0.6090753078460693,-0.021356279030442238,9.759886741638184,0.012399999424815178,0,-0.03150000050663948,0,0.1830000044521087,-0.06099999926066736
0.6244077682495117,-0.013407530263066292,9.766715049743652,0.022599998861551285,0.00699999975040555,-0.030899999663233757,-0.12199999852133472,0.06099999926066736,0
0.6000444293022156,-0.003265690989792347,9.774328231811523,-0.006599999964237213,0.0072999997064471245,-0.0210999995470047,-0.06099999926066736,0.06099999926066736,0
0.591434895992279,-0.020034680142998695,9.7667818069458,-0.016200000420212746,-0.002300000051036477,-0.030899999663233757,0,0.06099999926066736,0
0.5750871896743774,-0.015581464394927025,9.780323028564453,-0.02579999901354313,0.007400000002235174,-0.011299999430775642,0,0.12199999852133472,0
0.595045268535614,-0.017362751066684723,9.770890235900879,-0.005799999926239252,0.007400000002235174,-0.021199999377131462,0,0.06099999926066736,0
0.5965584516525269,-0.02876872755587101,9.777680397033691,-0.00559999980032444,-0.01209999993443489,-0.021199999377131462,0,0.12199999852133472,-0.06099999926066736
0.6053882241249084,-0.012603078037500381,9.75649642944336,0.004399999976158142,0.007400000002235174,0.017899999395012856,-0.06099999926066736,0.06099999926066736,-0.12199999852133472
0.6053882241249084,-0.012603078037500381,9.75649642944336,0.0044999998062849045,0.007499999832361937,-0.04079999774694443,0.06099999926066736,0.1830000044521087,-0.12199999852133472
0.594164252281189,-0.03190034255385399,9.776780128479004,0.011099999770522118,-0.011699999682605267,-0.022199999541044235,0,0.06099999926066736,-0.06099999926066736
0.5772994756698608,-0.018330007791519165,9.776827812194824,-0.0052999998442828655,0.0044999998062849045,-0.02239999920129776,0.06099999926066736,0,0.06099999926066736
0.5849609375,-0.03628652170300484,9.761964797973633,0.0023999998811632395,-0.010400000028312206,-0.03199999779462814,0.06099999926066736,0.24399999704266945,0
0.5969606637954712,-0.01542823575437069,9.757099151611328,0.01599999889731407,0.008499999530613422,-0.04209999740123749,0,0.12199999852133472,0
0.6045168042182922,-0.01497812569141388,9.760940551757812,0.018199998885393143,0.006099999882280827,-0.03179999813437462,0.06099999926066736,0.12199999852133472,-0.06099999926066736
0.5909081697463989,-0.004836287349462509,9.743922233581543,-0.00139999995008111,0.004600000102072954,-0.05139999836683273,0.06099999926066736,0.12199999852133472,-0.06099999926066736
0.5915402173995972,-0.036602552980184555,9.758430480957031,-0.00139999995008111,-0.01119999960064888,-0.041600000113248825,0,0,-0.06099999926066736
0.59296715259552,-0.020839132368564606,9.731328010559082,-0.0018999999156221747,-0.0010999999940395355,-0.06119999662041664,0.06099999926066736,0.1830000044521087,0
0.5974107384681702,-0.029017724096775055,9.769885063171387,0.004900000058114529,-0.007199999876320362,-0.021800000220537186,0.12199999852133472,0.1830000044521087,-0.06099999926066736
0.5892226099967957,-0.0036296097096055746,9.746699333190918,-0.003999999724328518,0.009399999864399433,-0.05130000039935112,0,0.12199999852133472,-0.06099999926066736
0.590592086315155,-0.006770802661776543,9.780869483947754,-0.0024999999441206455,0.00559999980032444,-0.01209999993443489,0,0.12199999852133472,-0.12199999852133472
0.5703659057617188,-0.03580768033862114,9.772958755493164,-0.015699999406933784,-0.00969999935477972,-0.022299999371170998,-0.06099999926066736,0.24399999704266945,0
0.5992112159729004,-0.0187226589769125,9.775592803955078,0.01730000041425228,0.008999999612569809,-0.022499999031424522,0,0.12199999852133472,0
0.6088646054267883,-0.04297113046050072,9.768420219421387,0.01850000023841858,-0.013899999670684338,-0.02199999988079071,0,0.12199999852133472,-0.06099999926066736
0.6101096272468567,-0.014279019087553024,9.760940551757812,0.013199999928474426,0.011299999430775642,-0.03150000050663948,0.06099999926066736,0.06099999926066736,0
0.6053308248519897,-0.0051140147261321545,9.752752304077148,0.009599999524652958,0.00839999970048666,-0.041099999099969864,0.12199999852133472,0.06099999926066736,-0.06099999926066736
0.5723770260810852,-0.012737153097987175,9.773064613342285,-0.02029999904334545,0.005499999970197678,-0.02199999988079071,-0.06099999926066736,0.1830000044521087,-0.06099999926066736
0.5754511952400208,-0.0229843370616436,9.770938873291016,-0.0072999997064471245,-0.00279999990016222,-0.022199999541044235,-0.06099999926066736,0.12199999852133472,-0.06099999926066736
0.598914384841919,-0.027858929708600044,9.782928466796875,0.001500000013038516,-0.001999999862164259,-0.04179999977350235,0,0.12199999852133472,0
0.6050817966461182,0.008303090929985046,9.772624015808105,0.0064999996684491634,-0.0011999999405816197,-0.01209999993443489,-0.06099999926066736,0.06099999926066736,-0.06099999926066736
0.6112205386161804,-0.03683239594101906,9.778810501098633,0.011099999770522118,0.0058999997563660145,-0.02159999869763851,-0.12199999852133472,0.12199999852133472,-0.06099999926066736
0.5871922969818115,-0.0007757213898003101,9.769970893859863,-0.009200000204145908,0.008100000210106373,-0.02149999886751175,-0.06099999926066736,0.1830000044521087,0
0.6203472018241882,-0.01324472390115261,9.757512092590332,0.020600000396370888,0.008299999870359898,-0.041200000792741776,-0.06099999926066736,0.06099999926066736,0
0.6109907031059265,-0.028491001576185226,9.76073932647705,0.010900000110268593,-0.0013000000035390258,-0.03139999881386757,0,0.12199999852133472,0.06099999926066736
0.5898642539978027,0.01188481692224741,9.760729789733887,-0.008200000040233135,0.008499999530613422,-0.03139999881386757,0,0.12199999852133472,0
0.601203203201294,-0.033854011446237564,9.780486106872559,0.0017999999690800905,-0.010999999940395355,-0.011799999512732029,0.12199999852133472,0.3049999896332302,0
0.5996326208114624,-0.01059194840490818,9.775716781616211,0.014599999412894249,0.007699999958276749,-0.02239999920129776,0,0.06099999926066736,0
0.6161238551139832,-0.04412034898996353,9.769721984863281,0.019700000062584877,-0.01269999984651804,-0.02149999886751175,-0.06099999926066736,0.12199999852133472,-0.06099999926066736
0.6063459515571594,-0.03019567020237446,9.775296211242676,0.006099999882280827,-0.0016999999061226845,-0.021299999207258224,-0.12199999852133472,0.12199999852133472,-0.12199999852133472
0.6078494787216187,-0.01508347038179636,9.744707107543945,0.004299999680370092,0.014099999330937862,-0.050599999725818634,0.12199999852133472,0,-0.06099999926066736
0.590802788734436,-0.012708422727882862,9.756946563720703,-0.011899999342858791,0.010199999436736107,-0.04099999740719795,-0.12199999852133472,0.12199999852133472,0.06099999926066736
0.6128773093223572,-0.02308010496199131,9.749926567077637,0.005200000014156103,0.0005999999702908099,-0.04079999774694443,-0.06099999926066736,0.1830000044521087,0
0.5956295132637024,-0.03524265065789223,9.789095878601074,-0.0018999999156221747,-0.004100000020116568,-0.0017999999690800905,-0.06099999926066736,0.12199999852133472,0
0.5839362144470215,-0.01407790556550026,9.795866012573242,-0.011899999342858791,0.008700000122189522,-0.0023999998811632395,-0.06099999926066736,0.06099999926066736,-0.12199999852133472
0.6004083156585693,-0.02182554267346859,9.757166862487793,0.005799999926239252,-0.000699999975040555,-0.04149999842047691,0.06099999926066736,0.06099999926066736,-0.12199999852133472
0.605752170085907,-0.03524265065789223,9.749878883361816,0.011599999852478504,-0.008200000040233135,-0.041200000792741776,0.12199999852133472,-0.06099999926066736,0
0.5793967843055725,-0.02812708169221878,9.746278762817383,-0.014699999243021011,0.0008999999845400453,-0.05119999870657921,0,0.12199999852133472,0
0.5905058979988098,0.008638279512524605,9.767184257507324,-0.004600000102072954,0.010699999518692493,-0.031599998474121094,-0.12199999852133472,-0.06099999926066736,-0.06099999926066736
0.5776346921920776,-0.020647596567869186,9.749687194824219,-0.014499999582767487,0.0013000000035390258,-0.0414000004529953,-0.12199999852133472,0.12199999852133472,-0.12199999852133472
0.6081942915916443,-0.051197610795497894,9.775439262390137,0.015099999494850636,-0.027699999511241913,-0.021800000220537186,0,0,0
0.5759587287902832,-0.04019385948777199,9.787956237792969,-0.0142000000923872,-0.017799999564886093,-0.002199999988079071,0,0,0
0.5936758518218994,-0.00287304213270545,9.780858993530273,-0.0142000000923872,0.011399999260902405,-0.012000000104308128,0,0.12199999852133472,-0.06099999926066736
0.5798661112785339,-0.02274491637945175,9.756946563720703,-0.013799999840557575,0.0017999999690800905,-0.04149999842047691,0.06099999926066736,0.06099999926066736,0
0.619293749332428,-0.015073893591761589,9.759552001953125,0.02539999969303608,0.011399999260902405,-0.031700000166893005,0.06099999926066736,0.12199999852133472,0
0.6184414625167847,-0.020465634763240814,9.769721984863281,0.025699999183416367,0.00139999995008111,-0.021900000050663948,0.06099999926066736,0,0.06099999926066736
0.6031090021133423,-0.030080748721957207,9.765642166137695,0.006099999882280827,-0.008499999530613422,-0.031700000166893005,0,0.06099999926066736,0
0.5868476033210754,-0.01317768543958664,9.781108856201172,-0.003499999875202775,0.010999999940395355,-0.01209999993443489,0,0.06099999926066736,0.1830000044521087
0.6117089986801147,-0.03368162736296654,9.783551216125488,0.016099998727440834,-0.00839999970048666,-0.01209999993443489,-0.06099999926066736,0.24399999704266945,0
0.5783529877662659,-0.015954960137605667,9.759149551391602,0.001999999862164259,0.009399999864399433,-0.032600000500679016,0.06099999926066736,0,0
0.5978130102157593,-0.028605923056602478,9.732477188110352,0.014099999330937862,-0.00029999998514540493,-0.06159999966621399,0,0.06099999926066736,0.06099999926066736
0.5924978852272034,-0.023654712364077568,9.761303901672363,0.002099999925121665,-0.00019999999494757503,-0.03199999779462814,-0.06099999926066736,0.06099999926066736,0
0.6007052063941956,0.0008714894065633416,9.762242317199707,0.007400000002235174,0.0064999996684491634,-0.03179999813437462,0.1830000044521087,0.12199999852133472,0
0.5664777159690857,-0.00242293206974864,9.774491310119629,-0.014399999752640724,0.0037999998312443495,-0.02239999920129776,-0.12199999852133472,0.12199999852133472,-0.06099999926066736
0.5918753743171692,0.007872135378420353,9.76624584197998,0.0032999999821186066,0.003000000026077032,-0.032099999487400055,0.06099999926066736,0.12199999852133472,0
0.5986749529838562,-0.04256890341639519,9.798480987548828,0.007599999662488699,-0.014599999412894249,0.007400000002235174,-0.12199999852133472,0,0.06099999926066736
0.6015671491622925,-0.007728483062237501,9.78969955444336,0.0037999998312443495,0.007699999958276749,-0.002099999925121665,0,0.06099999926066736,0
0.6050435304641724,-0.019517531618475914,9.782755851745605,0.008799999952316284,-0.0013000000035390258,-0.011599999852478504,0,0.24399999704266945,0
0.5913103818893433,-0.041266459971666336,9.762443542480469,-0.001999999862164259,-0.020899999886751175,-0.03179999813437462,0.06099999926066736,0.06099999926066736,-0.06099999926066736
0.5851620435714722,-0.008341399021446705,9.763927459716797,-0.0017999999690800905,0.006199999712407589,-0.03179999813437462,0,0.1830000044521087,-0.12199999852133472
0.6123985052108765,-0.03547249361872673,9.765028953552246,-0.0013000000035390258,-0.0023999998811632395,-0.02199999988079071,0.06099999926066736,0,-0.06099999926066736
0.5865123867988586,-0.013599066063761711,9.752732276916504,0.012999999336898327,-0.008899999782443047,-0.03150000050663948,-0.06099999926066736,0.06099999926066736,0
0.6013564467430115,-0.0071921818889677525,9.779509544372559,0.002199999988079071,0.004699999932199717,-0.011799999512732029,-0.06099999926066736,0,0.06099999926066736
0.600427508354187,-0.029707254841923714,9.777220726013184,0.0010999999940395355,-0.009999999776482582,-0.02159999869763851,-0.06099999926066736,0,-0.06099999926066736
0.593177855014801,-0.018454505130648613,9.758354187011719,-0.007199999876320362,0.007400000002235174,-0.04129999876022339,0,0.12199999852133472,-0.06099999926066736
0.6062597632408142,-0.0209732074290514,9.766839981079102,0.00839999970048666,-0.0015999999595806003,-0.031199999153614044,-0.06099999926066736,0.06099999926066736,0.06099999926066736
0.6004179120063782,-0.026001030579209328,9.788300514221191,-0.0005999999702908099,-0.000699999975040555,-0.0018999999156221747,0,0.12199999852133472,-0.06099999926066736
0.5963477492332458,-0.02825157903134823,9.774950981140137,-0.0004999999655410647,-0.0004999999655410647,-0.02149999886751175,-0.06099999926066736,0.12199999852133472,0
0.58962482213974,-0.027303475886583328,9.740397453308105,-0.009999999776482582,-0.00029999998514540493,-0.05089999735355377,0,0.12199999852133472,0.12199999852133472
0.6002551317214966,-0.025445574894547462,9.75440788269043,0.00009999999747378752,-0.00029999998514540493,-0.041099999099969864,0.12199999852133472,0.1830000044521087,0
0.5983684659004211,-0.018109740689396858,9.769070625305176,0.0005999999702908099,0.009099999442696571,-0.02149999886751175,0,0.12199999852133472,-0.12199999852133472
0.5988664627075195,-0.03974374756217003,9.780696868896484,0.0008999999845400453,-0.02019999921321869,-0.011799999512732029,0.12199999852133472,0,-0.12199999852133472
0.5851333141326904,-0.01168370433151722,9.769396781921387,-0.008799999952316284,0.008700000122189522,-0.02159999869763851,0.06099999926066736,0.24399999704266945,0.06099999926066736
0.578036904335022,-0.025110388174653053,9.75997257232666,-0.002300000051036477,-0.00139999995008111,-0.03229999914765358,-0.12199999852133472,0.06099999926066736,0
0.5937141180038452,-0.03793372958898544,9.765939712524414,0.00419999985024333,-0.006899999920278788,-0.032099999487400055,0.06099999926066736,0,-0.06099999926066736
0.5971426367759705,-0.022850262001156807,9.7667818069458,0.008799999952316284,0.0016999999061226845,-0.03179999813437462,-0.06099999926066736,0.12199999852133472,-0.06099999926066736
0.5949878692626953,-0.020254945382475853,9.77807331085205,0.004900000058114529,0.0010999999940395355,-0.012000000104308128,0,0,-0.06099999926066736
0.5907836556434631,-0.010371682234108448,9.788128852844238,-0.0024999999441206455,0.005499999970197678,-0.002300000051036477,0.06099999926066736,0.06099999926066736,-0.06099999926066736
0.5994889736175537,-0.02267787978053093,9.762136459350586,0.005200000014156103,-0.0032999999821186066,-0.031599998474121094,0.06099999926066736,0.1830000044521087,0.06099999926066736
0.5813887715339661,-0.011674127541482449,9.760480880737305,-0.010699999518692493,0.004600000102072954,-0.03179999813437462,-0.06099999926066736,-0.1830000044521087,0.06099999926066736
0.5884947776794434,-0.01684560440480709,9.783148765563965,-0.0010999999940395355,0.002899999963119626,-0.012199999764561653,0.06099999926066736,0.06099999926066736,-0.06099999926066736
0.6052159070968628,-0.03429454565048218,9.776071548461914,0.013799999840557575,-0.005399999674409628,-0.0414000004529953,0,0.24399999704266945,0
0.6115556955337524,-0.003687070682644844,9.770086288452148,0.023099999874830246,-0.0139999995008111,-0.022299999371170998,0,0.06099999926066736,0
0.5946813821792603,-0.031143775209784508,9.797983169555664,0.014999999664723873,0.003499999875202775,-0.021800000220537186,-0.06099999926066736,0.3049999896332302,-0.12199999852133472
0.6268690228462219,-0.021739350631833076,9.760173797607422,0.041600000113248825,0.00009999999747378752,-0.03199999779462814,-0.06099999926066736,0.12199999852133472,0
0.6209409832954407,-0.005717353895306587,9.773265838623047,0.021399999037384987,0.006799999624490738,-0.02159999869763851,0.06099999926066736,0.1830000044521087,-0.06099999926066736
0.5901707410812378,-0.028184542432427406,9.776981353759766,-0.005499999970197678,-0.002099999925121665,-0.021800000220537186,0.1830000044521087,0.06099999926066736,-0.06099999926066736
0.5841085910797119,-0.02582864835858345,9.781204223632812,-0.009599999524652958,-0.0015999999595806003,-0.012299999594688416,0,0.1830000044521087,0
0.5885905623435974,-0.030396783724427223,9.76489543914795,0,-0.00839999970048666,-0.03189999982714653,0,0.12199999852133472,0
0.5672534108161926,-0.018990809097886086,9.77157974243164,-0.013499999418854713,0.007499999832361937,-0.02239999920129776,0,0.06099999926066736,0
0.594164252281189,-0.028969841077923775,9.762931823730469,0.010999999940395355,-0.008599999360740185,-0.03199999779462814,-0.12199999852133472,0,-0.06099999926066736
0.5970851182937622,-0.04752969369292259,9.74143123626709,0.007999999448657036,-0.0142000000923872,-0.05139999836683273,0,0.06099999926066736,-0.12199999852133472
0.6080601811408997,-0.023041797801852226,9.79219913482666,0.007899999618530273,0.0023999998811632395,-0.0017999999690800905,0.06099999926066736,0.06099999926066736,0
0.5928139090538025,-0.021576546132564545,9.77791976928711,-0.007699999958276749,0.00139999995008111,-0.011799999512732029,-0.06099999926066736,0.12199999852133472,-0.1830000044521087
0.5933598279953003,-0.016462530940771103,9.754744529724121,-0.006399999838322401,0.008999999612569809,-0.04129999876022339,0.06099999926066736,0,-0.06099999926066736
0.6229042410850525,-0.012909535318613052,9.74438190460205,0.03280000016093254,0.008799999952316284,-0.0510999970138073,0.06099999926066736,0.12199999852133472,-0.06099999926066736
0.6166505813598633,-0.01682645082473755,9.769942283630371,0.02329999953508377,0.008599999360740185,-0.021699998527765274,0.12199999852133472,0.06099999926066736,-0.12199999852133472
0.557245671749115,-0.045441947877407074,9.765987396240234,-0.03529999777674675,-0.020999999716877937,-0.03150000050663948,-0.06099999926066736,0,-0.06099999926066736
0.6152044534683228,0.0111378263682127,9.743270874023438,0.023499999195337296,0.008499999530613422,-0.05119999870657921,-0.06099999926066736,0.06099999926066736,0.06099999926066736
0.581925094127655,-0.036296095699071884,9.764349937438965,-0.01549999974668026,-0.010900000110268593,-0.031599998474121094,0.06099999926066736,-0.06099999926066736,0
0.6150225400924683,-0.016577452421188354,9.781118392944336,0.023399999365210533,0.008499999530613422,-0.011899999342858791,0.06099999926066736,0.24399999704266945,-0.06099999926066736
0.6203376650810242,-0.01767878606915474,9.771628379821777,0.04079999774694443,0.007699999958276749,-0.02279999852180481,0.06099999926066736,0.12199999852133472,0
0.6163920164108276,-0.0215669684112072,9.760058403015137,0.024799998849630356,-0.0013000000035390258,-0.031599998474121094,0.06099999926066736,0.06099999926066736,0
0.6214773058891296,-0.035060688853263855,9.77502727508545,0.014499999582767487,-0.006799999624490738,-0.021199999377131462,0.12199999852133472,0,-0.06099999926066736
0.5894237160682678,-0.0401747040450573,9.78837776184082,-0.007699999958276749,-0.009599999524652958,-0.001999999862164259,0,0.06099999926066736,-0.12199999852133472
0.607265293598175,-0.013311761431396008,9.757932662963867,-0.007699999958276749,-0.009599999524652958,-0.001999999862164259,-0.06099999926066736,0.06099999926066736,0
0.6151948571205139,0.0026336219161748886,9.77104377746582,0.008999999612569809,0.015599999576807022,-0.041099999099969864,0,-0.06099999926066736,0.06099999926066736
0.6049477458000183,-0.01039083581417799,9.779671669006348,0.012299999594688416,0.010599999688565731,-0.0210999995470047,-0.1830000044521087,0,0.06099999926066736
0.6003699898719788,-0.0070964135229587555,9.771368980407715,-0.006399999838322401,0.004799999762326479,-0.0210999995470047,-0.06099999926066736,0.12199999852133472,0
0.5683643221855164,-0.030320169404149055,9.788089752197266,-0.01850000023841858,-0.007599999662488699,-0.0024999999441206455,0,0.12199999852133472,-0.06099999926066736
0.5965871810913086,-0.03129700571298599,9.77753734588623,0.007599999662488699,-0.005399999674409628,-0.02199999988079071,-0.06099999926066736,0.1830000044521087,0.06099999926066736
0.6091136336326599,-0.026154259219765663,9.786663055419922,0.017899999395012856,0.0044999998062849045,-0.012199999764561653,0.06099999926066736,0.1830000044521087,-0.12199999852133472
0.6172730922698975,-0.023942016065120697,9.795626640319824,0.028199998661875725,0.004299999680370092,-0.0023999998811632395,0.06099999926066736,0.1830000044521087,0
0.6007435321807861,0.009921572171151638,9.744678497314453,0.008999999612569809,0.013899999670684338,-0.051500000059604645,-0.06099999926066736,0.06099999926066736,-0.12199999852133472
0.6077441573143005,-0.01909615285694599,9.769205093383789,0.01899999938905239,0.0139999995008111,-0.02199999988079071,0.06099999926066736,0.12199999852133472,-0.06099999926066736
0.5869624614715576,-0.029180530458688736,9.776607513427734,-0.00019999999494757503,-0.005699999630451202,-0.022099999710917473,0,0,0
0.5986270308494568,-0.034208353608846664,9.793941497802734,0.009399999864399433,-0.00559999980032444,-0.0024999999441206455,0,0.06099999926066736,-0.12199999852133472
0.5993165969848633,-0.03440946713089943,9.778637886047363,0.009999999776482582,-0.005499999970197678,-0.012299999594688416,-0.06099999926066736,0.1830000044521087,-0.12199999852133472
0.581168532371521,-0.015361198224127293,9.736922264099121,0.009999999776482582,-0.005499999970197678,-0.012299999594688416,-0.12199999852133472,0.12199999852133472,0
0.596759557723999,-0.022907722741365433,9.771397590637207,0.010799999348819256,0.004699999932199717,-0.022099999710917473,-0.06099999926066736,0.06099999926066736,0
0.5877478122711182,-0.011358093470335007,9.777440071105957,0.0011999999405816197,0.014599999412894249,-0.022199999541044235,0,0.1830000044521087,0
0.6017395257949829,-0.029611486941576004,9.795981407165527,0.0011999999405816197,0.014599999412894249,-0.022199999541044235,0,0.12199999852133472,-0.06099999926066736
0.5979662537574768,-0.030818164348602295,9.779557228088379,0.011599999852478504,-0.004900000058114529,-0.012399999424815178,-0.06099999926066736,-0.06099999926066736,0.06099999926066736
0.597305417060852,-0.019488802179694176,9.770133972167969,0.011799999512732029,0.004600000102072954,-0.022199999541044235,-0.06099999926066736,0,-0.06099999926066736
0.5857558250427246,-0.04474284127354622,9.754505157470703,0.001999999862164259,-0.014699999243021011,-0.04179999977350235,-0.06099999926066736,-0.06099999926066736,-0.06099999926066736
0.6016150116920471,-0.005765237845480442,9.75402545928955,0.011599999852478504,0.014699999243021011,-0.04179999977350235,-0.12199999852133472,0.06099999926066736,-0.1830000044521087
0.5794638395309448,-0.008446743711829185,9.76064395904541,-0.007799999788403511,0.01489999983459711,-0.03199999779462814,-0.12199999852133472,0.06099999926066736,0.06099999926066736
0.614514946937561,-0.02606806717813015,9.77938461303711,0.031199999153614044,0.005399999674409628,-0.012399999424815178,0,0.12199999852133472,-0.12199999852133472
0.5813600420951843,0.0007948749698698521,9.755816459655762,-0.007499999832361937,0.015099999494850636,-0.04179999977350235,0.06099999926066736,0.3049999896332302,-0.06099999926066736
0.6033771634101868,-0.031038431450724602,9.771895408630371,0.04169999808073044,-0.009499999694526196,-0.023399999365210533,0.06099999926066736,-0.06099999926066736,0
0.6105310320854187,-0.016768990084528923,9.780610084533691,0.016999999061226845,0.004100000020116568,-0.01209999993443489,-0.12199999852133472,-0.06099999926066736,0
0.598598301410675,-0.03431369736790657,9.765642166137695,0.004299999680370092,-0.010400000028312206,-0.031599998474121094,-0.06099999926066736,0.06099999926066736,0
0.5939822793006897,-0.012478579767048359,9.76432991027832,0.0026000000070780516,0.0064999996684491634,-0.03150000050663948,0.06099999926066736,0.12199999852133472,0
0.6163345575332642,-0.03121081367135048,9.79196834564209,0.010099999606609344,-0.0058999997563660145,-0.0013000000035390258,0,0.12199999852133472,-0.06099999926066736
0.591463565826416,-0.017544711008667946,9.721809387207031,-0.01679999940097332,0.011699999682605267,-0.07009999454021454,-0.06099999926066736,0.12199999852133472,-0.12199999852133472
0.6017299294471741,-0.038968026638031006,9.764732360839844,-0.005399999674409628,-0.01269999984651804,-0.03099999949336052,0,0,0
0.602716326713562,-0.010467450134456158,9.757989883422852,-0.004699999932199717,0.012600000016391277,-0.04079999774694443,0,0.12199999852133472,0
0.6022949814796448,-0.004347870126366615,9.743701934814453,-0.003999999724328518,0.009800000116229057,-0.05069999769330025,-0.12199999852133472,0.12199999852133472,0.06099999926066736
0.6053212285041809,-0.026958711445331573,9.764904975891113,0.003599999938160181,0.00019999999494757503,-0.030899999663233757,0,-0.06099999926066736,-0.06099999926066736
0.5832083821296692,-0.013263877481222153,9.756525039672852,-0.023399999365210533,0.01809999905526638,-0.04089999943971634,0,0.1830000044521087,-0.06099999926066736
0.5832083821296692,-0.013263877481222153,9.756525039672852,-0.023399999365210533,0.01809999905526638,-0.04089999943971634,0,0.1830000044521087,-0.06099999926066736
0.5891364216804504,-0.018942924216389656,9.738300323486328,-0.01269999984651804,0.017899999395012856,-0.060499999672174454,0.06099999926066736,0,-0.06099999926066736
0.5891364216804504,-0.018942924216389656,9.738300323486328,-0.01269999984651804,0.017899999395012856,-0.060499999672174454,0.06099999926066736,0,-0.06099999926066736
0.5848076939582825,-0.040509890764951706,9.778120994567871,-0.022499999031424522,-0.0017999999690800905,-0.021299999207258224,0,0.06099999926066736,0
0.6102054119110107,-0.03264733403921127,9.768447875976562,-0.01249999925494194,-0.011599999852478504,-0.011500000022351742,-0.06099999926066736,0.1830000044521087,-0.06099999926066736
0.5755948424339294,-0.023214180022478104,9.746115684509277,0.007199999876320362,-0.001999999862164259,-0.021299999207258224,0,0.06099999926066736,-0.06099999926066736
0.6114216446876526,-0.017669208347797394,9.770909309387207,-0.02159999869763851,0.007899999618530273,-0.05079999938607216,0,0.06099999926066736,-0.06099999926066736
0.5676939487457275,-0.0046447510831058025,9.774893760681152,-0.03099999949336052,0.01759999990463257,-0.021399999037384987,0.12199999852133472,0.1830000044521087,-0.06099999926066736
0.6101192235946655,-0.006129156332463026,9.754111289978027,0.008599999360740185,0.01719999872148037,-0.04099999740719795,0.06099999926066736,0.06099999926066736,0.06099999926066736
0.5942025780677795,-0.011070788837969303,9.777632713317871,-0.0009999999310821295,0.016999999061226845,-0.021399999037384987,0.06099999926066736,0.06099999926066736,0
0.5958592891693115,-0.017448943108320236,9.767911911010742,-0.0007999999797903001,0.01679999940097332,-0.031199999153614044,0.06099999926066736,0.06099999926066736,0
0.6107895970344543,-0.02004425600171089,9.772384643554688,0.008999999612569809,0.006799999624490738,-0.02149999886751175,-0.12199999852133472,0.12199999852133472,-0.12199999852133472
0.5975640416145325,-0.009979032911360264,9.772786140441895,-0.00039999998989515007,0.01679999940097332,-0.02149999886751175,0,0.12199999852133472,0
0.5919424295425415,-0.012536040507256985,9.769319534301758,-0.009499999694526196,0.016899999231100082,-0.02149999886751175,-0.06099999926066736,0.06099999926066736,-0.12199999852133472
0.604995608329773,-0.008896853774785995,9.759866714477539,0.010199999436736107,0.016999999061226845,-0.031300000846385956,-0.12199999852133472,0.12199999852133472,0
0.604995608329773,-0.008896853774785995,9.759866714477539,0.010199999436736107,0.016999999061226845,-0.031300000846385956,-0.12199999852133472,0.12199999852133472,0
0.5940014719963074,0.01769793964922428,9.770401954650879,0.000699999975040555,0.01719999872148037,-0.02149999886751175,0,0.12199999852133472,-0.06099999926066736
0.5800672173500061,-0.023242909461259842,9.770440101623535,-0.018400000408291817,0.007400000002235174,-0.02159999869763851,-0.06099999926066736,0.24399999704266945,-0.12199999852133472
0.5941259264945984,-0.013034033589065075,9.771283149719238,0.030799999833106995,0.011099999770522118,-0.02329999953508377,0,0.12199999852133472,-0.12199999852133472
0.5898929834365845,-0.03674620762467384,9.772566795349121,0.010300000198185444,-0.004299999680370092,-0.022699998691678047,-0.06099999926066736,0.1830000044521087,-0.06099999926066736
0.5978608727455139,-0.031526848673820496,9.79094409942627,0.008499999530613422,-0.0016999999061226845,-0.0023999998811632395,0,0.1830000044521087,-0.12199999852133472
0.5767727494239807,-0.024200590327382088,9.756085395812988,-0.008799999952316284,0.006300000008195639,-0.04179999977350235,0,0.06099999926066736,-0.12199999852133472
0.5935513377189636,-0.015064316801726818,9.778322219848633,0.00039999998989515007,0.009800000116229057,-0.012299999594688416,0.12199999852133472,0.1830000044521087,-0.06099999926066736
0.5702605843544006,-0.012066775932908058,9.797638893127441,-0.013899999670684338,0.0064999996684491634,0.006899999920278788,0,0.06099999926066736,-0.06099999926066736
0.5973724722862244,-0.010093954391777515,9.782392501831055,-0.013899999670684338,0.0064999996684491634,0.006899999920278788,-0.06099999926066736,0.06099999926066736,-0.12199999852133472
0.5858132839202881,-0.02765781804919243,9.736759185791016,-0.0004999999655410647,-0.0044999998062849045,-0.06129999831318855,-0.12199999852133472,0,0
0.6033387780189514,-0.018406622111797333,9.740283012390137,0.014299999922513962,0.004299999680370092,-0.05119999870657921,0.12199999852133472,0.1830000044521087,0.06099999926066736
0.5952942967414856,-0.027715278789401054,9.711321830749512,0.0032999999821186066,-0.004699999932199717,-0.08049999922513962,0.06099999926066736,0.12199999852133472,0
0.5869911909103394,-0.03312617540359497,9.754600524902344,-0.006000000052154064,-0.014699999243021011,-0.04129999876022339,0,0.06099999926066736,0
0.5753841400146484,-0.027303475886583328,9.735944747924805,-0.015699999406933784,-0.004900000058114529,-0.060999996960163116,0,0.12199999852133472,-0.06099999926066736
0.600006103515625,-0.017525557428598404,9.7836275100708,0.00419999985024333,0.004799999762326479,-0.012000000104308128,0,0.06099999926066736,0.06099999926066736
0.6064608693122864,-0.030454246327280998,9.747360229492188,0.014099999330937862,-0.014699999243021011,-0.05119999870657921,-0.06099999926066736,0.3049999896332302,0
0.5922297239303589,-0.030061595141887665,9.769195556640625,0.014699999243021011,-0.01249999925494194,-0.023000000044703484,0.06099999926066736,0.06099999926066736,0.06099999926066736
0.5952463746070862,-0.01407790556550026,9.759905815124512,0.015199999324977398,0.004399999976158142,-0.03219999745488167,-0.12199999852133472,0,0
0.5761024355888367,-0.004673481918871403,9.796748161315918,-0.002099999925121665,0.002300000051036477,-0.002899999963119626,0,0.12199999852133472,0
0.5883224010467529,-0.013867216184735298,9.774807929992676,0.005200000014156103,0.0015999999595806003,-0.02239999920129776,0.06099999926066736,-0.06099999926066736,-0.06099999926066736
0.5951219201087952,-0.022218191996216774,9.773505210876465,0.009999999776482582,-0.005799999926239252,-0.022099999710917473,0.06099999926066736,0,-0.06099999926066736
0.6202802062034607,-0.035865142941474915,9.777019500732422,0.019999999552965164,-0.010799999348819256,-0.02149999886751175,0.06099999926066736,-0.06099999926066736,0
0.6071025133132935,-0.027878083288669586,9.748558044433594,0.0072999997064471245,-0.0008999999845400453,-0.05079999938607216,-0.06099999926066736,0.1830000044521087,-0.06099999926066736
0.5773473381996155,-0.023147141560912132,9.767739295959473,-0.016099998727440834,-0.0004999999655410647,-0.03150000050663948,0,0,0
0.5753554105758667,-0.025445574894547462,9.796125411987305,-0.008499999530613422,-0.00029999998514540493,-0.0024999999441206455,0,0.12199999852133472,0
0.6129443645477295,-0.032810140401124954,9.752445220947266,0.025999998673796654,-0.007599999662488699,-0.04149999842047691,0.06099999926066736,0.3049999896332302,0
0.5780751705169678,-0.006655880715698004,9.772432327270508,-0.0010999999940395355,0.010900000110268593,-0.022599998861551285,0.12199999852133472,0,-0.06099999926066736
0.5780751705169678,-0.006655880715698004,9.772432327270508,-0.0010999999940395355,0.010900000110268593,-0.022599998861551285,0.12199999852133472,0,-0.06099999926066736
0.6038559675216675,-0.02137543261051178,9.76064395904541,0.017999999225139618,0.002300000051036477,-0.03179999813437462,-0.12199999852133472,0.06099999926066736,0.06099999926066736
0.6017969250679016,-0.03182372823357582,9.758641242980957,0.005699999630451202,-0.0052999998442828655,-0.04149999842047691,0,0,0
0.6128485798835754,-0.022237345576286316,9.817098617553711,0.010400000028312206,0.00279999990016222,0.01759999990463257,-0.06099999926066736,0.06099999926066736,-0.06099999926066736
0.6009255051612854,-0.009816226549446583,9.763851165771484,0.00009999999747378752,0.00930000003427267,-0.031300000846385956,0,0.06099999926066736,-0.06099999926066736
0.5771271586418152,-0.027475858107209206,9.748059272766113,-0.01589999906718731,-0.00029999998514540493,-0.0510999970138073,0.06099999926066736,0.1830000044521087,0
0.5874987840652466,-0.019919758662581444,9.76302719116211,-0.0044999998062849045,-0.00029999998514540493,-0.031599998474121094,0,0.12199999852133472,-0.06099999926066736
0.6107991337776184,-0.023137565702199936,9.797992706298828,0.008999999612569809,-0.00019999999494757503,0.007899999618530273,0,0.1830000044521087,-0.06099999926066736
0.6073323488235474,-0.037378277629613876,9.767509460449219,0.006599999964237213,-0.007400000002235174,-0.031099999323487282,0,0.12199999852133472,0.06099999926066736
0.5921339988708496,-0.022974759340286255,9.762807846069336,-0.00969999935477972,0.0016999999061226845,-0.031300000846385956,0,0.12199999852133472,0.12199999852133472
0.5787742733955383,-0.02153823897242546,9.790704727172852,-0.019199999049305916,0.0016999999061226845,-0.0018999999156221747,0,0.06099999926066736,-0.06099999926066736
0.5636908411979675,-0.01670195162296295,9.778120994567871,-0.038599997758865356,0.011500000022351742,-0.011699999682605267,0.06099999926066736,0.1830000044521087,-0.06099999926066736
0.5874413251876831,0.000823605339974165,9.76646614074707,-0.008700000122189522,0.011299999430775642,-0.03139999881386757,-0.06099999926066736,0.06099999926066736,0.06099999926066736
0.6060969233512878,-0.008820239454507828,9.775218963623047,0.010999999940395355,0.011500000022351742,-0.02159999869763851,0.06099999926066736,0.12199999852133472,0.06099999926066736
0.610837459564209,-0.009979032911360264,9.756659507751465,0.011299999430775642,0.011299999430775642,-0.041200000792741776,-0.06099999926066736,0.12199999852133472,0
0.5908697843551636,-0.03952348232269287,9.774672508239746,-0.007799999788403511,-0.017799999564886093,-0.02159999869763851,0,0,0
0.5971426367759705,-0.037196315824985504,9.76041316986084,0.0018999999156221747,-0.007999999448657036,-0.03139999881386757,-0.06099999926066736,0.12199999852133472,0.06099999926066736
0.610416054725647,-0.002930502872914076,9.754878044128418,0.012000000104308128,0.011699999682605267,-0.041200000792741776,-0.06099999926066736,0.12199999852133472,0
0.5922775864601135,-0.0076327151618897915,9.780974388122559,-0.007199999876320362,0.011799999512732029,-0.011799999512732029,0,0.06099999926066736,-0.06099999926066736
0.5991920828819275,-0.033423058688640594,9.774299621582031,0.002699999837204814,-0.007699999958276749,-0.021699998527765274,0,0.1830000044521087,-0.12199999852133472
0.6002646684646606,-0.013733141124248505,9.789593696594238,0.0031999999191612005,0.011699999682605267,-0.002099999925121665,0.12199999852133472,0.06099999926066736,0
0.5821453332901001,-0.006675034295767546,9.763516426086426,-0.016200000420212746,0.011299999430775642,-0.0510999970138073,0.06099999926066736,0.06099999926066736,-0.06099999926066736
0.5864261984825134,-0.012009315192699432,9.77807331085205,-0.006000000052154064,0.011099999770522118,-0.011899999342858791,-0.06099999926066736,0,0.06099999926066736
0.5946526527404785,-0.015275007113814354,9.76162052154541,0.003700000001117587,0.01119999960064888,-0.03150000050663948,0,0,-0.12199999852133472
0.5889353156089783,-0.044398076832294464,9.77961540222168,-0.006000000052154064,-0.017999999225139618,-0.011899999342858791,-0.06099999926066736,0.06099999926066736,0
0.6040570735931396,-0.03791457787156105,9.769061088562012,0.013700000010430813,-0.007999999448657036,-0.021699998527765274,0,0.06099999926066736,-0.12199999852133472
0.5815420150756836,-0.02239057421684265,9.766063690185547,-0.01549999974668026,0.0016999999061226845,-0.031599998474121094,-0.06099999926066736,0.24399999704266945,0
0.5901228785514832,-0.003983951639384031,9.770344734191895,0.026499999687075615,0.009800000116229057,-0.023599999025464058,0.06099999926066736,-0.06099999926066736,-0.06099999926066736
0.6109811663627625,-0.00968215148895979,9.774433135986328,0.02290000021457672,0.004900000058114529,-0.022299999371170998,-0.12199999852133472,0.12199999852133472,-0.12199999852133472
0.6006764769554138,-0.012526463717222214,9.766475677490234,0.007499999832361937,0.006899999920278788,-0.03179999813437462,0,0.12199999852133472,0
0.6006764769554138,-0.012526463717222214,9.766475677490234,0.007499999832361937,0.006899999920278788,-0.03179999813437462,0,0.12199999852133472,0
0.611804723739624,0.00629196222871542,9.780582427978516,0.009999999776482582,0.003999999724328518,-0.011699999682605267,0,0.12199999852133472,-0.06099999926066736
0.5812930464744568,-0.01349372137337923,9.776501655578613,-0.013499999418854713,0.002699999837204814,-0.021900000050663948,0.06099999926066736,0.12199999852133472,0.06099999926066736
0.6051392555236816,-0.006607996299862862,9.753077507019043,0.011799999512732029,0.0018999999156221747,-0.041200000792741776,0.06099999926066736,0.12199999852133472,0
0.5952273011207581,-0.02137543261051178,9.776684761047363,0.0010999999940395355,-0.005200000014156103,-0.02159999869763851,0.12199999852133472,0.12199999852133472,-0.12199999852133472
0.572080135345459,-0.0017238252330571413,9.755721092224121,-0.021299999207258224,0.006399999838322401,-0.041600000113248825,0.12199999852133472,0.12199999852133472,0.06099999926066736
0.5682206749916077,-0.03191949799656868,9.781118392944336,-0.020499998703598976,-0.013499999418854713,-0.012199999764561653,-0.12199999852133472,0.12199999852133472,-0.06099999926066736
0.5833712220191956,-0.02807919681072235,9.768783569335938,-0.010400000028312206,-0.0032999999821186066,-0.022099999710917473,-0.12199999852133472,0.12199999852133472,-0.06099999926066736
0.6069684624671936,-0.030463824048638344,9.770075798034668,0.019199999049305916,-0.012799999676644802,-0.022099999710917473,-0.06099999926066736,0.1830000044521087,0
0.5676748156547546,-0.023855825886130333,9.770918846130371,-0.019299998879432678,-0.00279999990016222,-0.022099999710917473,0,0.1830000044521087,0
0.6028408408164978,-0.01573469303548336,9.794046401977539,0.010400000028312206,0.006899999920278788,-0.0024999999441206455,0.06099999926066736,0.06099999926066736,0
0.5761598348617554,-0.039140406996011734,9.741498947143555,-0.008999999612569809,-0.022599998861551285,-0.05159999802708626,0,0.24399999704266945,0
0.5904197096824646,-0.030597899109125137,9.766629219055176,0.00139999995008111,-0.01269999984651804,-0.03199999779462814,0.06099999926066736,0.12199999852133472,0.06099999926066736
0.568833589553833,-0.02134670317173004,9.796125411987305,-0.01769999973475933,-0.0030999998562037945,-0.0026000000070780516,0.06099999926066736,0.06099999926066736,-0.06099999926066736
0.6009255051612854,-0.002298433566465974,9.768372535705566,0.011699999682605267,0.006399999838322401,-0.022199999541044235,0,0.12199999852133472,0
0.5905154943466187,-0.020743364468216896,9.774118423461914,0.002300000051036477,-0.0032999999821186066,-0.022199999541044235,-0.12199999852133472,0.12199999852133472,0.06099999926066736
0.59222012758255,-0.025771187618374825,9.793194770812988,0.0026000000070780516,-0.002899999963119626,-0.0026000000070780516,-0.06099999926066736,0.24399999704266945,-0.06099999926066736
0.6115940809249878,-0.05369715392589569,9.76117992401123,0.02290000021457672,-0.03219999745488167,-0.032099999487400055,-0.06099999926066736,0.06099999926066736,0.06099999926066736
0.583782970905304,-0.02715982496738434,9.75503158569336,-0.006199999712407589,-0.0026000000070780516,-0.04189999774098396,0,0.06099999926066736,-0.12199999852133472
0.5951027870178223,-0.025062503293156624,9.770977020263672,0.013399999588727951,-0.0026000000070780516,-0.022299999371170998,-0.06099999926066736,0.06099999926066736,-0.12199999852133472
0.5976119041442871,-0.012334927916526794,9.781779289245605,0.013899999670684338,0.007400000002235174,-0.01249999925494194,0,0.12199999852133472,-0.06099999926066736
0.5868954658508301,-0.035041533410549164,9.77184772491455,0.013899999670684338,0.007400000002235174,-0.01249999925494194,0.06099999926066736,0.12199999852133472,-0.06099999926066736
0.5879680514335632,-0.019440917298197746,9.754925727844238,0.004399999976158142,-0.01209999993443489,-0.02239999920129776,-0.12199999852133472,0.24399999704266945,-0.06099999926066736
0.6265434622764587,-0.0035146879963576794,9.803030014038086,0.004799999762326479,-0.0024999999441206455,-0.041999999433755875,-0.06099999926066736,0.12199999852133472,0
0.5850183963775635,-0.020532673224806786,9.787409782409668,0.005799999926239252,-0.001999999862164259,-0.012600000016391277,0.06099999926066736,0.06099999926066736,0
0.6157695055007935,-0.009950302541255951,9.761725425720215,0.03539999946951866,0.007599999662488699,-0.03219999745488167,-0.12199999852133472,0.06099999926066736,0.06099999926066736
0.5902664661407471,-0.0034955344162881374,9.792974472045898,0.006099999882280827,0.007899999618530273,-0.00279999990016222,0,0.12199999852133472,0
0.5932257175445557,-0.02372175082564354,9.777641296386719,0.006399999838322401,-0.0017999999690800905,-0.022499999031424522,-0.06099999926066736,0.12199999852133472,-0.06099999926066736
0.6143904328346252,-0.012813767418265343,9.783321380615234,0.03610000014305115,0.007999999448657036,-0.01269999984651804,-0.06099999926066736,0.06099999926066736,0
0.5978896617889404,-0.023300372064113617,9.782305717468262,0.016599999740719795,-0.001500000013038516,-0.01269999984651804,0.12199999852133472,-0.06099999926066736,0
0.5978992581367493,-0.021308396011590958,9.763879776000977,0.01640000008046627,-0.0017999999690800905,-0.03229999914765358,-0.06099999926066736,0.06099999926066736,0
0.5880351066589355,-0.019354727119207382,9.793702125549316,0.006799999624490738,-0.0015999999595806003,-0.002899999963119626,-0.12199999852133472,0,0.06099999926066736
0.6026684641838074,-0.010850521735846996,9.742849349975586,0.016599999740719795,0.00839999970048666,-0.051899999380111694,0,0.06099999926066736,-0.12199999852133472
0.6131359338760376,-0.012363658286631107,9.772088050842285,0.03629999980330467,0.00839999970048666,-0.022499999031424522,0,0.06099999926066736,0.06099999926066736
0.5845874547958374,-0.00009576806769473478,9.791375160217285,0.006899999920278788,0.008200000040233135,-0.002899999963119626,0,0.06099999926066736,-0.06099999926066736
0.609420120716095,-0.02137543261051178,9.750204086303711,0.026399999856948853,-0.001500000013038516,-0.04209999740123749,-0.06099999926066736,0.06099999926066736,0
0.613873302936554,-0.008015787228941917,9.791404724121094,0.035499997437000275,0.008100000210106373,-0.00279999990016222,0,0.12199999852133472,0.06099999926066736
0.5720035433769226,-0.04153461009263992,9.77971076965332,-0.012999999336898327,-0.020899999886751175,-0.01269999984651804,0.06099999926066736,0.1830000044521087,-0.06099999926066736
0.6117855906486511,-0.010381259024143219,9.755624771118164,0.026499999687075615,0.008200000040233135,-0.04209999740123749,-0.06099999926066736,0.12199999852133472,-0.06099999926066736
0.6071216464042664,-0.014374786987900734,9.769338607788086,0.0071000000461936,0.008299999870359898,-0.04209999740123749,0,0.06099999926066736,-0.06099999926066736
0.5688527226448059,-0.015552734024822712,9.775171279907227,0.026599999517202377,0.008200000040233135,-0.022499999031424522,0,0.1830000044521087,-0.12199999852133472
0.585497260093689,-0.025014620274305344,9.785417556762695,-0.012299999594688416,0.008200000040233135,-0.022499999031424522,0.06099999926066736,0.12199999852133472,0
0.6119675040245056,-0.0013120225630700588,9.812874794006348,0.007599999662488699,-0.001500000013038516,-0.01269999984651804,0,0.06099999926066736,0
0.6072365641593933,-0.026345795020461082,9.769376754760742,0.02709999866783619,-0.0016999999061226845,-0.022499999031424522,0,0,-0.06099999926066736
0.6059724688529968,-0.01459505409002304,9.758306503295898,0.026799999177455902,0.007899999618530273,-0.04209999740123749,0,0.06099999926066736,0.06099999926066736
0.6071599721908569,-0.009902418591082096,9.77420425415039,0.026599999517202377,0.007799999788403511,-0.022499999031424522,0.06099999926066736,0.12199999852133472,0
0.5857749581336975,-0.0370909720659256,9.789804458618164,0.007199999876320362,-0.011599999852478504,-0.002899999963119626,0.12199999852133472,0.12199999852133472,0
0.6046508550643921,-0.033001676201820374,9.751506805419922,0.026899999007582664,-0.011799999512732029,-0.04209999740123749,-0.06099999926066736,0.1830000044521087,-0.12199999852133472
0.6031568646430969,-0.013953407295048237,9.756936073303223,0.017500000074505806,0.007799999788403511,-0.0421999990940094,0.06099999926066736,0.1830000044521087,0
0.5782188773155212,-0.008226476609706879,9.813335418701172,-0.0015999999595806003,0.007599999662488699,0.016599999740719795,0,0.12199999852133472,-0.06099999926066736
0.5949782729148865,-0.029889212921261787,9.781060218811035,0.017999999225139618,-0.011799999512732029,-0.012799999676644802,0.06099999926066736,0.12199999852133472,-0.06099999926066736
0.6031855940818787,-0.02269703336060047,9.769233703613281,0.01809999905526638,-0.002099999925121665,-0.022599998861551285,0.1830000044521087,0,-0.06099999926066736
0.5783146619796753,-0.02018790878355503,9.758086204528809,-0.00139999995008111,-0.0026000000070780516,-0.0421999990940094,-0.1830000044521087,0.24399999704266945,0
0.5910804867744446,-0.02693955786526203,9.762271881103516,0.008999999612569809,-0.002099999925121665,-0.03240000084042549,-0.06099999926066736,0.24399999704266945,-0.06099999926066736
0.5663436055183411,-0.037857115268707275,9.765507698059082,-0.00989999994635582,-0.011799999512732029,-0.032499998807907104,-0.06099999926066736,0.12199999852133472,-0.06099999926066736
0.6001880764961243,-0.023664290085434914,9.776732444763184,0.01979999989271164,-0.0017999999690800905,-0.022699998691678047,0,0.12199999852133472,0.06099999926066736
0.5946622490882874,-0.03713885322213173,9.766254425048828,0.020099999383091927,-0.011599999852478504,-0.032499998807907104,-0.06099999926066736,0.1830000044521087,-0.12199999852133472
0.6158365607261658,-0.03733997046947479,9.789297103881836,0.04010000079870224,-0.011399999260902405,-0.0030999998562037945,0,0.1830000044521087,0
0.6208260655403137,-0.025397691875696182,9.753393173217773,0.04050000011920929,-0.0015999999595806003,-0.042399998754262924,-0.06099999926066736,0.1830000044521087,-0.06099999926066736
0.585832417011261,-0.017707515507936478,9.736145973205566,0.011500000022351742,-0.01119999960064888,-0.042399998754262924,0,0,0
0.6069396734237671,-0.034064702689647675,9.78117561340332,0.011899999342858791,0.00839999970048666,-0.06199999898672104,0,0,0
0.5772611498832703,0.0027198130264878273,9.77361011505127,0.03139999881386757,-0.010999999940395355,-0.012999999336898327,-0.06099999926066736,0.1830000044521087,-0.06099999926066736
0.5777591466903687,-0.01779370754957199,9.758009910583496,0.002300000051036477,0.008599999360740185,-0.02279999852180481,0,0.06099999926066736,0.06099999926066736
0.5849226117134094,-0.011913547292351723,9.803030014038086,0.01269999984651804,0.008700000122189522,0.0064999996684491634,0,0.1830000044521087,-0.06099999926066736
0.6010404229164124,-0.006550535559654236,9.746220588684082,0.01269999984651804,0.008700000122189522,0.0064999996684491634,-0.1830000044521087,0,0
0.5938099026679993,-0.012708422727882862,9.761600494384766,0.022599998861551285,0.009099999442696571,-0.032600000500679016,-0.06099999926066736,0.06099999926066736,0.06099999926066736
0.6114791035652161,-0.010639832355082035,9.75517463684082,0.03219999745488167,0.009099999442696571,-0.042399998754262924,0,-0.06099999926066736,0.06099999926066736
0.6006190180778503,-0.013742717914283276,9.773869514465332,0.021900000050663948,0.008999999612569809,-0.02279999852180481,0,0.06099999926066736,0
0.6070546507835388,-0.02587653137743473,9.776262283325195,0.031300000846385956,-0.000699999975040555,-0.02279999852180481,0,0.1830000044521087,0
0.59222012758255,-0.022199038416147232,9.786979675292969,0.012000000104308128,-0.000699999975040555,-0.012999999336898327,0.06099999926066736,0.24399999704266945,-0.06099999926066736
0.6066140532493591,-0.028874073177576065,9.776856422424316,0.03229999914765358,-0.010599999688565731,-0.02279999852180481,-0.06099999926066736,0,-0.06099999926066736
0.5990867018699646,-0.025704149156808853,9.765182495117188,0.022499999031424522,-0.000699999975040555,-0.032600000500679016,0,0.1830000044521087,-0.06099999926066736
0.5871540307998657,-0.011712434701621532,9.738913536071777,0.013199999928474426,0.008999999612569809,-0.06209999695420265,-0.06099999926066736,0.24399999704266945,0
0.606173574924469,-0.012861651368439198,9.77206802368164,0.03350000083446503,0.009200000204145908,-0.02290000021457672,0.06099999926066736,0.06099999926066736,0.06099999926066736
0.5933598279953003,-0.008676586672663689,9.764214515686035,0.0139999995008111,0.008999999612569809,-0.03269999846816063,0.06099999926066736,0.1830000044521087,-0.12199999852133472
0.5754511952400208,-0.015552734024822712,9.771703720092773,0.004699999932199717,0.008799999952316284,-0.02290000021457672,0.06099999926066736,-0.06099999926066736,0
0.5751063823699951,-0.003897760296240449,9.762414932250977,0.0044999998062849045,0.008599999360740185,-0.03269999846816063,-0.06099999926066736,0.12199999852133472,-0.12199999852133472
0.5829498171806335,-0.021461624652147293,9.8038911819458,0.004799999762326479,-0.0009999999310821295,0.006399999838322401,-0.06099999926066736,0.06099999926066736,-0.12199999852133472
0.61579829454422,-0.038000769913196564,9.791585922241211,0.04399999976158142,-0.010599999688565731,-0.0032999999821186066,0.06099999926066736,-0.06099999926066736,0.06099999926066736
0.5874029994010925,-0.029103916138410568,9.785840034484863,0.014399999752640724,-0.010699999518692493,-0.013100000098347664,-0.06099999926066736,0.24399999704266945,0
0.6102628707885742,-0.03308786824345589,9.756515502929688,0.034699998795986176,-0.010499999858438969,-0.04259999841451645,0,0,-0.06099999926066736
0.6191788911819458,-0.015571887604892254,9.75882339477539,0.024799998849630356,-0.010499999858438969,-0.013199999928474426,0,0.06099999926066736,-0.12199999852133472
0.6112014055252075,-0.03177584335207939,9.76050853729248,0.04479999840259552,0.009099999442696571,-0.03280000016093254,0,0.1830000044521087,0.06099999926066736
0.5984354615211487,-0.03227383643388748,9.758191108703613,0.02579999901354313,-0.010400000028312206,-0.04259999841451645,0.06099999926066736,0.1830000044521087,0
0.5917125940322876,-0.0007086837431415915,9.749994277954102,0.016499999910593033,0.008999999612569809,-0.04270000010728836,0,0.1830000044521087,0
0.6077536940574646,-0.010601525194942951,9.782976150512695,0.036399997770786285,0.008999999612569809,-0.013299999758601189,-0.12199999852133472,0.1830000044521087,-0.06099999926066736
0.6022087335586548,-0.030530860647559166,9.763477325439453,0.02709999866783619,-0.010199999436736107,-0.032899998128414154,0,0.12199999852133472,0
0.6080601811408997,-0.025895684957504272,9.766772270202637,0.03709999844431877,-0.00039999998989515007,-0.032899998128414154,-0.12199999852133472,0.24399999704266945,0
0.6138158440589905,-0.02012087032198906,9.758450508117676,0.04769999906420708,0,-0.042799998074769974,0.06099999926066736,0,0
0.5750777125358582,-0.026479871943593025,9.761351585388184,0.008499999530613422,-0.00019999999494757503,-0.032999999821186066,-0.12199999852133472,0.12199999852133472,0
0.6091424226760864,-0.009088389575481415,9.767748832702637,0.038100000470876694,0.009800000116229057,-0.032999999821186066,-0.06099999926066736,0.1830000044521087,-0.06099999926066736
0.6148597598075867,-0.03106716088950634,9.77138900756836,0.04829999804496765,-0.009499999694526196,-0.02319999970495701,0,0.24399999704266945,0.06099999926066736
0.5969223380088806,-0.019919758662581444,9.777517318725586,0.029399998486042023,0.00019999999494757503,-0.02319999970495701,0,0,0
0.5897780656814575,-0.01682645082473755,9.753413200378418,0.019600000232458115,0.009999999776482582,-0.042799998074769974,0.06099999926066736,0.06099999926066736,0
0.5840415358543396,-0.01388636976480484,9.765738487243652,0.00989999994635582,0.009800000116229057,-0.032999999821186066,-0.06099999926066736,0.12199999852133472,0
0.5857270359992981,-0.019900605082511902,9.750693321228027,0.019999999552965164,0.00009999999747378752,-0.042899999767541885,-0.06099999926066736,0.12199999852133472,0
0.5974491238594055,-0.016318878158926964,9.756505966186523,0.03009999915957451,0.010099999606609344,-0.042899999767541885,0.06099999926066736,0.12199999852133472,0
0.5949878692626953,-0.008561665192246437,9.765910148620605,0.030399998649954796,0.00989999994635582,-0.03309999778866768,-0.12199999852133472,0,0
0.581494152545929,-0.023300372064113617,9.748558044433594,0.010699999518692493,0.00039999998989515007,-0.05269999802112579,-0.06099999926066736,0.12199999852133472,-0.06099999926066736
0.6055702567100525,-0.046102747321128845,9.753939628601074,0.0405999980866909,-0.019299998879432678,-0.042899999767541885,0.06099999926066736,0.06099999926066736,0
0.6070163249969482,-0.03325067088007927,9.784748077392578,0.039400000125169754,-0.00930000003427267,-0.013399999588727951,0,0.24399999704266945,-0.06099999926066736
0.5990292429924011,-0.01433647982776165,9.759685516357422,0.030399998649954796,0.010199999436736107,-0.03309999778866768,0,0.12199999852133472,0
0.5519975423812866,-0.027590779587626457,9.7642822265625,-0.018199998885393143,0.00039999998989515007,-0.03309999778866768,0,0.06099999926066736,0.06099999926066736
0.6129060387611389,-0.028050467371940613,9.775142669677734,0.0405999980866909,0.00039999998989515007,-0.02329999953508377,-0.06099999926066736,0.24399999704266945,0
0.5818771719932556,-0.030396783724427223,9.780610084533691,0.011899999342858791,-0.009099999442696571,-0.013499999418854713,-0.12199999852133472,0.06099999926066736,0
0.599373996257782,-0.010524910874664783,9.778254508972168,0.03150000050663948,0.010699999518692493,-0.013499999418854713,0,0.1830000044521087,-0.12199999852133472
0.6047179102897644,-0.019632453098893166,9.746230125427246,0.04179999977350235,0.0007999999797903001,-0.052799999713897705,0.06099999926066736,0.1830000044521087,-0.06099999926066736
0.6263997554779053,-0.003725377842783928,9.741202354431152,0.061799999326467514,0.010400000028312206,-0.052799999713897705,0,0.12199999852133472,0.06099999926066736
0.6086061000823975,-0.011051634326577187,9.761792182922363,0.042399998754262924,0.010400000028312206,-0.03319999948143959,-0.12199999852133472,0.06099999926066736,-0.12199999852133472
0.5918657779693604,-0.01199016161262989,9.755414009094238,0.02290000021457672,0.010699999518692493,-0.0429999977350235,-0.06099999926066736,0.12199999852133472,-0.06099999926066736
0.6009063124656677,-0.006157887168228626,9.763909339904785,0.032899998128414154,0.010799999348819256,-0.03319999948143959,0.06099999926066736,0.06099999926066736,0
0.5946717858314514,-0.015322891063988209,9.753863334655762,0.032999999821186066,0.010699999518692493,-0.0429999977350235,-0.06099999926066736,0.12199999852133472,-0.06099999926066736
0.5709692239761353,-0.025043349713087082,9.755041122436523,0.0038999998942017555,0.0009999999310821295,-0.04309999942779541,-0.06099999926066736,0.06099999926066736,-0.06099999926066736
0.600877583026886,-0.022859837859869003,9.767624855041504,0.033399999141693115,0.0011999999405816197,-0.033299997448921204,0.06099999926066736,0.06099999926066736,-0.06099999926066736
0.6128965020179749,-0.02362598292529583,9.744266510009766,0.043299999088048935,0.0009999999310821295,-0.05289999768137932,-0.1830000044521087,0.06099999926066736,0.06099999926066736
0.5923063158988953,-0.033068712800741196,9.764148712158203,0.02329999953508377,-0.007999999448657036,-0.03319999948143959,0,0.06099999926066736,0
0.5832467079162598,-0.02513911761343479,9.73938274383545,0.013499999418854713,0.0015999999595806003,-0.06269999593496323,0,0.24399999704266945,0.06099999926066736
0.6134136319160461,-0.018109740689396858,9.741451263427734,0.05350000038743019,0.011500000022351742,-0.05289999768137932,0.12199999852133472,0.12199999852133472,0
0.5941163301467896,-0.007422025315463543,9.745061874389648,0.0340999998152256,0.011099999770522118,-0.05289999768137932,0,0.06099999926066736,-0.06099999926066736
0.5830742716789246,-0.026977865025401115,9.763075828552246,0.05379999801516533,-0.00839999970048666,-0.04309999942779541,0,0.06099999926066736,-0.06099999926066736
0.6052159070968628,-0.01981441304087639,9.75992488861084,0.014499999582767487,0.001500000013038516,-0.033299997448921204,0,0,-0.06099999926066736
0.5876520276069641,-0.02518700249493122,9.753718376159668,0.04399999976158142,0.001500000013038516,-0.033299997448921204,0,0,-0.12199999852133472
0.5930725336074829,-0.021308396011590958,9.768447875976562,0.024299999698996544,0.00139999995008111,-0.04309999942779541,0,0.06099999926066736,-0.06099999926066736
0.6094679832458496,-0.02184469625353813,9.778599739074707,0.02419999986886978,0.00139999995008111,-0.023499999195337296,-0.06099999926066736,0.06099999926066736,-0.06099999926066736
0.6079069972038269,-0.003849876346066594,9.743941307067871,0.043800000101327896,0.011399999260902405,-0.05289999768137932,-0.06099999926066736,-0.06099999926066736,-0.06099999926066736
0.6122835874557495,-0.03310701996088028,9.75391960144043,0.04349999874830246,-0.007999999448657036,-0.04309999942779541,0,0.1830000044521087,-0.06099999926066736
0.6029174327850342,-0.021672314032912254,9.776578903198242,0.0340999998152256,0.0016999999061226845,-0.023499999195337296,0.06099999926066736,0.12199999852133472,0
0.6273382902145386,-0.003725377842783928,9.773897171020508,0.06189999729394913,0.010999999940395355,-0.023399999365210533,0,0,0
0.6015862226486206,-0.007852981798350811,9.763459205627441,0.031700000166893005,0.010799999348819256,-0.03319999948143959,0,0.12199999852133472,0
0.587010383605957,-0.028385654091835022,9.793185234069824,0.020899999886751175,0.0008999999845400453,-0.003700000001117587,0.06099999926066736,-0.06099999926066736,-0.06099999926066736
0.6033101081848145,-0.017755400389432907,9.784614562988281,0.029399998486042023,0.010099999606609344,-0.013399999588727951,0.06099999926066736,0.12199999852133472,-0.12199999852133472
0.585918664932251,-0.020130448043346405,9.762807846069336,0.019500000402331352,0.00009999999747378752,-0.032999999821186066,-0.12199999852133472,0.1830000044521087,-0.06099999926066736
0.5834956765174866,-0.02381751872599125,9.76085376739502,0.009999999776482582,0.0004999999655410647,-0.032999999821186066,-0.06099999926066736,0.06099999926066736,-0.12199999852133472
0.5935513377189636,-0.02897941693663597,9.771733283996582,0.03869999945163727,-0.01850000023841858,-0.032999999821186066,0.06099999926066736,0.24399999704266945,-0.06099999926066736
0.5935513377189636,-0.02897941693663597,9.771733283996582,0.01889999955892563,-0.008499999530613422,-0.02319999970495701,0.06099999926066736,0.24399999704266945,-0.06099999926066736
0.582164466381073,-0.017803283408284187,9.762453079223633,0.00989999994635582,0.010900000110268593,-0.032999999821186066,0.06099999926066736,0.06099999926066736,-0.06099999926066736
0.5999391078948975,-0.020005948841571808,9.757137298583984,0.029600000008940697,0.0008999999845400453,-0.042899999767541885,0,0.12199999852133472,-0.06099999926066736
0.6247333884239197,-0.03179499879479408,9.785706520080566,0.05909999832510948,-0.008799999952316284,-0.013399999588727951,0,0.06099999926066736,0
0.6061831712722778,-0.0195462629199028,9.765469551086426,0.03949999809265137,0.0008999999845400453,-0.03309999778866768,0.12199999852133472,0,-0.06099999926066736
0.5889161229133606,-0.014777013100683689,9.744391441345215,0.01979999989271164,0.010300000198185444,-0.05269999802112579,-0.06099999926066736,0.1830000044521087,0
0.6026875972747803,-0.009825803339481354,9.764569282531738,0.039799999445676804,0.010400000028312206,-0.02329999953508377,0,0.12199999852133472,-0.12199999852133472
0.592746913433075,-0.0303297471255064,9.75197696685791,0.030299998819828033,0.010400000028312206,-0.03309999778866768,-0.06099999926066736,0.06099999926066736,0
0.6151853799819946,-0.016251839697360992,9.755021095275879,0.020399998873472214,-0.008999999612569809,-0.042899999767541885,0.06099999926066736,0,0
0.5875083804130554,-0.028280310332775116,9.765096664428711,0.020399998873472214,0.000699999975040555,-0.03309999778866768,0,0.12199999852133472,-0.06099999926066736
0.581168532371521,-0.039255332201719284,9.738568305969238,0.010900000110268593,-0.018799999728798866,-0.0625,-0.06099999926066736,0.1830000044521087,0.06099999926066736
0.600666880607605,-0.03678451478481293,9.784039497375488,0.029899999499320984,-0.008499999530613422,-0.013399999588727951,-0.06099999926066736,0,0
0.584865152835846,-0.03187161311507225,9.779739379882812,0.019299998879432678,-0.007999999448657036,-0.013399999588727951,0,0.12199999852133472,0.06099999926066736
0.5752021670341492,-0.015514426864683628,9.76210880279541,0.009599999524652958,0.011299999430775642,-0.032999999821186066,0.06099999926066736,0,-0.12199999852133472
0.6035686731338501,-0.02978386916220188,9.780160903930664,0.03759999945759773,-0.008100000210106373,-0.013299999758601189,0,0.12199999852133472,-0.06099999926066736
0.5924882888793945,-0.02533065341413021,9.774251937866211,0.017899999395012856,0.001500000013038516,-0.023099999874830246,0.06099999926066736,0.12199999852133472,0
0.5912145972251892,-0.010381259024143219,9.740072250366211,0.017899999395012856,0.010999999940395355,-0.05260000005364418,-0.06099999926066736,0.1830000044521087,0
0.6035208106040955,-0.009414001367986202,9.766168594360352,0.037299998104572296,0.010999999940395355,-0.032899998128414154,0.06099999926066736,0.06099999926066736,-0.06099999926066736
0.6057330369949341,-0.009059659205377102,9.754849433898926,0.03680000081658363,0.010599999688565731,-0.04270000010728836,0,0.1830000044521087,0
0.5968266129493713,0.0030741551890969276,9.774749755859375,0.026899999007582664,0.010400000028312206,-0.023099999874830246,0.12199999852133472,0,-0.06099999926066736
0.5767632126808167,-0.0059184664860367775,9.784144401550293,0.00699999975040555,0.00969999935477972,-0.013299999758601189,0,0.24399999704266945,-0.06099999926066736
0.6105405688285828,-0.016357185319066048,9.762127876281738,0.03720000013709068,0.00969999935477972,-0.032899998128414154,0,0.24399999704266945,0
0.6164112091064453,-0.01928768865764141,9.779576301574707,0.04769999906420708,0,-0.013299999758601189,-0.06099999926066736,0.24399999704266945,0
0.5887821316719055,-0.025608381256461143,9.772968292236328,0.01899999938905239,0.00009999999747378752,-0.02319999970495701,0,0.12199999852133472,0
0.5726739168167114,-0.006636727135628462,9.76494312286377,0.00009999999747378752,0.00969999935477972,-0.032999999821186066,0.12199999852133472,0.06099999926066736,-0.06099999926066736
0.6031472682952881,0.005334281362593174,9.762826919555664,0.01979999989271164,-0.010199999436736107,-0.05269999802112579,-0.06099999926066736,0.12199999852133472,-0.06099999926066736
0.6129156351089478,-0.03279098495841026,9.762473106384277,0.029999999329447746,-0.0004999999655410647,-0.02329999953508377,-0.06099999926066736,0.06099999926066736,-0.12199999852133472
0.6121016144752502,-0.023118412122130394,9.782889366149902,0.03999999910593033,-0.00039999998989515007,-0.013499999418854713,0,0.12199999852133472,0.06099999926066736
0.6155109405517578,-0.01059194840490818,9.759206771850586,0.03999999910593033,-0.00039999998989515007,-0.013499999418854713,0.06099999926066736,0.12199999852133472,-0.12199999852133472
0.5944515466690063,-0.02490927465260029,9.779231071472168,0.030499998480081558,-0.0005999999702908099,-0.013499999418854713,0.06099999926066736,0.1830000044521087,0.06099999926066736
0.606930136680603,-0.01188481692224741,9.761811256408691,0.040699999779462814,0.008999999612569809,-0.03309999778866768,0,0.12199999852133472,-0.06099999926066736
0.5906686782836914,-0.010218452662229538,9.788894653320312,0.02019999921321869,0.008499999530613422,-0.003700000001117587,0,0.1830000044521087,-0.06099999926066736
0.6137488484382629,0.004261679016053677,9.766063690185547,0.04910000041127205,0.008299999870359898,-0.032999999821186066,0.06099999926066736,0.12199999852133472,0
0.5880925059318542,-0.025704149156808853,9.7848539352417,0.019299998879432678,-0.001500000013038516,-0.013399999588727951,0.06099999926066736,0,0
0.6050817966461182,-0.006684611551463604,9.792036056518555,0.03680000081658363,0.007599999662488699,-0.003499999875202775,0,0.1830000044521087,-0.06099999926066736
0.6194661855697632,-0.021250935271382332,9.771742820739746,0.017400000244379044,0.007499999832361937,-0.04270000010728836,0,0,0.06099999926066736
0.6194661855697632,-0.021250935271382332,9.771742820739746,0.04609999805688858,-0.0023999998811632395,-0.023099999874830246,0,0,0.06099999926066736
0.5832849740982056,-0.008523358032107353,9.772212028503418,0.006599999964237213,0.007199999876320362,-0.023099999874830246,0.06099999926066736,0.06099999926066736,0
0.5848747491836548,-0.017927782610058784,9.757521629333496,0.016300000250339508,0.006899999920278788,-0.04270000010728836,0.06099999926066736,0,-0.06099999926066736
0.6151948571205139,-0.003706224262714386,9.788951873779297,0.04339999705553055,0.006399999838322401,-0.0032999999821186066,0.06099999926066736,0.12199999852133472,-0.06099999926066736
0.6047849059104919,-0.03267606347799301,9.78756332397461,0.03229999914765358,-0.01269999984651804,-0.0031999999191612005,-0.12199999852133472,0.12199999852133472,0
0.6112684607505798,-0.0021739350631833076,9.766130447387695,0.032099999487400055,0.0071000000461936,-0.032600000500679016,0,0.06099999926066736,-0.06099999926066736
0.5944323539733887,-0.004481945652514696,9.74117374420166,0.022199999541044235,0.00699999975040555,-0.05219999700784683,0,0.24399999704266945,0.06099999926066736
0.6077154278755188,-0.020417751744389534,9.748308181762695,0.03269999846816063,-0.002699999837204814,-0.052299998700618744,-0.06099999926066736,0,-0.06099999926066736
0.5847789645195007,-0.007134721148759127,9.774107933044434,0.013100000098347664,0.0071000000461936,-0.02290000021457672,-0.06099999926066736,0,0
0.6055702567100525,-0.016788143664598465,9.759159088134766,0.012999999336898327,-0.02199999988079071,-0.042500000447034836,0,0.12199999852133472,-0.12199999852133472
0.5987898707389832,-0.011070788837969303,9.798892974853516,0.03269999846816063,0.007199999876320362,-0.03269999846816063,-0.06099999926066736,0.12199999852133472,-0.06099999926066736
0.6075334548950195,-0.014920664951205254,9.774500846862793,0.02319999970495701,0.0071000000461936,0.006399999838322401,0,0.24399999704266945,-0.12199999852133472
0.5908985733985901,0.005228936672210693,9.807196617126465,0.014299999922513962,0.007199999876320362,0.016200000420212746,0,0.06099999926066736,-0.06099999926066736
0.5961657762527466,-0.04549941048026085,9.753479957580566,0.024299999698996544,-0.022099999710917473,-0.04259999841451645,-0.12199999852133472,0.06099999926066736,0.06099999926066736
0.6079548597335815,-0.016836026683449745,9.777517318725586,0.034199997782707214,0.007599999662488699,-0.02290000021457672,0.06099999926066736,0,0
0.6150608658790588,-0.03344221040606499,9.794717788696289,0.043699998408555984,-0.012000000104308128,-0.0032999999821186066,0.06099999926066736,0.1830000044521087,-0.06099999926066736
0.5826529264450073,0.006751649081707001,9.75223445892334,0.004999999888241291,0.0072999997064471245,-0.04259999841451645,0.06099999926066736,0.12199999852133472,-0.06099999926066736
0.6000826954841614,-0.017879897728562355,9.753077507019043,0.024899998679757118,0.0071000000461936,-0.04259999841451645,-0.1830000044521087,0.1830000044521087,-0.06099999926066736
0.5757480263710022,-0.01983356662094593,9.783522605895996,0.005799999926239252,-0.002099999925121665,-0.013199999928474426,0.1830000044521087,0.1830000044521087,0
0.5790903568267822,-0.02346317656338215,9.766437530517578,0.006399999838322401,-0.0026000000070780516,-0.03280000016093254,0,0.1830000044521087,0
0.5986749529838562,-0.024143129587173462,9.770018577575684,0.026399999856948853,-0.0026000000070780516,-0.023099999874830246,0,0.06099999926066736,-0.06099999926066736
0.5979470610618591,0.01533246785402298,9.761333465576172,0.026499999687075615,0.0071000000461936,-0.032899998128414154,0.12199999852133472,0.12199999852133472,-0.06099999926066736
0.6012415289878845,-0.014489708468317986,9.769731521606445,0.026799999177455902,0.006799999624490738,-0.023099999874830246,0.06099999926066736,0,-0.1830000044521087
0.6001114249229431,0.02151908539235592,9.737707138061523,0.02669999934732914,0.016300000250339508,-0.06229999661445618,0,-0.06099999926066736,-0.06099999926066736
0.5971330404281616,-0.03487873077392578,9.758038520812988,0.026499999687075615,-0.012999999336898327,-0.04270000010728836,-0.06099999926066736,0.24399999704266945,-0.06099999926066736
0.5970085263252258,-0.005784391425549984,9.75943660736084,0.02719999849796295,0.0066999997943639755,-0.032899998128414154,0.06099999926066736,0.12199999852133472,0
0.6024960875511169,-0.022907722741365433,9.762903213500977,0.027499999850988388,-0.0030999998562037945,-0.032899998128414154,0.06099999926066736,0.12199999852133472,-0.06099999926066736
0.5996612906455994,-0.012813767418265343,9.75992488861084,0.027799999341368675,0.006399999838322401,-0.032899998128414154,0,0.1830000044521087,-0.06099999926066736
0.578908383846283,-0.012650961987674236,9.774423599243164,0.008599999360740185,0.006300000008195639,-0.02319999970495701,0.06099999926066736,0.12199999852133472,-0.12199999852133472
0.6147160530090332,-0.0175351332873106,9.734728813171387,0.04809999838471413,0.006099999882280827,-0.06239999830722809,0,0.24399999704266945,0
0.5877478122711182,-0.03747404366731644,9.76744270324707,0.029199998825788498,-0.013399999588727951,-0.042799998074769974,0.12199999852133472,0.1830000044521087,0
0.6093721985816956,-0.03165134787559509,9.769607543945312,0.03969999775290489,-0.013599999248981476,-0.02329999953508377,0.1830000044521087,0.12199999852133472,-0.06099999926066736
0.591999888420105,-0.0390925258398056,9.752819061279297,0.03969999775290489,-0.013599999248981476,-0.02329999953508377,0,0.1830000044521087,-0.06099999926066736
0.6052350401878357,-0.03191949799656868,9.766647338867188,0.04039999842643738,-0.014099999330937862,-0.03309999778866768,0.06099999926066736,0.06099999926066736,0.06099999926066736
0.5957826972007751,-0.019019538536667824,9.739229202270508,0.030700000002980232,0.0052999998442828655,-0.0625,0,0.12199999852133472,-0.06099999926066736
0.6100042462348938,-0.010745177045464516,9.778159141540527,0.040699999779462814,0.005200000014156103,-0.013499999418854713,0,0.12199999852133472,-0.06099999926066736
0.6008680462837219,-0.010103531181812286,9.776971817016602,0.030799999833106995,0.005200000014156103,-0.02329999953508377,-0.12199999852133472,0,0
0.5738901495933533,-0.013675680384039879,9.774309158325195,0.0010999999940395355,0.00559999980032444,-0.02329999953508377,-0.06099999926066736,0.06099999926066736,0
0.5792723298072815,0.007201758679002523,9.759857177734375,0.010799999348819256,0.005699999630451202,-0.03309999778866768,0.06099999926066736,0,0.06099999926066736
0.5791765451431274,-0.0005650316015817225,9.79953384399414,0.010499999858438969,0.005499999970197678,0.006000000052154064,0.06099999926066736,0.12199999852133472,0.06099999926066736
0.6184797286987305,-0.012612654827535152,9.793971061706543,0.047199998050928116,0.0050999997183680534,-0.003499999875202775,0,0.1830000044521087,-0.06099999926066736
0.5908123850822449,-0.023779211565852165,9.771656036376953,0.017500000074505806,-0.0044999998062849045,-0.023099999874830246,0.06099999926066736,0,-0.12199999852133472
0.6103969216346741,0.0025187002029269934,9.79676628112793,0.03519999980926514,0.004799999762326479,-0.003399999812245369,0,0.06099999926066736,0
0.6011936068534851,-0.0361332930624485,9.788780212402344,0.02410000003874302,-0.014099999330937862,-0.0032999999821186066,0.1830000044521087,0.12199999852133472,-0.06099999926066736
0.5711320042610168,-0.0114921685308218,9.750319480895996,-0.0050999997183680534,0.004900000058114529,-0.042500000447034836,0,0.06099999926066736,0
0.6119962930679321,-0.03214934095740318,9.721272468566895,0.033799998462200165,-0.015099999494850636,-0.07199999690055847,-0.12199999852133472,0.12199999852133472,-0.1830000044521087
0.5790328979492188,-0.00039264908991754055,9.73788833618164,0.004399999976158142,0.004799999762326479,-0.062199998646974564,0.06099999926066736,0.1830000044521087,-0.06099999926066736
0.5946334600448608,-0.022859837859869003,9.813516616821289,0.02419999986886978,-0.0050999997183680534,0.016200000420212746,0,0,0
0.5941833853721619,-0.00894473772495985,9.760910987854004,0.023899998515844345,0.004600000102072954,-0.03269999846816063,0.12199999852133472,0.12199999852133472,0
0.5871922969818115,-0.004759673029184341,9.787956237792969,0.013899999670684338,0.004100000020116568,-0.0032999999821186066,-0.06099999926066736,0.12199999852133472,-0.06099999926066736
0.6262465119361877,-0.03801034390926361,9.747858047485352,0.013899999670684338,0.004100000020116568,-0.0032999999821186066,-0.12199999852133472,0.06099999926066736,-0.06099999926066736
0.5963382124900818,-0.022093692794442177,9.768141746520996,0.05309999734163284,-0.015199999324977398,-0.052299998700618744,0.06099999926066736,0.06099999926066736,0
0.6045072078704834,-0.0037828385829925537,9.768649101257324,0.03309999778866768,0.0044999998062849045,-0.02290000021457672,0,0,0
0.5946239829063416,-0.0005363011732697487,9.75436019897461,0.023000000044703484,0.0044999998062849045,-0.042500000447034836,0.12199999852133472,0.24399999704266945,0
0.5994410514831543,-0.01218169741332531,9.791183471679688,0.02329999953508377,0.004100000020116568,-0.0032999999821186066,0,0.1830000044521087,0
0.5772324800491333,-0.011712434701621532,9.768802642822266,0.0037999998312443495,0.003999999724328518,-0.02290000021457672,0.06099999926066736,0,-0.06099999926066736
0.5691591501235962,-0.012871228158473969,9.76499080657959,-0.006099999882280827,0.0037999998312443495,-0.03269999846816063,0.06099999926066736,0.1830000044521087,-0.12199999852133472
0.5867422223091125,0.011923124082386494,9.769512176513672,0.013299999758601189,0.003499999875202775,-0.02290000021457672,0,0,0
0.5695997476577759,-0.03071282058954239,9.761582374572754,-0.0064999996684491634,-0.015699999406933784,-0.03269999846816063,0,0.12199999852133472,-0.06099999926066736
0.5876424312591553,-0.006445190869271755,9.778120994567871,0.01269999984651804,0.003700000001117587,-0.012999999336898327,0,0.12199999852133472,0
0.5842714309692383,-0.03593217954039574,9.765460014343262,0.01249999925494194,-0.01549999974668026,-0.032600000500679016,0,0.12199999852133472,-0.06099999926066736
0.56894850730896,-0.04441722854971886,9.759512901306152,-0.006799999624490738,-0.024899998679757118,-0.032600000500679016,0.12199999852133472,0.12199999852133472,0
0.5868284106254578,-0.022907722741365433,9.772872924804688,0.012399999424815178,-0.005499999970197678,-0.02279999852180481,0.06099999926066736,0.12199999852133472,-0.1830000044521087
0.5757672190666199,-0.015983689576387405,9.803633689880371,0.0026000000070780516,0.0038999998942017555,0.0064999996684491634,0,0,0.06099999926066736
0.5666884183883667,-0.013713987544178963,9.773293495178223,-0.0072999997064471245,0.0037999998312443495,-0.02279999852180481,-0.06099999926066736,0.12199999852133472,-0.06099999926066736
0.6253846287727356,0.003667917102575302,9.76489543914795,0.050599999725818634,0.0038999998942017555,-0.032600000500679016,0.12199999852133472,0.12199999852133472,-0.06099999926066736
0.5862442255020142,-0.01739148050546646,9.759963035583496,0.01119999960064888,0.003499999875202775,-0.032600000500679016,0.06099999926066736,0,-0.06099999926066736
0.6033005118370056,-0.004414908122271299,9.754034996032715,0.020399998873472214,0.0032999999821186066,-0.04230000078678131,0.06099999926066736,0.06099999926066736,-0.06099999926066736
0.614955484867096,-0.013570335693657398,9.784968376159668,0.03879999741911888,0.003000000026077032,-0.012799999676644802,0.06099999926066736,0.06099999926066736,0.06099999926066736
0.5997188091278076,-0.006483498029410839,9.78041934967041,0.01860000006854534,0.00279999990016222,-0.012799999676644802,0,0.24399999704266945,-0.06099999926066736
0.5844533443450928,-0.028021736070513725,9.74307918548584,0.009499999694526196,-0.007199999876320362,-0.05209999904036522,0,0.06099999926066736,-0.12199999852133472
0.5979662537574768,-0.008772355504333973,9.771617889404297,0.009499999694526196,-0.007199999876320362,-0.05209999904036522,0.06099999926066736,0,0.06099999926066736
0.5982248187065125,-0.014221558347344398,9.78935432434082,0.017799999564886093,0.002199999988079071,-0.003000000026077032,0,0.06099999926066736,-0.1830000044521087
0.6028791666030884,-0.017525557428598404,9.781453132629395,0.01719999872148037,0.002099999925121665,-0.01269999984651804,0.12199999852133472,0.12199999852133472,-0.06099999926066736
0.5975257158279419,-0.011817779392004013,9.791805267333984,0.016699999570846558,0.0016999999061226845,-0.002899999963119626,-0.06099999926066736,0.24399999704266945,0
0.5835052728652954,-0.018703505396842957,9.756160736083984,-0.0023999998811632395,0.0018999999156221747,-0.04209999740123749,0,0.12199999852133472,-0.12199999852133472
0.6026014685630798,-0.011664550751447678,9.800874710083008,0.016699999570846558,0.0017999999690800905,0.006799999624490738,0.06099999926066736,0.06099999926066736,-0.06099999926066736
0.5813025832176208,0.005937620066106319,9.7608060836792,-0.002899999963119626,0.0015999999595806003,-0.03229999914765358,0,0.06099999926066736,-0.12199999852133472
0.5875083804130554,-0.029803022742271423,9.769932746887207,0.006599999964237213,-0.01759999990463257,-0.022499999031424522,0.06099999926066736,0,-0.12199999852133472
0.6143808364868164,-0.015552734024822712,9.764752388000488,0.03519999980926514,0.0016999999061226845,-0.03219999745488167,0,0.12199999852133472,0
0.5747616291046143,-0.02888364903628826,9.76046085357666,-0.0038999998942017555,-0.017500000074505806,-0.03219999745488167,-0.12199999852133472,0.1830000044521087,0
0.599259078502655,-0.014729129150509834,9.765364646911621,0.015599999576807022,0.002300000051036477,-0.03219999745488167,0,0.12199999852133472,0.06099999926066736
0.5577723979949951,-0.000009576806405675597,9.792476654052734,-0.022699998691678047,0.002199999988079071,-0.002899999963119626,-0.06099999926066736,0.06099999926066736,0.12199999852133472
0.559295117855072,-0.031909920275211334,9.802618026733398,-0.022199999541044235,-0.016599999740719795,0.006799999624490738,-0.06099999926066736,0.06099999926066736,-0.06099999926066736
0.5907836556434631,0.009212887845933437,9.803461074829102,0.006899999920278788,0.003000000026077032,0.006799999624490738,-0.06099999926066736,0.12199999852133472,-0.06099999926066736
0.6044114232063293,-0.021260511130094528,9.782727241516113,0.02589999884366989,-0.006399999838322401,-0.01269999984651804,0,0,-0.12199999852133472
0.582260251045227,-0.0348404236137867,9.781865119934082,-0.003599999938160181,-0.015799999237060547,-0.012600000016391277,0,0.06099999926066736,0.06099999926066736
0.6024385690689087,0.001426944276317954,9.77312183380127,0.01549999974668026,0.003599999938160181,-0.02239999920129776,-0.06099999926066736,0.12199999852133472,0.06099999926066736
0.5743594169616699,0.00374453142285347,9.764473915100098,-0.013599999248981476,0.0037999998312443495,-0.03229999914765358,0.06099999926066736,0.12199999852133472,0.06099999926066736
0.6222338676452637,-0.002470816019922495,9.792227745056152,0.034199997782707214,0.003499999875202775,-0.00279999990016222,0,0.1830000044521087,-0.06099999926066736
0.5885618329048157,-0.018540697172284126,9.783138275146484,0.004900000058114529,0.003399999812245369,-0.03219999745488167,0,0.1830000044521087,0.06099999926066736
0.5966734290122986,-0.032197222113609314,9.756477355957031,0.004999999888241291,0.003399999812245369,-0.012600000016391277,0.06099999926066736,0.12199999852133472,-0.06099999926066736
0.603683590888977,0.004405331332236528,9.770708084106445,0.014699999243021011,-0.016099998727440834,-0.041999999433755875,0,0,-0.06099999926066736
0.5995751619338989,-0.008628702722489834,9.762319564819336,0.013499999418854713,0.0030999998562037945,-0.032099999487400055,0.06099999926066736,0.12199999852133472,-0.06099999926066736
0.5981960892677307,-0.01424071192741394,9.76073932647705,0.013299999758601189,0.002899999963119626,-0.032099999487400055,0.06099999926066736,0.06099999926066736,-0.12199999852133472
0.5916264057159424,-0.024095244705677032,9.755126953125,0.0032999999821186066,-0.006899999920278788,-0.04189999774098396,0,0.12199999852133472,0
0.6321362853050232,0.005027823615819216,9.757166862487793,0.05179999768733978,0.00279999990016222,-0.04189999774098396,0,0,-0.12199999852133472
0.606480062007904,-0.02002510242164135,9.774740219116211,0.02159999869763851,-0.006799999624490738,-0.022199999541044235,0,0.06099999926066736,0
0.5988855957984924,-0.02031240612268448,9.78002643585205,0.011399999260902405,-0.0066999997943639755,-0.012399999424815178,0,0.12199999852133472,0
0.6169378757476807,-0.03076070360839367,9.758028030395508,0.030700000002980232,-0.016300000250339508,-0.04179999977350235,0,0.1830000044521087,-0.06099999926066736
0.6046125292778015,-0.01408748235553503,9.776559829711914,0.02070000022649765,0.0031999999191612005,-0.022199999541044235,-0.24399999704266945,0.06099999926066736,0.06099999926066736
0.5882362127304077,-0.014106635935604572,9.780121803283691,0.0009999999310821295,0.0038999998942017555,-0.012299999594688416,-0.06099999926066736,0.1830000044521087,0.06099999926066736
0.5717737078666687,-0.021787235513329506,9.77307415008545,-0.018199998885393143,-0.00559999980032444,-0.022199999541044235,0,0.12199999852133472,0.06099999926066736
0.5887342095375061,-0.01992933452129364,9.77125358581543,0.00139999995008111,-0.00559999980032444,-0.022199999541044235,0.06099999926066736,0.06099999926066736,0
0.6187096238136292,-0.0222756527364254,9.77807331085205,0.03059999831020832,-0.005699999630451202,-0.012399999424815178,0.12199999852133472,0.06099999926066736,-0.06099999926066736
0.5743019580841064,-0.027427975088357925,9.786165237426758,-0.018400000408291817,-0.006099999882280827,-0.012399999424815178,0.06099999926066736,0.06099999926066736,0.06099999926066736
0.599584698677063,-0.02573288045823574,9.789948463439941,0.010699999518692493,-0.006199999712407589,-0.0024999999441206455,0.06099999926066736,-0.12199999852133472,0
0.6026109457015991,-0.011377247050404549,9.780447959899902,0.010199999436736107,0.003399999812245369,-0.012299999594688416,0.06099999926066736,0.12199999852133472,-0.06099999926066736
0.5918275117874146,-0.004817133769392967,9.72317886352539,0.0004999999655410647,0.0031999999191612005,-0.07119999825954437,0,0.1830000044521087,-0.06099999926066736
0.5893087983131409,-0.012650961987674236,9.76815128326416,0.000699999975040555,0.0031999999191612005,-0.03189999982714653,0.06099999926066736,-0.12199999852133472,-0.06099999926066736
0.5922489166259766,-0.012756306678056717,9.776549339294434,0.019700000062584877,-0.0066999997943639755,-0.0024999999441206455,0.06099999926066736,0.12199999852133472,0
0.5914061069488525,-0.03225468471646309,9.786787986755371,-0.00019999999494757503,0.003000000026077032,-0.022099999710917473,0.12199999852133472,0.06099999926066736,-0.12199999852133472
0.6199737787246704,-0.017458518967032433,9.766092300415039,-0.00009999999747378752,-0.016599999740719795,-0.012299999594688416,0,0.12199999852133472,-0.06099999926066736
0.5858803391456604,-0.019182344898581505,9.762491226196289,-0.00029999998514540493,-0.0071000000461936,-0.03189999982714653,0.06099999926066736,0,-0.06099999926066736
0.5972863435745239,-0.019900605082511902,9.794373512268066,0.009099999442696571,-0.0072999997064471245,-0.0023999998811632395,-0.06099999926066736,0,-0.06099999926066736
0.5763801336288452,-0.011434707790613174,9.75638198852539,-0.010699999518692493,0.0026000000070780516,-0.04169999808073044,0.06099999926066736,0,0
0.616794228553772,-0.015102623961865902,9.76868724822998,0.028099998831748962,0.0023999998811632395,-0.02199999988079071,-0.12199999852133472,-0.06099999926066736,0.06099999926066736
0.6157216429710388,-0.007134721148759127,9.753814697265625,0.02759999968111515,0.00279999990016222,-0.041600000113248825,0.06099999926066736,0.1830000044521087,0
0.6027546525001526,-0.009701305069029331,9.775009155273438,0.008200000040233135,0.0026000000070780516,-0.02199999988079071,0.12199999852133472,0.1830000044521087,-0.12199999852133472
0.6044880151748657,-0.010927136056125164,9.765949249267578,0.018199998885393143,0.002300000051036477,-0.03179999813437462,0,0.12199999852133472,-0.06099999926066736
0.6042581796646118,-0.03310701996088028,9.779461860656738,0.01769999973475933,-0.016699999570846558,-0.012199999764561653,0,0.06099999926066736,0
0.5938003659248352,0.00629196222871542,9.767155647277832,0.007599999662488699,0.002699999837204814,-0.03179999813437462,-0.06099999926066736,-0.06099999926066736,-0.06099999926066736
0.6080219149589539,-0.01238281186670065,9.7766752243042,0.016599999740719795,0.00279999990016222,-0.021900000050663948,0,0.12199999852133472,0
0.5962710976600647,-0.011741165071725845,9.776981353759766,0.0066999997943639755,0.00279999990016222,-0.021900000050663948,0.06099999926066736,0.06099999926066736,0
0.6076005101203918,-0.027399243786931038,9.7680082321167,0.016099998727440834,-0.00699999975040555,-0.031700000166893005,0,0.1830000044521087,-0.06099999926066736
0.6020363569259644,-0.017094600945711136,9.767049789428711,0.006300000008195639,0.002699999837204814,-0.031700000166893005,0,0.1830000044521087,-0.12199999852133472
0.589414119720459,-0.019450495019555092,9.788290977478027,-0.003000000026077032,-0.0066999997943639755,-0.002300000051036477,0.06099999926066736,0.06099999926066736,0.06099999926066736
0.6129922270774841,-0.017113754525780678,9.806238174438477,0.02539999969303608,0.00279999990016222,0.007499999832361937,0.06099999926066736,-0.06099999926066736,0
0.602266252040863,-0.012430695816874504,9.761773109436035,0.0052999998442828655,0.0026000000070780516,-0.031599998474121094,0.12199999852133472,0.12199999852133472,-0.12199999852133472
0.5901898741722107,-0.020657172426581383,9.75081729888916,-0.004399999976158142,-0.007400000002235174,-0.0414000004529953,0.06099999926066736,0.06099999926066736,-0.12199999852133472
0.6001976132392883,-0.03431369736790657,9.797274589538574,-0.004399999976158142,0.002099999925121665,-0.021800000220537186,-0.06099999926066736,0.24399999704266945,0
0.5668895244598389,-0.007450755685567856,9.770162582397461,0.004999999888241291,-0.01719999872148037,0.007499999832361937,-0.06099999926066736,0.24399999704266945,0
0.6051871180534363,-0.012823344208300114,9.74366283416748,-0.023499999195337296,0.0023999998811632395,-0.021900000050663948,-0.06099999926066736,0,-0.06099999926066736
0.6058288216590881,-0.025895684957504272,9.774989128112793,0.014599999412894249,-0.006899999920278788,-0.021800000220537186,0,0.06099999926066736,0
0.6175987124443054,-0.009567230008542538,9.779969215393066,0.014599999412894249,-0.006899999920278788,-0.021800000220537186,-0.06099999926066736,0.1830000044521087,0
0.5877764821052551,0.015571887604892254,9.75436019897461,-0.005499999970197678,0.002899999963119626,-0.0414000004529953,0.06099999926066736,0.1830000044521087,-0.06099999926066736
0.6228084564208984,-0.019661184400320053,9.769549369812012,0.03319999948143959,-0.006799999624490738,-0.021699998527765274,0,0.06099999926066736,-0.06099999926066736
0.6066523790359497,-0.02661394700407982,9.77371597290039,0.013199999928474426,-0.0066999997943639755,-0.021699998527765274,0.12199999852133472,0.12199999852133472,-0.06099999926066736
0.5739763379096985,-0.026364948600530624,9.775084495544434,-0.02539999969303608,-0.006899999920278788,-0.021699998527765274,0,0.06099999926066736,0
0.5778836607933044,-0.016270993277430534,9.787084579467773,-0.015399999916553497,0.002699999837204814,-0.012000000104308128,-0.06099999926066736,0.12199999852133472,-0.06099999926066736
0.6117568612098694,-0.017104176804423332,9.777450561523438,0.013700000010430813,0.00279999990016222,-0.021699998527765274,-0.06099999926066736,0,-0.06099999926066736
0.5914252996444702,-0.026058491319417953,9.76863956451416,-0.006000000052154064,-0.006599999964237213,-0.021699998527765274,0,0.1830000044521087,0.06099999926066736
0.5900653600692749,-0.033451784402132034,9.749505043029785,-0.005699999630451202,-0.016200000420212746,-0.0414000004529953,0.06099999926066736,0.1830000044521087,-0.06099999926066736
0.6056755781173706,-0.03386358916759491,9.798442840576172,0.013700000010430813,-0.01589999906718731,0.007599999662488699,0,0.06099999926066736,0
0.5582320690155029,-0.035482071340084076,9.765862464904785,-0.0348999984562397,-0.015599999576807022,-0.031599998474121094,0.06099999926066736,-0.12199999852133472,-0.06099999926066736
0.5801917314529419,0.005315127782523632,9.781998634338379,-0.01589999906718731,0.003700000001117587,-0.011899999342858791,-0.06099999926066736,0.12199999852133472,0
0.5949399471282959,-0.003830722765997052,9.786941528320312,0.003700000001117587,0.0038999998942017555,-0.011899999342858791,0,0.06099999926066736,0
0.6057234406471252,-0.0012641384964808822,9.755366325378418,0.013399999588727951,0.0038999998942017555,-0.04129999876022339,0,-0.06099999926066736,0.06099999926066736
0.5860909819602966,-0.010639832355082035,9.772336959838867,-0.006599999964237213,0.0038999998942017555,-0.021699998527765274,-0.06099999926066736,0.12199999852133472,-0.12199999852133472
0.606058657169342,-0.031268272548913956,9.78620433807373,0.012899999506771564,-0.015399999916553497,-0.011899999342858791,0,0.12199999852133472,-0.06099999926066736
0.6018927097320557,-0.012832920998334885,9.761256217956543,0.002899999963119626,0.0038999998942017555,-0.03150000050663948,0,0.06099999926066736,-0.12199999852133472
0.6046603918075562,-0.02279280126094818,9.768284797668457,0.002899999963119626,0.0038999998942017555,-0.03150000050663948,0,0.06099999926066736,-0.12199999852133472
0.5639302730560303,-0.002576161175966263,9.777756690979004,0.012600000016391277,-0.005799999926239252,-0.03150000050663948,0,0.1830000044521087,0
0.5891843438148499,-0.019823990762233734,9.7593412399292,-0.006099999882280827,-0.006099999882280827,-0.03150000050663948,0,0.24399999704266945,-0.12199999852133472
0.6226456761360168,-0.02986048348248005,9.756927490234375,0.033399999141693115,-0.01589999906718731,-0.0414000004529953,-0.06099999926066736,0.1830000044521087,0
0.6212857961654663,-0.017209522426128387,9.779375076293945,0.02369999885559082,0.0037999998312443495,-0.011899999342858791,0,0.12199999852133472,-0.06099999926066736
0.5758630037307739,-0.027609933167696,9.774884223937988,-0.01529999915510416,-0.0058999997563660145,-0.021800000220537186,0,0.12199999852133472,-0.06099999926066736
0.5775867700576782,-0.006157887168228626,9.771321296691895,-0.015199999324977398,0.0037999998312443495,-0.021800000220537186,0,0.06099999926066736,0
0.5826146006584167,-0.007220912259072065,9.745933532714844,-0.01529999915510416,0.0037999998312443495,-0.05119999870657921,-0.06099999926066736,0,0
0.6013085246086121,-0.02144247107207775,9.766905784606934,0.0038999998942017555,-0.005799999926239252,-0.031599998474121094,0,0.12199999852133472,0.06099999926066736
0.5882840752601624,-0.008542511612176895,9.776981353759766,-0.005699999630451202,0.003999999724328518,-0.021699998527765274,0.06099999926066736,0,-0.12199999852133472
0.5836009979248047,-0.026546908542513847,9.795694351196289,-0.015799999237060547,-0.0058999997563660145,-0.002099999925121665,0.06099999926066736,0.06099999926066736,0
0.605962872505188,-0.008418013341724873,9.755682945251465,0.013399999588727951,0.003599999938160181,-0.04129999876022339,0.06099999926066736,0.06099999926066736,0
0.5815324187278748,-0.0037924153730273247,9.783646583557129,-0.01549999974668026,0.003399999812245369,-0.011899999342858791,0.06099999926066736,-0.06099999926066736,0
0.581494152545929,0.0031603462994098663,9.774749755859375,-0.015699999406933784,0.0030999998562037945,-0.021699998527765274,0,0.06099999926066736,0
0.5868092775344849,-0.010601525194942951,9.745464324951172,-0.0058999997563660145,0.0030999998562037945,-0.05119999870657921,-0.06099999926066736,0.06099999926066736,-0.12199999852133472
0.6025630831718445,-0.040394969284534454,9.75353717803955,0.003599999938160181,-0.025699999183416367,-0.04129999876022339,0.06099999926066736,0,0
0.5962710976600647,-0.028184542432427406,9.774127006530762,0.0031999999191612005,-0.006099999882280827,-0.021699998527765274,0.12199999852133472,0.06099999926066736,-0.06099999926066736
0.5826433897018433,0.0015035585965961218,9.765192031860352,-0.016200000420212746,0.0031999999191612005,-0.03150000050663948,0,0,0
0.6202610731124878,-0.04334462806582451,9.755461692810059,0.022299999371170998,-0.025699999183416367,-0.04129999876022339,-0.06099999926066736,0.06099999926066736,0.06099999926066736
0.5771941542625427,-0.009816226549446583,9.763486862182617,-0.016699999570846558,0.003700000001117587,-0.03150000050663948,0,0.1830000044521087,0.06099999926066736
0.6163728833198547,-0.01796608977019787,9.768898010253906,0.012600000016391277,0.003700000001117587,-0.021699998527765274,-0.06099999926066736,0.06099999926066736,0
0.5893662571907043,-0.043545741587877274,9.778331756591797,0.02239999920129776,0.003599999938160181,-0.021699998527765274,-0.06099999926066736,0.12199999852133472,-0.06099999926066736
0.6048232316970825,-0.02513911761343479,9.767433166503906,0.01249999925494194,-0.004999999888241291,-0.03150000050663948,0.06099999926066736,0.3049999896332302,0
