Accelerometer_Gx,Accelerometer_Gy,Accelerometer_Gz,Accelerometer_X,Accelerometer_Y,Accelerometer_Z,Gyroscope_Z,Gyroscope_X,Gyroscope_Y
0.6128581762313843,-0.03963840380311012,9.76494312286377,-0.0017999999690800905,0,-0.03059999831020832,-0.06099999926066736,0.1830000044521087,-0.06099999926066736
0.6131550073623657,-0.03788584843277931,9.785284042358398,0.006399999838322401,0.007899999618530273,-0.010900000110268593,0.06099999926066736,0.12199999852133472,-0.06099999926066736
0.6092381477355957,-0.07029376178979874,9.786548614501953,-0.002199999988079071,-0.021399999037384987,-0.010900000110268593,0,0.24399999704266945,0
0.612254798412323,-0.041362229734659195,9.746583938598633,-0.0018999999156221747,0.007199999876320362,-0.05009999871253967,0,0.24399999704266945,-0.12199999852133472
0.6132029294967651,-0.03539587929844856,9.785724639892578,0.007499999832361937,0.01529999915510416,-0.010900000110268593,0,0.1830000044521087,0
0.6323948502540588,-0.02526361681520939,9.796661376953125,0.011099999770522118,0.009999999776482582,-0.00009999999747378752,-0.06099999926066736,0.24399999704266945,0
0.6098319292068481,-0.01378102507442236,9.753939628601074,-0.014599999412894249,0.0210999995470047,-0.03959999978542328,-0.06099999926066736,0.1830000044521087,0
0.6115652918815613,-0.05685750022530556,9.79858684539795,-0.007799999788403511,-0.010199999436736107,0.008899999782443047,0.12199999852133472,0.1830000044521087,-0.06099999926066736
0.599795401096344,-0.023348255082964897,9.742256164550781,-0.014599999412894249,0.015399999916553497,-0.04999999701976776,0,0.06099999926066736,-0.06099999926066736
0.6159610748291016,-0.05125506967306137,9.764090538024902,0.0030999998562037945,-0.009800000116229057,-0.030299998819828033,0,0.12199999852133472,0
0.5878435373306274,-0.04808514937758446,9.786672592163086,-0.01489999983459711,-0.005499999970197678,-0.011299999430775642,0.06099999926066736,0.12199999852133472,-0.06099999926066736
0.6068918704986572,-0.05483679473400116,9.746087074279785,0.0032999999821186066,-0.0044999998062849045,-0.05049999803304672,0,0.24399999704266945,-0.06099999926066736
0.6263423562049866,-0.043564897030591965,9.80646800994873,0.0210999995470047,0.006000000052154064,0.00839999970048666,-0.06099999926066736,0.12199999852133472,-0.06099999926066736
0.6211134195327759,-0.041410114616155624,9.761159896850586,0.007599999662488699,0.004299999680370092,-0.030499998480081558,0.12199999852133472,0.06099999926066736,-0.12199999852133472
0.6063363552093506,-0.030866049230098724,9.79149055480957,-0.0007999999797903001,0.005399999674409628,-0.0011999999405816197,0,0.12199999852133472,-0.06099999926066736
0.5732101798057556,-0.03085647150874138,9.756085395812988,-0.01589999906718731,-0.010900000110268593,-0.030899999663233757,0,0.1830000044521087,-0.06099999926066736
0.6096020340919495,-0.03220680356025696,9.749208450317383,0.008100000210106373,0.004999999888241291,-0.04099999740719795,0.06099999926066736,0.1830000044521087,0.06099999926066736
0.6310158371925354,-0.03683239594101906,9.7947359085083,0.00989999994635582,0.0016999999061226845,-0.000699999975040555,0,0.1830000044521087,0
0.6059341430664062,-0.04545152559876442,9.78103256225586,-0.006099999882280827,-0.0050999997183680534,-0.010699999518692493,0.06099999926066736,0.3049999896332302,0
0.5784199833869934,-0.048209644854068756,9.793156623840332,-0.031300000846385956,-0.013399999588727951,-0.0010999999940395355,0,0.24399999704266945,0.12199999852133472
0.628889799118042,-0.05067088454961777,9.748356819152832,0.019899999722838402,-0.011899999342858791,-0.0502999983727932,0.06099999926066736,0.12199999852133472,0
0.5944611430168152,-0.04617936164140701,9.780094146728516,-0.00559999980032444,-0.0013000000035390258,-0.011299999430775642,0,0.1830000044521087,0.06099999926066736
0.6061161160469055,-0.055085793137550354,9.751133918762207,0.0030999998562037945,-0.008599999360740185,-0.040699999779462814,0,0.06099999926066736,-0.06099999926066736
0.6229042410850525,-0.06200982257723808,9.77818775177002,0.012000000104308128,-0.00989999994635582,-0.010599999688565731,0,0.12199999852133472,-0.12199999852133472
0.6441551446914673,-0.017171215265989304,9.747906684875488,0.02499999850988388,0.031199999153614044,-0.04939999803900719,0,0.1830000044521087,0
0.6082804799079895,-0.05095818638801575,9.793107986450195,-0.005399999674409628,-0.0030999998562037945,-0.0008999999845400453,0.12199999852133472,0.06099999926066736,-0.12199999852133472
0.621458113193512,-0.049253515899181366,9.780045509338379,0.0024999999441206455,-0.002099999925121665,-0.010599999688565731,-0.06099999926066736,0.12199999852133472,-0.12199999852133472
0.6218316555023193,-0.07149086147546768,9.773218154907227,0.0015999999595806003,-0.014999999664723873,-0.02029999904334545,-0.12199999852133472,0.24399999704266945,0
0.6037697792053223,-0.049301404505968094,9.772345542907715,-0.004799999762326479,0.011099999770522118,-0.04010000079870224,-0.06099999926066736,0.1830000044521087,0
0.6037697792053223,-0.049301404505968094,9.772345542907715,-0.0031999999191612005,0.0009999999310821295,-0.020600000396370888,0.06099999926066736,0.06099999926066736,-0.06099999926066736
0.6299144625663757,-0.046840161085128784,9.745597839355469,0.012299999594688416,0.00839999970048666,-0.049799997359514236,-0.06099999926066736,0.1830000044521087,-0.06099999926066736
0.5945568680763245,-0.05905058979988098,9.77502727508545,-0.010999999940395355,-0.006899999920278788,-0.02070000022649765,0.06099999926066736,0.12199999852133472,-0.06099999926066736
0.6326150894165039,-0.040107667446136475,9.76876449584961,0.017500000074505806,0.007899999618530273,-0.020099999383091927,0,0,0
0.6160472631454468,-0.013972560875117779,9.787017822265625,-0.00139999995008111,0.020800000056624413,-0.010400000028312206,-0.12199999852133472,-0.06099999926066736,-0.06099999926066736
0.5966446399688721,-0.033614594489336014,9.764684677124023,-0.016200000420212746,0.0010999999940395355,-0.030299998819828033,0,0.1830000044521087,0
0.5939344167709351,-0.03658340126276016,9.735302925109863,-0.013399999588727951,0.0008999999845400453,-0.05989999696612358,0,0.1830000044521087,-0.12199999852133472
0.5967404246330261,-0.03190034255385399,9.796298027038574,-0.004999999888241291,0.00029999998514540493,-0.0015999999595806003,-0.06099999926066736,0.12199999852133472,-0.12199999852133472
0.6170815229415894,-0.051887139678001404,9.779787063598633,0.008799999952316284,-0.011699999682605267,-0.010999999940395355,0.06099999926066736,0.1830000044521087,0
0.5869433879852295,-0.026671407744288445,9.767988204956055,0.014599999412894249,0.013799999840557575,-0.04019999876618385,-0.06099999926066736,0.1830000044521087,-0.06099999926066736
0.6056947112083435,-0.026077644899487495,9.756295204162598,-0.0038999998942017555,0.013700000010430813,-0.040300000458955765,0.06099999926066736,0.12199999852133472,-0.06099999926066736
0.6180105209350586,-0.05708734691143036,9.780275344848633,0.006099999882280827,-0.015699999406933784,-0.010900000110268593,-0.06099999926066736,0.06099999926066736,-0.06099999926066736
0.5825188755989075,-0.043593622744083405,9.768027305603027,-0.03280000016093254,-0.005799999926239252,-0.030499998480081558,0.06099999926066736,0.06099999926066736,0.06099999926066736
0.6300389170646667,-0.053256623446941376,9.73610782623291,0.016300000250339508,-0.015699999406933784,-0.05989999696612358,0,0,-0.06099999926066736
0.6213911175727844,-0.025464728474617004,9.787285804748535,0.006399999838322401,0.013599999248981476,-0.010900000110268593,0.06099999926066736,0.3049999896332302,0
0.6120824813842773,-0.042147524654865265,9.782976150512695,0.0007999999797903001,-0.00279999990016222,-0.011099999770522118,-0.12199999852133472,0.1830000044521087,-0.12199999852133472
0.6168612837791443,-0.05045061931014061,9.74988842010498,0.011899999342858791,-0.01119999960064888,-0.0405999980866909,0,0.12199999852133472,0
0.619686484336853,-0.03143107891082764,9.75948429107666,0.007499999832361937,0.005499999970197678,-0.030499998480081558,-0.06099999926066736,0,0.06099999926066736
0.6117855906486511,-0.024583663791418076,9.802541732788086,-0.0007999999797903001,0.007599999662488699,0.008499999530613422,0,0.1830000044521087,0
0.6185372471809387,-0.053237468004226685,9.778552055358887,0.006000000052154064,-0.014399999752640724,-0.010799999348819256,-0.06099999926066736,0.06099999926066736,-0.06099999926066736
0.5956103801727295,-0.03374866768717766,9.73276424407959,-0.011799999512732029,0.004399999976158142,-0.05999999865889549,0.06099999926066736,0.12199999852133472,0
0.6227701306343079,-0.04186980053782463,9.792763710021973,0.00930000003427267,-0.00279999990016222,-0.0005999999702908099,0,0,-0.12199999852133472
0.6181828379631042,-0.034208353608846664,9.77491283416748,-0.0005999999702908099,0.004999999888241291,-0.02019999921321869,0,0,0
0.6254804134368896,-0.06382941454648972,9.764589309692383,0.006300000008195639,-0.018199998885393143,-0.029899999499320984,0,0.12199999852133472,0
0.6027737855911255,-0.03762727230787277,9.776531219482422,-0.016200000420212746,0.007799999788403511,-0.020499998703598976,0,0.06099999926066736,0.06099999926066736
0.6077345609664917,-0.03747404366731644,9.755922317504883,-0.0052999998442828655,0.006000000052154064,-0.04019999876618385,0,0.06099999926066736,-0.06099999926066736
0.593742847442627,-0.048382025212049484,9.777048110961914,-0.01719999872148037,-0.009200000204145908,-0.020999999716877937,-0.06099999926066736,0,-0.06099999926066736
0.6197726726531982,-0.03566402941942215,9.782086372375488,0.01209999993443489,0.03009999915957451,-0.0405999980866909,-0.12199999852133472,0.1830000044521087,-0.06099999926066736
0.6043730974197388,-0.0368419773876667,9.799745559692383,0.002899999963119626,0.010599999688565731,0.008299999870359898,0,0.12199999852133472,-0.1830000044521087
0.6026588678359985,-0.03799119219183922,9.774471282958984,-0.0064999996684491634,0.010599999688565731,-0.0210999995470047,-0.06099999926066736,0.1830000044521087,0
0.612254798412323,-0.05964435264468193,9.794363021850586,0.003700000001117587,-0.01850000023841858,-0.001500000013038516,0,-0.06099999926066736,-0.06099999926066736
0.6087784171104431,-0.035654451698064804,9.748566627502441,0.003599999938160181,0.010799999348819256,-0.05049999803304672,0,0.12199999852133472,-0.12199999852133472
0.5985121726989746,-0.023501483723521233,9.806114196777344,-0.005799999926239252,0.020499998703598976,0.008200000040233135,0,0,0
0.6042295098304749,-0.04623682424426079,9.774299621582031,0.0038999998942017555,0.0008999999845400453,-0.0210999995470047,0.12199999852133472,0.12199999852133472,0.06099999926066736
0.5989047884941101,-0.029678523540496826,9.774022102355957,-0.005499999970197678,0.010400000028312206,-0.0210999995470047,0,0.12199999852133472,-0.06099999926066736
0.6331610083580017,-0.03706223890185356,9.743232727050781,0.03399999812245369,0.010300000198185444,-0.050599999725818634,0.12199999852133472,0.24399999704266945,-0.12199999852133472
0.6016916036605835,-0.045231256633996964,9.771110534667969,-0.004600000102072954,-0.0011999999405816197,-0.021199999377131462,-0.06099999926066736,0.06099999926066736,0
0.6068630814552307,-0.039724595844745636,9.775832176208496,0.002300000051036477,-0.0004999999655410647,-0.020999999716877937,0.06099999926066736,0.1830000044521087,-0.06099999926066736
0.6088933944702148,-0.04087381064891815,9.758622169494629,0.0013000000035390258,-0.00039999998989515007,-0.0405999980866909,0.12199999852133472,0.1830000044521087,0
0.6088933944702148,-0.04087381064891815,9.758622169494629,0.0013000000035390258,-0.00039999998989515007,-0.0405999980866909,0.12199999852133472,0.1830000044521087,0
0.6181828379631042,-0.007757213432341814,9.7506742477417,0.004699999932199717,0.01549999974668026,-0.04019999876618385,0.12199999852133472,0,-0.06099999926066736
0.6193129420280457,-0.0522606335580349,9.762530326843262,0.00279999990016222,-0.01719999872148037,-0.030299998819828033,0,0.06099999926066736,0
0.5921722650527954,-0.03844130411744118,9.781654357910156,-0.016499999910593033,-0.0044999998062849045,-0.011299999430775642,0.06099999926066736,0.06099999926066736,-0.06099999926066736
0.6102054119110107,-0.028232425451278687,9.7665433883667,0.0018999999156221747,0.010999999940395355,-0.030799999833106995,0,0.3049999896332302,0
0.6096595525741577,-0.060678645968437195,9.765670776367188,0.0038999998942017555,-0.026499999687075615,-0.030899999663233757,0.06099999926066736,0.06099999926066736,0
0.627185046672821,-0.028586769476532936,9.809292793273926,0.01640000008046627,0.00839999970048666,0.018400000408291817,0.06099999926066736,0.12199999852133472,0.06099999926066736
0.6153385639190674,-0.07506301254034042,9.771570205688477,0.011699999682605267,-0.008200000040233135,-0.03019999898970127,-0.06099999926066736,0.3049999896332302,-0.06099999926066736
0.6153385639190674,-0.07506301254034042,9.771570205688477,0.0011999999405816197,-0.025499999523162842,-0.02029999904334545,-0.06099999926066736,0.3049999896332302,-0.06099999926066736
0.6337547898292542,-0.028242003172636032,9.790072441101074,0.026099998503923416,0.021399999037384987,-0.0009999999310821295,0,0.24399999704266945,-0.06099999926066736
0.6066811680793762,-0.04473326355218887,9.754982948303223,0.00029999998514540493,0.00029999998514540493,-0.04050000011920929,0,0.12199999852133472,-0.06099999926066736
0.618518054485321,-0.04140053689479828,9.779165267944336,0.0005999999702908099,0.017899999395012856,0.00839999970048666,0.06099999926066736,0,0
0.6197630763053894,-0.04746265336871147,9.75654411315918,0.009499999694526196,-0.0071000000461936,-0.04050000011920929,0,0.06099999926066736,0
0.6080601811408997,-0.029774291440844536,9.76325798034668,-0.0005999999702908099,0.0018999999156221747,-0.030700000002980232,0,0.06099999926066736,0.06099999926066736
0.6086634993553162,-0.05765237659215927,9.770977020263672,-0.000699999975040555,-0.018400000408291817,-0.020800000056624413,-0.06099999926066736,0.12199999852133472,0.06099999926066736
0.6062310338020325,-0.04099830985069275,9.763726234436035,-0.000699999975040555,0.0008999999845400453,-0.03059999831020832,0.06099999926066736,0.06099999926066736,-0.06099999926066736
0.615587592124939,-0.03725377470254898,9.777786254882812,0.005699999630451202,0.0071000000461936,-0.020600000396370888,0,0.12199999852133472,0
0.5973820686340332,-0.06931692361831665,9.78019905090332,-0.008599999360740185,-0.019899999722838402,-0.011099999770522118,-0.06099999926066736,0.12199999852133472,-0.12199999852133472
0.6285257935523987,-0.03751235082745552,9.767786979675293,0.015099999494850636,0.014399999752640724,-0.030399998649954796,0,0.1830000044521087,-0.06099999926066736
0.6066332459449768,-0.04263594374060631,9.784001350402832,-0.002699999837204814,0.00279999990016222,-0.010900000110268593,0,0.1830000044521087,-0.12199999852133472
0.6155971884727478,-0.04789361357688904,9.73720932006836,0.00559999980032444,-0.005699999630451202,-0.05979999899864197,0,0.24399999704266945,-0.06099999926066736
0.6150225400924683,-0.04611232504248619,9.764090538024902,0.010300000198185444,0.0018999999156221747,-0.030700000002980232,-0.06099999926066736,0.12199999852133472,-0.12199999852133472
0.5930437445640564,-0.055746592581272125,9.763832092285156,-0.0142000000923872,-0.005499999970197678,-0.03099999949336052,0.06099999926066736,0.06099999926066736,0
0.6348082423210144,-0.033097442239522934,9.751622200012207,0.025599999353289604,0.010400000028312206,-0.04019999876618385,-0.06099999926066736,0.12199999852133472,-0.06099999926066736
0.6022853851318359,-0.038000769913196564,9.778780937194824,-0.008200000040233135,0.006300000008195639,-0.01119999960064888,-0.1830000044521087,0,-0.12199999852133472
0.6230766177177429,-0.008341399021446705,9.770641326904297,0.0139999995008111,0.01809999905526638,-0.020600000396370888,-0.06099999926066736,0.24399999704266945,-0.12199999852133472
0.6167176365852356,-0.042425256222486496,9.769070625305176,0.01899999938905239,0.0011999999405816197,-0.020899999886751175,0.06099999926066736,0.12199999852133472,0.06099999926066736
0.5964052081108093,-0.029850905761122704,9.774663925170898,0.012899999506771564,-0.006599999964237213,-0.0210999995470047,-0.06099999926066736,0.12199999852133472,0
0.6434656381607056,-0.03919786959886551,9.755682945251465,0.03309999778866768,-0.005699999630451202,-0.04010000079870224,0.06099999926066736,0.12199999852133472,0.06099999926066736
0.5838308930397034,-0.03408385440707207,9.770172119140625,0.03309999778866768,-0.005699999630451202,-0.04010000079870224,-0.06099999926066736,0.12199999852133472,-0.06099999926066736
0.5838308930397034,-0.03408385440707207,9.770172119140625,-0.02410000003874302,0.0026000000070780516,-0.021199999377131462,-0.06099999926066736,0.12199999852133472,-0.06099999926066736
0.617244303226471,-0.05636908486485481,9.756591796875,0.00969999935477972,-0.013399999588727951,-0.04050000011920929,0.06099999926066736,0.12199999852133472,-0.06099999926066736
0.608223021030426,-0.050536807626485825,9.76984691619873,-0.00019999999494757503,-0.008999999612569809,-0.020899999886751175,-0.06099999926066736,0.12199999852133472,-0.06099999926066736
0.6250206828117371,-0.01708502322435379,9.76481819152832,0.013599999248981476,0.021699998527765274,-0.030299998819828033,0.06099999926066736,0.1830000044521087,0
0.5976406335830688,-0.03779008239507675,9.767633438110352,-0.011500000022351742,0.00139999995008111,-0.03059999831020832,0.06099999926066736,0.1830000044521087,0
0.623181939125061,-0.03513730317354202,9.776962280273438,0.011599999852478504,0.0007999999797903001,-0.020399998873472214,-0.06099999926066736,0.24399999704266945,0
0.6135477423667908,-0.025435999035835266,9.77304458618164,0.008499999530613422,0.01249999925494194,-0.020800000056624413,-0.06099999926066736,0.06099999926066736,0
0.638131320476532,-0.04231990873813629,9.778925895690918,0.016200000420212746,-0.0038999998942017555,-0.010300000198185444,0.06099999926066736,0.1830000044521087,0
0.6388975381851196,-0.024152705445885658,9.775803565979004,0.011099999770522118,0.010599999688565731,-0.01979999989271164,0,0.12199999852133472,0.06099999926066736
0.6160280704498291,-0.02966894768178463,9.763429641723633,-0.006399999838322401,0.0005999999702908099,-0.02969999983906746,0.06099999926066736,0.1830000044521087,0
0.6084049940109253,-0.039255332201719284,9.772144317626953,-0.010999999940395355,-0.006199999712407589,-0.02019999921321869,0.12199999852133472,0.12199999852133472,-0.06099999926066736
0.5915880799293518,-0.037052664905786514,9.765220642089844,-0.022599998861551285,0.002300000051036477,-0.030499998480081558,0.06099999926066736,0.12199999852133472,-0.06099999926066736
0.5980141162872314,-0.04185064882040024,9.773552894592285,-0.008700000122189522,-0.004999999888241291,-0.020999999716877937,0.12199999852133472,0.24399999704266945,0.06099999926066736
0.6100426316261292,-0.03227383643388748,9.781606674194336,0.005499999970197678,0.004699999932199717,-0.011399999260902405,0.06099999926066736,0.12199999852133472,0
0.6308146715164185,-0.0328197181224823,9.752205848693848,0.01860000006854534,0.003399999812245369,-0.04039999842643738,-0.12199999852133472,0.12199999852133472,-0.06099999926066736
0.6189298629760742,-0.014010868035256863,9.783493041992188,0.004900000058114529,0.013299999758601189,-0.010799999348819256,-0.1830000044521087,0.06099999926066736,0
0.6024385690689087,-0.02033155970275402,9.798298835754395,-0.008200000040233135,0.002300000051036477,0.008299999870359898,-0.06099999926066736,0,-0.06099999926066736
0.6148597598075867,-0.016462530940771103,9.756975173950195,0.008299999870359898,0.00969999935477972,-0.04039999842643738,0,0.1830000044521087,0.06099999926066736
0.600006103515625,-0.03203441947698593,9.813498497009277,-0.006599999964237213,-0.0064999996684491634,0.017999999225139618,0.12199999852133472,0.06099999926066736,-0.06099999926066736
0.5819346904754639,-0.031957805156707764,9.745003700256348,-0.02149999886751175,-0.005399999674409628,-0.05079999938607216,0,-0.06099999926066736,0
0.610080897808075,-0.03534799441695213,9.756017684936523,0.012399999424815178,-0.018699999898672104,-0.040699999779462814,0.06099999926066736,0.12199999852133472,0
0.6085295081138611,-0.06915412098169327,9.779021263122559,0.001500000013038516,0.0004999999655410647,-0.0405999980866909,-0.06099999926066736,0.06099999926066736,0.06099999926066736
0.621975302696228,-0.008226476609706879,9.762568473815918,0.0005999999702908099,-0.02199999988079071,-0.011099999770522118,0.12199999852133472,0.1830000044521087,-0.06099999926066736
0.5839074850082397,-0.03574064373970032,9.783493041992188,0.007199999876320362,0.026999998837709427,-0.030499998480081558,0,0.06099999926066736,0
0.6086922883987427,-0.03283886983990669,9.765028953552246,-0.0017999999690800905,0.00699999975040555,-0.03059999831020832,0,0.3049999896332302,0
0.6293590068817139,-0.04376600682735443,9.761026382446289,0.025499999523162842,-0.003499999875202775,-0.03099999949336052,0,0.1830000044521087,-0.12199999852133472
0.6108661890029907,-0.03984909504652023,9.75960922241211,0.003700000001117587,-0.002300000051036477,-0.030899999663233757,0.06099999926066736,0.24399999704266945,0
0.6296176314353943,-0.04569094628095627,9.762070655822754,0.0279999990016222,-0.0032999999821186066,-0.031199999153614044,0,-0.06099999926066736,-0.06099999926066736
0.6051871180534363,-0.057288460433483124,9.814638137817383,0.005699999630451202,-0.00839999970048666,0.017899999395012856,-0.12199999852133472,0.12199999852133472,-0.12199999852133472
0.6262082457542419,-0.025244463235139847,9.774835586547852,0.016599999740719795,0.014099999330937862,-0.02070000022649765,-0.06099999926066736,0.06099999926066736,-0.12199999852133472
0.6385335922241211,-0.0684933215379715,9.772872924804688,0.01719999872148037,-0.02290000021457672,-0.020099999383091927,0,0.12199999852133472,0.06099999926066736
0.6502652168273926,-0.03085647150874138,9.733942985534668,0.02159999869763851,0.013199999928474426,-0.05900000035762787,0,0.06099999926066736,0
0.6091806888580322,-0.021413739770650864,9.76384162902832,-0.012899999506771564,0.016300000250339508,-0.029899999499320984,-0.06099999926066736,0.12199999852133472,0
0.6215922236442566,-0.04886086657643318,9.783963203430176,-0.0017999999690800905,-0.007400000002235174,-0.010300000198185444,0,0.1830000044521087,-0.06099999926066736
0.578161358833313,-0.032599449157714844,9.772891998291016,-0.02879999950528145,0.008499999530613422,-0.020899999886751175,0,0.06099999926066736,-0.06099999926066736
0.5992112159729004,-0.03369120880961418,9.77823543548584,-0.005799999926239252,0.005200000014156103,-0.011299999430775642,0.06099999926066736,0.1830000044521087,0.06099999926066736
0.6148022413253784,-0.05379292368888855,9.760259628295898,0.010099999606609344,-0.010699999518692493,-0.030700000002980232,0,0.12199999852133472,-0.06099999926066736
0.6249344944953918,-0.046811431646347046,9.774242401123047,0.013100000098347664,-0.0005999999702908099,-0.020499998703598976,0,0.12199999852133472,0
0.605962872505188,-0.018071433529257774,9.752666473388672,-0.006099999882280827,0.028699999675154686,-0.04010000079870224,0,0.06099999926066736,-0.06099999926066736
0.6188245415687561,-0.018234239891171455,9.749591827392578,0.004100000020116568,0.028699999675154686,-0.04010000079870224,0,0.1830000044521087,-0.06099999926066736
0.6322799921035767,-0.013560758903622627,9.791011810302734,0.004100000020116568,0.028699999675154686,-0.04010000079870224,0.06099999926066736,0.12199999852133472,-0.06099999926066736
0.6083283424377441,-0.0171807911247015,9.752598762512207,0.02419999986886978,0.028599999845027924,-0.0008999999845400453,-0.06099999926066736,0.12199999852133472,0
0.618728756904602,-0.051408298313617706,9.763669967651367,0.005200000014156103,-0.010599999688565731,-0.030399998649954796,0,0.1830000044521087,-0.12199999852133472
0.6348656415939331,-0.04592078924179077,9.76956844329834,0.025200000032782555,-0.0007999999797903001,-0.020600000396370888,0.24399999704266945,0.12199999852133472,-0.12199999852133472
0.617215633392334,-0.06838797777891159,9.800885200500488,0.01850000023841858,-0.032999999821186066,0.007899999618530273,0,0.1830000044521087,-0.06099999926066736
0.6101383566856384,-0.03165134787559509,9.764397621154785,0.004999999888241291,0.0037999998312443495,-0.03099999949336052,0.12199999852133472,0.06099999926066736,-0.06099999926066736
0.6162387728691101,-0.04045243188738823,9.761333465576172,0.00930000003427267,-0.004100000020116568,-0.030700000002980232,0,0.1830000044521087,0.06099999926066736
0.6134136319160461,-0.05331408232450485,9.751363754272461,0.0064999996684491634,-0.010099999606609344,-0.040300000458955765,-0.06099999926066736,0,-0.06099999926066736
0.6030227541923523,-0.04901409521698952,9.741327285766602,-0.010699999518692493,-0.007499999832361937,-0.050200000405311584,0,0.12199999852133472,-0.06099999926066736
0.5957731604576111,-0.011338939890265465,9.773447036743164,-0.0071000000461936,0.02019999921321869,-0.0210999995470047,-0.12199999852133472,0.24399999704266945,0.06099999926066736
0.6238235831260681,-0.0057460842654109,9.789268493652344,0.027899999171495438,0.021699998527765274,-0.0017999999690800905,0.06099999926066736,0.12199999852133472,0.06099999926066736
0.601959764957428,-0.05636908486485481,9.768027305603027,-0.0013000000035390258,-0.012600000016391277,-0.031199999153614044,-0.06099999926066736,0,-0.06099999926066736
0.5994506478309631,-0.0450301431119442,9.773869514465332,-0.0013000000035390258,-0.0016999999061226845,-0.021399999037384987,-0.12199999852133472,0.12199999852133472,0
0.6287460923194885,-0.034754231572151184,9.744985580444336,0.02159999869763851,0.0064999996684491634,-0.05040000006556511,0,0.12199999852133472,-0.06099999926066736
0.6181733012199402,-0.04333505406975746,9.77169418334961,0.007499999832361937,-0.002099999925121665,-0.02070000022649765,0.06099999926066736,0.12199999852133472,-0.06099999926066736
0.6140744090080261,-0.04435976967215538,9.769367218017578,0.004799999762326479,-0.001500000013038516,-0.020600000396370888,0,0.06099999926066736,-0.06099999926066736
0.6043922901153564,-0.04592078924179077,9.764090538024902,-0.0038999998942017555,-0.0009999999310821295,-0.030399998649954796,-0.06099999926066736,0.1830000044521087,0
0.6245131492614746,-0.026748022064566612,9.780428886413574,0.00930000003427267,0.011099999770522118,-0.010499999858438969,0,0.12199999852133472,-0.12199999852133472
0.5856983661651611,-0.0657639279961586,9.77131175994873,-0.021199999377131462,-0.019700000062584877,-0.020800000056624413,0.06099999926066736,0,-0.06099999926066736
0.6150704622268677,-0.040270473808050156,9.760825157165527,0.005499999970197678,-0.00019999999494757503,-0.030399998649954796,0.06099999926066736,0.12199999852133472,0
0.6021321415901184,-0.021078553050756454,9.780879020690918,-0.00969999935477972,0.013100000098347664,-0.020899999886751175,0.12199999852133472,0.06099999926066736,-0.12199999852133472
0.6173305511474609,-0.03714843466877937,9.819741249084473,-0.009599999524652958,0.01269999984651804,-0.011099999770522118,0.12199999852133472,0.1830000044521087,0.06099999926066736
0.6050147414207458,-0.02433466538786888,9.777173042297363,0.010099999606609344,0.002899999963119626,0.018199998885393143,0.06099999926066736,0,-0.06099999926066736
0.6150225400924683,-0.024823084473609924,9.777095794677734,0.010599999688565731,0.01209999993443489,-0.020899999886751175,0.06099999926066736,0.3660000089042174,0.06099999926066736
0.6178381443023682,-0.034323275089263916,9.805596351623535,0.0210999995470047,0.00279999990016222,0.007699999958276749,-0.06099999926066736,0.24399999704266945,0.06099999926066736
0.6066619753837585,-0.04231990873813629,9.731232643127441,0.015599999576807022,-0.0064999996684491634,-0.06109999865293503,0,0.24399999704266945,-0.06099999926066736
0.5982439517974854,-0.03407428041100502,9.776626586914062,0.008599999360740185,0.003399999812245369,-0.02199999988079071,0,0.1830000044521087,-0.06099999926066736
0.630000650882721,-0.03635355830192566,9.785781860351562,0.02199999988079071,0.0018999999156221747,-0.01119999960064888,-0.12199999852133472,0.1830000044521087,0
0.6132891178131104,-0.04639005288481712,9.734498023986816,0.009800000116229057,-0.006099999882280827,-0.060099996626377106,0,0.1830000044521087,-0.1830000044521087
0.6264380812644958,-0.03537672385573387,9.774453163146973,0.027300000190734863,0.003700000001117587,-0.021399999037384987,0.06099999926066736,0.06099999926066736,-0.12199999852133472
0.6019980311393738,-0.047998953610658646,9.793769836425781,-0.0009999999310821295,-0.008200000040233135,-0.0017999999690800905,0.06099999926066736,0.1830000044521087,0
0.6020459532737732,-0.04210921749472618,9.791853904724121,-0.00029999998514540493,0.0007999999797903001,-0.0017999999690800905,-0.12199999852133472,0.06099999926066736,0
0.6284587979316711,-0.029611486941576004,9.763190269470215,0.022099999710917473,0.00839999970048666,-0.030799999833106995,0.12199999852133472,0.12199999852133472,0
0.6330268979072571,-0.03007117286324501,9.765144348144531,0.023499999195337296,0.006000000052154064,-0.030299998819828033,0.06099999926066736,0.24399999704266945,0
0.5972288250923157,-0.02585737779736519,9.778618812561035,-0.006300000008195639,0.01489999983459711,-0.011299999430775642,0.12199999852133472,0.06099999926066736,-0.06099999926066736
0.6058383584022522,-0.05167644843459129,9.770564079284668,0.002099999925121665,-0.010099999606609344,-0.020999999716877937,0,-0.06099999926066736,-0.06099999926066736
0.5927660465240479,-0.016654066741466522,9.798605918884277,-0.010099999606609344,0.016899999231100082,0.007799999788403511,0,0.1830000044521087,0.06099999926066736
0.6114503741264343,-0.05388868972659111,9.779155731201172,0.006199999712407589,-0.014299999922513962,-0.011500000022351742,0,0.06099999926066736,0
0.6198875904083252,-0.0388626828789711,9.787898063659668,0.008700000122189522,-0.0023999998811632395,-0.0011999999405816197,0,0.06099999926066736,-0.1830000044521087
0.6222530603408813,-0.048755522817373276,9.773897171020508,0.006099999882280827,-0.008899999782443047,-0.020600000396370888,-0.06099999926066736,0.12199999852133472,0
0.6211612820625305,-0.04094085097312927,9.785120964050293,-0.002899999963119626,-0.021299999207258224,-0.030499998480081558,0.12199999852133472,0.06099999926066736,-0.12199999852133472
0.58896404504776,-0.01791820488870144,9.793281555175781,0.003999999724328518,0.004699999932199717,-0.010699999518692493,0,0.12199999852133472,0
0.6181733012199402,-0.034543540328741074,9.755577087402344,0.012299999594688416,-0.0004999999655410647,-0.040699999779462814,0,0,0.06099999926066736
0.6221668124198914,-0.012411542236804962,9.757550239562988,0.008899999782443047,0.014699999243021011,-0.04050000011920929,0,0.12199999852133472,0
0.5954858660697937,-0.011338939890265465,9.758133888244629,-0.010300000198185444,0.014699999243021011,-0.04050000011920929,0,0,-0.06099999926066736
0.5981098413467407,-0.04433104023337364,9.764349937438965,-0.010300000198185444,-0.014599999412894249,-0.030700000002980232,0.12199999852133472,0.12199999852133472,0
0.5854493379592896,-0.07632714509963989,9.788358688354492,-0.019700000062584877,-0.044199999421834946,-0.0013000000035390258,0,0.12199999852133472,0.06099999926066736
0.6258156299591064,-0.02732262946665287,9.774375915527344,0.019700000062584877,0.004699999932199717,-0.020899999886751175,0.06099999926066736,0.12199999852133472,0
0.6068439483642578,-0.03184288367629051,9.788444519042969,0.0004999999655410647,-0.0050999997183680534,-0.0013000000035390258,0.06099999926066736,0.06099999926066736,-0.06099999926066736
0.63788241147995,-0.024401701986789703,9.760969161987305,0.029999999329447746,0.004399999976158142,-0.030700000002980232,0.06099999926066736,0,-0.12199999852133472
0.6105501651763916,-0.022093692794442177,9.776166915893555,0.0005999999702908099,0.00419999985024333,-0.020899999886751175,-0.12199999852133472,0.1830000044521087,0
0.6276543736457825,-0.025799917057156563,9.790283203125,0.020600000396370888,0.0044999998062849045,-0.00139999995008111,0.1830000044521087,0.24399999704266945,0.06099999926066736
0.6225020289421082,-0.032599449157714844,9.772078514099121,0.03590000048279762,-0.0008999999845400453,-0.021900000050663948,0,0.1830000044521087,-0.12199999852133472
0.5930437445640564,-0.04187937453389168,9.782506942749023,-0.0016999999061226845,-0.0052999998442828655,-0.012199999764561653,0,0.12199999852133472,-0.12199999852133472
0.6115940809249878,-0.0536780022084713,9.77405071258545,0.011399999260902405,-0.009800000116229057,-0.02159999869763851,0.06099999926066736,0.24399999704266945,0.06099999926066736
0.5981577634811401,-0.04957912862300873,9.790254592895508,0.0071000000461936,-0.012299999594688416,-0.002300000051036477,0,0.1830000044521087,-0.06099999926066736
0.6287652850151062,-0.03189076483249664,9.777776718139648,0.02419999986886978,0.004799999762326479,-0.021199999377131462,-0.06099999926066736,0.06099999926066736,-0.12199999852133472
0.6024673581123352,-0.04583459720015526,9.771608352661133,-0.0037999998312443495,-0.0031999999191612005,-0.021199999377131462,-0.06099999926066736,0,-0.06099999926066736
0.5959646701812744,-0.028759151697158813,9.780208587646484,-0.0026000000070780516,0.004100000020116568,-0.011500000022351742,0.06099999926066736,0.12199999852133472,-0.1830000044521087
0.5930437445640564,-0.048257529735565186,9.764101028442383,0.004799999762326479,-0.003999999724328518,-0.021199999377131462,0.06099999926066736,0.12199999852133472,-0.06099999926066736
0.5930437445640564,-0.048257529735565186,9.764101028442383,-0.011299999430775642,-0.010400000028312206,-0.031199999153614044,0.06099999926066736,0.12199999852133472,-0.06099999926066736
0.6220998167991638,-0.036966472864151,9.754312515258789,0.0052999998442828655,-0.0004999999655410647,-0.021199999377131462,0,0.06099999926066736,-0.06099999926066736
0.6022853851318359,-0.05831317603588104,9.74210262298584,0.010999999940395355,0.006899999920278788,-0.0405999980866909,0,0.12199999852133472,-0.06099999926066736
0.6021034121513367,-0.027542896568775177,9.768160820007324,-0.0052999998442828655,0.015199999324977398,-0.03099999949336052,-0.06099999926066736,0.12199999852133472,0
0.6000826954841614,-0.04824795201420784,9.806161880493164,-0.0026000000070780516,-0.007699999958276749,0.007999999448657036,0,0.06099999926066736,0.06099999926066736
0.5957061052322388,-0.046629469841718674,9.770852088928223,-0.0023999998811632395,0.001999999862164259,-0.021299999207258224,0,0.12199999852133472,0
0.6148022413253784,-0.02836650051176548,9.765900611877441,0.017400000244379044,0.02159999869763851,-0.031099999323487282,0.06099999926066736,0.12199999852133472,-0.06099999926066736
0.625767707824707,-0.03775177523493767,9.760307312011719,0.02759999968111515,0.011599999852478504,-0.031199999153614044,0,0.12199999852133472,0
0.5738422870635986,-0.04165910929441452,9.783283233642578,-0.030799999833106995,0.0017999999690800905,-0.011599999852478504,0.06099999926066736,0.12199999852133472,0
0.6048710942268372,-0.04990473762154579,9.75147819519043,0.008700000122189522,-0.008100000210106373,-0.04099999740719795,0.06099999926066736,0.1830000044521087,-0.06099999926066736
0.6246088743209839,-0.019900605082511902,9.791460990905762,0.028599999845027924,0.020899999886751175,-0.0017999999690800905,0,0.12199999852133472,0
0.6456969976425171,-0.04339251294732094,9.763248443603516,0.048499997705221176,0.0013000000035390258,-0.031199999153614044,0,0.12199999852133472,0
0.6223775148391724,-0.02533065341413021,9.743146896362305,0.01939999870955944,0.020899999886751175,-0.05089999735355377,0,0.24399999704266945,0
0.6052924990653992,-0.043900080025196075,9.792476654052734,0.022199999541044235,-0.004299999680370092,-0.0026000000070780516,0.12199999852133472,0.24399999704266945,-0.06099999926066736
0.6096882224082947,-0.03784754127264023,9.759552001953125,0.026200000196695328,0.003499999875202775,-0.03229999914765358,-0.06099999926066736,0.24399999704266945,-0.06099999926066736
0.6078590750694275,-0.022898145020008087,9.806228637695312,0.028299998492002487,0.01269999984651804,0.0066999997943639755,0,0.12199999852133472,0
0.5924500226974487,-0.0469263531267643,9.780983924865723,0.004999999888241291,-0.003999999724328518,-0.01249999925494194,-0.06099999926066736,0.12199999852133472,0
0.5955719947814941,-0.03187161311507225,9.752655982971191,0.011099999770522118,0.004600000102072954,-0.04179999977350235,0,0.1830000044521087,-0.06099999926066736
0.6117472648620605,-0.03642059862613678,9.774367332458496,0.013700000010430813,0.003000000026077032,-0.021699998527765274,0.06099999926066736,0.12199999852133472,0
0.5946813821792603,-0.04035666212439537,9.773801803588867,0.0023999998811632395,-0.004600000102072954,-0.02159999869763851,0.06099999926066736,0.06099999926066736,0.06099999926066736
0.6111918091773987,-0.03095223940908909,9.759590148925781,0.02410000003874302,0.002899999963119626,-0.010799999348819256,0,0.06099999926066736,0.06099999926066736
0.6020172238349915,-0.03893929719924927,9.766695022583008,-0.00419999985024333,0.002199999988079071,-0.030399998649954796,-0.1830000044521087,0.1830000044521087,0
0.6098414659500122,-0.023874979466199875,9.776607513427734,-0.002199999988079071,-0.007199999876320362,-0.031199999153614044,0,0.12199999852133472,0
0.6167559027671814,-0.025646688416600227,9.76107406616211,0.004900000058114529,0.008299999870359898,-0.021199999377131462,0.06099999926066736,0,0
0.6292440891265869,-0.03367205336689949,9.765106201171875,0.010300000198185444,0.006000000052154064,-0.030700000002980232,0.06099999926066736,0,0
0.6129539012908936,-0.051456183195114136,9.767921447753906,0.0023999998811632395,-0.01589999906718731,-0.03019999898970127,0.06099999926066736,0.12199999852133472,-0.06099999926066736
0.613212525844574,-0.04556644707918167,9.757884979248047,0.00139999995008111,-0.004699999932199717,-0.03999999910593033,0,0.06099999926066736,-0.06099999926066736
0.6096116304397583,-0.03868072107434273,9.808517456054688,-0.004799999762326479,-0.003000000026077032,0.01850000023841858,0,0,0
0.5964722037315369,-0.039140406996011734,9.778168678283691,-0.009099999442696571,-0.0017999999690800905,-0.011099999770522118,0.12199999852133472,0.12199999852133472,0
0.6037219166755676,-0.04144842177629471,9.758689880371094,0.00019999999494757503,-0.0015999999595806003,-0.04050000011920929,-0.06099999926066736,0.12199999852133472,0.06099999926066736
0.5859090685844421,-0.020350713282823563,9.760978698730469,-0.014299999922513962,0.013100000098347664,-0.03099999949336052,0.06099999926066736,0.06099999926066736,-0.06099999926066736
0.6150416731834412,-0.029649794101715088,9.776646614074707,0.009499999694526196,0.001999999862164259,-0.020899999886751175,0,0,-0.06099999926066736
0.6015096306800842,-0.03399766609072685,9.781598091125488,-0.009999999776482582,0.001999999862164259,-0.011099999770522118,0,0.12199999852133472,-0.06099999926066736
0.6067098379135132,-0.0232237558811903,9.781357765197754,0.00009999999747378752,0.011799999512732029,-0.011099999770522118,0.06099999926066736,0.12199999852133472,-0.06099999926066736
0.6183265447616577,-0.038498762995004654,9.757023811340332,0.010199999436736107,-0.007899999618530273,-0.04050000011920929,-0.06099999926066736,0.1830000044521087,0
0.6222243309020996,-0.03769431263208389,9.791316986083984,0.010699999518692493,0.001999999862164259,-0.0013000000035390258,0,0.06099999926066736,-0.06099999926066736
0.6254038214683533,-0.0206188652664423,9.793386459350586,0.020499998703598976,0.011699999682605267,-0.0013000000035390258,0,0.06099999926066736,-0.06099999926066736
0.6139116287231445,-0.0349457673728466,9.777670860290527,0.010900000110268593,0.0018999999156221747,-0.020999999716877937,0,0.12199999852133472,-0.06099999926066736
0.6037601828575134,-0.02338656224310398,9.770689010620117,0.00139999995008111,0.011699999682605267,-0.020999999716877937,0,0.06099999926066736,-0.06099999926066736
0.5924596190452576,-0.008408436551690102,9.764196395874023,-0.017899999395012856,0.021399999037384987,-0.030799999833106995,-0.06099999926066736,0.06099999926066736,-0.06099999926066736
0.6012319326400757,-0.03775177523493767,9.762950897216797,-0.007899999618530273,0.001999999862164259,-0.030799999833106995,-0.06099999926066736,0.12199999852133472,0
0.6122643947601318,-0.034725502133369446,9.781012535095215,0.002099999925121665,0.002199999988079071,-0.01119999960064888,-0.12199999852133472,0.12199999852133472,-0.06099999926066736
0.6064225435256958,-0.05841852352023125,9.774375915527344,0.0023999998811632395,-0.016899999231100082,-0.00139999995008111,0.06099999926066736,0.06099999926066736,0.06099999926066736
0.616257905960083,-0.027284322306513786,9.75503158569336,0.0026000000070780516,-0.026799999177455902,-0.020999999716877937,-0.06099999926066736,0.1830000044521087,-0.06099999926066736
0.6077728867530823,-0.0389871783554554,9.794018745422363,0.012799999676644802,0.012299999594688416,-0.040699999779462814,0.06099999926066736,0.24399999704266945,0
0.6213049292564392,-0.060295574367046356,9.782028198242188,0.03590000048279762,-0.027400000020861626,-0.012600000016391277,0.06099999926066736,0,-0.06099999926066736
0.6133274435997009,-0.022524649277329445,9.790465354919434,0.01209999993443489,0.0038999998942017555,-0.00139999995008111,0.12199999852133472,0.06099999926066736,-0.06099999926066736
0.6208739876747131,-0.04412992298603058,9.765096664428711,0.008599999360740185,-0.011699999682605267,-0.03059999831020832,0.06099999926066736,0.12199999852133472,-0.06099999926066736
0.6173401474952698,-0.04247313737869263,9.777421951293945,0.00559999980032444,-0.007999999448657036,-0.020600000396370888,-0.06099999926066736,0.1830000044521087,-0.12199999852133472
0.6003603935241699,-0.056790463626384735,9.75638198852539,-0.010900000110268593,-0.013499999418854713,-0.04039999842643738,0,0.06099999926066736,0.06099999926066736
0.6022087335586548,-0.05706819146871567,9.753240585327148,-0.008700000122189522,-0.010099999606609344,-0.0405999980866909,0,0.1830000044521087,0.06099999926066736
0.5774144530296326,-0.04773080348968506,9.77169418334961,-0.018799999728798866,-0.00009999999747378752,-0.02149999886751175,0,0.24399999704266945,0.06099999926066736
0.6219178438186646,-0.05086242035031319,9.777326583862305,0.029399998486042023,-0.012600000016391277,-0.022099999710917473,0.12199999852133472,0.1830000044521087,-0.1830000044521087
0.5862537622451782,-0.014279019087553024,9.783990859985352,0.0058999997563660145,0.024399999529123306,-0.012600000016391277,-0.06099999926066736,0.12199999852133472,0.06099999926066736
0.6199737787246704,-0.07544608414173126,9.767959594726562,0.025200000032782555,-0.02459999918937683,-0.031599998474121094,0,0.12199999852133472,0
0.5931874513626099,-0.04124730825424194,9.76085376739502,-0.0032999999821186066,0.003399999812245369,-0.031599998474121094,0,0.12199999852133472,0.06099999926066736
0.6096882224082947,-0.016012420877814293,9.766504287719727,0.011299999430775642,0.023399999365210533,-0.03139999881386757,-0.06099999926066736,0.06099999926066736,-0.06099999926066736
0.5952081084251404,-0.025129541754722595,9.78171157836914,0.0005999999702908099,0.008100000210106373,-0.011699999682605267,0,0.06099999926066736,-0.06099999926066736
0.6181158423423767,-0.029946673661470413,9.738444328308105,0.016099998727440834,-0.0013000000035390258,-0.060499999672174454,0,0.12199999852133472,-0.06099999926066736
0.6146107316017151,-0.047098737210035324,9.798002243041992,0.009599999524652958,-0.006300000008195639,0.00839999970048666,0.12199999852133472,0.12199999852133472,0
0.6076005101203918,-0.05122634023427963,9.801200866699219,0.00029999998514540493,-0.00989999994635582,0.00839999970048666,-0.06099999926066736,0,0
0.5916934013366699,-0.03394978120923042,9.777067184448242,-0.014099999330937862,0.00699999975040555,-0.021199999377131462,0,0.12199999852133472,-0.12199999852133472
0.6234501600265503,-0.026786329224705696,9.773524284362793,0.00969999935477972,-0.0016999999061226845,0.008499999530613422,0,0.1830000044521087,-0.06099999926066736
0.6202706098556519,-0.03518518805503845,9.774385452270508,0.013299999758601189,0.012199999764561653,-0.020499998703598976,0,0.1830000044521087,-0.06099999926066736
0.62697434425354,-0.04222413897514343,9.784058570861816,0.003999999724328518,0.0023999998811632395,-0.020499998703598976,0.06099999926066736,0.1830000044521087,-0.06099999926066736
0.6019980311393738,-0.019115306437015533,9.77507495880127,-0.014499999582767487,0.021800000220537186,-0.020600000396370888,0.06099999926066736,0.12199999852133472,-0.06099999926066736
0.6200791001319885,-0.050747498869895935,9.769444465637207,-0.014499999582767487,0.021800000220537186,-0.020600000396370888,-0.12199999852133472,0.12199999852133472,0.06099999926066736
0.6164302825927734,-0.06307285279035568,9.767499923706055,0.00559999980032444,-0.026899999007582664,-0.030399998649954796,-0.06099999926066736,0.06099999926066736,-0.06099999926066736
0.6177136301994324,-0.03993528336286545,9.78908634185791,0.005799999926239252,-0.0071000000461936,-0.0009999999310821295,-0.06099999926066736,0.1830000044521087,-0.06099999926066736
0.6112396717071533,-0.017429787665605545,9.77791976928711,-0.003399999812245369,0.022299999371170998,-0.010900000110268593,-0.12199999852133472,0.12199999852133472,-0.06099999926066736
0.6319447755813599,-0.027246015146374702,9.783885955810547,0.01640000008046627,0.012799999676644802,-0.010900000110268593,-0.1830000044521087,0.24399999704266945,0
0.5951602458953857,-0.029870059341192245,9.787296295166016,0.013799999840557575,0.0026000000070780516,-0.01249999925494194,0,0,0
0.5986844897270203,-0.0664726197719574,9.796010971069336,0.005200000014156103,-0.010199999436736107,-0.002099999925121665,-0.12199999852133472,0.06099999926066736,-0.06099999926066736
0.592430830001831,-0.03583640977740288,9.755184173583984,-0.0038999998942017555,0.015199999324977398,-0.0414000004529953,0,0,0
0.6094392538070679,-0.03511814773082733,9.745903968811035,0.011599999852478504,0.012000000104308128,-0.050999999046325684,0,0.12199999852133472,-0.06099999926066736
0.6404297947883606,-0.025675419718027115,9.783895492553711,0.02279999852180481,0.01209999993443489,-0.010699999518692493,-0.06099999926066736,0,-0.06099999926066736
0.6213335990905762,-0.012373235076665878,9.762998580932617,0.0017999999690800905,0.016200000420212746,-0.03019999898970127,0,0.06099999926066736,-0.06099999926066736
0.6083953976631165,-0.03428496792912483,9.740474700927734,-0.006799999624490738,-0.0026000000070780516,-0.04989999905228615,0,0.1830000044521087,-0.06099999926066736
0.6198588013648987,-0.028644230216741562,9.786079406738281,0.0016999999061226845,0.004100000020116568,-0.010599999688565731,-0.12199999852133472,0.06099999926066736,0
0.6141031384468079,-0.025301923975348473,9.757338523864746,0.0008999999845400453,0.003399999812245369,-0.03999999910593033,-0.1830000044521087,0.12199999852133472,0
0.5776155591011047,-0.03979163244366646,9.782660484313965,-0.023499999195337296,-0.009499999694526196,-0.011399999260902405,-0.12199999852133472,0.1830000044521087,0
0.6129634976387024,-0.043967120349407196,9.760595321655273,0.011399999260902405,-0.0066999997943639755,-0.030799999833106995,-0.12199999852133472,0,0
0.6299911141395569,-0.007920019328594208,9.763009071350098,0.0210999995470047,0.02290000021457672,-0.030799999833106995,0.06099999926066736,0.12199999852133472,0
0.5979758501052856,-0.04964616894721985,9.764101028442383,0.02149999886751175,-0.01640000008046627,-0.0405999980866909,0.06099999926066736,0.06099999926066736,-0.12199999852133472
0.5903047919273376,-0.03132573515176773,9.778120994567871,-0.007699999958276749,-0.016499999910593033,-0.030799999833106995,0,0.06099999926066736,0
0.5993070006370544,-0.03275267779827118,9.756122589111328,-0.017099998891353607,0.0032999999821186066,-0.01119999960064888,0,0,-0.06099999926066736
0.5994506478309631,-0.05231809616088867,9.767595291137695,-0.0071000000461936,0.0032999999821186066,-0.040699999779462814,0.12199999852133472,0.06099999926066736,-0.12199999852133472
0.6311402916908264,-0.009710881859064102,9.755414009094238,0.022299999371170998,0.022499999031424522,-0.040699999779462814,-0.12199999852133472,0.06099999926066736,-0.06099999926066736
0.5973437428474426,-0.04107492417097092,9.788856506347656,-0.006799999624490738,-0.006399999838322401,-0.001500000013038516,0,0.24399999704266945,-0.12199999852133472
0.6436667442321777,-0.022993912920355797,9.781598091125488,0.06599999964237213,0.013399999588727951,-0.01269999984651804,0,0.06099999926066736,0.06099999926066736
0.6126857995986938,-0.032101456075906754,9.784317016601562,0.01269999984651804,0.0016999999061226845,-0.011899999342858791,0,0.12199999852133472,-0.06099999926066736
0.58355313539505,-0.02303222008049488,9.775056838989258,-0.01119999960064888,0.007699999958276749,-0.02199999988079071,0,0.24399999704266945,0.06099999926066736
0.6355647444725037,-0.05434837564826012,9.766810417175293,0.055799998342990875,-0.019700000062584877,-0.03229999914765358,0.06099999926066736,0.1830000044521087,0
0.578697681427002,-0.06390602886676788,9.79300308227539,-0.0013000000035390258,-0.015199999324977398,-0.002899999963119626,0.12199999852133472,0.3049999896332302,-0.12199999852133472
0.617311418056488,-0.04013639688491821,9.730772972106934,0.042500000447034836,0.0010999999940395355,-0.06199999898672104,-0.06099999926066736,0.06099999926066736,-0.06099999926066736
0.6200599074363708,-0.042530596256256104,9.796307563781738,0.022199999541044235,0.0005999999702908099,-0.001999999862164259,0,0,-0.06099999926066736
0.6200886964797974,-0.015629349276423454,9.739506721496582,0.018299998715519905,0.025499999523162842,-0.06059999763965607,0,0.06099999926066736,-0.06099999926066736
0.6085103154182434,-0.046840161085128784,9.757147789001465,0.006099999882280827,-0.002899999963119626,-0.04089999943971634,0.06099999926066736,0.06099999926066736,0
0.6023619771003723,-0.05136999115347862,9.781338691711426,-0.0023999998811632395,-0.007799999788403511,-0.011500000022351742,0.06099999926066736,0,-0.12199999852133472
0.6268690228462219,-0.029247568920254707,9.766609191894531,0.01939999870955944,0.008499999530613422,-0.030700000002980232,0.06099999926066736,0.3049999896332302,-0.06099999926066736
0.6105597615242004,-0.0368419773876667,9.75890064239502,0.013899999670684338,0.0066999997943639755,-0.03150000050663948,0,0.06099999926066736,-0.12199999852133472
0.5990101099014282,-0.03777092695236206,9.782114028930664,0.0023999998811632395,0.004100000020116568,-0.011799999512732029,0,0.12199999852133472,0
0.6360052824020386,-0.04545152559876442,9.755069732666016,0.03189999982714653,-0.004299999680370092,-0.0405999980866909,0,0.24399999704266945,0
0.5983588695526123,-0.058801595121622086,9.719779014587402,0.005799999926239252,-0.02459999918937683,-0.08069999516010284,0.06099999926066736,0.12199999852133472,-0.06099999926066736
0.6157025098800659,-0.04303817078471184,9.79153823852539,0.00969999935477972,0.00279999990016222,-0.011699999682605267,0.12199999852133472,0.3049999896332302,0.12199999852133472
0.6063076257705688,-0.019038692116737366,9.758661270141602,0.010699999518692493,-0.003700000001117587,-0.0013000000035390258,0.06099999926066736,0.12199999852133472,-0.06099999926066736
0.6182690262794495,-0.03908294811844826,9.767289161682129,0.016899999231100082,-0.003700000001117587,-0.031099999323487282,0.12199999852133472,0.24399999704266945,-0.06099999926066736
0.5999581813812256,-0.03518518805503845,9.78820514678955,0.009499999694526196,0.0044999998062849045,-0.0023999998811632395,0.12199999852133472,0.12199999852133472,-0.06099999926066736
0.6282001733779907,-0.022151153534650803,9.772719383239746,0.02630000002682209,0.009499999694526196,-0.021299999207258224,0.06099999926066736,0.1830000044521087,-0.06099999926066736
0.6222338676452637,-0.0441969633102417,9.77818775177002,0.010199999436736107,-0.006199999712407589,-0.011099999770522118,0,0.1830000044521087,-0.06099999926066736
0.6126666069030762,-0.04344039410352707,9.767097473144531,0.00019999999494757503,-0.004600000102072954,-0.030700000002980232,0,0.06099999926066736,0
0.6050339341163635,-0.029295451939105988,9.773638725280762,-0.00009999999747378752,0.003499999875202775,-0.020899999886751175,-0.06099999926066736,0.12199999852133472,0
0.6139116287231445,-0.019536685198545456,9.771617889404297,0.006399999838322401,0.009200000204145908,-0.02070000022649765,-0.06099999926066736,0.1830000044521087,-0.1830000044521087
0.6107704639434814,-0.02625960297882557,9.7922945022583,0.012199999764561653,0.009999999776482582,-0.001999999862164259,-0.06099999926066736,0.12199999852133472,-0.12199999852133472
0.6139116287231445,-0.059299588203430176,9.779241561889648,0.013499999418854713,-0.017799999564886093,-0.011299999430775642,-0.12199999852133472,0.12199999852133472,0
0.6198013424873352,-0.04998135194182396,9.788176536560059,0.007400000002235174,-0.004100000020116568,-0.0010999999940395355,0.06099999926066736,-0.06099999926066736,0
0.5980428457260132,-0.020657172426581383,9.778428077697754,-0.008499999530613422,0.016999999061226845,-0.011099999770522118,0.12199999852133472,0.06099999926066736,-0.12199999852133472
0.6102820634841919,-0.017094600945711136,9.788664817810059,0.000699999975040555,0.01489999983459711,-0.0013000000035390258,0,0.12199999852133472,-0.12199999852133472
0.6106363534927368,-0.026690561324357986,9.775583267211914,0.00039999998989515007,0.003700000001117587,-0.020899999886751175,0.06099999926066736,0.06099999926066736,-0.06099999926066736
0.6125516891479492,-0.03469676896929741,9.748710632324219,0,-0.004999999888241291,-0.0502999983727932,0.06099999926066736,0.12199999852133472,-0.12199999852133472
0.6166889071464539,-0.03298252075910568,9.801095962524414,0.006300000008195639,-0.0030999998562037945,0.008599999360740185,0.06099999926066736,0.12199999852133472,-0.06099999926066736
0.6107608675956726,-0.047165773808956146,9.806382179260254,-0.0017999999690800905,-0.008200000040233135,0.008499999530613422,0.06099999926066736,0.3049999896332302,-0.06099999926066736
0.6136147379875183,-0.03867114707827568,9.728130340576172,0.022299999371170998,-0.008499999530613422,-0.07069999724626541,-0.06099999926066736,0.12199999852133472,0
0.5960509181022644,-0.03132573515176773,9.762558937072754,0.0017999999690800905,0.0010999999940395355,-0.03139999881386757,0.06099999926066736,0.24399999704266945,0.06099999926066736
0.6289759278297424,-0.04112280532717705,9.789029121398926,0.02290000021457672,-0.004600000102072954,-0.001500000013038516,-0.06099999926066736,0.3049999896332302,0
0.6049094200134277,-0.06300581246614456,9.79018783569336,0.02290000021457672,-0.004600000102072954,-0.001500000013038516,0.06099999926066736,0.12199999852133472,0
0.6049764156341553,-0.03688985854387283,9.776176452636719,0.011299999430775642,0.002899999963119626,-0.02159999869763851,0,0.06099999926066736,0
0.5930054187774658,-0.019632453098893166,9.769424438476562,-0.006099999882280827,0.008999999612569809,-0.021699998527765274,0.06099999926066736,0,0.12199999852133472
0.5870677828788757,-0.04993347078561783,9.772144317626953,-0.004699999932199717,-0.014399999752640724,-0.021800000220537186,0.06099999926066736,-0.06099999926066736,-0.12199999852133472
0.6116131544113159,-0.03829764947295189,9.786423683166504,0.009099999442696571,0.0030999998562037945,-0.011599999852478504,0,0,0
0.5883511304855347,-0.04473326355218887,9.750654220581055,-0.008700000122189522,-0.0050999997183680534,-0.041200000792741776,-0.06099999926066736,-0.06099999926066736,0
0.613001823425293,-0.009768342599272728,9.751391410827637,0.014999999664723873,0.01860000006854534,-0.04079999774694443,0,0.12199999852133472,-0.12199999852133472
0.606480062007904,-0.023874979466199875,9.764272689819336,0.003499999875202775,0.006300000008195639,-0.030899999663233757,-0.06099999926066736,0.1830000044521087,-0.12199999852133472
0.5934938788414001,-0.05649358406662941,9.777364730834961,-0.010999999940395355,-0.015599999576807022,-0.021399999037384987,-0.06099999926066736,0.1830000044521087,0
0.5897589325904846,-0.04867890849709511,9.776388168334961,-0.007699999958276749,-0.010599999688565731,-0.02159999869763851,0,-0.06099999926066736,0
0.5864548683166504,-0.03047339990735054,9.79638385772705,-0.004399999976158142,0.004900000058114529,-0.002199999988079071,0,0.06099999926066736,-0.06099999926066736
0.6059724688529968,-0.03553953021764755,9.765499114990234,0.01529999915510416,0.004900000058114529,-0.031599998474121094,0.06099999926066736,0.1830000044521087,0
0.6078974008560181,-0.04000232368707657,9.767461776733398,0.015799999237060547,-0.004999999888241291,-0.031599998474121094,-0.06099999926066736,0.1830000044521087,0.06099999926066736
0.61579829454422,-0.016299724578857422,9.783004760742188,0.026099998503923416,0.02449999935925007,-0.01209999993443489,0,0.12199999852133472,-0.06099999926066736
0.589720606803894,-0.052672434598207474,9.769645690917969,-0.002899999963119626,-0.014599999412894249,-0.021900000050663948,0.06099999926066736,0.06099999926066736,0
0.6343868374824524,-0.04355531558394432,9.779318809509277,0.04609999805688858,-0.004999999888241291,-0.01209999993443489,-0.06099999926066736,0.06099999926066736,-0.06099999926066736
0.6169762015342712,-0.05244259163737297,9.753355026245117,0.026599999517202377,-0.014599999412894249,-0.04149999842047691,0,0,-0.12199999852133472
0.6195715069770813,-0.038450878113508224,9.773571968078613,0.026499999687075615,-0.004799999762326479,-0.021900000050663948,0.12199999852133472,0.12199999852133472,-0.06099999926066736
0.6019214391708374,-0.053543925285339355,9.773993492126465,0.027799999341368675,-0.01679999940097332,-0.023099999874830246,0.06099999926066736,0,0
0.606269359588623,-0.055085793137550354,9.791337013244629,0.027799999341368675,-0.01679999940097332,-0.023099999874830246,-0.06099999926066736,0.1830000044521087,0
0.5942791700363159,-0.041410114616155624,9.766618728637695,0.015199999324977398,-0.006799999624490738,-0.002199999988079071,0.06099999926066736,0.12199999852133472,0
0.6157025098800659,-0.053112972527742386,9.785676956176758,0.014399999752640724,-0.004600000102072954,-0.011299999430775642,0,0.06099999926066736,-0.06099999926066736
0.6477177739143372,-0.03455311805009842,9.747063636779785,0.03460000082850456,0.011899999342858791,-0.04999999701976776,0,0.12199999852133472,-0.06099999926066736
0.6403723359107971,-0.03275267779827118,9.779068946838379,0.014800000004470348,0.007199999876320362,-0.010199999436736107,0,0.1830000044521087,-0.06099999926066736
0.6124463677406311,-0.04038539528846741,9.76516342163086,-0.010900000110268593,-0.0018999999156221747,-0.029999999329447746,0,0.24399999704266945,-0.06099999926066736
0.5905346870422363,-0.04102703928947449,9.778322219848633,-0.009999999776482582,-0.0038999998942017555,-0.011699999682605267,-0.06099999926066736,0.12199999852133472,0
0.6170719861984253,-0.02445916458964348,9.766217231750488,0.013700000010430813,0.011399999260902405,-0.030899999663233757,0,-0.06099999926066736,0
0.6340420246124268,-0.03399766609072685,9.767816543579102,0.02319999970495701,0.0011999999405816197,-0.030299998819828033,0.06099999926066736,0.12199999852133472,0.06099999926066736
0.6322990655899048,-0.03255156800150871,9.766983032226562,0.016200000420212746,0.000699999975040555,-0.029899999499320984,0,0.1830000044521087,-0.06099999926066736
0.6152715682983398,-0.037665579468011856,9.760307312011719,-0.0026000000070780516,0.0004999999655410647,-0.029899999499320984,0,0.24399999704266945,-0.12199999852133472
0.6262848377227783,-0.04357447102665901,9.775975227355957,0.029099998995661736,-0.008999999612569809,-0.02149999886751175,0.06099999926066736,0.06099999926066736,0
0.5811206698417664,-0.05083369091153145,9.769070625305176,-0.013899999670684338,-0.012899999506771564,-0.021800000220537186,0.06099999926066736,0.12199999852133472,0
0.604545533657074,-0.03712927922606468,9.779576301574707,0.00930000003427267,0.0038999998942017555,-0.011599999852478504,-0.06099999926066736,0.06099999926066736,-0.06099999926066736
0.6070067882537842,-0.04234864190220833,9.759427070617676,0.006599999964237213,-0.00419999985024333,-0.031099999323487282,0,0.06099999926066736,-0.06099999926066736
0.6040858030319214,-0.02502419613301754,9.776244163513184,0.00419999985024333,0.010400000028312206,-0.0210999995470047,-0.06099999926066736,0.06099999926066736,-0.06099999926066736
0.6010116338729858,-0.05073792114853859,9.775812149047852,-0.004100000020116568,-0.012799999676644802,-0.021199999377131462,0.06099999926066736,0.06099999926066736,-0.06099999926066736
0.6192075610160828,-0.05265328288078308,9.755318641662598,0.011299999430775642,-0.00989999994635582,-0.0405999980866909,-0.06099999926066736,0.06099999926066736,-0.06099999926066736
0.6174646019935608,-0.05495171621441841,9.755721092224121,0.007999999448657036,-0.0072999997064471245,-0.04039999842643738,0,0,-0.1830000044521087
0.6156258583068848,-0.04704127460718155,9.802139282226562,0.004799999762326479,0.0013000000035390258,0.008799999952316284,0,0.12199999852133472,-0.06099999926066736
0.6402478814125061,-0.019440917298197746,9.760767936706543,0.043299999088048935,0.01529999915510416,-0.03150000050663948,-0.06099999926066736,0.06099999926066736,0
0.5990292429924011,-0.02338656224310398,9.755308151245117,0.043299999088048935,0.01529999915510416,-0.03150000050663948,0,0.12199999852133472,0
0.6202322840690613,-0.04483860731124878,9.770362854003906,0.002699999837204814,0.012000000104308128,-0.04129999876022339,0,0.06099999926066736,-0.06099999926066736
0.6137775182723999,-0.04599740356206894,9.737611770629883,0.014699999243021011,-0.004900000058114529,-0.021199999377131462,0.06099999926066736,0.12199999852133472,-0.06099999926066736
0.5911858677864075,-0.0351947620511055,9.78494930267334,-0.010699999518692493,0.0032999999821186066,-0.011599999852478504,-0.06099999926066736,0,-0.12199999852133472
0.6227127313613892,-0.023549368605017662,9.790685653686523,0.013399999588727951,0.006199999712407589,-0.0008999999845400453,-0.06099999926066736,0.12199999852133472,0
0.5873456001281738,-0.02941037341952324,9.762673377990723,-0.02019999921321869,-0.0026000000070780516,-0.030700000002980232,0,0.12199999852133472,0
0.5910326242446899,-0.01621353253722191,9.772499084472656,-0.0142000000923872,0.011799999512732029,-0.021199999377131462,0.06099999926066736,0.1830000044521087,-0.06099999926066736
0.6143234372138977,-0.048190489411354065,9.75948429107666,0.010900000110268593,-0.019999999552965164,-0.030799999833106995,0,0.1830000044521087,0
0.6296942234039307,-0.036573827266693115,9.770066261291504,0.013399999588727951,-0.00019999999494757503,-0.020499998703598976,-0.06099999926066736,0.1830000044521087,0
0.6180200576782227,-0.04028962552547455,9.786290168762207,0.002099999925121665,-0.005799999926239252,-0.010599999688565731,0,0.1830000044521087,0
0.6193225383758545,-0.030511707067489624,9.789689064025879,0.0026000000070780516,0.0038999998942017555,-0.0007999999797903001,0,0,0.06099999926066736
0.6021321415901184,-0.028586769476532936,9.788061141967773,-0.01679999940097332,0.013700000010430813,-0.0007999999797903001,-0.06099999926066736,0.12199999852133472,0
0.6002551317214966,-0.05194459855556488,9.780370712280273,-0.016499999910593033,-0.015399999916553497,-0.010699999518692493,0,0,0
0.5978992581367493,-0.03822103515267372,9.786108016967773,-0.01640000008046627,0.004100000020116568,-0.010699999518692493,-0.12199999852133472,0.3049999896332302,0.06099999926066736
0.6089508533477783,-0.048573561012744904,9.767882347106934,0.02589999884366989,-0.016099998727440834,-0.03219999745488167,0.06099999926066736,-0.06099999926066736,0
0.6114503741264343,-0.03270479664206505,9.751181602478027,0.01719999872148037,0.002300000051036477,-0.04149999842047691,0,0.12199999852133472,-0.06099999926066736
0.6274723410606384,-0.05710649862885475,9.783283233642578,0.019099999219179153,-0.008999999612569809,-0.010999999940395355,0.06099999926066736,0,0
0.6275298595428467,-0.03118208236992359,9.799821853637695,0.011500000022351742,0.006099999882280827,0.008899999782443047,0.06099999926066736,0.24399999704266945,-0.12199999852133472
0.6136051416397095,-0.03582683578133583,9.764244079589844,0.05079999938607216,0.024299999698996544,-0.011799999512732029,-0.12199999852133472,0.24399999704266945,0.06099999926066736
0.6035494804382324,-0.031976956874132156,9.796431541442871,0.012999999336898327,0.001999999862164259,-0.002099999925121665,-0.06099999926066736,0.24399999704266945,-0.06099999926066736
0.620040774345398,-0.03429454565048218,9.782191276550293,0.012999999336898327,0.001999999862164259,-0.002099999925121665,-0.06099999926066736,0.06099999926066736,0.06099999926066736
0.608347475528717,-0.04073015972971916,9.766667366027832,0.01889999955892563,-0.005399999674409628,-0.03179999813437462,0,0.12199999852133472,-0.06099999926066736
0.6086922883987427,-0.05123591795563698,9.76064395904541,0.013499999418854713,-0.011099999770522118,-0.03150000050663948,0,0.06099999926066736,0
0.5898259282112122,-0.02343444712460041,9.768572807312012,-0.004399999976158142,0.012299999594688416,-0.021800000220537186,0.06099999926066736,0.06099999926066736,-0.12199999852133472
0.6286599040031433,-0.04400542750954628,9.778579711914062,0.02019999921321869,-0.004299999680370092,-0.011099999770522118,0.06099999926066736,0,0
0.6405543088912964,-0.02518700249493122,9.779107093811035,0.017799999564886093,0.008999999612569809,-0.010400000028312206,0.06099999926066736,0.06099999926066736,0
0.6199641823768616,-0.03426581621170044,9.77087116241455,-0.001500000013038516,-0.0005999999702908099,-0.02019999921321869,-0.12199999852133472,0.06099999926066736,0.06099999926066736
0.6105501651763916,-0.046246398240327835,9.772939682006836,-0.011099999770522118,-0.010099999606609344,-0.02019999921321869,0,0.12199999852133472,0
0.6200120449066162,-0.03706223890185356,9.779279708862305,-0.0008999999845400453,-0.00019999999494757503,-0.010400000028312206,0.12199999852133472,0.12199999852133472,-0.12199999852133472
0.6179625988006592,-0.049301404505968094,9.783732414245605,-0.0005999999702908099,-0.02019999921321869,-0.010400000028312206,-0.06099999926066736,0,-0.06099999926066736
0.5914444327354431,-0.01368525717407465,9.769424438476562,-0.029999999329447746,0.019099999219179153,-0.02019999921321869,-0.06099999926066736,0.06099999926066736,-0.06099999926066736
0.5865506529808044,-0.05193502455949783,9.736854553222656,-0.029899999499320984,-0.019899999722838402,-0.05949999764561653,0.06099999926066736,0,-0.12199999852133472
0.6218412518501282,-0.053237468004226685,9.747139930725098,-0.00039999998989515007,-0.019999999552965164,-0.04969999939203262,0,0.06099999926066736,0.06099999926066736
0.6022757887840271,-0.03242706507444382,9.79491901397705,-0.01979999989271164,-0.00039999998989515007,-0.000699999975040555,-0.06099999926066736,0.06099999926066736,-0.1830000044521087
0.6009829044342041,-0.019009962677955627,9.772968292236328,-0.019600000232458115,0.019199999049305916,-0.02029999904334545,-0.12199999852133472,0.06099999926066736,-0.06099999926066736
0.6014904975891113,-0.05240428447723389,9.788617134094238,-0.019299998879432678,-0.019500000402331352,-0.000699999975040555,0.06099999926066736,0.06099999926066736,0
0.6004945039749146,-0.009471462108194828,9.757166862487793,-0.019099999219179153,0.019500000402331352,-0.03989999741315842,0.06099999926066736,0.06099999926066736,-0.12199999852133472
0.5947579741477966,-0.027753585949540138,9.800042152404785,-0.018799999728798866,0.009399999864399433,0.008999999612569809,-0.06099999926066736,0.06099999926066736,0
0.615932285785675,-0.04107492417097092,9.76107406616211,0.0008999999845400453,-0.00989999994635582,-0.03019999898970127,0.06099999926066736,0,-0.12199999852133472
0.6150608658790588,-0.041199423372745514,9.797666549682617,0.0008999999845400453,-0.009999999776482582,0.008999999612569809,-0.06099999926066736,0.12199999852133472,0
0.5922967791557312,-0.0202645231038332,9.779701232910156,0.010999999940395355,-0.029399998486042023,-0.049799997359514236,0.12199999852133472,-0.06099999926066736,-0.12199999852133472
0.6067098379135132,-0.03430412337183952,9.743511199951172,-0.027799999341368675,0.009999999776482582,-0.010599999688565731,-0.06099999926066736,0.06099999926066736,0.06099999926066736
0.6175795197486877,-0.05374504253268242,9.770918846130371,-0.00839999970048666,0,-0.049799997359514236,0,0.12199999852133472,0
0.5810248255729675,-0.03095223940908909,9.756515502929688,-0.03720000013709068,0.00019999999494757503,-0.03999999910593033,0.06099999926066736,0.1830000044521087,-0.06099999926066736
0.63172447681427,-0.033825282007455826,9.759063720703125,0.012199999764561653,0,-0.03019999898970127,0,0.06099999926066736,-0.12199999852133472
0.5809386372566223,-0.01703714020550251,9.771714210510254,-0.036399997770786285,0.019500000402331352,-0.020499998703598976,-0.06099999926066736,0.24399999704266945,-0.06099999926066736
0.6134136319160461,-0.03587471693754196,9.770306587219238,0.003399999812245369,0,-0.020499998703598976,0,0.06099999926066736,-0.12199999852133472
0.598598301410675,-0.0456143319606781,9.751526832580566,-0.01589999906718731,-0.00969999935477972,-0.04010000079870224,-0.1830000044521087,0.12199999852133472,0
0.6228850483894348,-0.031000124290585518,9.784958839416504,0.013700000010430813,0.0004999999655410647,-0.010699999518692493,-0.06099999926066736,0.12199999852133472,-0.06099999926066736
0.6070546507835388,-0.04405330866575241,9.778428077697754,-0.005499999970197678,-0.009099999442696571,-0.010699999518692493,0.06099999926066736,0.1830000044521087,-0.12199999852133472
0.6168612837791443,-0.028653806075453758,9.763497352600098,0.004699999932199717,0.010300000198185444,-0.030399998649954796,-0.06099999926066736,0.1830000044521087,0
0.5951985716819763,-0.03599921613931656,9.80543327331543,-0.014299999922513962,0.0005999999702908099,0.008700000122189522,0.06099999926066736,0.06099999926066736,-0.12199999852133472
0.600121021270752,-0.04031835496425629,9.757444381713867,-0.014099999330937862,-0.00930000003427267,-0.04019999876618385,0,0.12199999852133472,-0.06099999926066736
0.6211804151535034,-0.0440724641084671,9.762711524963379,0.005699999630451202,-0.00930000003427267,-0.030499998480081558,0.06099999926066736,0.12199999852133472,-0.12199999852133472
0.6059533357620239,-0.060937222093343735,9.78602123260498,-0.003599999938160181,-0.029099998995661736,-0.010900000110268593,-0.06099999926066736,0.06099999926066736,-0.12199999852133472
0.6074472665786743,-0.031076738610863686,9.764090538024902,-0.003499999875202775,0.00039999998989515007,-0.030499998480081558,-0.06099999926066736,0.12199999852133472,0
0.6131646037101746,-0.05637866258621216,9.754389762878418,0.0064999996684491634,-0.01889999955892563,-0.040300000458955765,0,0.12199999852133472,-0.12199999852133472
0.6045837998390198,-0.04466622695326805,9.787190437316895,-0.00279999990016222,-0.008999999612569809,-0.010900000110268593,0.06099999926066736,0.06099999926066736,-0.06099999926066736
0.6019118428230286,-0.022361842915415764,9.804380416870117,-0.012299999594688416,0.010199999436736107,0.008599999360740185,-0.12199999852133472,0.1830000044521087,-0.06099999926066736
0.6283151507377625,-0.0407588891685009,9.78130054473877,0.01769999973475933,-0.008799999952316284,-0.010999999940395355,-0.06099999926066736,0.24399999704266945,-0.12199999852133472
0.6283151507377625,-0.0407588891685009,9.78130054473877,0.01769999973475933,-0.008799999952316284,-0.010999999940395355,-0.06099999926066736,0.24399999704266945,-0.12199999852133472
0.6015479564666748,-0.012018891982734203,9.774462699890137,-0.0010999999940395355,0.0010999999940395355,0.008499999530613422,0.06099999926066736,0.12199999852133472,0
0.6245322823524475,-0.03337517008185387,9.802963256835938,-0.010599999688565731,0.02029999904334545,-0.020800000056624413,0,0.06099999926066736,0
0.6472772359848022,-0.01883758045732975,9.776637077331543,0.019099999219179153,0.0004999999655410647,0.008499999530613422,-0.12199999852133472,0.3049999896332302,-0.06099999926066736
0.601203203201294,-0.03409343212842941,9.78762149810791,-0.00930000003427267,0.0007999999797903001,-0.0013000000035390258,0,0.24399999704266945,0
0.5820687413215637,-0.03928406164050102,9.782210350036621,-0.028199998661875725,-0.008899999782443047,-0.01119999960064888,0,0,-0.06099999926066736
0.6096882224082947,-0.06924030929803848,9.761370658874512,0.0010999999940395355,-0.03830000013113022,-0.030799999833106995,-0.06099999926066736,0.12199999852133472,-0.06099999926066736
0.6253846287727356,-0.05026865750551224,9.766197204589844,0.0210999995470047,-0.01850000023841858,-0.030799999833106995,-0.06099999926066736,0,0.12199999852133472
0.623603343963623,-0.02267787978053093,9.78690242767334,0.020999999716877937,0.010999999940395355,-0.01119999960064888,0,0.1830000044521087,0
0.6002551317214966,-0.03533841669559479,9.810145378112793,-0.007799999788403511,0.0011999999405816197,0.01809999905526638,-0.06099999926066736,0.06099999926066736,-0.12199999852133472
0.5890406370162964,-0.027169400826096535,9.766312599182129,-0.017400000244379044,0.011099999770522118,-0.030799999833106995,-0.06099999926066736,0.12199999852133472,-0.06099999926066736
0.6211708188056946,-0.05028781294822693,9.783283233642578,0.012199999764561653,-0.017999999225139618,-0.01119999960064888,0,0.06099999926066736,-0.06099999926066736
0.6108470559120178,-0.032379183918237686,9.752799987792969,0.0026000000070780516,0.001500000013038516,-0.040699999779462814,0.06099999926066736,0.1830000044521087,-0.06099999926066736
0.602927029132843,-0.02450704760849476,9.772375106811523,-0.006599999964237213,0.011099999770522118,-0.0210999995470047,-0.06099999926066736,0,0
0.6024960875511169,-0.04118026793003082,9.759590148925781,-0.006599999964237213,-0.008200000040233135,-0.030899999663233757,-0.06099999926066736,0,0.06099999926066736
0.6243982315063477,-0.04937801882624626,9.761112213134766,0.022699998691678047,-0.017899999395012856,-0.030899999663233757,0,0,-0.12199999852133472
0.6214389801025391,-0.0402800478041172,9.775113105773926,0.01269999984651804,-0.007999999448657036,-0.0210999995470047,-0.06099999926066736,0.12199999852133472,-0.12199999852133472
0.5845874547958374,-0.04170699417591095,9.776339530944824,-0.016099998727440834,-0.007699999958276749,-0.0210999995470047,-0.12199999852133472,0.12199999852133472,-0.06099999926066736
0.6118429899215698,-0.05457821860909462,9.763199806213379,0.003700000001117587,-0.016999999061226845,-0.030899999663233757,0,0.12199999852133472,-0.12199999852133472
0.6110768914222717,-0.044206537306308746,9.767346382141113,0.0038999998942017555,-0.007199999876320362,-0.030899999663233757,0.06099999926066736,0,-0.06099999926066736
0.630307137966156,-0.022878991439938545,9.78125286102295,0.023099999874830246,0.011899999342858791,-0.011299999430775642,0.06099999926066736,0.06099999926066736,-0.06099999926066736
0.6022279262542725,-0.06699934601783752,9.74831771850586,0.013199999928474426,-0.01730000041425228,-0.0210999995470047,0,0,-0.06099999926066736
0.6131550073623657,-0.04397669434547424,9.795560836791992,-0.006099999882280827,-0.02709999866783619,-0.05049999803304672,0,0.06099999926066736,0
0.6293111443519592,-0.038900990039110184,9.769415855407715,0.022699998691678047,-0.007199999876320362,-0.0210999995470047,0,0,-0.06099999926066736
0.6163058280944824,-0.03376782312989235,9.789575576782227,0.01249999925494194,0.0024999999441206455,-0.00139999995008111,0.06099999926066736,0.12199999852133472,0
0.6066332459449768,-0.01715206168591976,9.770440101623535,0.003000000026077032,0.02159999869763851,-0.0210999995470047,0.06099999926066736,0,0
0.6000826954841614,-0.053496044129133224,9.787296295166016,-0.006599999964237213,-0.017400000244379044,-0.011299999430775642,0,0.06099999926066736,0
0.5842714309692383,-0.0715770572423935,9.785743713378906,-0.01599999889731407,-0.03629999980330467,-0.011299999430775642,0.06099999926066736,0.1830000044521087,0
0.6025152206420898,-0.04158249497413635,9.766197204589844,-0.00559999980032444,-0.00699999975040555,-0.030899999663233757,0.06099999926066736,0,-0.06099999926066736
0.5950931906700134,-0.03426581621170044,9.794631004333496,-0.005499999970197678,0.0024999999441206455,-0.001500000013038516,0.12199999852133472,0,0.06099999926066736
0.6135285496711731,-0.028634652495384216,9.761322975158691,0.013899999670684338,0.011799999512732029,-0.030899999663233757,-0.06099999926066736,0.06099999926066736,-0.06099999926066736
0.5981865525245667,-0.038613684475421906,9.786280632019043,-0.005399999674409628,-0.007400000002235174,-0.011299999430775642,-0.12199999852133472,0.1830000044521087,0
0.6335058212280273,-0.03338475152850151,9.741815567016602,0.033900000154972076,0.0026000000070780516,-0.050599999725818634,0,0.1830000044521087,-0.06099999926066736
0.6194469928741455,-0.037905003875494,9.783866882324219,0.014499999582767487,0.0026000000070780516,-0.011399999260902405,0.06099999926066736,0,0.06099999926066736
0.6016628742218018,-0.01791820488870144,9.775650024414062,-0.004999999888241291,0.021699998527765274,-0.021199999377131462,0,0.1830000044521087,0.06099999926066736
0.6016150116920471,-0.026499025523662567,9.784134864807129,-0.004399999976158142,0.011699999682605267,-0.011399999260902405,0,0.12199999852133472,-0.06099999926066736
0.6248195767402649,-0.014326903037726879,9.796652793884277,0.024399999529123306,0.020800000056624413,-0.0015999999595806003,0.06099999926066736,0.06099999926066736,-0.12199999852133472
0.6087976098060608,-0.04678269848227501,9.772375106811523,0.004900000058114529,-0.008599999360740185,-0.021199999377131462,0,0.24399999704266945,0.06099999926066736
0.6123219132423401,-0.032503679394721985,9.795445442199707,0.005699999630451202,0.0010999999940395355,-0.0015999999595806003,0,0.24399999704266945,-0.06099999926066736
0.6105214357376099,-0.032474953681230545,9.782440185546875,0.006399999838322401,0.0010999999940395355,-0.011500000022351742,0,0.3049999896332302,0.12199999852133472
0.6009925007820129,-0.028491001576185226,9.762673377990723,-0.0023999998811632395,0.010900000110268593,-0.031099999323487282,0.06099999926066736,0.12199999852133472,-0.06099999926066736
0.5947005748748779,-0.012248735874891281,9.761284828186035,-0.001500000013038516,0.020499998703598976,-0.031199999153614044,-0.12199999852133472,0.1830000044521087,0.06099999926066736
0.6001497507095337,-0.03917871415615082,9.77131175994873,-0.001500000013038516,0.020499998703598976,-0.031199999153614044,0,-0.06099999926066736,-0.06099999926066736
0.6071312427520752,-0.05601474270224571,9.765125274658203,0.008499999530613422,-0.018199998885393143,-0.031199999153614044,0.1830000044521087,0.1830000044521087,-0.06099999926066736
0.5997858047485352,-0.012899958528578281,9.767547607421875,0.008499999530613422,-0.018199998885393143,-0.031199999153614044,-0.06099999926066736,0.24399999704266945,0
0.613844633102417,-0.05358223244547844,9.779366493225098,0.019600000232458115,-0.01860000006854534,-0.011699999682605267,0,0.12199999852133472,0.06099999926066736
0.6070546507835388,-0.03424666076898575,9.752714157104492,0.010099999606609344,0.0008999999845400453,-0.041099999099969864,0,0.1830000044521087,0
0.5925649404525757,-0.027150247246026993,9.76863956451416,-0.008899999782443047,0.010699999518692493,-0.02149999886751175,0.06099999926066736,0.24399999704266945,0
0.606173574924469,-0.06154056265950203,9.745933532714844,0.011399999260902405,-0.028599999845027924,-0.050999999046325684,0.12199999852133472,0.24399999704266945,-0.06099999926066736
0.6024003028869629,-0.03841257095336914,9.748576164245605,0.0023999998811632395,-0.00930000003427267,-0.0510999970138073,0,0.1830000044521087,-0.06099999926066736
0.6343677043914795,-0.03358586132526398,9.77823543548584,0.041999999433755875,0.00039999998989515007,-0.011799999512732029,-0.06099999926066736,0.3049999896332302,-0.06099999926066736
0.6251931190490723,-0.029439104720950127,9.801918983459473,0.03309999778866768,0.0005999999702908099,0.007599999662488699,0.12199999852133472,-0.12199999852133472,0
0.6250973343849182,-0.04704127460718155,9.789048194885254,0.032600000500679016,-0.009399999864399433,-0.002099999925121665,0.1830000044521087,0.12199999852133472,0
0.5971618294715881,-0.012622231617569923,9.771590232849121,0.003499999875202775,0.01939999870955944,-0.021699998527765274,0.06099999926066736,0,-0.12199999852133472
0.5993835926055908,-0.05586151406168938,9.790647506713867,0.003499999875202775,-0.019899999722838402,-0.002099999925121665,0.06099999926066736,0.12199999852133472,0.12199999852133472
0.6062501668930054,-0.040586505085229874,9.768582344055176,0.013599999248981476,-0.010199999436736107,-0.021699998527765274,0,0.06099999926066736,-0.12199999852133472
0.6177902221679688,-0.03185245767235756,9.747092247009277,0.023499999195337296,-0.00039999998989515007,-0.0510999970138073,0,0.06099999926066736,0
0.6176944375038147,-0.01358948927372694,9.776138305664062,0.023599999025464058,0.019099999219179153,-0.021699998527765274,0,0.24399999704266945,-0.1830000044521087
0.6226935386657715,-0.05175306275486946,9.78820514678955,0.034199997782707214,-0.020099999383091927,-0.002199999988079071,0,0.06099999926066736,0
0.6181733012199402,-0.01604115031659603,9.787142753601074,0.02449999935925007,0.01899999938905239,-0.012000000104308128,0.06099999926066736,0,0
0.6284970641136169,-0.03582683578133583,9.773581504821777,0.034199997782707214,-0.000699999975040555,-0.021800000220537186,0,0.06099999926066736,0.06099999926066736
0.6122356653213501,-0.03857537731528282,9.795818328857422,0.014599999412894249,-0.010400000028312206,-0.002199999988079071,0,0.06099999926066736,0
0.6239576935768127,-0.047711651772260666,9.774003028869629,0.034299999475479126,-0.010400000028312206,-0.021800000220537186,-0.06099999926066736,0,0
0.6098893284797668,-0.036985624581575394,9.765892028808594,0.014699999243021011,-0.00039999998989515007,-0.0414000004529953,0.06099999926066736,0.12199999852133472,0
0.5929384231567383,-0.031124621629714966,9.810260772705078,-0.00419999985024333,-0.0004999999655410647,0.01730000041425228,0.1830000044521087,0.1830000044521087,-0.06099999926066736
0.6021800637245178,-0.04537491127848625,9.78320598602295,0.006099999882280827,-0.010799999348819256,-0.01209999993443489,0,0.06099999926066736,0.06099999926066736
0.6146586537361145,-0.02274491637945175,9.780458450317383,0.02579999901354313,0.008700000122189522,-0.01209999993443489,0.06099999926066736,-0.06099999926066736,-0.06099999926066736
0.6208451986312866,-0.06085103377699852,9.767768859863281,0.025599999353289604,-0.030499998480081558,-0.031700000166893005,-0.06099999926066736,0.12199999852133472,-0.06099999926066736
0.595131516456604,-0.02272576279938221,9.78227710723877,0.006300000008195639,0.008700000122189522,-0.01209999993443489,-0.06099999926066736,0.3049999896332302,-0.06099999926066736
0.6147447824478149,-0.0341317392885685,9.766197204589844,0.026799999177455902,-0.0007999999797903001,-0.031700000166893005,-0.06099999926066736,0.12199999852133472,-0.06099999926066736
0.6035974025726318,-0.03630567714571953,9.76215648651123,0.01730000041425228,-0.0005999999702908099,-0.031700000166893005,-0.06099999926066736,0,-0.06099999926066736
0.5917317271232605,-0.04344997555017471,9.766935348510742,-0.002199999988079071,-0.010300000198185444,-0.031700000166893005,0.06099999926066736,0,0
0.5998145937919617,-0.015409082174301147,9.77353286743164,0.007499999832361937,0.018799999728798866,-0.021900000050663948,0,0.06099999926066736,0
0.598588764667511,-0.04293282330036163,9.808268547058105,0.007699999958276749,-0.010400000028312206,0.01719999872148037,0.12199999852133472,0.1830000044521087,-0.06099999926066736
0.6308625340461731,-0.056273315101861954,9.757089614868164,0.03749999776482582,-0.020600000396370888,-0.041600000113248825,0,0.1830000044521087,0
0.6122931241989136,-0.02687252126634121,9.76340103149414,0.018299998715519905,0.008700000122189522,-0.03179999813437462,0,0,0
0.6439253687858582,-0.024985888972878456,9.792160034179688,0.05719999969005585,0.008700000122189522,-0.0023999998811632395,0,0.12199999852133472,0
0.5927277207374573,-0.03883394971489906,9.752321243286133,-0.0011999999405816197,-0.010799999348819256,-0.041600000113248825,-0.06099999926066736,0.12199999852133472,-0.06099999926066736
0.6227031350135803,-0.05206909775733948,9.799294471740723,0.038100000470876694,-0.020399998873472214,0.0072999997064471245,0.06099999926066736,0.06099999926066736,-0.06099999926066736
0.6294451951980591,-0.02383667230606079,9.761064529418945,0.03819999843835831,0.008799999952316284,-0.03179999813437462,0.06099999926066736,0.12199999852133472,0
0.6181924343109131,-0.022266075015068054,9.771062850952148,0.0279999990016222,0.00839999970048666,-0.02199999988079071,0.06099999926066736,0.12199999852133472,-0.06099999926066736
0.6139403581619263,-0.039274487644433975,9.747244834899902,0.0279999990016222,-0.011099999770522118,-0.05139999836683273,-0.12199999852133472,0.24399999704266945,0
0.6203472018241882,-0.049205634742975235,9.770747184753418,0.028699999675154686,-0.020600000396370888,-0.02199999988079071,-0.12199999852133472,0.12199999852133472,0
0.6119101047515869,-0.042521022260189056,9.773218154907227,0.028999999165534973,-0.000699999975040555,-0.03189999982714653,-0.06099999926066736,0.12199999852133472,-0.06099999926066736
0.6045742034912109,-0.04547068104147911,9.74606704711914,0.019500000402331352,-0.010300000198185444,-0.022099999710917473,-0.06099999926066736,0.12199999852133472,0
0.6104926466941833,-0.06837840378284454,9.766523361206055,0.019999999552965164,-0.03929999843239784,-0.03189999982714653,0.06099999926066736,0.12199999852133472,0
0.6197918057441711,-0.04450342059135437,9.785006523132324,0.029999999329447746,-0.009999999776482582,-0.012299999594688416,0,0.24399999704266945,-0.06099999926066736
0.6125038266181946,-0.04101746529340744,9.768381118774414,0.020999999716877937,-0.009999999776482582,-0.022199999541044235,0,0.12199999852133472,0
0.6271371841430664,-0.042856208980083466,9.771560668945312,0.04079999774694443,-0.00989999994635582,-0.022199999541044235,0.06099999926066736,0.1830000044521087,0
0.6269552707672119,-0.03399766609072685,9.761245727539062,0.041200000792741776,-0.00029999998514540493,-0.03199999779462814,0,0.1830000044521087,-0.06099999926066736
0.6009829044342041,-0.05031654238700867,9.763630867004395,0.012299999594688416,-0.019899999722838402,-0.03199999779462814,-0.12199999852133472,0.12199999852133472,0
0.6027642488479614,-0.03689943626523018,9.754207611083984,0.012600000016391277,0,-0.04189999774098396,-0.06099999926066736,0.06099999926066736,0
0.6016054153442383,-0.022850262001156807,9.768610954284668,0.01269999984651804,0.00989999994635582,-0.022199999541044235,0.1830000044521087,0.06099999926066736,-0.06099999926066736
0.6143330335617065,-0.013110647909343243,9.770210266113281,0.03240000084042549,0.019199999049305916,-0.022299999371170998,0.12199999852133472,0.12199999852133472,0.06099999926066736
0.6253271698951721,-0.03431369736790657,9.764752388000488,0.042399998754262924,-0.000699999975040555,-0.032099999487400055,0.06099999926066736,0.1830000044521087,-0.06099999926066736
0.6213335990905762,-0.029726408421993256,9.782114028930664,0.032999999821186066,-0.0008999999845400453,-0.01249999925494194,0,-0.06099999926066736,0.06099999926066736
0.5921531319618225,-0.052356403321027756,9.746354103088379,0.003399999812245369,-0.020399998873472214,-0.05169999971985817,-0.06099999926066736,0.06099999926066736,0
0.6019693613052368,-0.04067269712686539,9.755041122436523,0.013299999758601189,-0.010400000028312206,-0.04189999774098396,-0.06099999926066736,0.24399999704266945,-0.06099999926066736
0.6134806275367737,-0.00803494080901146,9.755653381347656,0.03370000049471855,0.019099999219179153,-0.04189999774098396,0,0,0.06099999926066736
0.5912337899208069,-0.060247693210840225,9.761102676391602,0.004299999680370092,-0.02979999966919422,-0.032099999487400055,0,0.06099999926066736,0
0.6449691653251648,-0.033566705882549286,9.741969108581543,0.06309999525547028,-0.00039999998989515007,-0.05179999768733978,-0.06099999926066736,0.06099999926066736,0
0.6055127382278442,-0.046715665608644485,9.791126251220703,0.023899998515844345,-0.00989999994635582,-0.002699999837204814,-0.06099999926066736,0.1830000044521087,-0.06099999926066736
0.6259592175483704,-0.054942142218351364,9.763612747192383,0.014599999412894249,-0.03909999877214432,-0.06159999966621399,0,0.1830000044521087,-0.06099999926066736
0.5816282629966736,-0.02917095459997654,9.790389060974121,0.044099997729063034,-0.01939999870955944,-0.03219999745488167,0.06099999926066736,0.1830000044521087,-0.06099999926066736
0.6006190180778503,-0.02481350675225258,9.77169418334961,-0.004299999680370092,0.00009999999747378752,-0.00279999990016222,0.06099999926066736,0.06099999926066736,-0.12199999852133472
0.6039996147155762,-0.02981259860098362,9.768610954284668,0.025499999523162842,-0.00019999999494757503,-0.02239999920129776,0,0.06099999926066736,0
0.6142085194587708,-0.05159026011824608,9.7647705078125,0.03529999777674675,-0.01979999989271164,-0.03219999745488167,0,0.12199999852133472,0
0.6300868391990662,-0.030894778668880463,9.754925727844238,0.045399997383356094,-0.00019999999494757503,-0.04209999740123749,0,0.12199999852133472,0.06099999926066736
0.6189394593238831,-0.042597636580467224,9.732074737548828,0.03539999946951866,-0.009800000116229057,-0.0616999976336956,-0.12199999852133472,0.1830000044521087,0
0.6191213726997375,-0.018521543592214584,9.751899719238281,0.035099998116493225,0.019500000402331352,-0.041999999433755875,-0.06099999926066736,0.12199999852133472,-0.12199999852133472
0.6154438853263855,-0.04082592949271202,9.775707244873047,0.03449999913573265,-0.009499999694526196,-0.02239999920129776,0,0.1830000044521087,0.06099999926066736
0.609630823135376,-0.020446481183171272,9.77094841003418,0.02449999935925007,0.009800000116229057,-0.02239999920129776,0.06099999926066736,0.24399999704266945,0
0.6299527883529663,-0.03161304071545601,9.77889633178711,0.04490000009536743,-0.00009999999747378752,-0.012600000016391277,-0.12199999852133472,0.1830000044521087,-0.12199999852133472
0.6395008563995361,-0.03786669671535492,9.7841157913208,0.055299997329711914,0.00019999999494757503,-0.012600000016391277,0,0,0
0.6185084581375122,-0.021174320951104164,9.759119987487793,0.035599999129772186,0.00989999994635582,-0.03219999745488167,0,0.06099999926066736,0.06099999926066736
0.6111151576042175,-0.0330495610833168,9.767356872558594,0.02589999884366989,0.00009999999747378752,-0.03229999914765358,0.12199999852133472,0.12199999852133472,0
0.6046795845031738,-0.04393838718533516,9.778149604797363,0.026099998503923416,-0.009800000116229057,-0.01269999984651804,0.06099999926066736,0.12199999852133472,0
0.5947484374046326,-0.04841075837612152,9.754754066467285,0.016599999740719795,-0.01979999989271164,-0.04209999740123749,-0.06099999926066736,0.12199999852133472,-0.06099999926066736
0.6326630115509033,-0.03428496792912483,9.779183387756348,0.055799998342990875,0,-0.01269999984651804,-0.06099999926066736,-0.06099999926066736,-0.12199999852133472
0.6169666051864624,-0.033758245408535004,9.74307918548584,0.035999998450279236,0,-0.051899999380111694,0,0.06099999926066736,-0.06099999926066736
0.6055319309234619,-0.03945644199848175,9.770362854003906,0.026200000196695328,-0.009599999524652958,-0.022499999031424522,0.06099999926066736,0.12199999852133472,0
0.6162005066871643,-0.029735984280705452,9.789525985717773,0.03610000014305115,0,-0.002899999963119626,-0.06099999926066736,0.12199999852133472,-0.06099999926066736
0.6063459515571594,-0.03134488686919212,9.76876449584961,0.00699999975040555,0.009800000116229057,-0.01269999984651804,0,0.12199999852133472,0
0.6075238585472107,-0.03323151916265488,9.778780937194824,0.02669999934732914,-0.00019999999494757503,-0.022499999031424522,0,0.12199999852133472,0
0.6158269643783569,-0.025991452857851982,9.763152122497559,0.02589999884366989,-0.00019999999494757503,-0.012600000016391277,-0.06099999926066736,0.1830000044521087,0
0.5893662571907043,-0.03214934095740318,9.779576301574707,0.006000000052154064,-0.00029999998514540493,-0.012600000016391277,0.06099999926066736,0.06099999926066736,-0.12199999852133472
0.6072269678115845,-0.04024174064397812,9.77366828918457,0.025100000202655792,-0.009999999776482582,-0.02239999920129776,0,0.1830000044521087,0
0.6199641823768616,-0.035060688853263855,9.756553649902344,0.034699998795986176,-0.00009999999747378752,-0.041999999433755875,0,0.12199999852133472,0
0.6134519577026367,-0.03262818232178688,9.768563270568848,0.0340999998152256,-0.00009999999747378752,-0.022299999371170998,0.06099999926066736,0.12199999852133472,0
0.60163414478302,-0.03608540818095207,9.793251991271973,0.0139999995008111,-0.00029999998514540493,-0.002699999837204814,0.06099999926066736,0.12199999852133472,0
0.6085007190704346,-0.035865142941474915,9.770506858825684,0.023499999195337296,-0.00039999998989515007,-0.022299999371170998,0,0.24399999704266945,-0.06099999926066736
0.5973150134086609,-0.02037944458425045,9.765517234802246,0.014399999752640724,0.00930000003427267,-0.03219999745488167,0.06099999926066736,0.12199999852133472,-0.1830000044521087
0.6154151558876038,-0.02104024589061737,9.769271850585938,0.034299999475479126,0.008999999612569809,-0.02239999920129776,-0.06099999926066736,0.12199999852133472,-0.06099999926066736
0.6039900779724121,-0.04101746529340744,9.788290977478027,0.02459999918937683,-0.010199999436736107,-0.00279999990016222,0,0.1830000044521087,0
0.5896823406219482,-0.025579649955034256,9.74378776550293,0.005499999970197678,0.00930000003427267,-0.05179999768733978,-0.1830000044521087,0.1830000044521087,-0.06099999926066736
0.6296176314353943,-0.06903920322656631,9.777460098266602,0.04529999941587448,-0.03920000046491623,-0.02239999920129776,0,0,-0.06099999926066736
0.6223296523094177,-0.03170880675315857,9.762635231018066,0.03539999946951866,0,-0.03219999745488167,0,0.1830000044521087,0
0.6004466414451599,-0.05172433331608772,9.78446102142334,0.016200000420212746,-0.019500000402331352,-0.012600000016391277,0.06099999926066736,0.12199999852133472,0
0.6253176331520081,-0.05440583825111389,9.800185203552246,0.04580000042915344,-0.019600000232458115,0.006899999920278788,0,0.06099999926066736,-0.06099999926066736
0.5784199833869934,-0.029898790642619133,9.736165046691895,0.03610000014305115,0.00969999935477972,-0.051899999380111694,-0.06099999926066736,-0.06099999926066736,-0.06099999926066736
0.6171677112579346,-0.05469314008951187,9.789958000183105,-0.0031999999191612005,0.00009999999747378752,-0.0616999976336956,-0.06099999926066736,0.06099999926066736,0
0.6043156981468201,-0.046323012560606,9.76793098449707,0.03579999879002571,-0.019099999219179153,-0.00279999990016222,0.12199999852133472,0.06099999926066736,-0.06099999926066736
0.6163154244422913,-0.04668693244457245,9.74738883972168,0.035999998450279236,-0.009999999776482582,-0.051899999380111694,0.06099999926066736,0.1830000044521087,-0.06099999926066736
0.616248369216919,-0.045623909682035446,9.799802780151367,0.03629999980330467,-0.010099999606609344,0.006799999624490738,0.06099999926066736,0.06099999926066736,0
0.6212666034698486,-0.03487873077392578,9.780218124389648,0.03629999980330467,-0.00039999998989515007,-0.01269999984651804,-0.06099999926066736,0,-0.06099999926066736
0.5996421575546265,-0.0441969633102417,9.780362129211426,0.016200000420212746,-0.009800000116229057,-0.012600000016391277,0.06099999926066736,0.1830000044521087,-0.12199999852133472
0.6336590051651001,-0.0406343899667263,9.810356140136719,0.054499998688697815,-0.00969999935477972,0.016699999570846558,-0.06099999926066736,0.1830000044521087,-0.06099999926066736
0.6054648756980896,-0.029343336820602417,9.761821746826172,0.025100000202655792,0.00019999999494757503,-0.03219999745488167,-0.06099999926066736,0.24399999704266945,-0.06099999926066736
0.6054744124412537,-0.02426762692630291,9.797810554504395,0.02589999884366989,0.010099999606609344,0.006899999920278788,0,0,-0.06099999926066736
0.5946047902107239,-0.02632664144039154,9.767653465270996,0.01599999889731407,0.010099999606609344,-0.03219999745488167,0.06099999926066736,0.12199999852133472,-0.06099999926066736
0.617972195148468,-0.02876872755587101,9.778925895690918,0.045499999076128006,0.00009999999747378752,-0.012600000016391277,0,0,-0.06099999926066736
0.6039038896560669,-0.018828002735972404,9.77574634552002,0.03610000014305115,0,-0.01269999984651804,0,0.06099999926066736,0
0.6189777851104736,-0.04157291725277901,9.768209457397461,0.026200000196695328,0.019500000402331352,-0.022499999031424522,0.12199999852133472,0.1830000044521087,0
0.6052542328834534,-0.03847961127758026,9.78561019897461,0.03610000014305115,-0.009800000116229057,-0.03229999914765358,0.06099999926066736,0.24399999704266945,-0.12199999852133472
0.6047753095626831,-0.05870582535862923,9.744621276855469,0.026599999517202377,-0.010099999606609344,-0.01269999984651804,0,0,0.06099999926066736
0.6047753095626831,-0.05870582535862923,9.744621276855469,0.027400000020861626,-0.029899999499320984,-0.05199999734759331,0,0,0.06099999926066736
0.6120058298110962,-0.04238694906234741,9.78428840637207,0.02709999866783619,-0.010300000198185444,-0.01269999984651804,0,0,0
0.6285353899002075,-0.056694693863391876,9.768878936767578,0.04659999907016754,-0.019999999552965164,-0.022499999031424522,-0.12199999852133472,0.24399999704266945,0.06099999926066736
0.6200982928276062,-0.03817315399646759,9.770478248596191,0.03749999776482582,-0.00009999999747378752,-0.022599998861551285,0.12199999852133472,0.06099999926066736,0
0.622837245464325,-0.05324704572558403,9.767346382141113,0.04729999974370003,-0.019999999552965164,-0.03240000084042549,0.12199999852133472,0,0
0.6060299277305603,-0.025110388174653053,9.829547882080078,0.027699999511241913,0.008999999612569809,0.026399999856948853,0.06099999926066736,0.06099999926066736,-0.06099999926066736
0.621343195438385,-0.05109226703643799,9.794123649597168,0.03739999979734421,-0.020399998873472214,-0.002899999963119626,0,0.12199999852133472,0
0.6211420893669128,-0.03718674182891846,9.788559913635254,0.03749999776482582,-0.000699999975040555,-0.002899999963119626,-0.12199999852133472,0.1830000044521087,0
0.6146107316017151,-0.06921158730983734,9.769655227661133,0.03790000081062317,-0.03949999809265137,-0.022599998861551285,0,0.12199999852133472,-0.12199999852133472
0.5990771651268005,-0.058045025914907455,9.77600383758545,0.01850000023841858,-0.029600000008940697,-0.022599998861551285,-0.06099999926066736,0.1830000044521087,-0.06099999926066736
0.5923351049423218,-0.018186355009675026,9.76499080657959,0.009200000204145908,0.01939999870955944,-0.03240000084042549,0.06099999926066736,-0.06099999926066736,-0.12199999852133472
0.632145881652832,-0.03959051892161369,9.747685432434082,0.05790000036358833,-0.010099999606609344,-0.05199999734759331,-0.06099999926066736,0.1830000044521087,-0.06099999926066736
0.6049860119819641,-0.04792233929038048,9.771839141845703,0.02879999950528145,-0.019600000232458115,-0.022599998861551285,0,0.12199999852133472,0
0.6081559658050537,-0.01782243698835373,9.777948379516602,0.029099998995661736,0.01939999870955944,-0.012799999676644802,-0.06099999926066736,-0.06099999926066736,-0.06099999926066736
0.6367905735969543,-0.046102747321128845,9.769817352294922,0.056599996984004974,-0.009499999694526196,-0.022499999031424522,0.06099999926066736,0.06099999926066736,0.06099999926066736
0.6336686015129089,-0.04677312448620796,9.764388084411621,0.05549999698996544,-0.009399999864399433,-0.03229999914765358,-0.06099999926066736,0.06099999926066736,-0.12199999852133472
0.6144670844078064,-0.05054638534784317,9.772441864013672,0.035099998116493225,-0.01860000006854534,-0.02239999920129776,0,0.06099999926066736,0.06099999926066736
0.6113162636756897,-0.030301015824079514,9.762893676757812,0.024899998679757118,0.0008999999845400453,-0.03219999745488167,0,0.12199999852133472,0.06099999926066736
0.6042677760124207,-0.05617754906415939,9.771340370178223,0.02419999986886978,-0.01809999905526638,-0.022299999371170998,0,0.12199999852133472,0.06099999926066736
0.6113258600234985,-0.0590122826397419,9.752723693847656,0.033399999141693115,0.02070000022649765,-0.04189999774098396,-0.06099999926066736,0.1830000044521087,0.06099999926066736
0.619083046913147,-0.04064396768808365,9.770009994506836,0.03199999779462814,-0.008100000210106373,-0.022199999541044235,0,0.06099999926066736,-0.06099999926066736
0.6124559044837952,-0.037244200706481934,9.762443542480469,0.02159999869763851,0.0015999999595806003,-0.03199999779462814,-0.06099999926066736,0.06099999926066736,0.06099999926066736
0.637355625629425,-0.052883125841617584,9.788827896118164,0.04839999973773956,-0.01679999940097332,-0.0023999998811632395,0.12199999852133472,0.06099999926066736,-0.06099999926066736
0.6261316537857056,-0.04929182305932045,9.781233787536621,0.03720000013709068,-0.016599999740719795,-0.01209999993443489,0,0.12199999852133472,0
0.6049860119819641,-0.03438073769211769,9.79050350189209,0.01679999940097332,0.00279999990016222,-0.002300000051036477,0,0.06099999926066736,0.1830000044521087
0.5918371081352234,-0.06056372448801994,9.797494888305664,-0.002699999837204814,-0.025599999353289604,0.007400000002235174,0.06099999926066736,0.12199999852133472,-0.06099999926066736
0.5953326225280762,-0.031670499593019485,9.795713424682617,0.0066999997943639755,0.003399999812245369,-0.002300000051036477,0,0.06099999926066736,0
0.60964035987854,-0.03643017262220383,9.785102844238281,0.01589999906718731,0.0032999999821186066,-0.012000000104308128,-0.12199999852133472,-0.06099999926066736,0
0.6144958138465881,-0.029678523540496826,9.744036674499512,0.024899998679757118,0.003599999938160181,-0.05119999870657921,-0.06099999926066736,0.1830000044521087,-0.06099999926066736
0.6317628026008606,-0.04845863953232765,9.775497436523438,0.0340999998152256,-0.015399999916553497,-0.021800000220537186,0.12199999852133472,0,-0.12199999852133472
0.6020938754081726,-0.03841257095336914,9.782774925231934,0.004299999680370092,-0.005799999926239252,-0.011899999342858791,-0.06099999926066736,0.12199999852133472,0
0.5945568680763245,-0.02987963706254959,9.76744270324707,0.00419999985024333,0.003999999724328518,-0.03150000050663948,0,0.06099999926066736,0.06099999926066736
0.5993356704711914,-0.007517793215811253,9.768956184387207,0.0038999998942017555,0.02319999970495701,-0.021699998527765274,0.12199999852133472,0.06099999926066736,-0.06099999926066736
0.6238715052604675,-0.020446481183171272,9.768458366394043,0.032499998807907104,0.012799999676644802,-0.021699998527765274,0.06099999926066736,0.12199999852133472,-0.06099999926066736
0.6249632835388184,-0.042597636580467224,9.788971900939941,0.031099999323487282,-0.006599999964237213,-0.001999999862164259,-0.12199999852133472,0.12199999852133472,0
0.6127337217330933,-0.04333505406975746,9.783540725708008,0.011099999770522118,-0.006099999882280827,-0.011799999512732029,0.06099999926066736,0.1830000044521087,0.06099999926066736
0.6185851097106934,-0.048190489411354065,9.794631004333496,0.02019999921321869,-0.01529999915510416,-0.0018999999156221747,-0.06099999926066736,0.1830000044521087,-0.06099999926066736
0.6149842739105225,-0.031478963792324066,9.754457473754883,0.020099999383091927,0.004299999680370092,-0.041099999099969864,0.06099999926066736,0.3049999896332302,-0.12199999852133472
0.5947579741477966,-0.039916131645441055,9.781414985656738,0.010499999858438969,-0.005399999674409628,-0.011699999682605267,0.06099999926066736,0.06099999926066736,0.06099999926066736
0.6148309707641602,-0.04808514937758446,9.770525932312012,0.0004999999655410647,-0.005399999674409628,-0.011699999682605267,-0.06099999926066736,0.06099999926066736,0
0.6148309707641602,-0.04808514937758446,9.770525932312012,0.019600000232458115,-0.014699999243021011,-0.02149999886751175,0.06099999926066736,0.06099999926066736,-0.06099999926066736
0.6272329688072205,-0.027341783046722412,9.7752103805542,0.028699999675154686,0.013700000010430813,-0.021399999037384987,0.24399999704266945,0.06099999926066736,-0.06099999926066736
0.6284970641136169,-0.03301125392317772,9.754849433898926,0.028699999675154686,0.0031999999191612005,-0.041099999099969864,-0.06099999926066736,0,-0.06099999926066736
0.6241875886917114,-0.04061523824930191,9.751909255981445,0.028299998492002487,-0.006300000008195639,-0.04099999740719795,0.06099999926066736,0.12199999852133472,-0.06099999926066736
0.6307763457298279,-0.04428315535187721,9.769099235534668,0.028199998661875725,-0.006399999838322401,-0.021399999037384987,0.06099999926066736,0.06099999926066736,0
0.6470378041267395,-0.05398445948958397,9.802416801452637,0.047599997371435165,-0.016300000250339508,0.007899999618530273,-0.12199999852133472,0.06099999926066736,-0.06099999926066736
0.6015384197235107,-0.03606625273823738,9.768630027770996,-0.001500000013038516,0.003499999875202775,-0.021399999037384987,0.06099999926066736,0.12199999852133472,0
0.5942121744155884,-0.05049850046634674,9.779366493225098,-0.001500000013038516,-0.016099998727440834,-0.011599999852478504,-0.12199999852133472,0.06099999926066736,-0.06099999926066736
0.5968457460403442,-0.03071282058954239,9.745396614074707,-0.0016999999061226845,0.0037999998312443495,-0.05079999938607216,-0.12199999852133472,0.06099999926066736,0
0.623268187046051,-0.052241481840610504,9.770459175109863,0.027499999850988388,-0.015399999916553497,-0.021399999037384987,0,0.12199999852133472,-0.06099999926066736
0.6260837316513062,-0.03960009664297104,9.775975227355957,0.027400000020861626,-0.005499999970197678,-0.021399999037384987,-0.12199999852133472,0.12199999852133472,0.06099999926066736
0.6130305528640747,-0.04996220022439957,9.765288352966309,0.01759999990463257,-0.01489999983459711,-0.031199999153614044,0.06099999926066736,0.1830000044521087,-0.06099999926066736
0.616142988204956,-0.04638047516345978,9.791404724121094,0.01769999973475933,-0.0052999998442828655,-0.0017999999690800905,0.06099999926066736,0.12199999852133472,0
0.6359478831291199,-0.027313053607940674,9.772164344787598,0.036399997770786285,0.013799999840557575,-0.021299999207258224,-0.12199999852133472,0.06099999926066736,-0.06099999926066736
0.5978704690933228,-0.03796246275305748,9.743836402893066,-0.002899999963119626,0.00419999985024333,-0.05069999769330025,-0.06099999926066736,0.1830000044521087,-0.06099999926066736
0.6108661890029907,-0.01267969235777855,9.781042098999023,0.006799999624490738,0.02329999953508377,-0.011500000022351742,0.06099999926066736,0.24399999704266945,0.06099999926066736
0.6133274435997009,-0.04907156154513359,9.782918930053711,0.016499999910593033,-0.01549999974668026,-0.011500000022351742,0.12199999852133472,0,0
0.5889544486999512,0.006129156332463026,9.788980484008789,-0.012600000016391277,0.02239999920129776,-0.0016999999061226845,0.06099999926066736,0.06099999926066736,0
0.5805556178092957,-0.00771890627220273,9.775975227355957,-0.022199999541044235,0.021800000220537186,-0.021299999207258224,0,0,0
0.5918275117874146,-0.012459426186978817,9.783378601074219,-0.012399999424815178,0.021199999377131462,-0.011500000022351742,-0.06099999926066736,0.12199999852133472,-0.06099999926066736
0.6063076257705688,-0.04201345145702362,9.76063346862793,0.00699999975040555,-0.007799999788403511,-0.031099999323487282,0,0.12199999852133472,-0.06099999926066736
0.6143617630004883,-0.05121676251292229,9.785399436950684,0.01640000008046627,-0.017099998891353607,-0.011500000022351742,0,0,-0.06099999926066736
0.6322032809257507,-0.028443116694688797,9.784393310546875,0.03460000082850456,0.011899999342858791,-0.011399999260902405,0,0,0
0.6230478882789612,-0.039820361882448196,9.777929306030273,0.023799998685717583,-0.007400000002235174,-0.011299999430775642,0.06099999926066736,0.06099999926066736,0
0.6429389119148254,-0.056531891226768494,9.759552001953125,0.04259999841451645,-0.017099998891353607,-0.030899999663233757,0,0,0
0.6003891825675964,-0.05350561812520027,9.764483451843262,-0.006599999964237213,-0.01679999940097332,-0.030899999663233757,0,0.06099999926066736,0.06099999926066736
0.6354307532310486,-0.03923618048429489,9.7942476272583,0.03099999949336052,-0.0066999997943639755,-0.00139999995008111,0,0.12199999852133472,0
0.6204047203063965,-0.036200329661369324,9.758661270141602,0.01119999960064888,0.003000000026077032,-0.0405999980866909,0.06099999926066736,0.12199999852133472,-0.06099999926066736
0.6174359321594238,-0.02547430619597435,9.752540588378906,0.011099999770522118,0.01249999925494194,-0.0405999980866909,0.12199999852133472,0,-0.12199999852133472
0.6041145920753479,-0.030013712123036385,9.75393009185791,-0.008599999360740185,-0.016899999231100082,-0.020999999716877937,-0.06099999926066736,0.12199999852133472,-0.12199999852133472
0.621247410774231,-0.023539790883660316,9.76863956451416,0.0008999999845400453,0.0026000000070780516,-0.0405999980866909,0,0.06099999926066736,-0.06099999926066736
0.6078208088874817,-0.04412992298603058,9.77628231048584,0.0004999999655410647,-0.00699999975040555,-0.020899999886751175,0,0.06099999926066736,0
0.5978608727455139,-0.021768081933259964,9.764426231384277,-0.009200000204145908,0.012299999594688416,-0.030700000002980232,-0.06099999926066736,0,-0.06099999926066736
0.617455005645752,-0.04215710610151291,9.763296127319336,0.009800000116229057,-0.006899999920278788,-0.030700000002980232,-0.12199999852133472,0.12199999852133472,0.12199999852133472
0.6180583834648132,-0.05657019838690758,9.819147109985352,0.00969999935477972,-0.01599999889731407,0.018199998885393143,0,0.12199999852133472,0
0.6095541715621948,-0.038326382637023926,9.78335952758789,0,-0.006099999882280827,-0.011099999770522118,0,0.12199999852133472,0
0.617972195148468,-0.0468018539249897,9.782066345214844,0.009399999864399433,-0.0058999997563660145,-0.011099999770522118,0,0.1830000044521087,0
0.608127236366272,-0.036506786942481995,9.76440715789795,-0.00009999999747378752,0.0037999998312443495,-0.030700000002980232,0.06099999926066736,0.1830000044521087,-0.06099999926066736
0.5997858047485352,-0.0542621873319149,9.773361206054688,-0.009599999524652958,-0.015599999576807022,-0.020899999886751175,0.06099999926066736,0.06099999926066736,0
0.6057713627815247,-0.03410300984978676,9.788664817810059,0,0.003599999938160181,-0.0013000000035390258,-0.06099999926066736,0.1830000044521087,0.06099999926066736
0.6388496160507202,-0.021902156993746758,9.785696029663086,0.02879999950528145,0.013199999928474426,-0.010999999940395355,0.06099999926066736,0.1830000044521087,-0.06099999926066736
0.6171198487281799,-0.03005201928317547,9.750932693481445,0.009200000204145908,0.0031999999191612005,-0.04050000011920929,-0.06099999926066736,0.24399999704266945,-0.06099999926066736
0.6486658453941345,-0.06490202248096466,9.756697654724121,0.03849999979138374,-0.025599999353289604,-0.04050000011920929,0,0.12199999852133472,-0.06099999926066736
0.6143138408660889,-0.02331952564418316,9.76819896697998,0.008999999612569809,0.013299999758601189,-0.03059999831020832,-0.06099999926066736,0.24399999704266945,0.06099999926066736
0.595370888710022,-0.035252224653959274,9.774855613708496,-0.009999999776482582,0.003700000001117587,-0.020899999886751175,0,0.12199999852133472,0
0.6213335990905762,-0.05599559098482132,9.768227577209473,0.00930000003427267,-0.015599999576807022,-0.030700000002980232,0.06099999926066736,0.12199999852133472,0
0.6219848394393921,-0.04219541326165199,9.787467956542969,0.009099999442696571,-0.005799999926239252,-0.010999999940395355,0,0,-0.06099999926066736
0.6174454092979431,-0.056771308183670044,9.786624908447266,0.008499999530613422,-0.015199999324977398,-0.010999999940395355,0,0.12199999852133472,0
0.6273095607757568,-0.027360936626791954,9.769003868103027,0.00839999970048666,-0.014999999664723873,-0.020800000056624413,-0.06099999926066736,0.1830000044521087,-0.06099999926066736
0.6273095607757568,-0.027360936626791954,9.769003868103027,0.017999999225139618,0.014299999922513962,-0.020800000056624413,0,0.1830000044521087,0.06099999926066736
0.6265434622764587,-0.024114398285746574,9.765527725219727,-0.0013000000035390258,-0.005200000014156103,-0.050200000405311584,0.12199999852133472,0.06099999926066736,0.12199999852133472
0.6243790984153748,-0.03350924700498581,9.75681209564209,0.01759999990463257,0.003999999724328518,-0.04039999842643738,0.06099999926066736,0.1830000044521087,0
0.6080889105796814,-0.042453981935977936,9.773283958435059,-0.0016999999061226845,-0.005699999630451202,-0.020800000056624413,-0.06099999926066736,0.24399999704266945,-0.06099999926066736
0.617876410484314,-0.038240186870098114,9.792131423950195,0.007999999448657036,0.003999999724328518,-0.0011999999405816197,0,0.06099999926066736,0
0.5965967178344727,-0.027897236868739128,9.781625747680664,-0.011399999260902405,0.013499999418854713,-0.010999999940395355,0,0.1830000044521087,-0.06099999926066736
0.6115940809249878,-0.053285352885723114,9.777623176574707,-0.00139999995008111,-0.015599999576807022,-0.020800000056624413,-0.06099999926066736,0.1830000044521087,0
0.5848268270492554,-0.027495011687278748,9.768381118774414,-0.020499998703598976,0.013700000010430813,-0.020800000056624413,-0.12199999852133472,0.06099999926066736,-0.06099999926066736
0.6255378127098083,-0.020274098962545395,9.796326637268066,0.01769999973475933,0.013499999418854713,-0.0011999999405816197,0.06099999926066736,0.06099999926066736,0
0.6019310355186462,-0.052691590040922165,9.759552001953125,-0.011599999852478504,-0.015799999237060547,-0.03059999831020832,-0.06099999926066736,0,0.06099999926066736
0.6281523704528809,-0.05252878740429878,9.764636993408203,0.017099998891353607,-0.015399999916553497,-0.030499998480081558,0.1830000044521087,0.12199999852133472,-0.12199999852133472
0.616794228553772,-0.050010085105895996,9.776138305664062,0.007199999876320362,-0.015599999576807022,-0.02070000022649765,0,0,0
0.6150129437446594,-0.02846227027475834,9.790072441101074,0.006599999964237213,0.013199999928474426,-0.0010999999940395355,0.06099999926066736,0.3660000089042174,-0.06099999926066736
0.5967691540718079,-0.0039360676892101765,9.774462699890137,-0.012199999764561653,0.02279999852180481,-0.02070000022649765,0.06099999926066736,0.06099999926066736,0
0.6172252297401428,-0.04668693244457245,9.738204956054688,0.0071000000461936,-0.006599999964237213,-0.05999999865889549,0,0.06099999926066736,0.06099999926066736
0.6192746758460999,-0.03846045583486557,9.784087181091309,0.006899999920278788,-0.006599999964237213,-0.010900000110268593,0,0.06099999926066736,0
0.6241108775138855,-0.03113419935107231,9.744937896728516,0.016599999740719795,0.0030999998562037945,-0.05009999871253967,0,0.12199999852133472,0
0.6133753061294556,-0.028443116694688797,9.768171310424805,0.006799999624490738,0.012899999506771564,-0.030499998480081558,0,0.12199999852133472,0.06099999926066736
0.625767707824707,-0.015562310814857483,9.769338607788086,0.016599999740719795,0.022699998691678047,-0.02070000022649765,-0.06099999926066736,0.12199999852133472,0
0.6182116270065308,-0.017008408904075623,9.766800880432129,0.006799999624490738,0.02279999852180481,-0.030499998480081558,-0.06099999926066736,0.06099999926066736,0.06099999926066736
0.6038177013397217,-0.03714843466877937,9.776224136352539,0.006599999964237213,-0.02579999901354313,-0.02070000022649765,-0.06099999926066736,0.1830000044521087,-0.06099999926066736
0.6178668141365051,-0.04081634804606438,9.729805946350098,-0.0030999998562037945,0.003499999875202775,-0.02070000022649765,-0.06099999926066736,0.12199999852133472,-0.06099999926066736
0.6181445717811584,-0.031000124290585518,9.780926704406738,0.006799999624490738,0.0037999998312443495,-0.010900000110268593,0,0.1830000044521087,-0.06099999926066736
0.6191118359565735,-0.038355108350515366,9.776463508605957,0.006799999624490738,-0.005799999926239252,-0.02070000022649765,0,0.12199999852133472,-0.06099999926066736
0.6060394644737244,-0.024104822427034378,9.7612943649292,-0.002899999963119626,0.013599999248981476,-0.030499998480081558,-0.06099999926066736,0.12199999852133472,0
0.6201460957527161,-0.045039720833301544,9.764608383178711,0.0066999997943639755,-0.005699999630451202,-0.030499998480081558,0.06099999926066736,0.06099999926066736,0
0.6241108775138855,-0.048353299498558044,9.778034210205078,0.01599999889731407,-0.015199999324977398,-0.010900000110268593,-0.06099999926066736,0.1830000044521087,-0.12199999852133472
0.609851062297821,-0.01049618050456047,9.776463508605957,-0.0032999999821186066,0.023599999025464058,-0.02070000022649765,-0.06099999926066736,0.06099999926066736,0
0.6026492714881897,-0.05046019330620766,9.793684005737305,-0.012799999676644802,-0.014800000004470348,-0.0010999999940395355,0,0.12199999852133472,-0.06099999926066736
0.620797336101532,-0.024392126128077507,9.776224136352539,0.006599999964237213,0.014299999922513962,-0.02070000022649765,0.12199999852133472,0.06099999926066736,0
0.6046029925346375,-0.04729985073208809,9.769271850585938,-0.0031999999191612005,-0.005399999674409628,-0.02070000022649765,0.06099999926066736,0.12199999852133472,-0.06099999926066736
0.6186521649360657,-0.07492893934249878,9.7675199508667,0.006399999838322401,-0.03449999913573265,-0.030499998480081558,0.06099999926066736,0.1830000044521087,0
0.5833712220191956,-0.03455311805009842,9.788904190063477,-0.03150000050663948,0.004299999680370092,-0.0010999999940395355,0.12199999852133472,0.06099999926066736,-0.06099999926066736
0.585832417011261,-0.059232551604509354,9.777881622314453,-0.021399999037384987,-0.024899998679757118,-0.020800000056624413,0,0.06099999926066736,-0.06099999926066736
0.6236608028411865,-0.018760966137051582,9.772825241088867,0.01719999872148037,0.023599999025464058,-0.02070000022649765,0,0.12199999852133472,-0.06099999926066736
0.6144670844078064,-0.045298296958208084,9.768793106079102,0.007199999876320362,-0.00559999980032444,-0.02070000022649765,0,0.12199999852133472,0
0.62697434425354,-0.02473689243197441,9.780035972595215,0.016599999740719795,0.013599999248981476,-0.010900000110268593,-0.06099999926066736,0,0.06099999926066736
0.6089221239089966,-0.022955605760216713,9.780362129211426,-0.0030999998562037945,0.013399999588727951,-0.010900000110268593,0,0,0
0.5966159105300903,-0.01418325025588274,9.765250205993652,-0.013100000098347664,0.02290000021457672,-0.030499998480081558,-0.06099999926066736,0.12199999852133472,-0.06099999926066736
0.5772707462310791,-0.054587800055742264,9.824548721313477,-0.03199999779462814,-0.015699999406933784,0.018400000408291817,-0.06099999926066736,0.12199999852133472,-0.06099999926066736
0.6027737855911255,-0.051360417157411575,9.771982192993164,-0.012199999764561653,-0.01529999915510416,-0.02070000022649765,-0.06099999926066736,0.12199999852133472,-0.12199999852133472
0.6123219132423401,-0.04247313737869263,9.763660430908203,-0.0023999998811632395,-0.005200000014156103,-0.040300000458955765,0.06099999926066736,0,-0.1830000044521087
0.6149267554283142,-0.04554729536175728,9.773188591003418,-0.0024999999441206455,-0.005499999970197678,-0.030499998480081558,-0.06099999926066736,0.1830000044521087,0
0.6293781995773315,-0.025704149156808853,9.760384559631348,0.016499999910593033,0.013899999670684338,-0.030499998480081558,0,0,0
0.616257905960083,-0.046102747321128845,9.786683082580566,0.006199999712407589,-0.005399999674409628,-0.010900000110268593,0,0,-0.06099999926066736
0.5896344184875488,-0.04093126952648163,9.762175559997559,-0.02319999970495701,-0.0052999998442828655,-0.030499998480081558,0,0.06099999926066736,-0.06099999926066736
0.6107321381568909,-0.043679818511009216,9.800127983093262,-0.003599999938160181,-0.005200000014156103,0.008700000122189522,0,0.1830000044521087,-0.06099999926066736
0.5988951921463013,-0.021499931812286377,9.763152122497559,-0.013100000098347664,0.014099999330937862,-0.030499998480081558,0,0.1830000044521087,-0.12199999852133472
0.6020172238349915,-0.024133551865816116,9.752971649169922,-0.012799999676644802,0.0139999995008111,-0.040300000458955765,0,0.1830000044521087,-0.12199999852133472
