Accelerometer_Gx,Accelerometer_Gy,Accelerometer_Gz,Accelerometer_X,Accelerometer_Y,Accelerometer_Z,Gyroscope_Z,Gyroscope_X,Gyroscope_Y
0.601088285446167,-0.04397669434547424,9.759465217590332,-0.0017999999690800905,0,-0.031199999153614044,0,0,-0.12199999852133472
0.5946047902107239,-0.020446481183171272,9.768725395202637,-0.0015999999595806003,0,-0.011599999852478504,0,0.3049999896332302,-0.12199999852133472
0.5946047902107239,-0.020446481183171272,9.768725395202637,-0.0013000000035390258,0.01489999983459711,-0.021399999037384987,0,0.3049999896332302,-0.12199999852133472
0.6071982979774475,-0.04198472201824188,9.765748023986816,0.002099999925121665,-0.008899999782443047,-0.030799999833106995,0.06099999926066736,0,0
0.6115652918815613,-0.043421242386102676,9.753191947937012,0.0008999999845400453,-0.006599999964237213,-0.0405999980866909,0,0,-0.06099999926066736
0.5839745402336121,-0.0341317392885685,9.75551986694336,-0.02159999869763851,0.002300000051036477,-0.04099999740719795,0,0.1830000044521087,-0.06099999926066736
0.6236703991889954,-0.05521029233932495,9.750127792358398,-0.02159999869763851,0.002300000051036477,-0.04099999740719795,0,0.1830000044521087,-0.06099999926066736
0.6236703991889954,-0.05521029233932495,9.750127792358398,0.019299998879432678,-0.012399999424815178,-0.04050000011920929,0,0.12199999852133472,0.06099999926066736
0.5793489217758179,-0.028969841077923775,9.739622116088867,0.0050999997183680534,0.003499999875202775,0.008700000122189522,0,0.1830000044521087,-0.06099999926066736
0.5881021022796631,-0.022361842915415764,9.77322769165039,-0.027899999171495438,0.00279999990016222,-0.05040000006556511,0,0.06099999926066736,0
0.5886288285255432,-0.057001154869794846,9.764521598815918,-0.011799999512732029,0.008200000040233135,-0.021399999037384987,-0.06099999926066736,0.12199999852133472,-0.06099999926066736
0.6399796605110168,-0.04118026793003082,9.77318000793457,0.024799998849630356,-0.0030999998562037945,-0.020600000396370888,0,0.12199999852133472,-0.06099999926066736
0.5917699933052063,-0.042741287499666214,9.78287124633789,-0.0139999995008111,-0.0017999999690800905,-0.011399999260902405,-0.06099999926066736,0,-0.12199999852133472
0.613959550857544,-0.03524265065789223,9.779021263122559,0.008599999360740185,0.004699999932199717,-0.010999999940395355,0.06099999926066736,0.24399999704266945,-0.12199999852133472
0.6115461587905884,-0.03722504898905754,9.780065536499023,0.0008999999845400453,0.004699999932199717,-0.011099999770522118,0.06099999926066736,0.12199999852133472,-0.06099999926066736
0.5865219831466675,-0.02888364903628826,9.756553649902344,-0.014599999412894249,0.003499999875202775,-0.04079999774694443,0.06099999926066736,0.24399999704266945,0.06099999926066736
0.5923925042152405,-0.03333686292171478,9.759780883789062,-0.013399999588727951,0.003700000001117587,-0.031099999323487282,0.12199999852133472,0.1830000044521087,0
0.6071120500564575,-0.05310339480638504,9.793558120727539,0.0024999999441206455,-0.006300000008195639,-0.00139999995008111,0,0.06099999926066736,0
0.6188149452209473,-0.03339432552456856,9.757262229919434,0.009499999694526196,0.010599999688565731,-0.04050000011920929,0,0,0
0.6047466397285461,-0.023137565702199936,9.759303092956543,-0.0005999999702908099,0.014800000004470348,-0.03059999831020832,0,0.12199999852133472,-0.1830000044521087
0.5968266129493713,-0.03733997046947479,9.801813125610352,-0.004999999888241291,0.0026000000070780516,0.008100000210106373,0.06099999926066736,0.1830000044521087,-0.06099999926066736
0.6014043092727661,-0.03642059862613678,9.750654220581055,-0.003999999724328518,0.0018999999156221747,-0.04089999943971634,0,0.24399999704266945,-0.06099999926066736
0.6148597598075867,-0.029592333361506462,9.784087181091309,0.016200000420212746,0.002199999988079071,-0.011500000022351742,0,0.1830000044521087,0.06099999926066736
0.6066332459449768,-0.05626374110579491,9.742140769958496,0.004699999932199717,-0.013499999418854713,-0.050599999725818634,0,0.12199999852133472,0.06099999926066736
0.5879775881767273,-0.023999476805329323,9.759005546569824,-0.010599999688565731,0.010999999940395355,-0.031199999153614044,-0.06099999926066736,0.1830000044521087,-0.06099999926066736
0.596213698387146,-0.026077644899487495,9.756850242614746,-0.004100000020116568,0.0004999999655410647,-0.002199999988079071,0,0.12199999852133472,-0.06099999926066736
0.5900749564170837,-0.011511322110891342,9.794851303100586,0.004100000020116568,0.00839999970048666,-0.0414000004529953,-0.06099999926066736,0.06099999926066736,-0.06099999926066736
0.596759557723999,-0.031976956874132156,9.765929222106934,0.0052999998442828655,-0.008700000122189522,-0.031599998474121094,0,0.12199999852133472,0
0.5970564484596252,-0.022907722741365433,9.748040199279785,0.0038999998942017555,0.0007999999797903001,-0.05119999870657921,0.06099999926066736,0.12199999852133472,-0.06099999926066736
0.5917795896530151,-0.03193864971399307,9.73063850402832,-0.0050999997183680534,-0.0072999997064471245,-0.060999996960163116,0,0.1830000044521087,-0.06099999926066736
0.5883607268333435,-0.024372972548007965,9.775420188903809,-0.0032999999821186066,0.001500000013038516,-0.021900000050663948,0.06099999926066736,0.24399999704266945,0
0.5872018933296204,-0.0290273018181324,9.779671669006348,-0.004299999680370092,-0.005399999674409628,-0.012000000104308128,0,0.12199999852133472,-0.12199999852133472
0.6225307583808899,-0.0215669684112072,9.794698715209961,0.012799999676644802,0.001500000013038516,-0.0008999999845400453,0.06099999926066736,0.1830000044521087,-0.12199999852133472
0.5962424278259277,-0.03799119219183922,9.776388168334961,-0.012000000104308128,-0.006099999882280827,-0.020800000056624413,0.06099999926066736,0.06099999926066736,-0.06099999926066736
0.6038559675216675,-0.025799917057156563,9.772546768188477,-0.0017999999690800905,0.0023999998811632395,-0.020800000056624413,0.06099999926066736,0.12199999852133472,0
0.5900749564170837,-0.02578076347708702,9.795377731323242,-0.009499999694526196,0.0009999999310821295,-0.0018999999156221747,-0.06099999926066736,0.1830000044521087,0
0.6107129454612732,-0.034543540328741074,9.773917198181152,0.0071000000461936,-0.006099999882280827,-0.021299999207258224,0.06099999926066736,0.12199999852133472,-0.06099999926066736
0.607265293598175,-0.038000769913196564,9.783196449279785,0.004100000020116568,-0.003700000001117587,-0.011399999260902405,0.06099999926066736,0.12199999852133472,-0.12199999852133472
0.6065470576286316,-0.042999863624572754,9.761505126953125,0.00279999990016222,-0.010199999436736107,-0.030899999663233757,-0.06099999926066736,0.24399999704266945,-0.12199999852133472
0.6143521666526794,-0.03402639552950859,9.787755012512207,0.01599999889731407,-0.00029999998514540493,-0.0016999999061226845,0,0.06099999926066736,-0.12199999852133472
0.6090370416641235,-0.0215669684112072,9.781319618225098,-0.0026000000070780516,0.006199999712407589,-0.021299999207258224,0,0.1830000044521087,0.06099999926066736
0.6090370416641235,-0.0215669684112072,9.781319618225098,0.0037999998312443495,0.003499999875202775,-0.011299999430775642,0,0.1830000044521087,0.06099999926066736
0.5910804867744446,-0.035462915897369385,9.7836275100708,-0.009499999694526196,-0.003700000001117587,-0.011699999682605267,0.06099999926066736,0.06099999926066736,0.1830000044521087
0.6114886999130249,-0.000967257481534034,9.775314331054688,0.006599999964237213,0.010699999518692493,-0.021299999207258224,0.12199999852133472,0.1830000044521087,-0.06099999926066736
0.5971139073371887,-0.03139277175068855,9.771416664123535,-0.002199999988079071,-0.0064999996684491634,-0.021399999037384987,-0.06099999926066736,0.12199999852133472,-0.06099999926066736
0.609305202960968,-0.027590779587626457,9.776435852050781,0.004999999888241291,0.002300000051036477,-0.021199999377131462,-0.12199999852133472,0.06099999926066736,-0.1830000044521087
0.6387921571731567,-0.0332985557615757,9.787707328796387,-0.011099999770522118,-0.005200000014156103,-0.031199999153614044,0,0,0.06099999926066736
0.5892226099967957,-0.0316321924328804,9.753460884094238,0.01860000006854534,-0.002699999837204814,-0.0005999999702908099,0.06099999926066736,0.06099999926066736,-0.06099999926066736
0.5919424295425415,-0.011559206061065197,9.762760162353516,-0.024899998679757118,-0.002099999925121665,-0.04019999876618385,0.06099999926066736,0.1830000044521087,0
0.5997380018234253,-0.03158430755138397,9.783024787902832,-0.008599999360740185,-0.006899999920278788,-0.01119999960064888,-0.12199999852133472,0.06099999926066736,0
0.6272042393684387,-0.029199684038758278,9.77774715423584,-0.008599999360740185,-0.006899999920278788,-0.01119999960064888,-0.06099999926066736,0.06099999926066736,-0.12199999852133472
0.5890215039253235,-0.027973853051662445,9.787304878234863,-0.017999999225139618,0.0032999999821186066,-0.01119999960064888,0.06099999926066736,0,-0.06099999926066736
0.6087976098060608,-0.05199248343706131,9.760480880737305,0.001500000013038516,-0.026200000196695328,-0.030799999833106995,-0.06099999926066736,0.12199999852133472,-0.12199999852133472
0.5962998867034912,-0.041343074291944504,9.758574485778809,-0.007899999618530273,-0.016200000420212746,-0.0405999980866909,0,0.06099999926066736,-0.06099999926066736
0.6023524403572083,-0.05656062066555023,9.775784492492676,-0.007699999958276749,-0.025999998673796654,-0.020999999716877937,-0.06099999926066736,0.1830000044521087,0
0.6097265481948853,-0.04861186817288399,9.776838302612305,0.0024999999441206455,-0.025699999183416367,-0.0210999995470047,0,0.1830000044521087,0.06099999926066736
0.6156641840934753,-0.04713704437017441,9.76738452911377,0.012799999676644802,-0.01589999906718731,-0.030899999663233757,0,0,0
0.5997474789619446,-0.014211980625987053,9.785494804382324,-0.0066999997943639755,0.013399999588727951,-0.011299999430775642,-0.06099999926066736,0.12199999852133472,-0.06099999926066736
0.5979375243186951,-0.05182010307908058,9.78010368347168,-0.006399999838322401,-0.025499999523162842,-0.011299999430775642,0.06099999926066736,0.12199999852133472,0
0.6244269609451294,-0.018234239891171455,9.755864143371582,0.02319999970495701,0.013499999418854713,-0.040699999779462814,-0.06099999926066736,0.12199999852133472,0
0.588638424873352,-0.017563864588737488,9.749994277954102,-0.01549999974668026,0.013599999248981476,-0.04079999774694443,0.12199999852133472,0.12199999852133472,-0.06099999926066736
0.5755085945129395,-0.03568318113684654,9.74815559387207,-0.02499999850988388,-0.006300000008195639,-0.050599999725818634,0,-0.06099999926066736,-0.06099999926066736
0.5869720578193665,-0.01727655902504921,9.756467819213867,-0.01529999915510416,0.013199999928474426,-0.04079999774694443,-0.06099999926066736,0.12199999852133472,-0.12199999852133472
0.6008488535881042,-0.009634267538785934,9.767834663391113,-0.0050999997183680534,0.013299999758601189,-0.03099999949336052,-0.06099999926066736,0.06099999926066736,-0.06099999926066736
0.6216114163398743,-0.05588066950440407,9.813066482543945,0.004699999932199717,-0.006000000052154064,-0.011399999260902405,0.12199999852133472,0.1830000044521087,-0.06099999926066736
0.5797799229621887,-0.025100810453295708,9.764311790466309,0.01489999983459711,-0.02579999901354313,0.017899999395012856,0,0.12199999852133472,-0.06099999926066736
0.6010020971298218,-0.017812861129641533,9.762874603271484,-0.023799998685717583,0.003499999875202775,-0.031099999323487282,0.06099999926066736,0,0.06099999926066736
0.5933789610862732,-0.039801210165023804,9.775467872619629,-0.013899999670684338,-0.016200000420212746,-0.021299999207258224,-0.06099999926066736,0.06099999926066736,0
0.5892609357833862,-0.03184288367629051,9.784307479858398,-0.013599999248981476,-0.006199999712407589,-0.011500000022351742,-0.12199999852133472,0,-0.06099999926066736
0.5895865559577942,-0.02857719175517559,9.77615737915039,-0.013499999418854713,0.0038999998942017555,-0.021299999207258224,-0.06099999926066736,0.06099999926066736,-0.12199999852133472
0.5942504405975342,-0.028500577434897423,9.757128715515137,-0.003599999938160181,0.003999999724328518,-0.04089999943971634,0,0.12199999852133472,0
0.6020268201828003,-0.02587653137743473,9.79100227355957,-0.0031999999191612005,0.0038999998942017555,-0.0016999999061226845,-0.06099999926066736,0.12199999852133472,-0.06099999926066736
0.5757384896278381,-0.017908629029989243,9.791681289672852,-0.022199999541044235,0.013700000010430813,-0.0016999999061226845,0,0.12199999852133472,-0.06099999926066736
0.591224193572998,-0.030722396448254585,9.758928298950195,-0.012000000104308128,-0.005799999926239252,-0.031199999153614044,-0.06099999926066736,0,0
0.5979279279708862,-0.021404163911938667,9.763909339904785,-0.002199999988079071,0.004100000020116568,-0.031199999153614044,0,0.12199999852133472,0.06099999926066736
0.6080601811408997,-0.025158271193504333,9.749016761779785,0.007799999788403511,0.004100000020116568,-0.05079999938607216,0.06099999926066736,0.1830000044521087,-0.06099999926066736
0.6123697757720947,-0.043545741587877274,9.759552001953125,0.008200000040233135,-0.01549999974668026,-0.031199999153614044,0.06099999926066736,0.24399999704266945,0
0.59688401222229,-0.026700137183070183,9.799017906188965,0.00559999980032444,0.00699999975040555,0.007499999832361937,-0.12199999852133472,0.06099999926066736,-0.06099999926066736
0.6025152206420898,-0.03144065663218498,9.766868591308594,0.0023999998811632395,-0.0013000000035390258,-0.03139999881386757,-0.06099999926066736,0,0.06099999926066736
0.5992974042892456,-0.014556746929883957,9.769376754760742,0.0007999999797903001,0.010799999348819256,-0.02159999869763851,-0.12199999852133472,0.12199999852133472,0.06099999926066736
0.5768015384674072,0.00021068975911475718,9.762903213500977,-0.013299999758601189,0.007699999958276749,-0.031700000166893005,0.06099999926066736,0.24399999704266945,-0.06099999926066736
0.6019214391708374,-0.028701690956950188,9.75295352935791,0.007199999876320362,0.0011999999405816197,-0.041600000113248825,0.06099999926066736,0.24399999704266945,-0.1830000044521087
0.5976980328559875,-0.011750741861760616,9.773944854736328,0.008100000210106373,0.012899999506771564,-0.02199999988079071,0,0.1830000044521087,-0.12199999852133472
0.5988377332687378,-0.04390966147184372,9.739707946777344,0.006099999882280827,-0.012899999506771564,-0.05130000039935112,0.06099999926066736,0,0.06099999926066736
0.5827487111091614,-0.023396139964461327,9.798442840576172,-0.006899999920278788,0.003399999812245369,0.0071000000461936,0.06099999926066736,0.12199999852133472,0
0.5883607268333435,-0.051341261714696884,9.764827728271484,0.0017999999690800905,-0.019500000402331352,-0.03199999779462814,0,0.12199999852133472,0
0.5924500226974487,-0.020906168967485428,9.76325798034668,0.01529999915510416,0.007199999876320362,-0.031599998474121094,-0.06099999926066736,0.12199999852133472,-0.06099999926066736
0.574455201625824,-0.019891027361154556,9.78935432434082,-0.0032999999821186066,0.005200000014156103,-0.031700000166893005,0,0.06099999926066736,0
0.5960699915885925,-0.05321831628680229,9.76220417022705,0.013100000098347664,-0.02019999921321869,-0.032099999487400055,-0.06099999926066736,0.1830000044521087,0
0.591128408908844,-0.03085647150874138,9.785130500793457,0.002099999925121665,-0.00019999999494757503,-0.012399999424815178,0.06099999926066736,0.06099999926066736,0.06099999926066736
0.6003413200378418,-0.019891027361154556,9.793922424316406,0.006300000008195639,0.004900000058114529,-0.002300000051036477,0,0.12199999852133472,-0.12199999852133472
0.606058657169342,-0.031105468049645424,9.744583129882812,0.013100000098347664,-0.003999999724328518,-0.0510999970138073,-0.12199999852133472,0.12199999852133472,0
0.5928235054016113,-0.047884032130241394,9.777297019958496,-0.006099999882280827,-0.02329999953508377,-0.021699998527765274,0.12199999852133472,0.1830000044521087,-0.12199999852133472
0.5992112159729004,-0.0075465235859155655,9.734278678894043,0.0066999997943639755,0.016200000420212746,-0.06109999865293503,0,0.12199999852133472,0
0.566238284111023,-0.020034680142998695,9.768438339233398,-0.01529999915510416,0.00419999985024333,-0.022299999371170998,0,0,-0.06099999926066736
0.5974778532981873,-0.015255853533744812,9.769989967346191,0.008999999612569809,0.009399999864399433,-0.02199999988079071,0,0,-0.12199999852133472
0.5960509181022644,-0.031814150512218475,9.76974105834961,0.005699999630451202,-0.006899999920278788,-0.021800000220537186,0,0.1830000044521087,0
0.5966542363166809,-0.044704534113407135,9.774672508239746,0.0037999998312443495,-0.011299999430775642,-0.021699998527765274,-0.06099999926066736,0.06099999926066736,0
0.5957061052322388,-0.03936067596077919,9.739344596862793,0.0024999999441206455,-0.009099999442696571,-0.0608999989926815,0.06099999926066736,0.1830000044521087,-0.06099999926066736
0.5801054835319519,-0.031411927193403244,9.76956844329834,-0.011399999260902405,0.00029999998514540493,-0.02199999988079071,-0.06099999926066736,0,0.06099999926066736
0.598598301410675,-0.04139095917344093,9.766676902770996,0.0052999998442828655,-0.006599999964237213,-0.031599998474121094,0,0.24399999704266945,0.06099999926066736
0.5983301401138306,-0.039207447320222855,9.808804512023926,0.008200000040233135,-0.008100000210106373,0.017099998891353607,0.06099999926066736,0.1830000044521087,-0.12199999852133472
0.6162101030349731,-0.03923618048429489,9.789507865905762,0.014299999922513962,-0.00419999985024333,-0.001500000013038516,0,0.06099999926066736,0.06099999926066736
0.5818867683410645,-0.03683239594101906,9.758392333984375,-0.02029999904334545,0.0044999998062849045,-0.04099999740719795,0.06099999926066736,0.12199999852133472,-0.06099999926066736
0.607255756855011,-0.04635174572467804,9.787487030029297,0.00559999980032444,-0.003399999812245369,-0.011399999260902405,0.06099999926066736,0.06099999926066736,-0.1830000044521087
0.5812068581581116,-0.05025908350944519,9.777957916259766,-0.015699999406933784,-0.008799999952316284,-0.011899999342858791,0,0.1830000044521087,-0.06099999926066736
0.5793585181236267,-0.03391147404909134,9.759771347045898,-0.016999999061226845,0.0044999998062849045,-0.03139999881386757,0.12199999852133472,0.12199999852133472,-0.06099999926066736
0.5775772333145142,0.0030837319791316986,9.759982109069824,-0.016999999061226845,0.0044999998062849045,-0.03139999881386757,-0.12199999852133472,0,0
0.6132507920265198,-0.034399889409542084,9.776214599609375,0.01730000041425228,-0.0007999999797903001,-0.021399999037384987,0.12199999852133472,0,-0.12199999852133472
0.5689102411270142,-0.0114921685308218,9.766629219055176,-0.023899998515844345,0.013599999248981476,-0.031599998474121094,0.06099999926066736,0.06099999926066736,0
0.5976789593696594,-0.03213976323604584,9.769693374633789,0.0032999999821186066,-0.004100000020116568,-0.021699998527765274,0,0,-0.06099999926066736
0.5844438076019287,-0.03643975034356117,9.751516342163086,-0.006399999838322401,-0.004100000020116568,-0.04129999876022339,0.06099999926066736,0.06099999926066736,-0.06099999926066736
0.6068726778030396,-0.0266618300229311,9.748834609985352,0.013299999758601189,0.005399999674409628,-0.0510999970138073,0,0.1830000044521087,0
0.5976023077964783,-0.021059399470686913,9.742973327636719,0.003999999724328518,0.005399999674409628,-0.05119999870657921,0,0.24399999704266945,0
0.580632209777832,-0.044685378670692444,9.773026466369629,-0.009999999776482582,-0.013499999418854713,-0.022099999710917473,-0.06099999926066736,0.1830000044521087,-0.06099999926066736
0.6006286144256592,-0.035156454890966415,9.765718460083008,0.006099999882280827,-0.002300000051036477,-0.031700000166893005,0.12199999852133472,0.12199999852133472,-0.06099999926066736
0.5901802778244019,-0.01893334835767746,9.77299690246582,-0.0026000000070780516,0.010900000110268593,-0.021900000050663948,0.06099999926066736,0.12199999852133472,0
0.6153098344802856,-0.026508601382374763,9.768898010253906,0.017400000244379044,0.0005999999702908099,-0.021399999037384987,0,0.12199999852133472,0
0.6099851131439209,-0.012823344208300114,9.772153854370117,0.004999999888241291,0.00699999975040555,-0.021199999377131462,0,0.1830000044521087,0.06099999926066736
0.5861005783081055,-0.023568522185087204,9.775525093078613,-0.010099999606609344,-0.0017999999690800905,-0.02149999886751175,0,0.1830000044521087,0
0.6076962947845459,-0.03320278972387314,9.76504898071289,0.006799999624490738,-0.00839999970048666,-0.031099999323487282,-0.06099999926066736,0.06099999926066736,0
0.5896727442741394,-0.006119579542428255,9.766599655151367,-0.00969999935477972,0.008100000210106373,-0.031300000846385956,0.12199999852133472,0.12199999852133472,0
0.6001976132392883,-0.037809234112501144,9.784355163574219,0,-0.00699999975040555,-0.011699999682605267,0,0.1830000044521087,0.12199999852133472
0.6104735732078552,-0.04683058708906174,9.766111373901367,0.0071000000461936,-0.012399999424815178,-0.031099999323487282,0.06099999926066736,0.06099999926066736,0
0.5978130102157593,-0.027236439287662506,9.795004844665527,-0.0013000000035390258,0.003499999875202775,-0.0017999999690800905,-0.06099999926066736,0.06099999926066736,-0.12199999852133472
0.584003210067749,-0.039322368800640106,9.743999481201172,-0.02070000022649765,-0.015799999237060547,-0.05079999938607216,-0.06099999926066736,0.06099999926066736,0
0.609965980052948,-0.038211461156606674,9.80349063873291,0.008700000122189522,-0.005799999926239252,0.007899999618530273,0.12199999852133472,0.06099999926066736,-0.12199999852133472
0.5868284106254578,-0.024679431691765785,9.782957077026367,-0.010599999688565731,0.003499999875202775,-0.011599999852478504,-0.06099999926066736,0.24399999704266945,-0.12199999852133472
0.6019501686096191,-0.04880340397357941,9.770755767822266,0.008499999530613422,-0.02449999935925007,-0.02199999988079071,0,0,0
0.5968362092971802,-0.016711529344320297,9.795914649963379,0.003599999938160181,0.006399999838322401,-0.002099999925121665,0,0.1830000044521087,-0.12199999852133472
0.5647826194763184,-0.0414675734937191,9.794947624206543,0.003599999938160181,0.006399999838322401,-0.002099999925121665,0.1830000044521087,0.06099999926066736,-0.06099999926066736
0.5978321433067322,-0.018186355009675026,9.780189514160156,0.01249999925494194,0.010400000028312206,-0.012399999424815178,-0.12199999852133472,0.24399999704266945,-0.12199999852133472
0.6028791666030884,-0.014030021615326405,9.776291847229004,0.01489999983459711,0.01209999993443489,-0.02239999920129776,0,0.06099999926066736,0
0.5872306227684021,-0.01904826983809471,9.782095909118652,0.0030999998562037945,0.007699999958276749,-0.01249999925494194,0.12199999852133472,0.24399999704266945,0.06099999926066736
0.6004945039749146,-0.044800300151109695,9.727823257446289,0.01529999915510416,-0.01979999989271164,-0.0714000016450882,0.06099999926066736,0.12199999852133472,0
0.6159036159515381,-0.015275007113814354,9.75294303894043,0.02669999934732914,0.007199999876320362,-0.04149999842047691,0.06099999926066736,0.06099999926066736,0
0.5818771719932556,-0.03611414134502411,9.746296882629395,-0.010300000198185444,-0.009800000116229057,-0.051500000059604645,-0.06099999926066736,0.12199999852133472,-0.06099999926066736
0.6161717772483826,0.002384624909609556,9.783838272094727,0.016899999231100082,0.005799999926239252,-0.011500000022351742,0.06099999926066736,0.12199999852133472,0
0.5954188108444214,-0.04708915948867798,9.76952075958252,-0.001999999862164259,-0.01640000008046627,-0.021399999037384987,0.06099999926066736,0.12199999852133472,-0.06099999926066736
0.6199545860290527,-0.04268382489681244,9.758133888244629,0.013199999928474426,-0.01269999984651804,-0.040699999779462814,0.06099999926066736,0,-0.06099999926066736
0.6142372488975525,-0.000814028549939394,9.741327285766602,0.009599999524652958,0.012799999676644802,-0.0502999983727932,-0.06099999926066736,0.06099999926066736,-0.06099999926066736
0.6160663962364197,-0.03843172639608383,9.751449584960938,0.006599999964237213,-0.012000000104308128,-0.040300000458955765,0.06099999926066736,0.12199999852133472,-0.12199999852133472
0.581283450126648,-0.02208411507308483,9.773331642150879,-0.021800000220537186,0.004799999762326479,-0.021399999037384987,0,0.12199999852133472,0
0.6081081032752991,-0.021911732852458954,9.771416664123535,0.004799999762326479,0.0031999999191612005,-0.021199999377131462,-0.06099999926066736,0.06099999926066736,0
0.6012797951698303,-0.030674513429403305,9.770574569702148,-0.003599999938160181,-0.004299999680370092,-0.021299999207258224,-0.06099999926066736,0.06099999926066736,0
0.581168532371521,-0.022974759340286255,9.780630111694336,-0.023000000044703484,0.00559999980032444,-0.011500000022351742,0.12199999852133472,0.12199999852133472,0
0.5888491272926331,-0.016998833045363426,9.791135787963867,-0.012899999506771564,0.014999999664723873,-0.0016999999061226845,0,0.12199999852133472,0
0.5796745419502258,-0.028615498915314674,9.768035888671875,0.006899999920278788,0.014999999664723873,-0.0016999999061226845,0.06099999926066736,0.06099999926066736,0
0.5796745419502258,-0.028615498915314674,9.768035888671875,-0.022199999541044235,0.004999999888241291,-0.031099999323487282,0.06099999926066736,0.06099999926066736,0
0.6045263409614563,-0.003706224262714386,9.770794868469238,-0.012199999764561653,-0.014599999412894249,-0.05079999938607216,0,0.1830000044521087,-0.06099999926066736
0.5872498154640198,-0.03244622051715851,9.762491226196289,-0.01119999960064888,-0.0050999997183680534,-0.031199999153614044,0.12199999852133472,0.12199999852133472,-0.06099999926066736
0.6161909103393555,-0.017621325328946114,9.770459175109863,0.018400000408291817,0.014099999330937862,-0.021399999037384987,0,0.06099999926066736,-0.06099999926066736
0.585593044757843,-0.030109480023384094,9.761466979980469,-0.010699999518692493,-0.005399999674409628,-0.031199999153614044,0,0,-0.06099999926066736
0.5945473313331604,-0.04907156154513359,9.794315338134766,-0.0008999999845400453,-0.024899998679757118,-0.0017999999690800905,0.06099999926066736,0.06099999926066736,-0.06099999926066736
0.6030515432357788,-0.05006754770874977,9.769195556640625,-0.0007999999797903001,-0.02499999850988388,-0.021399999037384987,0.06099999926066736,-0.06099999926066736,-0.12199999852133472
0.5805652141571045,-0.01758301816880703,9.785274505615234,-0.020399998873472214,0.013899999670684338,-0.011599999852478504,-0.06099999926066736,0,-0.12199999852133472
0.6067003011703491,-0.0498855859041214,9.770660400390625,0.008799999952316284,-0.02499999850988388,-0.021399999037384987,0.06099999926066736,0.12199999852133472,-0.06099999926066736
0.5831987857818604,-0.04322970658540726,9.791853904724121,-0.019999999552965164,-0.015199999324977398,-0.0018999999156221747,-0.06099999926066736,0.24399999704266945,0
0.5915880799293518,-0.02651817910373211,9.764158248901367,0.005799999926239252,0.003999999724328518,-0.03219999745488167,0.12199999852133472,0.06099999926066736,0
0.6083666086196899,-0.007335834205150604,9.76456069946289,0.014099999330937862,0.007899999618530273,-0.031599998474121094,0.06099999926066736,0.1830000044521087,0
0.5821166634559631,-0.023051373660564423,9.772336959838867,-0.009399999864399433,-0.0011999999405816197,-0.022099999710917473,0.06099999926066736,0.12199999852133472,-0.06099999926066736
0.5872880816459656,-0.022400150075554848,9.800434112548828,0.0004999999655410647,-0.000699999975040555,0.007199999876320362,0.06099999926066736,0,0
0.5849992632865906,-0.021624429151415825,9.764664649963379,0,-0.0005999999702908099,-0.03189999982714653,-0.06099999926066736,0.06099999926066736,-0.06099999926066736
0.6033771634101868,-0.039466023445129395,9.761630058288574,0.01939999870955944,-0.006899999920278788,-0.02149999886751175,0,0.1830000044521087,0
0.6033771634101868,-0.039466023445129395,9.761630058288574,0.006899999920278788,-0.012000000104308128,-0.031099999323487282,0,0.1830000044521087,0
0.5967691540718079,-0.029352912679314613,9.764033317565918,-0.019999999552965164,-0.007400000002235174,-0.012199999764561653,0,0.12199999852133472,-0.06099999926066736
0.5967691540718079,-0.029352912679314613,9.764033317565918,0.006399999838322401,0.0017999999690800905,-0.031700000166893005,0,0.12199999852133472,-0.06099999926066736
0.5859473347663879,-0.010898405686020851,9.773907661437988,-0.0023999998811632395,0.014599999412894249,-0.021900000050663948,-0.06099999926066736,0.12199999852133472,0
0.5893183350563049,-0.0209732074290514,9.802302360534668,0.01269999984651804,-0.011099999770522118,-0.04129999876022339,0,0.06099999926066736,0.12199999852133472
0.6220614910125732,-0.047098737210035324,9.757003784179688,-0.006399999838322401,0.00839999970048666,0.007599999662488699,0,0.12199999852133472,-0.06099999926066736
0.6196672916412354,-0.029554026201367378,9.749974250793457,0.02329999953508377,-0.0013000000035390258,-0.04129999876022339,0.06099999926066736,0.06099999926066736,-0.06099999926066736
0.6171389818191528,-0.029228415340185165,9.757837295532227,0.023499999195337296,-0.00139999995008111,-0.04129999876022339,0.06099999926066736,0.06099999926066736,-0.06099999926066736
0.5961753726005554,-0.037636853754520416,9.780313491821289,0.003999999724328518,-0.0015999999595806003,-0.011899999342858791,0,0.12199999852133472,-0.06099999926066736
0.5905537605285645,-0.032407913357019424,9.764339447021484,-0.0052999998442828655,-0.0015999999595806003,-0.031599998474121094,0.06099999926066736,0.06099999926066736,0
0.6083570718765259,-0.03628652170300484,9.762903213500977,0.014299999922513962,-0.0017999999690800905,-0.031599998474121094,-0.06099999926066736,0.24399999704266945,0.06099999926066736
0.5954380035400391,-0.05262455344200134,9.765555381774902,0.016599999740719795,-0.02369999885559082,-0.03229999914765358,-0.06099999926066736,0,-0.06099999926066736
0.5980907678604126,-0.04301901534199715,9.757530212402344,0.010199999436736107,-0.009099999442696571,-0.04169999808073044,0.06099999926066736,0.06099999926066736,0.06099999926066736
0.6079261302947998,-0.0127946138381958,9.764196395874023,0.010199999436736107,-0.009099999442696571,-0.04169999808073044,-0.06099999926066736,0.1830000044521087,-0.06099999926066736
0.5929096937179565,-0.04891832917928696,9.76530647277832,-0.004999999888241291,-0.01769999973475933,-0.031599998474121094,-0.06099999926066736,0.1830000044521087,-0.06099999926066736
0.6090849041938782,-0.027925968170166016,9.79366397857666,0.006799999624490738,0.0052999998442828655,-0.0016999999061226845,0.12199999852133472,0,0.06099999926066736
0.6092668175697327,-0.00894473772495985,9.78134822845459,0.004100000020116568,0.009599999524652958,-0.011399999260902405,-0.06099999926066736,0.06099999926066736,-0.1830000044521087
0.5780177712440491,-0.0035338415764272213,9.788272857666016,-0.014099999330937862,0.005399999674409628,-0.002199999988079071,0.06099999926066736,0.12199999852133472,0
0.5909081697463989,-0.01782243698835373,9.776607513427734,-0.0031999999191612005,0.0037999998312443495,-0.021900000050663948,0,-0.12199999852133472,-0.06099999926066736
0.5944036841392517,-0.02942952699959278,9.787784576416016,0.0030999998562037945,-0.008100000210106373,-0.002099999925121665,-0.06099999926066736,0.12199999852133472,0
0.6107416749000549,-0.016002843156456947,9.75125789642334,0.006000000052154064,0.009999999776482582,-0.04089999943971634,0,0.06099999926066736,0
0.5956295132637024,-0.034849997609853745,9.780169486999512,0.006000000052154064,0.009999999776482582,-0.04089999943971634,0,0.06099999926066736,0
0.5956295132637024,-0.034849997609853745,9.780169486999512,-0.003499999875202775,-0.009499999694526196,-0.011500000022351742,0,0.12199999852133472,-0.12199999852133472
0.5809482336044312,-0.014403517358005047,9.753891944885254,-0.02279999852180481,0.009999999776482582,-0.04089999943971634,-0.06099999926066736,0.12199999852133472,0.06099999926066736
0.5987898707389832,-0.02222776785492897,9.780113220214844,-0.002899999963119626,0.00039999998989515007,-0.011500000022351742,-0.06099999926066736,0.1830000044521087,0
0.5794351100921631,-0.02971683070063591,9.787802696228027,-0.021900000050663948,-0.009099999442696571,-0.0016999999061226845,0,0.06099999926066736,-0.12199999852133472
0.5828923583030701,-0.05120718851685524,9.790858268737793,-0.002099999925121665,-0.01889999955892563,-0.011599999852478504,0,0.12199999852133472,0
0.6137201189994812,-0.026441562920808792,9.75938892364502,-0.005799999926239252,-0.026999998837709427,-0.002699999837204814,-0.12199999852133472,0,-0.06099999926066736
0.5835723280906677,-0.034610580652952194,9.769021987915039,-0.01209999993443489,-0.004999999888241291,-0.021900000050663948,0,0.1830000044521087,0
0.5965871810913086,-0.025531766936182976,9.783100128173828,0.00419999985024333,0.002699999837204814,-0.011899999342858791,0.06099999926066736,0,-0.12199999852133472
0.6099372506141663,-0.026843789964914322,9.788415908813477,0.006799999624490738,0.0011999999405816197,-0.0016999999061226845,0.06099999926066736,0.1830000044521087,-0.12199999852133472
0.607265293598175,-0.052739474922418594,9.782305717468262,0.0044999998062849045,-0.01850000023841858,-0.011399999260902405,0.06099999926066736,0.12199999852133472,0
0.5936662554740906,-0.03063620626926422,9.75931167602539,-0.011599999852478504,0.000699999975040555,-0.031199999153614044,0.06099999926066736,0.06099999926066736,-0.06099999926066736
0.6073036789894104,-0.042003877460956573,9.79045581817627,0.0038999998942017555,-0.0044999998062849045,-0.001500000013038516,-0.06099999926066736,0.12199999852133472,0
0.5979087352752686,-0.026154259219765663,9.770909309387207,-0.004399999976158142,0.011099999770522118,-0.021199999377131462,0,0.12199999852133472,0
0.6033197045326233,-0.013129801489412785,9.76220417022705,-0.003499999875202775,0.015599999576807022,-0.031099999323487282,0.12199999852133472,0.1830000044521087,-0.06099999926066736
0.605847954750061,-0.014346056617796421,9.775678634643555,0.004100000020116568,0.010300000198185444,-0.021199999377131462,0.06099999926066736,0.1830000044521087,-0.12199999852133472
0.5902090668678284,-0.02751416526734829,9.763228416442871,-0.01489999983459711,0.00029999998514540493,-0.03099999949336052,-0.1830000044521087,0.06099999926066736,-0.06099999926066736
0.6062214374542236,-0.04390966147184372,9.784269332885742,0.004799999762326479,-0.018699999898672104,-0.011399999260902405,0,0.06099999926066736,-0.06099999926066736
0.6026875972747803,-0.0527203232049942,9.782248497009277,-0.004699999932199717,-0.0284000001847744,-0.011399999260902405,-0.06099999926066736,0.1830000044521087,0
0.6250973343849182,-0.040509890764951706,9.787553787231445,0.02499999850988388,-0.018400000408291817,-0.0015999999595806003,0,0.1830000044521087,0
0.591367781162262,-0.03606625273823738,9.776971817016602,-0.013599999248981476,-0.008599999360740185,-0.021299999207258224,0,0.12199999852133472,0
0.6130592823028564,-0.055583786219358444,9.770430564880371,0.01599999889731407,-0.028099998831748962,-0.021299999207258224,0.06099999926066736,0.12199999852133472,-0.12199999852133472
0.5945090055465698,-0.04668693244457245,9.775228500366211,-0.0031999999191612005,-0.018400000408291817,-0.021299999207258224,0.06099999926066736,0.06099999926066736,0.06099999926066736
0.6025822758674622,-0.05286397039890289,9.756535530090332,-0.003000000026077032,-0.028299998492002487,-0.04089999943971634,0.06099999926066736,0.06099999926066736,0
0.6096978187561035,-0.016711529344320297,9.754819869995117,0.006799999624490738,0.010599999688565731,-0.04089999943971634,0,0.06099999926066736,-0.06099999926066736
0.6135285496711731,-0.009107543155550957,9.761218070983887,-0.002699999837204814,-0.008899999782443047,-0.031099999323487282,0.1830000044521087,0.06099999926066736,-0.06099999926066736
0.5926607251167297,-0.018808849155902863,9.771866798400879,0.017099998891353607,0.010199999436736107,-0.031199999153614044,0,0.06099999926066736,0.06099999926066736
0.5639398097991943,-0.016500838100910187,9.747637748718262,-0.041200000792741776,0.00969999935477972,-0.05079999938607216,0.06099999926066736,0.06099999926066736,0
0.592995822429657,-0.026575639843940735,9.757377624511719,-0.011599999852478504,-0.00019999999494757503,-0.04099999740719795,0.12199999852133472,0.1830000044521087,-0.12199999852133472
0.5949782729148865,-0.008427590131759644,9.753307342529297,0.020899999886751175,0.011299999430775642,-0.042399998754262924,0,0.12199999852133472,-0.06099999926066736
0.5981194376945496,-0.0599508099257946,9.795004844665527,0.0071000000461936,-0.012799999676644802,-0.002300000051036477,0.12199999852133472,0.06099999926066736,0
0.5843001008033752,-0.007498639635741711,9.763535499572754,-0.002300000051036477,0.026399999856948853,-0.031700000166893005,-0.12199999852133472,0.24399999704266945,-0.06099999926066736
0.6030706763267517,-0.011568782851099968,9.756707191467285,0.015399999916553497,0.022199999541044235,-0.041999999433755875,-0.06099999926066736,0.24399999704266945,0
0.6281906366348267,-0.004606443922966719,9.746919631958008,0.0502999983727932,0.019199999049305916,-0.05209999904036522,0.06099999926066736,0.12199999852133472,-0.06099999926066736
0.5985025763511658,-0.02777273952960968,9.784671783447266,0.012399999424815178,0.005499999970197678,-0.012399999424815178,0,0.1830000044521087,-0.06099999926066736
0.5941067934036255,-0.04405330866575241,9.772096633911133,0.008599999360740185,-0.00969999935477972,-0.02199999988079071,-0.12199999852133472,0.12199999852133472,0
0.6151278614997864,-0.028538884595036507,9.756065368652344,0.021299999207258224,0.007799999788403511,-0.041200000792741776,0.06099999926066736,0.24399999704266945,0
0.6017778515815735,-0.04873637109994888,9.7687349319458,0.012000000104308128,-0.02319999970495701,-0.022199999541044235,0,0.12199999852133472,0
0.5925936102867126,-0.042530596256256104,9.774194717407227,0.0013000000035390258,-0.008999999612569809,-0.022199999541044235,-0.06099999926066736,0.1830000044521087,-0.1830000044521087
0.598588764667511,-0.036056678742170334,9.762127876281738,0.018400000408291817,-0.001500000013038516,-0.03240000084042549,0.06099999926066736,0.1830000044521087,-0.06099999926066736
0.5926511287689209,-0.03474465385079384,9.75965690612793,0.006099999882280827,-0.0011999999405816197,-0.03219999745488167,0.06099999926066736,0.12199999852133472,0
0.6175987124443054,-0.00988326407968998,9.772872924804688,0.023099999874830246,0.011899999342858791,-0.021699998527765274,0,0.06099999926066736,0
0.6057426333427429,-0.016596606001257896,9.782248497009277,0.007699999958276749,0.0071000000461936,-0.011599999852478504,0.06099999926066736,0.12199999852133472,-0.06099999926066736
0.5866943597793579,-0.05158068239688873,9.765603065490723,-0.008999999612569809,-0.024000000208616257,-0.031300000846385956,0.06099999926066736,0.06099999926066736,-0.06099999926066736
0.6224158406257629,-0.02338656224310398,9.75654411315918,-0.006899999920278788,0.010900000110268593,-0.03150000050663948,0.06099999926066736,0.12199999852133472,0
0.5890598297119141,0.0010726023465394974,9.78171157836914,0.01640000008046627,0.000699999975040555,-0.04089999943971634,-0.06099999926066736,0.1830000044521087,0
0.5977938771247864,-0.01023760624229908,9.74907398223877,0.00009999999747378752,0.010699999518692493,-0.012299999594688416,0.06099999926066736,0.24399999704266945,-0.06099999926066736
0.6129634976387024,-0.012315774336457253,9.791422843933105,0.03700000047683716,0.009399999864399433,-0.002899999963119626,0.06099999926066736,0.06099999926066736,0
0.594260036945343,-0.021317971870303154,9.791988372802734,0.008200000040233135,-0.00019999999494757503,-0.0023999998811632395,-0.06099999926066736,0.1830000044521087,0.06099999926066736
0.6083762049674988,-0.04196557030081749,9.764962196350098,0.013599999248981476,-0.01489999983459711,-0.03150000050663948,0,0.12199999852133472,-0.12199999852133472
0.58570796251297,-0.04028962552547455,9.7343168258667,-0.005200000014156103,-0.012299999594688416,-0.060999996960163116,0.1830000044521087,0.06099999926066736,-0.06099999926066736
0.5750297904014587,-0.029151801019906998,9.792055130004883,-0.007400000002235174,-0.00139999995008111,-0.0026000000070780516,0.06099999926066736,0.12199999852133472,-0.06099999926066736
0.6181637048721313,-0.011875240132212639,9.779864311218262,0.02019999921321869,0.011399999260902405,-0.011699999682605267,-0.06099999926066736,0.12199999852133472,0.06099999926066736
0.5884181261062622,-0.033854011446237564,9.766762733459473,-0.007199999876320362,-0.006000000052154064,-0.03150000050663948,0,0,-0.06099999926066736
0.5993261933326721,-0.022026654332876205,9.7868070602417,0.0013000000035390258,0.002199999988079071,-0.011799999512732029,0.06099999926066736,0.12199999852133472,-0.1830000044521087
0.6125230193138123,-0.03073197416961193,9.75926399230957,0.007999999448657036,-0.005699999630451202,-0.031199999153614044,0,0.12199999852133472,-0.06099999926066736
0.5810440182685852,-0.027265168726444244,9.779729843139648,-0.013299999758601189,0.0024999999441206455,-0.01209999993443489,0.06099999926066736,0.12199999852133472,-0.06099999926066736
0.5886096954345703,-0.0012641384964808822,9.764435768127441,-0.00279999990016222,0.008999999612569809,-0.031700000166893005,0.06099999926066736,-0.06099999926066736,-0.12199999852133472
0.6356030702590942,-0.024602817371487617,9.797781944274902,0.045899998396635056,-0.0008999999845400453,0.007400000002235174,-0.06099999926066736,0.12199999852133472,-0.06099999926066736
0.6010116338729858,-0.034849997609853745,9.782584190368652,0.00699999975040555,-0.010499999858438969,-0.01209999993443489,0,0.06099999926066736,-0.06099999926066736
0.6385814547538757,-0.017669208347797394,9.75375747680664,0.04639999940991402,0.008999999612569809,-0.04149999842047691,-0.06099999926066736,0.12199999852133472,0
0.5906591415405273,-0.021624429151415825,9.782161712646484,-0.002199999988079071,-0.0005999999702908099,-0.01209999993443489,0.06099999926066736,0.06099999926066736,-0.06099999926066736
0.596002995967865,-0.034371159970760345,9.80624771118164,0.007599999662488699,-0.010499999858438969,0.007400000002235174,0.06099999926066736,0.12199999852133472,-0.06099999926066736
0.6142372488975525,-0.021911732852458954,9.779145240783691,0.027499999850988388,-0.0008999999845400453,-0.012199999764561653,0,0.12199999852133472,0
0.5901419520378113,-0.04886086657643318,9.771014213562012,-0.001500000013038516,-0.03019999898970127,-0.02199999988079071,0.06099999926066736,0.12199999852133472,0
0.5995081067085266,-0.0361332930624485,9.760845184326172,-0.0011999999405816197,-0.0009999999310821295,-0.05139999836683273,0.06099999926066736,0.1830000044521087,0
0.5905250906944275,-0.0348404236137867,9.769099235534668,0.008799999952316284,-0.010900000110268593,-0.03179999813437462,0.12199999852133472,0.12199999852133472,0
0.6191980242729187,-0.007000645622611046,9.797245979309082,0.029099998995661736,0.008100000210106373,0.007199999876320362,0,0,0
0.6122739911079407,-0.023396139964461327,9.782440185546875,0.019199999049305916,-0.0015999999595806003,-0.012299999594688416,0.1830000044521087,0.06099999926066736,-0.06099999926066736
0.6091232299804688,-0.025953145697712898,9.774548530578613,0.019299998879432678,-0.002099999925121665,-0.022099999710917473,0,0.06099999926066736,-0.12199999852133472
0.5891172289848328,-0.037263356149196625,9.757501602172852,-0.00009999999747378752,-0.011899999342858791,-0.04169999808073044,0.06099999926066736,0.1830000044521087,0.06099999926066736
0.6078590750694275,-0.024200590327382088,9.760978698730469,0.019899999722838402,-0.002199999988079071,-0.03189999982714653,0.06099999926066736,0.06099999926066736,0
0.6060490608215332,-0.028203696012496948,9.778254508972168,0.019899999722838402,-0.0023999998811632395,-0.012299999594688416,0.06099999926066736,0.24399999704266945,0
0.6040953993797302,-0.025225309655070305,9.767834663391113,0.04050000011920929,-0.0013000000035390258,-0.03309999778866768,-0.06099999926066736,0.24399999704266945,-0.06099999926066736
0.593417227268219,-0.02767697162926197,9.782851219177246,0.025100000202655792,-0.0008999999845400453,-0.013700000010430813,0.06099999926066736,0.12199999852133472,-0.06099999926066736
0.6053499579429626,-0.02947741188108921,9.798059463500977,0.02329999953508377,-0.00559999980032444,0.00699999975040555,0.12199999852133472,0.06099999926066736,0
0.6106938123703003,-0.03204399347305298,9.765527725219727,0.016599999740719795,-0.004299999680370092,-0.031700000166893005,0.06099999926066736,0.06099999926066736,0.06099999926066736
0.6216496825218201,-0.04143884405493736,9.77953815460205,0.01549999974668026,-0.00839999970048666,-0.011399999260902405,-0.06099999926066736,0,0.12199999852133472
0.5771941542625427,-0.028500577434897423,9.756429672241211,-0.01899999938905239,0.008799999952316284,-0.041099999099969864,0,0.06099999926066736,0
0.6067290306091309,-0.0325898751616478,9.780936241149902,0.006000000052154064,-0.0004999999655410647,-0.011500000022351742,-0.06099999926066736,0.06099999926066736,-0.06099999926066736
0.6058383584022522,-0.02623087354004383,9.768878936767578,0.0038999998942017555,0.0064999996684491634,-0.0210999995470047,-0.06099999926066736,0.06099999926066736,-0.12199999852133472
0.5794159770011902,-0.035060688853263855,9.74268627166748,-0.020899999886751175,-0.0023999998811632395,-0.05079999938607216,-0.12199999852133472,0.24399999704266945,0
0.5813217759132385,-0.042856208980083466,9.795052528381348,-0.0072999997064471245,-0.014399999752640724,-0.0026000000070780516,-0.06099999926066736,0.1830000044521087,0
0.5924787521362305,-0.017286136746406555,9.741086959838867,0.0016999999061226845,0.011899999342858791,-0.05159999802708626,-0.06099999926066736,0,0
0.6088263392448425,-0.03693774342536926,9.794123649597168,-0.006300000008195639,-0.0052999998442828655,-0.032099999487400055,-0.06099999926066736,0.24399999704266945,0
0.6049860119819641,-0.030435092747211456,9.77672290802002,0.03240000084042549,-0.0064999996684491634,-0.0031999999191612005,0.06099999926066736,0.12199999852133472,0
0.6112205386161804,-0.016146495938301086,9.772872924804688,0.02149999886751175,-0.0044999998062849045,-0.022199999541044235,0,0.1830000044521087,-0.12199999852133472
0.5841756463050842,-0.04639005288481712,9.761381149291992,0.014499999582767487,0.010199999436736107,-0.021800000220537186,0,0,-0.06099999926066736
0.5978225469589233,-0.033164482563734055,9.803394317626953,0.0050999997183680534,-0.0024999999441206455,0.007499999832361937,0,0.12199999852133472,-0.06099999926066736
0.5973916053771973,-0.015361198224127293,9.771551132202148,0.003499999875202775,0.012000000104308128,-0.021699998527765274,0,0.1830000044521087,-0.06099999926066736
0.5972958207130432,-0.02438254840672016,9.786031723022461,0.002199999988079071,0.00139999995008111,-0.011799999512732029,0,0.06099999926066736,0.06099999926066736
0.6152811050415039,-0.030176516622304916,9.824347496032715,0.015699999406933784,-0.005799999926239252,0.017899999395012856,0.06099999926066736,0.06099999926066736,-0.06099999926066736
0.6038846969604492,-0.048209644854068756,9.786050796508789,0.003599999938160181,-0.016200000420212746,-0.011299999430775642,0,0.06099999926066736,-0.06099999926066736
0.5941067934036255,-0.03121081367135048,9.788320541381836,-0.003399999812245369,0.0017999999690800905,-0.0016999999061226845,0.06099999926066736,0.1830000044521087,0
0.5929192304611206,-0.034112587571144104,9.753738403320312,-0.010699999518692493,0.0013000000035390258,-0.04099999740719795,-0.12199999852133472,0.06099999926066736,0
0.6194086670875549,-0.0027964275795966387,9.768725395202637,0.018799999728798866,0.021199999377131462,-0.021399999037384987,0.06099999926066736,0.06099999926066736,-0.06099999926066736
0.5981098413467407,-0.03243664652109146,9.744678497314453,-0.0005999999702908099,0.001500000013038516,-0.05089999735355377,0.12199999852133472,0,-0.06099999926066736
0.6042103171348572,-0.032168496400117874,9.762500762939453,0.009099999442696571,0.0010999999940395355,-0.031300000846385956,0,0.12199999852133472,-0.06099999926066736
0.5869720578193665,-0.029630640521645546,9.760211944580078,-0.009999999776482582,0.0010999999940395355,-0.031300000846385956,0,0.12199999852133472,0.12199999852133472
0.603262186050415,-0.014566323719918728,9.768209457397461,0,0.02070000022649765,-0.031300000846385956,-0.06099999926066736,0,-0.06099999926066736
0.5941259264945984,-0.03419877588748932,9.765833854675293,0,0.0011999999405816197,-0.031300000846385956,-0.06099999926066736,0.06099999926066736,-0.12199999852133472
0.6262752413749695,-0.020887015387415886,9.78828239440918,0.029399998486042023,0.011099999770522118,-0.0018999999156221747,-0.06099999926066736,0.06099999926066736,-0.06099999926066736
0.5975544452667236,-0.03312617540359497,9.759140014648438,0.00019999999494757503,0.001500000013038516,-0.031300000846385956,0,0.1830000044521087,-0.1830000044521087
0.592430830001831,-0.04148672893643379,9.769003868103027,0.015699999406933784,-0.014699999243021011,-0.023000000044703484,0.06099999926066736,0.12199999852133472,-0.06099999926066736
0.5899217128753662,-0.018100164830684662,9.790168762207031,0.012399999424815178,-0.0024999999441206455,-0.012399999424815178,0.06099999926066736,0.06099999926066736,-0.06099999926066736
0.5899217128753662,-0.018100164830684662,9.790168762207031,0.0013000000035390258,0.008499999530613422,-0.0026000000070780516,0.06099999926066736,0.06099999926066736,-0.06099999926066736
0.5915976762771606,-0.014001291245222092,9.763851165771484,0.0005999999702908099,0.006300000008195639,-0.03189999982714653,0.06099999926066736,0.06099999926066736,0
0.6024385690689087,-0.022189460694789886,9.76543140411377,0.006399999838322401,-0.014499999582767487,-0.01209999993443489,0.06099999926066736,0.06099999926066736,0
0.5843096971511841,-0.0505942702293396,9.732525825500488,0.004399999976158142,0.0037999998312443495,-0.031599998474121094,0.06099999926066736,0.12199999852133472,0
0.5916072130203247,-0.0072783734649419785,9.796201705932617,-0.004900000058114529,-0.020999999716877937,-0.060999996960163116,0,0.12199999852133472,-0.12199999852133472
0.6194565892219543,-0.01732444390654564,9.771828651428223,0.01899999938905239,0.006399999838322401,-0.02149999886751175,0,0.12199999852133472,-0.06099999926066736
0.594834566116333,-0.015610194765031338,9.781338691711426,-0.00029999998514540493,0.004100000020116568,-0.011699999682605267,-0.06099999926066736,0.1830000044521087,0.06099999926066736
0.5906208753585815,-0.03947559744119644,9.811506271362305,-0.006300000008195639,-0.01719999872148037,0.017400000244379044,-0.12199999852133472,0.1830000044521087,-0.06099999926066736
0.5918562412261963,-0.025349806994199753,9.77845573425293,-0.005799999926239252,0.0026000000070780516,-0.011899999342858791,0,0.12199999852133472,-0.06099999926066736
0.5696476697921753,-0.05491340905427933,9.777268409729004,-0.02499999850988388,-0.02669999934732914,-0.021800000220537186,0.06099999926066736,0.24399999704266945,0
0.5560102462768555,-0.006339846178889275,9.759197235107422,-0.01809999905526638,0.011399999260902405,-0.032600000500679016,0.06099999926066736,0.1830000044521087,-0.06099999926066736
0.5955624580383301,-0.012306197546422482,9.791815757751465,0.010099999606609344,0.0052999998442828655,-0.0024999999441206455,0.06099999926066736,0.12199999852133472,0.06099999926066736
0.5974299311637878,-0.02381751872599125,9.7576265335083,0.007699999958276749,-0.003599999938160181,-0.041600000113248825,0,0.3049999896332302,0
0.5967020988464355,-0.054013192653656006,9.773695945739746,0.019999999552965164,-0.03189999982714653,-0.022699998691678047,0,0.24399999704266945,0.06099999926066736
0.6056851148605347,-0.008638279512524605,9.779902458190918,0.03849999979138374,0.007899999618530273,-0.013399999588727951,0,0.12199999852133472,0
0.6095350384712219,-0.010563218034803867,9.788214683532715,0.019899999722838402,0.004100000020116568,-0.0024999999441206455,0.06099999926066736,0.06099999926066736,0
0.5903047919273376,-0.016261417418718338,9.776626586914062,0,0.00279999990016222,-0.022099999710917473,-0.06099999926066736,0.06099999926066736,-0.06099999926066736
0.59697026014328,-0.0573459193110466,9.761514663696289,0.00699999975040555,-0.02709999866783619,-0.031700000166893005,0,0.1830000044521087,-0.06099999926066736
0.6006190180778503,-0.0267767533659935,9.744123458862305,0.0052999998442828655,0.0016999999061226845,-0.05119999870657921,0,0.1830000044521087,-0.06099999926066736
0.6105597615242004,-0.04642836004495621,9.79855728149414,0.009200000204145908,-0.010300000198185444,0.007899999618530273,-0.06099999926066736,0.06099999926066736,-0.12199999852133472
0.6253271698951721,-0.03331771120429039,9.759590148925781,0.020999999716877937,-0.00019999999494757503,-0.030799999833106995,0.06099999926066736,0.24399999704266945,-0.12199999852133472
0.5994410514831543,-0.025397691875696182,9.782392501831055,0.009099999442696571,-0.0031999999191612005,-0.04169999808073044,0,0.24399999704266945,-0.06099999926066736
0.596213698387146,-0.027475858107209206,9.75904369354248,0.021299999207258224,0.004999999888241291,-0.012999999336898327,0,0.24399999704266945,-0.06099999926066736
0.6065566539764404,-0.04249228909611702,9.789507865905762,0.03009999915957451,0.003599999938160181,-0.03309999778866768,-0.06099999926066736,0.06099999926066736,0.06099999926066736
0.5844438076019287,-0.03303998336195946,9.76744270324707,0.020600000396370888,-0.008100000210106373,-0.0024999999441206455,0,0,-0.12199999852133472
0.5785635709762573,-0.03888183459639549,9.793865203857422,-0.0050999997183680534,-0.004699999932199717,-0.002699999837204814,0,0.06099999926066736,-0.06099999926066736
0.600006103515625,-0.045259989798069,9.756784439086914,0.011099999770522118,-0.003700000001117587,-0.04179999977350235,0.06099999926066736,0.1830000044521087,-0.12199999852133472
0.6150320768356323,-0.030243555083870888,9.758373260498047,0.023499999195337296,0.0044999998062849045,-0.04129999876022339,0.06099999926066736,0.24399999704266945,-0.12199999852133472
0.6167367696762085,-0.0286729596555233,9.768994331359863,0.03830000013113022,0.009800000116229057,-0.022599998861551285,0,0.12199999852133472,-0.06099999926066736
0.628899335861206,-0.04392881318926811,9.747762680053711,0.03749999776482582,-0.007599999662488699,-0.05139999836683273,0,0.06099999926066736,-0.12199999852133472
0.5943366289138794,-0.03997359052300453,9.76237678527832,0.0052999998442828655,-0.005399999674409628,-0.031599998474121094,0.06099999926066736,0.12199999852133472,0
0.6102437376976013,-0.029649794101715088,9.776895523071289,0.009800000116229057,0.002699999837204814,-0.02149999886751175,-0.06099999926066736,0.06099999926066736,-0.06099999926066736
0.6125900149345398,-0.04727111756801605,9.786710739135742,0.005799999926239252,-0.004100000020116568,-0.011399999260902405,0,0.12199999852133472,-0.12199999852133472
0.5877094864845276,-0.02806004323065281,9.759427070617676,-0.010499999858438969,0.011500000022351742,-0.031199999153614044,0.12199999852133472,0.1830000044521087,0
0.6243024468421936,-0.01928768865764141,9.752570152282715,0.02149999886751175,0.008499999530613422,-0.0405999980866909,0,0.1830000044521087,0
0.5864644646644592,-0.05085284262895584,9.782248497009277,-0.010599999688565731,-0.01249999925494194,-0.011599999852478504,0.06099999926066736,0.12199999852133472,0
0.6162675023078918,-0.05132210999727249,9.782793998718262,0.011399999260902405,-0.007799999788403511,-0.01119999960064888,-0.06099999926066736,0.12199999852133472,0
0.6112300753593445,-0.026853367686271667,9.747694969177246,0.0009999999310821295,0.01759999990463257,-0.05040000006556511,0.06099999926066736,0.06099999926066736,-0.06099999926066736
0.5839458107948303,-0.03404554724693298,9.780343055725098,-0.01769999973475933,0.004699999932199717,-0.011799999512732029,0.06099999926066736,0.12199999852133472,0.06099999926066736
0.5789945721626282,-0.03328897804021835,9.786921501159668,-0.017400000244379044,0.0044999998062849045,-0.011799999512732029,0,-0.06099999926066736,-0.06099999926066736
0.6078590750694275,-0.03047339990735054,9.746421813964844,0.011799999512732029,0.0044999998062849045,-0.050999999046325684,0,0.1830000044521087,-0.06099999926066736
0.5946239829063416,-0.03759854659438133,9.785676956176758,0.0024999999441206455,0.0044999998062849045,-0.011799999512732029,0.12199999852133472,0.06099999926066736,-0.06099999926066736
0.6000539660453796,-0.0360279455780983,9.791298866271973,0.022199999541044235,0.004100000020116568,-0.001999999862164259,-0.06099999926066736,0.1830000044521087,0
0.5914444327354431,-0.03213976323604584,9.771915435791016,0.0030999998562037945,0.004299999680370092,-0.002099999925121665,0.06099999926066736,0.12199999852133472,0
0.5900270342826843,-0.03937982767820358,9.760614395141602,-0.0064999996684491634,0.0037999998312443495,-0.021699998527765274,0.06099999926066736,0.06099999926066736,-0.12199999852133472
0.6187957525253296,-0.03149811923503876,9.767748832702637,0.02329999953508377,0.003399999812245369,-0.03150000050663948,-0.06099999926066736,0.12199999852133472,-0.06099999926066736
0.6068056225776672,-0.017640478909015656,9.782889366149902,0.02329999953508377,0.003399999812245369,-0.03150000050663948,0,0.12199999852133472,0
0.5777495503425598,-0.015313314273953438,9.786481857299805,-0.015199999324977398,0.023000000044703484,-0.011899999342858791,0,0,-0.06099999926066736
0.579004168510437,-0.027973853051662445,9.764081001281738,-0.015099999494850636,0.013199999928474426,-0.031599998474121094,-0.06099999926066736,0.06099999926066736,-0.24399999704266945
0.5918753743171692,-0.021902156993746758,9.785284042358398,0.02579999901354313,0.00419999985024333,-0.013799999840557575,0.06099999926066736,0.06099999926066736,0
0.6076292395591736,-0.031191660091280937,9.778168678283691,0.020999999716877937,-0.0026000000070780516,-0.012399999424815178,-0.12199999852133472,0.12199999852133472,-0.12199999852133472
0.5967212319374084,-0.023760057985782623,9.7642822265625,0.007499999832361937,0.005200000014156103,-0.03179999813437462,0,0.1830000044521087,0
0.6101862192153931,-0.023156719282269478,9.781549453735352,0.009999999776482582,0.003000000026077032,-0.011699999682605267,0,0.06099999926066736,0
0.6110768914222717,-0.017257405444979668,9.77027702331543,0.0064999996684491634,0.008799999952316284,-0.021299999207258224,-0.1830000044521087,0.06099999926066736,-0.1830000044521087
0.5946143865585327,-0.05668511986732483,9.734919548034668,0.013499999418854713,-0.02969999983906746,-0.06149999797344208,0,0,0
0.6089317202568054,-0.024305934086441994,9.76494312286377,0.016499999910593033,-0.00019999999494757503,-0.031700000166893005,0,0.06099999926066736,-0.06099999926066736
0.6349901556968689,-0.03289633244276047,9.763018608093262,0.03219999745488167,-0.0071000000461936,-0.030899999663233757,0,0.1830000044521087,0
0.6130688190460205,-0.031095892190933228,9.778111457824707,0.007400000002235174,-0.004100000020116568,-0.010999999940395355,0.06099999926066736,0.06099999926066736,-0.06099999926066736
0.5847406387329102,-0.047864880412817,9.789785385131836,-0.011599999852478504,-0.007499999832361937,-0.0017999999690800905,-0.06099999926066736,0.1830000044521087,-0.06099999926066736
0.6039230227470398,-0.021748928353190422,9.791997909545898,0.004600000102072954,0.0066999997943639755,-0.0015999999595806003,0,0.24399999704266945,-0.06099999926066736
0.6036165952682495,-0.017305290326476097,9.788607597351074,0.019899999722838402,0.01489999983459711,-0.0024999999441206455,0,0,0
0.5653093457221985,-0.0235780980437994,9.770564079284668,-0.0142000000923872,0.003599999938160181,-0.02239999920129776,0,0,0.06099999926066736
0.6029653549194336,-0.024143129587173462,9.759915351867676,0.010699999518692493,0.002699999837204814,-0.03189999982714653,-0.06099999926066736,0.24399999704266945,-0.06099999926066736
0.5766578316688538,-0.03280056267976761,9.77143669128418,-0.004699999932199717,-0.017400000244379044,-0.023000000044703484,-0.06099999926066736,0.1830000044521087,0
0.6242929100990295,-0.009615113958716393,9.741403579711914,0.0031999999191612005,-0.0052999998442828655,-0.02279999852180481,-0.06099999926066736,0.1830000044521087,-0.12199999852133472
0.601088285446167,-0.04333505406975746,9.773456573486328,0.007499999832361937,-0.011699999682605267,-0.021900000050663948,0,0.12199999852133472,-0.06099999926066736
0.6113545894622803,-0.02312798798084259,9.762616157531738,0.01209999993443489,0.00559999980032444,-0.03139999881386757,-0.06099999926066736,0,-0.06099999926066736
0.6057713627815247,-0.030339322984218597,9.757320404052734,0.00839999970048666,-0.003000000026077032,-0.04099999740719795,-0.06099999926066736,0,-0.12199999852133472
0.5776346921920776,-0.02082955464720726,9.777143478393555,-0.0142000000923872,0.0044999998062849045,-0.021800000220537186,0.06099999926066736,0,0
0.6187191605567932,-0.017286136746406555,9.745894432067871,0.018799999728798866,0.011099999770522118,-0.05089999735355377,-0.06099999926066736,0.24399999704266945,0
0.5931395292282104,-0.024890121072530746,9.761141777038574,0.008599999360740185,0.0011999999405816197,-0.03240000084042549,0.06099999926066736,0.24399999704266945,-0.06099999926066736
0.6321650147438049,-0.031622614711523056,9.759791374206543,0.07000000029802322,-0.008799999952316284,-0.03309999778866768,0,0,-0.06099999926066736
0.6077058911323547,-0.025368960574269295,9.77588939666748,0.02669999934732914,0.0005999999702908099,-0.022499999031424522,0,0,0.06099999926066736
0.604765772819519,-0.0542621873319149,9.806238174438477,0.015599999576807022,-0.016599999740719795,0.007499999832361937,0.06099999926066736,0.1830000044521087,-0.12199999852133472
0.6075334548950195,-0.03618117421865463,9.794123649597168,0.008299999870359898,0.00139999995008111,-0.0017999999690800905,0.12199999852133472,0.06099999926066736,0
0.608644425868988,-0.03922659903764725,9.772546768188477,0.005799999926239252,-0.006300000008195639,-0.021199999377131462,0.06099999926066736,0.1830000044521087,0
0.6155300736427307,-0.029946673661470413,9.775084495544434,0.010900000110268593,0.002300000051036477,-0.020999999716877937,-0.1830000044521087,0.1830000044521087,-0.1830000044521087
0.6041623950004578,-0.0003734954516403377,9.756736755371094,0.020600000396370888,0.018799999728798866,-0.04169999808073044,0.12199999852133472,0.1830000044521087,0
0.5953326225280762,-0.021241357550024986,9.762070655822754,0.007799999788403511,0.006399999838322401,-0.03179999813437462,-0.12199999852133472,0.1830000044521087,-0.12199999852133472
0.5790903568267822,-0.035769373178482056,9.761438369750977,0.0038999998942017555,-0.004900000058114529,-0.03269999846816063,0,0.12199999852133472,-0.06099999926066736
0.5797128081321716,-0.02301306650042534,9.743213653564453,0.002699999837204814,0.0037999998312443495,-0.05219999700784683,0,0,-0.06099999926066736
0.6106555461883545,-0.03331771120429039,9.76805591583252,0.022099999710917473,-0.004100000020116568,-0.03199999779462814,0.12199999852133472,0.06099999926066736,-0.12199999852133472
0.6014522314071655,-0.02653733268380165,9.770785331726074,0.007799999788403511,0.003399999812245369,-0.02199999988079071,0,0.06099999926066736,0
0.588542640209198,-0.052643708884716034,9.765527725219727,-0.0017999999690800905,-0.018699999898672104,-0.03179999813437462,0,0.1830000044521087,-0.12199999852133472
0.6082708835601807,-0.02896026335656643,9.76707935333252,-0.0013000000035390258,0.0004999999655410647,-0.02199999988079071,0,0,-0.12199999852133472
0.5835818648338318,-0.016156071797013283,9.77846622467041,-0.010199999436736107,0.012000000104308128,-0.012299999594688416,0,0.24399999704266945,0
0.5965105295181274,-0.04433104023337364,9.772729873657227,-0.010199999436736107,0.012000000104308128,-0.012299999594688416,0.12199999852133472,0.06099999926066736,0
0.5734400749206543,0.0030550011433660984,9.762998580932617,0.024299999698996544,-0.017799999564886093,-0.02290000021457672,0.06099999926066736,0,-0.06099999926066736
0.6126570701599121,-0.028165388852357864,9.764492988586426,0.02459999918937683,-0.0011999999405816197,-0.03219999745488167,0.06099999926066736,0.12199999852133472,-0.06099999926066736
0.6122739911079407,-0.049301404505968094,9.739095687866211,0.019299998879432678,-0.024699999019503593,-0.06129999831318855,0,0.06099999926066736,0
0.5773952603340149,-0.026240449398756027,9.768994331359863,-0.006799999624490738,0.003000000026077032,-0.022299999371170998,0.06099999926066736,0,-0.06099999926066736
0.6158748865127563,-0.042118798941373825,9.754993438720703,0.023499999195337296,-0.012399999424815178,-0.04129999876022339,-0.06099999926066736,0.12199999852133472,0
0.6157886981964111,-0.025933992117643356,9.76646614074707,0.016099998727440834,0.0050999997183680534,-0.031099999323487282,-0.06099999926066736,0.1830000044521087,-0.06099999926066736
0.6109236478805542,-0.018473658710718155,9.781271934509277,0.003599999938160181,0.008599999360740185,-0.011299999430775642,0,0.06099999926066736,-0.12199999852133472
0.6295505166053772,-0.0202645231038332,9.778858184814453,0.013799999840557575,-0.0005999999702908099,-0.010699999518692493,0.06099999926066736,0.06099999926066736,0
0.618087112903595,-0.046485818922519684,9.797896385192871,0.002699999837204814,-0.01249999925494194,0.008899999782443047,-0.06099999926066736,0.06099999926066736,0
0.5948250889778137,-0.017477672547101974,9.766274452209473,-0.016599999740719795,0.016899999231100082,-0.030299998819828033,0.06099999926066736,0.06099999926066736,0
0.5760449171066284,-0.007115567568689585,9.786423683166504,-0.035999998450279236,0.01679999940097332,-0.010699999518692493,-0.06099999926066736,0.06099999926066736,0.06099999926066736
0.5851141214370728,-0.02668098360300064,9.746469497680664,-0.016200000420212746,-0.0026000000070780516,-0.020499998703598976,0,0.06099999926066736,-0.06099999926066736
0.5851141214370728,-0.02668098360300064,9.746469497680664,-0.025699999183416367,0.006799999624490738,-0.04989999905228615,0,0.06099999926066736,-0.06099999926066736
0.5988855957984924,-0.0428849421441555,9.75769329071045,-0.015699999406933784,-0.01269999984651804,-0.04010000079870224,-0.06099999926066736,0.06099999926066736,-0.06099999926066736
0.5850950479507446,-0.0235780980437994,9.784317016601562,-0.025299999862909317,0.006899999920278788,-0.010699999518692493,0,0,-0.06099999926066736
0.6095637679100037,-0.021203050389885902,9.79045581817627,-0.00559999980032444,0.006899999920278788,-0.0008999999845400453,-0.06099999926066736,0.12199999852133472,-0.06099999926066736
0.6105022430419922,-0.02282153069972992,9.764598846435547,-0.0052999998442828655,0.00699999975040555,-0.030399998649954796,0.06099999926066736,0.12199999852133472,0
0.5997380018234253,-0.029649794101715088,9.771560668945312,-0.004900000058114529,0.016599999740719795,-0.0009999999310821295,-0.06099999926066736,0.06099999926066736,-0.12199999852133472
0.5970468521118164,-0.014748282730579376,9.769195556640625,-0.014499999582767487,-0.00279999990016222,-0.020600000396370888,0,0.12199999852133472,-0.06099999926066736
0.5952847003936768,-0.001924938173033297,9.769761085510254,-0.013799999840557575,0.01640000008046627,-0.020600000396370888,0,0,0
0.5953038930892944,-0.03151727095246315,9.78858757019043,-0.013499999418854713,-0.0030999998562037945,-0.0010999999940395355,0,0.1830000044521087,0
0.591243326663971,-0.02343444712460041,9.789114952087402,-0.02279999852180481,0.006599999964237213,-0.0010999999940395355,0,-0.06099999926066736,-0.06099999926066736
0.5885331034660339,-0.03132573515176773,9.790149688720703,-0.02290000021457672,-0.0031999999191612005,-0.0010999999940395355,0,0.12199999852133472,0
0.6085007190704346,-0.03468719497323036,9.748078346252441,-0.002899999963119626,-0.0031999999191612005,-0.05009999871253967,0.12199999852133472,0.12199999852133472,-0.06099999926066736
0.589835524559021,-0.02161485329270363,9.780956268310547,-0.022199999541044235,0.006199999712407589,-0.010900000110268593,-0.06099999926066736,0.06099999926066736,-0.06099999926066736
0.5959455370903015,-0.009710881859064102,9.756936073303223,-0.012199999764561653,0.016200000420212746,-0.04039999842643738,0.12199999852133472,0.12199999852133472,0.12199999852133472
0.620893120765686,-0.029324183240532875,9.746824264526367,0.007599999662488699,-0.003599999938160181,-0.050200000405311584,0,0.06099999926066736,-0.12199999852133472
0.6019118428230286,-0.0164721067994833,9.734518051147461,-0.011799999512732029,0.01589999906718731,-0.05999999865889549,0,0.12199999852133472,-0.06099999926066736
0.5953613519668579,-0.03085647150874138,9.75125789642334,-0.011399999260902405,-0.003599999938160181,-0.04039999842643738,0,0.1830000044521087,0.06099999926066736
0.6151374578475952,-0.0293816439807415,9.779040336608887,0.008499999530613422,-0.003599999938160181,-0.010999999940395355,0.12199999852133472,0.1830000044521087,-0.06099999926066736
0.6250302791595459,-0.011549629271030426,9.767021179199219,0.018699999898672104,0.01549999974668026,-0.030700000002980232,0.12199999852133472,0,-0.12199999852133472
0.6000922918319702,-0.010256759822368622,9.790034294128418,-0.010400000028312206,0.014999999664723873,-0.0011999999405816197,0,0.06099999926066736,-0.12199999852133472
0.5959838032722473,-0.03769431263208389,9.77721118927002,-0.010199999436736107,-0.0044999998062849045,-0.020899999886751175,-0.06099999926066736,0.06099999926066736,0
0.6245898008346558,-0.0261829886585474,9.798739433288574,0.019099999219179153,0.0052999998442828655,0.00839999970048666,0,0,0
0.5948537588119507,-0.017946936190128326,9.731912612915039,-0.010199999436736107,0.014999999664723873,-0.060099996626377106,0.06099999926066736,0.1830000044521087,-0.06099999926066736
0.5961083173751831,-0.02907518669962883,9.757444381713867,-0.00969999935477972,-0.004600000102072954,-0.04050000011920929,0,0.12199999852133472,-0.06099999926066736
0.5945664644241333,-0.019661184400320053,9.786299705505371,-0.00930000003427267,0.004999999888241291,-0.011099999770522118,0.06099999926066736,0.06099999926066736,-0.12199999852133472
0.6023619771003723,-0.04112280532717705,9.743481636047363,-0.009099999442696571,-0.014599999412894249,-0.05040000006556511,0.06099999926066736,0.06099999926066736,-0.06099999926066736
0.5978896617889404,-0.036219481378793716,9.767643928527832,0.010599999688565731,-0.02449999935925007,-0.0405999980866909,0,0.1830000044521087,0.06099999926066736
0.6058671474456787,-0.02846227027475834,9.791011810302734,-0.008599999360740185,-0.004900000058114529,-0.030799999833106995,-0.06099999926066736,0,-0.1830000044521087
0.5954188108444214,-0.001628057099878788,9.775372505187988,-0.008100000210106373,0.014599999412894249,-0.020999999716877937,-0.12199999852133472,0.1830000044521087,0
0.5688048601150513,-0.0004309563082642853,9.769376754760742,-0.03669999912381172,0.014800000004470348,-0.0210999995470047,0,0.1830000044521087,-0.06099999926066736
0.6054936051368713,-0.013474567793309689,9.763813018798828,0.002899999963119626,0.014699999243021011,-0.030899999663233757,0.06099999926066736,0.1830000044521087,-0.1830000044521087
0.5712853074073792,-0.04140053689479828,9.779021263122559,-0.0357000008225441,-0.014800000004470348,-0.011299999430775642,0.12199999852133472,0.24399999704266945,-0.06099999926066736
0.6170815229415894,-0.041170693933963776,9.773408889770508,0.0139999995008111,-0.015199999324977398,-0.021199999377131462,-0.06099999926066736,0.06099999926066736,0
0.6372886300086975,-0.024229319766163826,9.789928436279297,0.03370000049471855,0.0044999998062849045,-0.0015999999595806003,0.12199999852133472,0.06099999926066736,0.06099999926066736
0.5965775847434998,-0.0396958664059639,9.756936073303223,-0.0052999998442828655,-0.01529999915510416,-0.04079999774694443,0,0.12199999852133472,0
0.5996517539024353,-0.02175850421190262,9.788971900939941,-0.004900000058114529,0.00419999985024333,-0.0015999999595806003,0.12199999852133472,0.1830000044521087,-0.12199999852133472
0.6218891143798828,-0.027590779587626457,9.801315307617188,0.015199999324977398,0.0037999998312443495,0.008100000210106373,0,0.12199999852133472,-0.06099999926066736
0.6014809608459473,-0.006148310378193855,9.767433166503906,-0.003999999724328518,0.013599999248981476,-0.031099999323487282,-0.12199999852133472,0.06099999926066736,0.06099999926066736
0.5961849093437195,-0.047711651772260666,9.756745338439941,-0.0037999998312443495,-0.015399999916553497,-0.04089999943971634,0.12199999852133472,0.12199999852133472,0.06099999926066736
0.5962328314781189,-0.037905003875494,9.80379581451416,-0.003499999875202775,-0.0058999997563660145,0.007999999448657036,0.06099999926066736,0.12199999852133472,-0.12199999852133472
0.6072078943252563,-0.02468900941312313,9.777469635009766,0.0064999996684491634,0.003599999938160181,-0.021299999207258224,0.06099999926066736,0.1830000044521087,-0.06099999926066736
0.6148214340209961,-0.03229299187660217,9.748950004577637,0.01679999940097332,-0.006199999712407589,-0.05079999938607216,0.06099999926066736,-0.06099999926066736,0
0.5926989912986755,-0.023185448721051216,9.783120155334473,-0.012600000016391277,0.0032999999821186066,-0.011500000022351742,0.12199999852133472,0.1830000044521087,0
0.5869624614715576,-0.02597229927778244,9.780850410461426,-0.01209999993443489,0.003000000026077032,-0.011599999852478504,0.06099999926066736,0.1830000044521087,-0.06099999926066736
0.5949495434761047,-0.03736870363354683,9.772489547729492,-0.0017999999690800905,-0.006899999920278788,-0.021399999037384987,0,0.12199999852133472,0
0.5895194411277771,-0.01604115031659603,9.777957916259766,-0.011299999430775642,0.012600000016391277,-0.011599999852478504,0,0.1830000044521087,-0.12199999852133472
0.600216805934906,-0.02693955786526203,9.78427791595459,-0.0008999999845400453,-0.016699999570846558,-0.011599999852478504,0,0.12199999852133472,-0.1830000044521087
0.6134614944458008,-0.04338293522596359,9.778111457824707,-0.0005999999702908099,0.002899999963119626,-0.011699999682605267,0.06099999926066736,0.24399999704266945,-0.06099999926066736
0.6017778515815735,-0.017554286867380142,9.791500091552734,0,0.012799999676644802,-0.0018999999156221747,0,0,0
0.5822889804840088,-0.02952529489994049,9.789430618286133,-0.01939999870955944,-0.0066999997943639755,-0.0018999999156221747,0,0.12199999852133472,-0.1830000044521087
0.6173209547996521,-0.024794353172183037,9.76659107208252,0.019999999552965164,0.002899999963119626,-0.031300000846385956,-0.06099999926066736,0,-0.06099999926066736
0.5996326208114624,-0.02481350675225258,9.76423454284668,0.00039999998989515007,0.0030999998562037945,-0.031300000846385956,-0.06099999926066736,0.1830000044521087,-0.12199999852133472
0.5767536163330078,-0.05680961534380913,9.761446952819824,-0.01860000006854534,-0.025999998673796654,-0.03139999881386757,-0.12199999852133472,0.12199999852133472,0
0.6224254369735718,-0.03765600547194481,9.786941528320312,0.020800000056624413,-0.006099999882280827,-0.011799999512732029,0,0.12199999852133472,0.12199999852133472
0.60704505443573,-0.028203696012496948,9.780811309814453,0.011299999430775642,0.003599999938160181,-0.011799999512732029,-0.1830000044521087,0.12199999852133472,0
0.6063746809959412,-0.030511707067489624,9.76318073272705,0.011599999852478504,-0.005499999970197678,-0.03139999881386757,-0.06099999926066736,0.12199999852133472,0
0.5971904993057251,-0.04388092830777168,9.775822639465332,0.002099999925121665,-0.015199999324977398,-0.02159999869763851,0,0.1830000044521087,-0.1830000044521087
0.6027833819389343,-0.03923618048429489,9.76401424407959,0.002699999837204814,-0.015199999324977398,-0.03150000050663948,-0.06099999926066736,-0.06099999926066736,-0.06099999926066736
0.6208451986312866,-0.029735984280705452,9.750683784484863,0.022099999710917473,-0.005200000014156103,-0.04129999876022339,-0.06099999926066736,0.06099999926066736,-0.06099999926066736
0.5919616222381592,-0.01796608977019787,9.736577033996582,-0.00699999975040555,0.014399999752640724,-0.0608999989926815,0.12199999852133472,0.12199999852133472,0
0.5948633551597595,-0.047357309609651566,9.770506858825684,0.003000000026077032,-0.015199999324977398,-0.021699998527765274,0.06099999926066736,0.06099999926066736,0.12199999852133472
0.6095541715621948,-0.057547032833099365,9.778791427612305,0.012999999336898327,-0.0348999984562397,-0.011899999342858791,0,0.1830000044521087,-0.12199999852133472
0.5839554071426392,-0.05006754770874977,9.774471282958984,-0.015799999237060547,-0.02499999850988388,-0.021699998527765274,0.06099999926066736,0.12199999852133472,0
0.5810919404029846,-0.02367386594414711,9.779260635375977,-0.01549999974668026,0.004100000020116568,-0.011899999342858791,0.06099999926066736,0.12199999852133472,-0.12199999852133472
0.5904005765914917,-0.028941109776496887,9.78357982635498,-0.0052999998442828655,-0.005799999926239252,-0.012000000104308128,-0.06099999926066736,0.1830000044521087,-0.12199999852133472
0.6227127313613892,-0.019412187859416008,9.780802726745605,0.034199997782707214,0.004100000020116568,-0.012000000104308128,0.06099999926066736,0.06099999926066736,0
0.619475781917572,-0.03623863682150841,9.721186637878418,-0.004699999932199717,0.013700000010430813,-0.012000000104308128,0,0.06099999926066736,-0.06099999926066736
0.6015575528144836,-0.02891238033771515,9.825602531433105,0.024699999019503593,-0.006000000052154064,-0.07079999893903732,-0.06099999926066736,0,-0.06099999926066736
0.5903239846229553,-0.02071463316679001,9.789019584655762,0.005200000014156103,-0.0058999997563660145,0.01730000041425228,0.06099999926066736,0.12199999852133472,0
0.6097169518470764,-0.02466985583305359,9.788454055786133,0.014999999664723873,0.003499999875202775,-0.002199999988079071,0.12199999852133472,0,0
0.6252889037132263,-0.0344860814511776,9.764885902404785,0.0340999998152256,-0.006399999838322401,-0.031599998474121094,0.06099999926066736,0.06099999926066736,0
0.5981960892677307,-0.02450704760849476,9.752110481262207,0.004699999932199717,0.0030999998562037945,-0.0414000004529953,-0.12199999852133472,0.06099999926066736,0.06099999926066736
0.6184223294258118,-0.020724210888147354,9.780649185180664,0.024000000208616257,0.003399999812245369,-0.012000000104308128,0.06099999926066736,0.06099999926066736,-0.12199999852133472
0.5950548648834229,-0.031622614711523056,9.744611740112305,0.004399999976158142,-0.0064999996684491634,-0.05119999870657921,0,0.12199999852133472,-0.06099999926066736
0.6088455319404602,-0.020398598164319992,9.750923156738281,0.014399999752640724,0.0031999999191612005,-0.0414000004529953,0,0.06099999926066736,-0.06099999926066736
0.5860814452171326,-0.044206537306308746,9.775047302246094,-0.004900000058114529,-0.016099998727440834,-0.021800000220537186,0.06099999926066736,0.12199999852133472,-0.06099999926066736
0.6005902886390686,-0.025225309655070305,9.735570907592773,0.0050999997183680534,0.0031999999191612005,-0.060999996960163116,0.12199999852133472,0.06099999926066736,0
0.5963860750198364,-0.05412811413407326,9.76220417022705,0.005200000014156103,-0.026099998503923416,-0.031599998474121094,0,0.12199999852133472,0
0.5957444310188293,-0.02668098360300064,9.78722858428955,0.005399999674409628,0.0031999999191612005,-0.012000000104308128,-0.06099999926066736,0,-0.06099999926066736
0.6049860119819641,-0.012813767418265343,9.788971900939941,0.014699999243021011,0.01269999984651804,-0.002199999988079071,0,0.1830000044521087,-0.06099999926066736
0.5848172903060913,-0.008370129391551018,9.754331588745117,-0.004299999680370092,0.012600000016391277,-0.0414000004529953,-0.06099999926066736,0.24399999704266945,-0.06099999926066736
0.6006286144256592,-0.05626374110579491,9.76220417022705,0.006199999712407589,-0.026399999856948853,-0.031700000166893005,0.06099999926066736,0,-0.06099999926066736
0.5968745350837708,-0.01967076025903225,9.760442733764648,0.006099999882280827,0.00279999990016222,-0.031700000166893005,0.06099999926066736,0.1830000044521087,0
0.6216400861740112,-0.043804313987493515,9.75072193145752,0.026200000196695328,-0.016899999231100082,-0.04149999842047691,0,0.12199999852133472,0
0.5826241970062256,-0.007383718155324459,9.770488739013672,-0.012600000016391277,0.012399999424815178,-0.021900000050663948,0.1830000044521087,0.24399999704266945,-0.06099999926066736
0.6038272976875305,-0.03553953021764755,9.773695945739746,0.017500000074505806,-0.007599999662488699,-0.02199999988079071,0.06099999926066736,0.1830000044521087,-0.06099999926066736
0.569168746471405,-0.045298296958208084,9.769492149353027,-0.001500000013038516,-0.01759999990463257,-0.012199999764561653,0,0.12199999852133472,-0.06099999926066736
0.5913869738578796,-0.025129541754722595,9.784307479858398,-0.02070000022649765,-0.01769999973475933,-0.02199999988079071,0.06099999926066736,0.06099999926066736,0
0.6090561747550964,-0.04463749751448631,9.781817436218262,-0.0007999999797903001,0.0017999999690800905,-0.012199999764561653,0.06099999926066736,0.06099999926066736,0
0.5899983644485474,-0.03258029371500015,9.757089614868164,-0.000699999975040555,-0.007899999618530273,-0.04169999808073044,0,0,-0.12199999852133472
0.6064991354942322,-0.04495352879166603,9.770354270935059,0.018799999728798866,-0.01759999990463257,-0.02199999988079071,0.06099999926066736,0.12199999852133472,-0.06099999926066736
0.5984737873077393,-0.04391923546791077,9.786270141601562,0.00930000003427267,-0.017799999564886093,-0.012299999594688416,0.06099999926066736,0.06099999926066736,0
0.5887629389762878,0.00824563018977642,9.75619888305664,-0.00019999999494757503,0.011399999260902405,-0.04169999808073044,-0.06099999926066736,0.06099999926066736,-0.06099999926066736
0.5935034155845642,-0.050728343427181244,9.768017768859863,-0.00009999999747378752,-0.027499999850988388,-0.03189999982714653,0,0.1830000044521087,0
0.6016437411308289,0.006167463958263397,9.791308403015137,0.010099999606609344,0.011500000022351742,-0.0024999999441206455,0,0.12199999852133472,-0.06099999926066736
0.5915593504905701,-0.010735600255429745,9.809236526489258,0.0005999999702908099,0.011299999430775642,0.016999999061226845,0.06099999926066736,0.1830000044521087,0.06099999926066736
0.5994219183921814,-0.02606806717813015,9.76291275024414,0.010699999518692493,0.0013000000035390258,-0.03199999779462814,0.06099999926066736,0.24399999704266945,0
0.5848747491836548,-0.033566705882549286,9.77263355255127,0.0016999999061226845,-0.008599999360740185,-0.022199999541044235,0,0.1830000044521087,-0.06099999926066736
0.6043730974197388,-0.030511707067489624,9.763439178466797,0.021800000220537186,-0.008599999360740185,-0.03199999779462814,-0.06099999926066736,0.12199999852133472,-0.06099999926066736
0.608768880367279,-0.031756691634655,9.763468742370605,0.02199999988079071,-0.00839999970048666,-0.03199999779462814,-0.12199999852133472,0.1830000044521087,0.12199999852133472
0.6000348329544067,-0.022553378716111183,9.772221565246582,0.012799999676644802,0.0015999999595806003,-0.022299999371170998,0,0.12199999852133472,-0.06099999926066736
0.557906448841095,-0.04130476713180542,9.744142532348633,-0.02589999884366989,-0.017899999395012856,-0.05169999971985817,0.06099999926066736,0.1830000044521087,-0.06099999926066736
0.5705286860466003,-0.034399889409542084,9.76113224029541,-0.015599999576807022,-0.008200000040233135,-0.032099999487400055,0.06099999926066736,0,0.06099999926066736
0.6121973991394043,-0.018952501937747,9.761170387268066,0.023499999195337296,0.011099999770522118,-0.032099999487400055,0.06099999926066736,0.24399999704266945,0
0.6081846952438354,-0.01489193458110094,9.752570152282715,0.024299999698996544,0.010900000110268593,-0.041999999433755875,-0.06099999926066736,0.12199999852133472,-0.1830000044521087
0.5975065231323242,-0.022802377119660378,9.766485214233398,0.014800000004470348,0.0013000000035390258,-0.03219999745488167,-0.06099999926066736,0.06099999926066736,-0.06099999926066736
0.6076866984367371,-0.022524649277329445,9.789268493652344,0.02459999918937683,0.00139999995008111,-0.00279999990016222,0.06099999926066736,0.12199999852133472,0
0.6070354580879211,-0.043306320905685425,9.777125358581543,0.034699998795986176,-0.018199998885393143,-0.02239999920129776,-0.06099999926066736,0.12199999852133472,-0.12199999852133472
0.6145819425582886,-0.04923436418175697,9.78184700012207,0.02499999850988388,-0.018299998715519905,-0.02239999920129776,0,0.3049999896332302,-0.06099999926066736
0.6019789576530457,-0.01912488415837288,9.77927017211914,0.016300000250339508,0.01119999960064888,-0.01269999984651804,0.06099999926066736,0.12199999852133472,-0.06099999926066736
0.576926052570343,-0.01893334835767746,9.74782943725586,-0.002899999963119626,0.010999999940395355,-0.051899999380111694,0.12199999852133472,0,-0.06099999926066736
0.5943845510482788,-0.011971008032560349,9.774624824523926,0.016599999740719795,0.010599999688565731,-0.022499999031424522,0,0.06099999926066736,-0.06099999926066736
0.5921244025230408,-0.023970747366547585,9.76722240447998,0.006899999920278788,0.0007999999797903001,-0.03229999914765358,0.12199999852133472,0.12199999852133472,0
0.5945090055465698,-0.023779211565852165,9.768716812133789,0.016999999061226845,0.0004999999655410647,-0.022499999031424522,-0.06099999926066736,0.1830000044521087,0
0.6038463711738586,-0.054875101894140244,9.776617050170898,0.02719999849796295,-0.028599999845027924,-0.022499999031424522,0.06099999926066736,0.12199999852133472,0
0.597535252571106,-0.01599326729774475,9.761831283569336,0.01769999973475933,0.010400000028312206,-0.03240000084042549,0,0.1830000044521087,-0.12199999852133472
0.6122643947601318,-0.03597048670053482,9.78320598602295,0.027899999171495438,-0.009099999442696571,-0.012799999676644802,0,0.1830000044521087,0.06099999926066736
0.5973533391952515,-0.024890121072530746,9.791691780090332,0.01850000023841858,0.0005999999702908099,-0.003000000026077032,0,0.06099999926066736,-0.12199999852133472
0.587757408618927,-0.023712173104286194,9.772289276123047,0.008799999952316284,0.0005999999702908099,-0.022599998861551285,0.12199999852133472,0,-0.12199999852133472
0.6117759943008423,-0.043114785104990005,9.771512985229492,0.028299998492002487,-0.019199999049305916,-0.022599998861551285,0,0.12199999852133472,0
0.5952368974685669,-0.033308133482933044,9.775228500366211,0.018299998715519905,-0.009200000204145908,-0.022599998861551285,0.06099999926066736,0.12199999852133472,0
0.5908411145210266,-0.03500322625041008,9.751104354858398,0.008700000122189522,-0.009200000204145908,-0.0421999990940094,0,0,-0.06099999926066736
0.6046221256256104,-0.03929363936185837,9.749984741210938,0.027799999341368675,-0.018699999898672104,-0.0421999990940094,0,0.1830000044521087,0
0.6090657114982605,-0.008264783769845963,9.791681289672852,0.026799999177455902,0.009999999776482582,-0.002899999963119626,0,0.12199999852133472,0
0.6061831712722778,-0.019134460017085075,9.773265838623047,0.026399999856948853,0.009800000116229057,-0.022499999031424522,-0.06099999926066736,0.24399999704266945,0
0.5819059610366821,-0.01917276717722416,9.770468711853027,-0.002099999925121665,0.00009999999747378752,-0.022499999031424522,0.06099999926066736,0.24399999704266945,-0.06099999926066736
0.596539318561554,-0.03106716088950634,9.788003921508789,0.018199998885393143,-0.00969999935477972,-0.003000000026077032,0.06099999926066736,0,0
0.6034250259399414,-0.037359122186899185,9.754111289978027,0.00839999970048666,-0.019700000062584877,-0.05199999734759331,-0.12199999852133472,0.1830000044521087,0
0.614936351776123,-0.040979158133268356,9.746077537536621,0.027899999171495438,-0.00989999994635582,-0.0421999990940094,0.12199999852133472,0.1830000044521087,-0.12199999852133472
0.582796573638916,-0.03791457787156105,9.77077579498291,-0.00039999998989515007,-0.00989999994635582,-0.022599998861551285,-0.06099999926066736,0.12199999852133472,0
0.6007913947105408,-0.01713290810585022,9.760040283203125,0.01939999870955944,0.009800000116229057,-0.032499998807907104,0.12199999852133472,0.06099999926066736,-0.06099999926066736
0.5957444310188293,-0.028040889650583267,9.790129661560059,0.019500000402331352,-0.00019999999494757503,-0.003000000026077032,0.06099999926066736,0.12199999852133472,0
0.6020459532737732,-0.00994072575122118,9.780582427978516,0.019700000062584877,0.00930000003427267,-0.012899999506771564,0,0.06099999926066736,-0.06099999926066736
0.6026684641838074,-0.042712558060884476,9.75566291809082,0.01979999989271164,-0.019999999552965164,-0.04230000078678131,0,0.1830000044521087,-0.06099999926066736
0.6093147397041321,-0.025110388174653053,9.756342887878418,0.03009999915957451,-0.00039999998989515007,-0.04230000078678131,0.12199999852133472,0.1830000044521087,0
0.6065662503242493,-0.017334019765257835,9.789200782775879,0.030299998819828033,0.008899999782443047,-0.0030999998562037945,0.12199999852133472,0.12199999852133472,0.12199999852133472
0.5982439517974854,-0.029094340279698372,9.758488655090332,0.020800000056624413,-0.010900000110268593,-0.04230000078678131,0.06099999926066736,0.12199999852133472,-0.12199999852133472
0.5952655673027039,-0.03172796219587326,9.770852088928223,0.0210999995470047,-0.010999999940395355,-0.02279999852180481,0,0.06099999926066736,-0.06099999926066736
0.5993644595146179,-0.018942924216389656,9.79552173614502,0.0210999995470047,0.00839999970048666,-0.0030999998562037945,-0.12199999852133472,0.06099999926066736,-0.12199999852133472
0.5949304103851318,-0.04472368583083153,9.762337684631348,0.021199999377131462,-0.020600000396370888,-0.032600000500679016,0,-0.06099999926066736,0
0.5849801301956177,-0.04552813991904259,9.792926788330078,0.010699999518692493,-0.019500000402331352,-0.0030999998562037945,-0.06099999926066736,0.24399999704266945,-0.06099999926066736
0.6141223311424255,-0.02073378674685955,9.77851390838623,0.04089999943971634,0.00019999999494757503,-0.012999999336898327,0,0.12199999852133472,0
0.5841565132141113,-0.030214823782444,9.75228214263916,0.001999999862164259,-0.009499999694526196,-0.042399998754262924,0.06099999926066736,0.06099999926066736,-0.06099999926066736
0.5889257192611694,-0.032905906438827515,9.799257278442383,0.011899999342858791,-0.00969999935477972,0.0064999996684491634,0.06099999926066736,0.06099999926066736,0
0.5940972566604614,-0.029678523540496826,9.774270057678223,0.021800000220537186,-0.009800000116229057,-0.02279999852180481,-0.06099999926066736,0,0
0.5914061069488525,-0.02338656224310398,9.760336875915527,0.012000000104308128,0.00009999999747378752,-0.032600000500679016,0,0.1830000044521087,0
0.6147447824478149,-0.03121081367135048,9.795120239257812,0.041600000113248825,-0.009599999524652958,-0.0031999999191612005,0.06099999926066736,0.12199999852133472,0
0.5889832377433777,-0.010668562725186348,9.785849571228027,0.012399999424815178,0.009800000116229057,-0.012999999336898327,0,0.24399999704266945,0
0.6030898690223694,-0.008322244510054588,9.786672592163086,0.013199999928474426,0.00969999935477972,-0.013100000098347664,0.06099999926066736,0.12199999852133472,-0.1830000044521087
0.5923829078674316,-0.01517923828214407,9.766705513000488,0.02319999970495701,0.009499999694526196,-0.013100000098347664,0,0.12199999852133472,-0.12199999852133472
0.5847023725509644,-0.038757335394620895,9.75072193145752,0.013700000010430813,0.009499999694526196,-0.03269999846816063,0.06099999926066736,0.24399999704266945,-0.06099999926066736
0.6066907644271851,-0.03125869855284691,9.76041316986084,0.03439999744296074,-0.010199999436736107,-0.03280000016093254,0.06099999926066736,0.12199999852133472,-0.12199999852133472
0.6018256545066833,-0.024085668846964836,9.787534713745117,0.024799998849630356,-0.0005999999702908099,-0.003399999812245369,0.12199999852133472,0,-0.12199999852133472
0.5843384265899658,-0.026767175644636154,9.781204223632812,0.01489999983459711,-0.0008999999845400453,-0.013199999928474426,0,0.06099999926066736,0
0.5914061069488525,-0.038757335394620895,9.783560752868652,0.014999999664723873,-0.020399998873472214,-0.013199999928474426,-0.12199999852133472,0,0
0.6097936034202576,-0.040605660527944565,9.741086959838867,0.03449999913573265,-0.020099999383091927,-0.052400000393390656,-0.06099999926066736,0.06099999926066736,-0.06099999926066736
0.5813313126564026,-0.04112280532717705,9.782411575317383,0.005200000014156103,-0.01979999989271164,-0.013199999928474426,-0.06099999926066736,0.24399999704266945,0
0.5999773740768433,-0.003706224262714386,9.730849266052246,0.025599999353289604,0.00969999935477972,-0.062199998646974564,0.06099999926066736,0.12199999852133472,0
0.6116131544113159,-0.0533236600458622,9.75663948059082,0.0357000008225441,-0.029600000008940697,-0.04259999841451645,0,0.1830000044521087,0
0.5946143865585327,-0.04497268423438072,9.79001522064209,0.026200000196695328,-0.019600000232458115,-0.003399999812245369,0.06099999926066736,0.12199999852133472,-0.06099999926066736
0.5897397398948669,-0.03433285281062126,9.76961612701416,0.016699999570846558,-0.009999999776482582,-0.023099999874830246,-0.06099999926066736,0.1830000044521087,0
0.5941163301467896,-0.03264733403921127,9.798567771911621,0.026799999177455902,-0.009800000116229057,0.006199999712407589,-0.06099999926066736,0.12199999852133472,-0.06099999926066736
0.6017778515815735,-0.015524003654718399,9.775323867797852,0.026999998837709427,0.00989999994635582,-0.023099999874830246,0.06099999926066736,0.06099999926066736,-0.06099999926066736
0.608673095703125,-0.04087381064891815,9.81027889251709,0.03689999878406525,-0.019500000402331352,0.01599999889731407,0.12199999852133472,0.1830000044521087,-0.06099999926066736
0.6074376702308655,-0.020810401067137718,9.816580772399902,0.037299998104572296,-0.00029999998514540493,0.01599999889731407,-0.06099999926066736,0,-0.06099999926066736
0.592995822429657,-0.030482977628707886,9.774577140808105,0.01759999990463257,-0.00989999994635582,-0.023099999874830246,0,0,0
0.5920956134796143,-0.04124730825424194,9.75730037689209,0.017500000074505806,-0.019600000232458115,-0.04270000010728836,-0.12199999852133472,0.24399999704266945,0
0.5802779197692871,-0.03191949799656868,9.78378963470459,0.018299998715519905,-0.009499999694526196,-0.003499999875202775,0,-0.06099999926066736,0.06099999926066736
0.6184414625167847,-0.04352658987045288,9.79322338104248,0.008299999870359898,-0.009499999694526196,-0.013299999758601189,-0.06099999926066736,0.1830000044521087,0
0.6091902256011963,-0.027839776128530502,9.798605918884277,0.03819999843835831,0.000699999975040555,0.006199999712407589,0.06099999926066736,0,0
0.6095350384712219,-0.051810525357723236,9.788492202758789,0.03790000081062317,-0.028599999845027924,-0.003499999875202775,0.06099999926066736,0.24399999704266945,-0.12199999852133472
0.582040011882782,-0.02068590372800827,9.7811279296875,0.03790000081062317,-0.028599999845027924,-0.003499999875202775,0,0.12199999852133472,-0.06099999926066736
0.6167367696762085,-0.0523659773170948,9.777344703674316,0.0486999973654747,-0.028699999675154686,-0.02319999970495701,0.06099999926066736,0.12199999852133472,-0.06099999926066736
0.5926415324211121,-0.04161122441291809,9.74477481842041,0.019500000402331352,-0.01899999938905239,-0.05260000005364418,0.06099999926066736,0,-0.06099999926066736
0.6058383584022522,-0.00833182130008936,9.805118560791016,0.03889999911189079,0.010099999606609344,0.006099999882280827,0,0.06099999926066736,0
0.6012893915176392,-0.025005042552947998,9.744563102722168,0.029199998825788498,0.00029999998514540493,-0.05260000005364418,0.06099999926066736,0.06099999926066736,-0.24399999704266945
0.6036644577980042,-0.03429454565048218,9.747982025146484,0.03929999843239784,-0.00969999935477972,-0.05269999802112579,-0.12199999852133472,0.1830000044521087,-0.06099999926066736
0.6052637696266174,-0.033710360527038574,9.771656036376953,0.03959999978542328,-0.00930000003427267,-0.02329999953508377,0,0.12199999852133472,-0.12199999852133472
0.6058958172798157,-0.006138733588159084,9.779192924499512,0.039799999445676804,0.010099999606609344,-0.013499999418854713,-0.06099999926066736,0.12199999852133472,-0.06099999926066736
0.5789849758148193,-0.0034955344162881374,9.768621444702148,0.010699999518692493,0.010300000198185444,-0.02329999953508377,0,0.12199999852133472,-0.06099999926066736
0.5682015419006348,-0.034208353608846664,9.779029846191406,0.0011999999405816197,-0.009200000204145908,-0.013499999418854713,0.06099999926066736,0.06099999926066736,-0.12199999852133472
0.5897014737129211,-0.02208411507308483,9.797150611877441,0.020800000056624413,0.00029999998514540493,0.006000000052154064,-0.06099999926066736,0.12199999852133472,-0.06099999926066736
0.6085869073867798,-0.019852720201015472,9.795377731323242,0.04050000011920929,0.0004999999655410647,-0.003700000001117587,0.06099999926066736,0.06099999926066736,0
0.6095158457756042,-0.03538630157709122,9.74307918548584,0.0405999980866909,-0.009399999864399433,-0.05269999802112579,-0.06099999926066736,0.1830000044521087,-0.06099999926066736
0.6067003011703491,-0.04127603769302368,9.772920608520508,0.04089999943971634,-0.01899999938905239,-0.02329999953508377,0,0.24399999704266945,-0.06099999926066736
0.5901802778244019,-0.03993528336286545,9.773763656616211,0.022099999710917473,-0.01899999938905239,-0.023399999365210533,0.12199999852133472,0.12199999852133472,0
0.5770504474639893,-0.024823084473609924,9.767577171325684,0.012600000016391277,0.00019999999494757503,-0.03319999948143959,0.12199999852133472,0.12199999852133472,-0.12199999852133472
0.6047466397285461,-0.024554934352636337,9.762041091918945,0.0421999990940094,-0.00009999999747378752,-0.03319999948143959,0,0.24399999704266945,-0.12199999852133472
0.6048519611358643,-0.04824795201420784,9.784297943115234,0.042899999767541885,-0.029500000178813934,-0.013599999248981476,-0.06099999926066736,0.06099999926066736,0.06099999926066736
0.605206310749054,-0.04350743442773819,9.796881675720215,0.03309999778866768,-0.00969999935477972,-0.013599999248981476,0.06099999926066736,0.06099999926066736,-0.06099999926066736
0.5759874582290649,-0.019086576998233795,9.778417587280273,0.042899999767541885,-0.019500000402331352,-0.0037999998312443495,0.06099999926066736,0.12199999852133472,-0.06099999926066736
0.615472674369812,-0.0393415205180645,9.769587516784668,0.05299999937415123,-0.01979999989271164,-0.023499999195337296,0.06099999926066736,0.12199999852133472,0.06099999926066736
0.5799810290336609,-0.01357991248369217,9.77387809753418,0.0139999995008111,0.00930000003427267,-0.023499999195337296,0,0.12199999852133472,-0.06099999926066736
0.5865411162376404,-0.00033518823329359293,9.780447959899902,0.024000000208616257,0.00930000003427267,-0.013700000010430813,-0.06099999926066736,0.12199999852133472,-0.12199999852133472
0.5856983661651611,-0.035625722259283066,9.791547775268555,0.02419999986886978,-0.009999999776482582,-0.0038999998942017555,0,0.06099999926066736,-0.12199999852133472
0.5979279279708862,-0.04458961263298988,9.780083656311035,0.03399999812245369,-0.01979999989271164,-0.013700000010430813,0,-0.06099999926066736,0
0.5949399471282959,-0.03995443880558014,9.782631874084473,0.03370000049471855,-0.019700000062584877,-0.013700000010430813,0.06099999926066736,0.12199999852133472,-0.12199999852133472
0.621764600276947,-0.03206314891576767,9.76437759399414,0.05350000038743019,-0.009999999776482582,-0.033299997448921204,0.06099999926066736,0,-0.1830000044521087
0.6147160530090332,-0.02436339482665062,9.782448768615723,0.05119999870657921,-0.00039999998989515007,-0.013499999418854713,-0.06099999926066736,0.12199999852133472,-0.06099999926066736
0.5938003659248352,-0.03736870363354683,9.778523445129395,0.030700000002980232,-0.009599999524652958,-0.013499999418854713,0,0.1830000044521087,0
0.6173880100250244,-0.040078938007354736,9.751660346984863,0.04969999939203262,-0.019099999219179153,-0.042899999767541885,0.06099999926066736,0.1830000044521087,0
0.5966255068778992,-0.0206188652664423,9.777786254882812,0.02969999983906746,0.00029999998514540493,-0.02319999970495701,0,0.12199999852133472,-0.12199999852133472
0.5990197062492371,-0.03533841669559479,9.779911994934082,0.028999999165534973,-0.009099999442696571,-0.013399999588727951,0.12199999852133472,0.12199999852133472,-0.06099999926066736
0.5904005765914917,-0.014279019087553024,9.761370658874512,0.018699999898672104,0.00989999994635582,-0.032999999821186066,-0.06099999926066736,0.06099999926066736,-0.12199999852133472
0.6120345592498779,-0.03367205336689949,9.773236274719238,0.03709999844431877,-0.009200000204145908,-0.023099999874830246,0,0.12199999852133472,-0.12199999852133472
0.5965105295181274,-0.03196737915277481,9.777929306030273,0.02630000002682209,-0.008799999952316284,-0.013199999928474426,-0.06099999926066736,0.12199999852133472,-0.06099999926066736
0.6028121113777161,-0.00839885976165533,9.789200782775879,0.02499999850988388,0.010300000198185444,-0.003399999812245369,-0.06099999926066736,0.12199999852133472,0.12199999852133472
0.5913487076759338,-0.03900633379817009,9.771129608154297,0.014800000004470348,-0.018299998715519905,-0.023000000044703484,0.12199999852133472,0.12199999852133472,-0.06099999926066736
0.5751830339431763,-0.023750480264425278,9.775314331054688,0.014299999922513962,-0.008499999530613422,0.006399999838322401,0,0,0
0.6100042462348938,-0.011415554210543633,9.797618865966797,0.003999999724328518,0.0011999999405816197,-0.02290000021457672,0.12199999852133472,0.1830000044521087,0
0.6162005066871643,-0.039274487644433975,9.76396656036377,0.03240000084042549,0.010699999518692493,0.0064999996684491634,0.06099999926066736,0.06099999926066736,0
0.5959838032722473,-0.021059399470686913,9.7836275100708,0.0210999995470047,0.0007999999797903001,-0.012899999506771564,0,0.06099999926066736,0.06099999926066736
0.6108470559120178,-0.017879897728562355,9.739151954650879,0.030399998649954796,0.010599999688565731,-0.06189999729394913,-0.12199999852133472,0.06099999926066736,-0.06099999926066736
0.5903047919273376,-0.02288856916129589,9.83633804321289,0.010499999858438969,0.0010999999940395355,0.035999998450279236,0.06099999926066736,0.06099999926066736,0
0.6244269609451294,-0.018684351816773415,9.783186912536621,0.04809999838471413,0.010400000028312206,-0.012799999676644802,0,0.06099999926066736,0
0.5938960909843445,-0.029592333361506462,9.77120590209961,0.01809999905526638,-0.008799999952316284,-0.022599998861551285,-0.06099999926066736,0.06099999926066736,-0.12199999852133472
0.6117089986801147,-0.023376986384391785,9.78707504272461,0.026899999007582664,0.0009999999310821295,-0.01269999984651804,0.06099999926066736,0.12199999852133472,-0.06099999926066736
0.5888587236404419,-0.020130448043346405,9.769482612609863,0.007199999876320362,0.0008999999845400453,-0.022499999031424522,0.06099999926066736,0.1830000044521087,0
0.6129443645477295,-0.044541727751493454,9.767873764038086,0.03610000014305115,-0.018400000408291817,-0.03229999914765358,-0.06099999926066736,0.12199999852133472,-0.06099999926066736
0.586799681186676,-0.025752034038305283,9.752388000488281,0.006599999964237213,0.0013000000035390258,-0.04209999740123749,0,0,-0.06099999926066736
0.592545747756958,-0.025321077555418015,9.776549339294434,0.006099999882280827,0.0013000000035390258,-0.022499999031424522,0.12199999852133472,0.06099999926066736,-0.06099999926066736
0.6063363552093506,-0.04090254381299019,9.785754203796387,0.024899998679757118,-0.017999999225139618,-0.012600000016391277,0.12199999852133472,0.06099999926066736,-0.06099999926066736
0.6158269643783569,-0.04358404874801636,9.772192001342773,0.033799998462200165,-0.017899999395012856,-0.022299999371170998,0,0.12199999852133472,0
0.5771941542625427,-0.026977865025401115,9.774174690246582,-0.005200000014156103,0.0015999999595806003,-0.02239999920129776,-0.06099999926066736,0,0
0.6243599057197571,-0.04156334325671196,9.741020202636719,0.042799998074769974,-0.017500000074505806,-0.05169999971985817,-0.06099999926066736,0.1830000044521087,-0.06099999926066736
0.6017299294471741,-0.05350561812520027,9.795090675354004,0.012999999336898327,-0.025999998673796654,-0.002699999837204814,-0.12199999852133472,0.06099999926066736,-0.12199999852133472
0.6075525879859924,-0.030913932248950005,9.773447036743164,0.022199999541044235,-0.0058999997563660145,-0.022199999541044235,0.12199999852133472,0.1830000044521087,-0.06099999926066736
0.5899983644485474,-0.036621708422899246,9.765220642089844,0.012399999424815178,0.003399999812245369,-0.03199999779462814,0,0.12199999852133472,-0.06099999926066736
0.5950740575790405,-0.026154259219765663,9.756390571594238,0.0024999999441206455,-0.006099999882280827,-0.03199999779462814,0,0.12199999852133472,0
0.6133274435997009,-0.03747404366731644,9.792284965515137,0.012199999764561653,0.003599999938160181,-0.04179999977350235,0.06099999926066736,0.12199999852133472,-0.12199999852133472
0.5748860836029053,-0.05933789536356926,9.790579795837402,0.030299998819828033,-0.005499999970197678,-0.0024999999441206455,0,0.06099999926066736,-0.24399999704266945
0.6060490608215332,-0.03854664787650108,9.778428077697754,-0.008499999530613422,-0.033799998462200165,-0.0024999999441206455,-0.06099999926066736,0.06099999926066736,0
0.6108853816986084,-0.002758120186626911,9.776569366455078,0.019600000232458115,0.015399999916553497,-0.022099999710917473,0.06099999926066736,0,-0.06099999926066736
0.6166601777076721,-0.04341166839003563,9.785772323608398,0.028299998492002487,-0.013700000010430813,-0.012199999764561653,-0.06099999926066736,0.06099999926066736,-0.06099999926066736
0.6051584482192993,-0.04287536069750786,9.745569229125977,0.01809999905526638,-0.013299999758601189,-0.05139999836683273,-0.06099999926066736,0.12199999852133472,-0.06099999926066736
0.5822315812110901,-0.028347346931695938,9.793932914733887,-0.010799999348819256,0.006199999712407589,-0.0023999998811632395,-0.06099999926066736,0.12199999852133472,0
0.6177327632904053,-0.023147141560912132,9.780179977416992,0.027699999511241913,0.006199999712407589,-0.012199999764561653,-0.06099999926066736,0,0
0.6070546507835388,-0.020810401067137718,9.760709762573242,0.01730000041425228,0.006300000008195639,-0.03179999813437462,0.06099999926066736,0,-0.12199999852133472
0.5887054204940796,-0.03769431263208389,9.787774085998535,-0.0023999998811632395,-0.003399999812245369,-0.002300000051036477,-0.06099999926066736,0.1830000044521087,-0.12199999852133472
0.6017682552337646,-0.044896069914102554,9.75698471069336,0.0072999997064471245,-0.012899999506771564,-0.04149999842047691,-0.1830000044521087,0,-0.12199999852133472
0.6138924360275269,-0.028682537376880646,9.78397274017334,0.02669999934732914,0.0071000000461936,-0.01209999993443489,-0.12199999852133472,0.06099999926066736,0.06099999926066736
0.593742847442627,-0.012095506303012371,9.782602310180664,-0.002699999837204814,0.01730000041425228,-0.01209999993443489,-0.1830000044521087,0.12199999852133472,-0.1830000044521087
0.5781230926513672,-0.03651636466383934,9.770977020263672,-0.012399999424815178,-0.0016999999061226845,-0.021900000050663948,0,0.12199999852133472,0
0.6179338693618774,-0.020695479586720467,9.758727073669434,0.02669999934732914,0.007999999448657036,-0.04149999842047691,0,0.06099999926066736,-0.06099999926066736
0.5883128046989441,-0.04747223109006882,9.760058403015137,-0.00279999990016222,-0.011500000022351742,-0.031700000166893005,-0.06099999926066736,0.12199999852133472,0.06099999926066736
0.6076005101203918,-0.0267767533659935,9.782564163208008,0.016699999570846558,0.008299999870359898,-0.01209999993443489,0,0.12199999852133472,-0.06099999926066736
0.5841756463050842,-0.019067423418164253,9.7454833984375,-0.01249999925494194,0.01809999905526638,-0.05130000039935112,-0.06099999926066736,0.1830000044521087,-0.06099999926066736
0.5775963664054871,-0.025368960574269295,9.774672508239746,-0.012299999594688416,0.00839999970048666,-0.021900000050663948,-0.06099999926066736,0.12199999852133472,0
0.5921531319618225,-0.04132392257452011,9.766705513000488,0.007199999876320362,-0.0010999999940395355,-0.04149999842047691,0,0.06099999926066736,-0.12199999852133472
0.5852769613265991,-0.021212628111243248,9.800434112548828,-0.0026000000070780516,-0.010799999348819256,-0.031700000166893005,0.12199999852133472,0.12199999852133472,-0.1830000044521087
0.5991441607475281,-0.04539406672120094,9.792160034179688,-0.00279999990016222,0.008499999530613422,0.007400000002235174,0,0.12199999852133472,-0.12199999852133472
0.5814845561981201,-0.019115306437015533,9.788818359375,-0.01249999925494194,0.017999999225139618,-0.002300000051036477,0,0,0
0.5833998918533325,-0.037713468074798584,9.764473915100098,-0.012600000016391277,-0.001500000013038516,-0.031700000166893005,0.06099999926066736,0,-0.12199999852133472
0.6112300753593445,-0.034352004528045654,9.769865036010742,0.01599999889731407,-0.0015999999595806003,-0.021900000050663948,0,0.24399999704266945,-0.06099999926066736
0.5707297921180725,-0.0071826050989329815,9.745981216430664,-0.022499999031424522,0.017799999564886093,-0.05130000039935112,-0.06099999926066736,0.06099999926066736,-0.06099999926066736
0.5960891842842102,-0.037521932274103165,9.790627479553223,0.006399999838322401,-0.001500000013038516,-0.002300000051036477,0.06099999926066736,0.12199999852133472,0
0.5868858695030212,-0.02841438539326191,9.779509544372559,-0.0031999999191612005,0.007899999618530273,-0.01209999993443489,-0.06099999926066736,0.1830000044521087,0
0.5962710976600647,-0.03620990738272667,9.768447875976562,0.006599999964237213,-0.0015999999595806003,-0.021900000050663948,-0.06099999926066736,0.06099999926066736,-0.06099999926066736
0.6079739928245544,-0.013675680384039879,9.769636154174805,0.01589999906718731,0.017799999564886093,-0.021900000050663948,0.06099999926066736,0,0.06099999926066736
0.611929178237915,-0.020465634763240814,9.769865036010742,0.01529999915510416,0.007799999788403511,-0.021800000220537186,0.12199999852133472,0.12199999852133472,0
0.579004168510437,-0.03393062576651573,9.818534851074219,-0.013700000010430813,-0.002199999988079071,0.01730000041425228,-0.06099999926066736,0.24399999704266945,-0.06099999926066736
0.6262657046318054,-0.0344860814511776,9.782937049865723,0.03460000082850456,-0.001999999862164259,-0.012000000104308128,0,0.06099999926066736,-0.06099999926066736
0.5958592891693115,-0.024420855566859245,9.790762901306152,0.004799999762326479,0.007499999832361937,-0.002199999988079071,-0.06099999926066736,0.24399999704266945,0
0.5681440234184265,-0.04932055622339249,9.786222457885742,-0.023599999025464058,-0.0210999995470047,-0.012000000104308128,-0.06099999926066736,0.24399999704266945,-0.06099999926066736
0.5844150185585022,-0.03179499879479408,9.771570205688477,-0.003499999875202775,-0.0013000000035390258,-0.021900000050663948,0.06099999926066736,0,0
0.6046987175941467,-0.03805823251605034,9.752359390258789,0.015399999916553497,-0.00139999995008111,-0.0414000004529953,0.06099999926066736,0.1830000044521087,0.06099999926066736
0.6239480972290039,-0.029046455398201942,9.768974304199219,0.03460000082850456,-0.001500000013038516,-0.021800000220537186,0.06099999926066736,0.1830000044521087,0
0.5964339375495911,-0.022859837859869003,9.782143592834473,0.005200000014156103,0.007899999618530273,-0.012000000104308128,0,0,0
0.5848747491836548,-0.030913932248950005,9.788435935974121,-0.004600000102072954,-0.0016999999061226845,-0.002199999988079071,-0.06099999926066736,0.1830000044521087,-0.12199999852133472
0.5816856622695923,-0.02812708169221878,9.780189514160156,0.0050999997183680534,0.007999999448657036,-0.021800000220537186,-0.06099999926066736,0.12199999852133472,-0.06099999926066736
0.5944515466690063,-0.02443043328821659,9.751880645751953,-0.0139999995008111,0.007999999448657036,-0.012000000104308128,-0.06099999926066736,0,0
0.5949974656105042,-0.00893516093492508,9.780707359313965,0.005399999674409628,0.007799999788403511,-0.0414000004529953,0.06099999926066736,0.06099999926066736,-0.06099999926066736
0.6026780605316162,-0.02232353575527668,9.80771255493164,0.004799999762326479,0.0072999997064471245,0.01730000041425228,0.06099999926066736,0.24399999704266945,0.06099999926066736
0.6156545877456665,-0.015744270756840706,9.779557228088379,0.02410000003874302,0.016599999740719795,-0.012000000104308128,0.12199999852133472,0.06099999926066736,-0.06099999926066736
0.6067481637001038,-0.023779211565852165,9.781798362731934,0.013899999670684338,0.006300000008195639,-0.011899999342858791,-0.06099999926066736,0.06099999926066736,0.06099999926066736
0.588753342628479,-0.044398076832294464,9.766695022583008,-0.005699999630451202,-0.012799999676644802,-0.03150000050663948,0.06099999926066736,0.06099999926066736,-0.06099999926066736
0.6325768232345581,-0.0454898327589035,9.769779205322266,0.04230000078678131,-0.01269999984651804,-0.021699998527765274,0.06099999926066736,0,-0.12199999852133472
0.6300677061080933,-0.05657019838690758,9.757157325744629,0.03179999813437462,-0.02239999920129776,-0.04129999876022339,0,0.06099999926066736,0
0.5888778567314148,-0.03936067596077919,9.800108909606934,-0.0072999997064471245,-0.012199999764561653,0.007699999958276749,-0.06099999926066736,0.12199999852133472,-0.06099999926066736
0.6188724637031555,-0.028653806075453758,9.780562400817871,0.02149999886751175,0.0072999997064471245,-0.011799999512732029,0.06099999926066736,0.1830000044521087,-0.06099999926066736
0.6047945022583008,-0.027619510889053345,9.762500762939453,0.011699999682605267,0.0071000000461936,-0.03139999881386757,0.12199999852133472,0.1830000044521087,0
0.6041049957275391,-0.048209644854068756,9.795272827148438,0.011500000022351742,-0.021800000220537186,-0.001999999862164259,0.12199999852133472,0,0
0.6299335956573486,-0.02092532441020012,9.761600494384766,0.030399998649954796,0.007199999876320362,-0.03139999881386757,0,0.24399999704266945,0
0.5884565114974976,-0.03260902687907219,9.781769752502441,-0.008200000040233135,-0.0023999998811632395,-0.011799999512732029,0.12199999852133472,0.24399999704266945,-0.06099999926066736
0.5908411145210266,-0.005372588522732258,9.776463508605957,-0.007699999958276749,0.016499999910593033,-0.02159999869763851,0,0.12199999852133472,-0.06099999926066736
0.6126378774642944,-0.04519294947385788,9.779585838317871,0.011500000022351742,-0.01249999925494194,-0.011799999512732029,0,0.24399999704266945,0
0.5965201258659363,-0.03803907707333565,9.738663673400879,0.001999999862164259,-0.0026000000070780516,-0.06079999729990959,-0.06099999926066736,0.1830000044521087,0
0.6182403564453125,-0.015303737483918667,9.777814865112305,0.02149999886751175,0.01679999940097332,-0.02159999869763851,-0.06099999926066736,0.06099999926066736,-0.12199999852133472
0.5933214426040649,-0.013024456799030304,9.79535961151123,-0.007799999788403511,0.016499999910593033,-0.001999999862164259,0.06099999926066736,0.1830000044521087,-0.24399999704266945
0.5921435356140137,-0.036956898868083954,9.811850547790527,0.02149999886751175,0.006399999838322401,-0.041200000792741776,0,0.12199999852133472,-0.06099999926066736
0.6096786260604858,-0.05135083943605423,9.773188591003418,-0.007599999662488699,-0.0031999999191612005,0.017500000074505806,-0.06099999926066736,0.12199999852133472,-0.1830000044521087
0.5942408442497253,-0.02445916458964348,9.753202438354492,0.012000000104308128,-0.02239999920129776,-0.02159999869763851,-0.06099999926066736,0,-0.06099999926066736
0.614725649356842,-0.038048651069402695,9.794421195983887,0.002199999988079071,0.00699999975040555,-0.041200000792741776,0.06099999926066736,0.1830000044521087,-0.12199999852133472
0.6050243377685547,-0.0201400239020586,9.760767936706543,0.010999999940395355,0.0071000000461936,-0.03139999881386757,0,0.12199999852133472,0
0.6079356670379639,-0.03563529998064041,9.805232048034668,0.010799999348819256,-0.0024999999441206455,0.007799999788403511,-0.12199999852133472,0,-0.06099999926066736
0.5945281386375427,-0.023894133046269417,9.772451400756836,0.000699999975040555,0.007400000002235174,-0.02149999886751175,0,0.24399999704266945,-0.06099999926066736
0.606623649597168,-0.02770570106804371,9.757147789001465,0.010699999518692493,0.007400000002235174,-0.041200000792741776,-0.06099999926066736,0.12199999852133472,0
0.6242066621780396,-0.0101322615519166,9.759493827819824,0.029999999329447746,0.01719999872148037,-0.031300000846385956,0.06099999926066736,0.24399999704266945,0
0.6137775182723999,-0.03483084589242935,9.767921447753906,0.02019999921321869,-0.0023999998811632395,-0.031300000846385956,0,-0.06099999926066736,0
0.5920094847679138,-0.012909535318613052,9.767021179199219,-0.009499999694526196,0.016899999231100082,-0.031300000846385956,-0.12199999852133472,0.12199999852133472,-0.06099999926066736
0.5998337268829346,-0.03424666076898575,9.790733337402344,0.00029999998514540493,-0.002199999988079071,-0.0018999999156221747,0.12199999852133472,0.06099999926066736,-0.06099999926066736
0.6128294467926025,-0.028797458857297897,9.77202033996582,0.00969999935477972,-0.0023999998811632395,-0.02149999886751175,0,0.1830000044521087,0
0.5931107997894287,-0.044321462512016296,9.77348518371582,-0.009399999864399433,-0.012000000104308128,-0.02149999886751175,0,0.24399999704266945,0
0.6277117729187012,-0.04024174064397812,9.799113273620605,0.029399998486042023,-0.011699999682605267,0.007799999788403511,-0.06099999926066736,0.1830000044521087,-0.06099999926066736
0.5963477492332458,-0.036267369985580444,9.782670021057129,0.00009999999747378752,-0.0016999999061226845,-0.011699999682605267,-0.12199999852133472,0.12199999852133472,0.06099999926066736
0.595581591129303,-0.03389231860637665,9.77143669128418,0.00019999999494757503,-0.0013000000035390258,-0.02149999886751175,0.06099999926066736,0.1830000044521087,-0.12199999852133472
0.6140744090080261,-0.023099258542060852,9.766005516052246,0.019700000062584877,0.008200000040233135,-0.031300000846385956,0.12199999852133472,0,0
0.6197055578231812,0.002758120186626911,9.754963874816895,0.019199999049305916,0.017500000074505806,-0.041099999099969864,0.06099999926066736,0.1830000044521087,0
0.6235171556472778,-0.02756205014884472,9.776761054992676,0.028699999675154686,0.007499999832361937,-0.02149999886751175,0.06099999926066736,0.12199999852133472,0
0.5833807587623596,-0.0299754049628973,9.771502494812012,-0.019999999552965164,-0.002300000051036477,-0.02149999886751175,0,0.1830000044521087,-0.1830000044521087
0.5927181243896484,-0.008408436551690102,9.76565170288086,-0.00009999999747378752,0.007199999876320362,0.007799999788403511,-0.06099999926066736,0.24399999704266945,0
0.5981769561767578,-0.035903450101614,9.781722068786621,-0.009999999776482582,0.016699999570846558,-0.031300000846385956,0.12199999852133472,0.12199999852133472,0
0.5928714275360107,-0.028395231813192368,9.766772270202637,-0.009499999694526196,0.006799999624490738,-0.031300000846385956,0,0.06099999926066736,-0.06099999926066736
0.5998624563217163,-0.005659893155097961,9.76925277709961,0,0.01640000008046627,-0.02149999886751175,0,0,-0.12199999852133472
0.6056085228919983,-0.03553953021764755,9.770344734191895,0.009399999864399433,-0.0030999998562037945,-0.02149999886751175,-0.12199999852133472,0.24399999704266945,-0.06099999926066736
0.6274436712265015,-0.04008851200342178,9.769501686096191,0.02879999950528145,-0.012299999594688416,-0.02149999886751175,0,0.1830000044521087,-0.12199999852133472
0.6096978187561035,-0.023003490641713142,9.754006385803223,0.00930000003427267,0.0071000000461936,-0.041099999099969864,0.12199999852133472,0.12199999852133472,-0.12199999852133472
0.589720606803894,-0.01188481692224741,9.761964797973633,-0.010099999606609344,0.01640000008046627,-0.031300000846385956,0,-0.06099999926066736,-0.06099999926066736
0.5886576175689697,-0.04873637109994888,9.784987449645996,-0.010300000198185444,-0.022199999541044235,-0.011699999682605267,0.06099999926066736,0.06099999926066736,0
0.6094105243682861,-0.03841257095336914,9.772126197814941,0.008899999782443047,-0.012299999594688416,-0.021399999037384987,-0.12199999852133472,0.3049999896332302,-0.06099999926066736
0.6162770986557007,-0.03002328798174858,9.76085376739502,0.019299998879432678,-0.002199999988079071,-0.031300000846385956,0.12199999852133472,0.24399999704266945,-0.06099999926066736
0.6336494088172913,-0.04860229417681694,9.758862495422363,0.03920000046491623,-0.02199999988079071,-0.031300000846385956,0,0.1830000044521087,0
0.6027354598045349,-0.029793445020914078,9.78068733215332,0.00009999999747378752,-0.0023999998811632395,-0.011699999682605267,-0.12199999852133472,0.24399999704266945,0
