Accelerometer_Gx,Accelerometer_Gy,Accelerometer_Gz,Accelerometer_X,Accelerometer_Y,Accelerometer_Z,Gyroscope_Z,Gyroscope_X,Gyroscope_Y
0.6011170148849487,-0.011913547292351723,9.77322769165039,0.00279999990016222,-0.00699999975040555,-0.020499998703598976,-0.12199999852133472,0.12199999852133472,0
0.6253942251205444,-0.0114921685308218,9.750798225402832,0.00279999990016222,-0.00699999975040555,-0.020499998703598976,-0.12199999852133472,0.06099999926066736,-0.06099999926066736
0.6322512030601501,-0.005612008739262819,9.799420356750488,0.0005999999702908099,0,0.010199999436736107,0,0,0
0.623086154460907,-0.023281218484044075,9.764962196350098,-0.008200000040233135,-0.008599999360740185,-0.028999999165534973,-0.12199999852133472,0.12199999852133472,-0.12199999852133472
0.6277022361755371,-0.02402820810675621,9.780113220214844,-0.005399999674409628,-0.005399999674409628,-0.009499999694526196,-0.06099999926066736,0.3049999896332302,-0.06099999926066736
0.6271180510520935,-0.03614286705851555,9.785955429077148,-0.003700000001117587,-0.012899999506771564,-0.009599999524652958,0,0.1830000044521087,0
0.6001880764961243,-0.049588706344366074,9.75904369354248,-0.025299999862909317,-0.024699999019503593,-0.02969999983906746,0.06099999926066736,0.06099999926066736,0
0.6179530620574951,-0.031814150512218475,9.779470443725586,-0.003399999812245369,-0.003000000026077032,-0.010300000198185444,0,-0.06099999926066736,-0.06099999926066736
0.6326438784599304,-0.016931794583797455,9.748327255249023,0.012299999594688416,0.013299999758601189,-0.049300000071525574,0.06099999926066736,0.12199999852133472,-0.12199999852133472
0.6041145920753479,-0.044110771268606186,9.775956153869629,-0.01119999960064888,-0.010499999858438969,-0.02019999921321869,0.12199999852133472,0.06099999926066736,0
0.6241108775138855,0.0034668040461838245,9.780094146728516,-0.0011999999405816197,-0.0005999999702908099,-0.02019999921321869,-0.06099999926066736,0.12199999852133472,-0.06099999926066736
0.6241108775138855,0.0034668040461838245,9.780094146728516,0.004600000102072954,0.010499999858438969,-0.010199999436736107,0.06099999926066736,0.06099999926066736,0.12199999852133472
0.5970660448074341,-0.0017525556031614542,9.777632713317871,-0.014699999243021011,0.0064999996684491634,-0.020600000396370888,0.06099999926066736,0.06099999926066736,0.12199999852133472
0.6293398141860962,-0.025991452857851982,9.765987396240234,-0.014699999243021011,0.0064999996684491634,-0.020600000396370888,0,0.12199999852133472,0.06099999926066736
0.6218220591545105,-0.021806389093399048,9.782373428344727,0,-0.0011999999405816197,-0.010499999858438969,-0.06099999926066736,0.06099999926066736,-0.06099999926066736
0.6310062408447266,-0.02327164076268673,9.774624824523926,0.006099999882280827,-0.000699999975040555,-0.020099999383091927,0.06099999926066736,0.1830000044521087,0.06099999926066736
0.6256145238876343,-0.021595699712634087,9.740741729736328,0.004699999932199717,-0.000699999975040555,-0.04939999803900719,0.06099999926066736,0.1830000044521087,-0.06099999926066736
0.6122356653213501,-0.006598419509828091,9.782305717468262,-0.008100000210106373,0.004799999762326479,-0.010599999688565731,0.12199999852133472,0,-0.06099999926066736
0.6262178421020508,-0.026738446205854416,9.744420051574707,0.00839999970048666,-0.00419999985024333,-0.04959999769926071,0,0.12199999852133472,-0.06099999926066736
0.5996326208114624,-0.022811954841017723,9.749801635742188,-0.01599999889731407,-0.0030999998562037945,-0.04010000079870224,0.06099999926066736,-0.06099999926066736,0.06099999926066736
0.6418663263320923,-0.020657172426581383,9.76761531829834,0.03280000016093254,-0.0032999999821186066,-0.030299998819828033,0.06099999926066736,0.06099999926066736,-0.06099999926066736
0.6165452003479004,-0.027140671387314796,9.776838302612305,0.003499999875202775,-0.003499999875202775,-0.020499998703598976,0.06099999926066736,0.1830000044521087,-0.06099999926066736
0.6135094165802002,-0.042243294417858124,9.776780128479004,0.0038999998942017555,-0.02319999970495701,-0.020600000396370888,0.06099999926066736,0.1830000044521087,-0.06099999926066736
0.6156641840934753,-0.03184288367629051,9.745051383972168,0.0044999998062849045,-0.013599999248981476,-0.04999999701976776,0,0.06099999926066736,0.06099999926066736
0.6442700624465942,-0.01967076025903225,9.757770538330078,0.03399999812245369,-0.003700000001117587,-0.04019999876618385,0,0.12199999852133472,-0.06099999926066736
0.6048998236656189,-0.021863849833607674,9.77383041381836,-0.004799999762326479,-0.003700000001117587,-0.020600000396370888,0.06099999926066736,0.06099999926066736,-0.06099999926066736
0.6389645338058472,-0.02068590372800827,9.762166023254395,0.024699999019503593,-0.0038999998942017555,-0.030399998649954796,0,0.12199999852133472,0
0.6197055578231812,-0.032905906438827515,9.750885009765625,0.0052999998442828655,-0.013700000010430813,-0.040300000458955765,0.12199999852133472,0.06099999926066736,-0.06099999926066736
0.6206440925598145,-0.022476764395833015,9.770918846130371,0.005499999970197678,-0.004299999680370092,-0.02070000022649765,-0.06099999926066736,0.1830000044521087,0
0.6259496212005615,-0.01259350124746561,9.767212867736816,0.015699999406933784,0.005399999674409628,-0.030499998480081558,-0.06099999926066736,0.06099999926066736,0.06099999926066736
0.6259496212005615,-0.01259350124746561,9.767212867736816,0.015699999406933784,0.005399999674409628,-0.030499998480081558,-0.06099999926066736,0.06099999926066736,0.06099999926066736
0.614955484867096,-0.033825282007455826,9.771062850952148,0.006000000052154064,-0.013899999670684338,-0.02070000022649765,0,0.06099999926066736,0
0.6140169501304626,-0.013675680384039879,9.753220558166504,-0.003499999875202775,-0.013799999840557575,-0.02070000022649765,-0.06099999926066736,0,-0.06099999926066736
0.5856313109397888,-0.044398076832294464,9.789344787597656,-0.022699998691678047,-0.023000000044703484,-0.0010999999940395355,0,-0.06099999926066736,0
0.6380930542945862,-0.027054479345679283,9.77365779876709,0.02589999884366989,-0.003399999812245369,-0.02070000022649765,0.06099999926066736,-0.06099999926066736,0
0.5990197062492371,-0.02872084453701973,9.746450424194336,0.02589999884366989,-0.003399999812245369,-0.02070000022649765,0.06099999926066736,-0.06099999926066736,0
0.6046221256256104,-0.018253393471240997,9.801958084106445,-0.0031999999191612005,0.006099999882280827,0.008599999360740185,0.06099999926066736,0.12199999852133472,0
0.6261124610900879,-0.027198132127523422,9.778428077697754,0.016499999910593033,-0.0037999998312443495,-0.010900000110268593,0,0.06099999926066736,-0.12199999852133472
0.6293111443519592,-0.03118208236992359,9.75649642944336,0.026200000196695328,0.0058999997563660145,-0.02070000022649765,0,0.12199999852133472,0
0.6293111443519592,-0.03118208236992359,9.75649642944336,0.016499999910593033,-0.013700000010430813,-0.040300000458955765,0,0.12199999852133472,0
0.6057617664337158,-0.01023760624229908,9.743979454040527,-0.0026000000070780516,0.005799999926239252,-0.050200000405311584,-0.06099999926066736,0.12199999852133472,0.06099999926066736
0.6231532692909241,-0.026173412799835205,9.79067611694336,0.01679999940097332,-0.003700000001117587,-0.0010999999940395355,0.06099999926066736,0.12199999852133472,0
0.6267158389091492,-0.04282747954130173,9.768352508544922,0.016999999061226845,-0.02329999953508377,-0.020800000056624413,0.12199999852133472,0.1830000044521087,-0.06099999926066736
0.6109236478805542,-0.027217285707592964,9.78046703338623,-0.002099999925121665,-0.003999999724328518,-0.010999999940395355,0,0.12199999852133472,0.06099999926066736
0.6372503042221069,-0.017171215265989304,9.768094062805176,0.027400000020861626,0.005699999630451202,-0.03059999831020832,0,0.1830000044521087,-0.06099999926066736
0.6171485781669617,-0.025206156075000763,9.76228141784668,0.008299999870359898,-0.003999999724328518,-0.03059999831020832,0,0.06099999926066736,-0.06099999926066736
0.6451128721237183,-0.04189852997660637,9.75517463684082,0.03759999945759773,-0.023499999195337296,-0.04039999842643738,0,0.06099999926066736,-0.12199999852133472
0.6277309656143188,-0.0127946138381958,9.794861793518066,0.01769999973475933,0.005699999630451202,-0.0011999999405816197,0.12199999852133472,0.06099999926066736,-0.06099999926066736
0.6156545877456665,-0.013532028533518314,9.776761054992676,0.007899999618530273,0.0052999998442828655,-0.020800000056624413,0.06099999926066736,0.1830000044521087,-0.1830000044521087
0.6173305511474609,-0.014058751985430717,9.771590232849121,0.001999999862164259,0.007899999618530273,-0.020399998873472214,0.06099999926066736,0.24399999704266945,0
0.6025152206420898,-0.017448943108320236,9.765507698059082,-0.026899999007582664,-0.011399999260902405,-0.04989999905228615,0.06099999926066736,0.06099999926066736,-0.12199999852133472
0.6283151507377625,-0.01748725026845932,9.767624855041504,0.011399999260902405,0.003399999812245369,-0.03019999898970127,0.06099999926066736,0.06099999926066736,-0.06099999926066736
0.608788013458252,-0.03516603633761406,9.767882347106934,0.011399999260902405,0.003399999812245369,-0.03019999898970127,0.06099999926066736,0,0
0.6113450527191162,-0.016194378957152367,9.774807929992676,-0.006099999882280827,-0.011299999430775642,-0.030299998819828033,0.06099999926066736,0.1830000044521087,0
0.616468608379364,-0.005688623525202274,9.747005462646484,-0.004399999976158142,0.005200000014156103,-0.020600000396370888,0.06099999926066736,0.1830000044521087,0
0.6098702549934387,-0.02441127970814705,9.781798362731934,-0.003499999875202775,-0.003399999812245369,-0.010900000110268593,-0.12199999852133472,-0.06099999926066736,0.06099999926066736
0.5795882940292358,-0.01952710933983326,9.784527778625488,-0.020999999716877937,-0.0017999999690800905,-0.011599999852478504,0,0.12199999852133472,0
0.6253654956817627,-0.020254945382475853,9.770651817321777,0.01899999938905239,-0.0011999999405816197,-0.020899999886751175,0.06099999926066736,0.06099999926066736,-0.06099999926066736
0.6190735697746277,-0.028491001576185226,9.764789581298828,0.006300000008195639,-0.0009999999310821295,-0.030499998480081558,0.06099999926066736,0.06099999926066736,-0.12199999852133472
0.602620542049408,-0.027150247246026993,9.765642166137695,-0.00989999994635582,-0.0008999999845400453,-0.030700000002980232,0.06099999926066736,0.06099999926066736,-0.1830000044521087
0.6163728833198547,-0.021720197051763535,9.75663948059082,0,0.008700000122189522,-0.030700000002980232,0,0.06099999926066736,0.06099999926066736
0.6163728833198547,-0.021720197051763535,9.75663948059082,0.00969999935477972,-0.0010999999940395355,-0.04050000011920929,0,0.06099999926066736,0.06099999926066736
0.6486371755599976,-0.04553771764039993,9.748701095581055,0.03929999843239784,-0.02070000022649765,-0.0502999983727932,0,0.1830000044521087,-0.06099999926066736
0.6167750954627991,-0.015514426864683628,9.769492149353027,0.010300000198185444,0.008599999360740185,-0.020899999886751175,0,0.06099999926066736,-0.06099999926066736
0.608040988445282,-0.03303998336195946,9.760547637939453,0.000699999975040555,-0.010900000110268593,-0.030799999833106995,0.12199999852133472,0,-0.12199999852133472
0.6202418804168701,-0.013895946554839611,9.790245056152344,0.010499999858438969,0.008299999870359898,-0.0013000000035390258,0.06099999926066736,0.06099999926066736,0.06099999926066736
0.6281619071960449,-0.053208738565444946,9.779260635375977,0.020399998873472214,-0.030899999663233757,-0.01119999960064888,0.12199999852133472,0,0
0.6142372488975525,-0.03497450053691864,9.767193794250488,0.010499999858438969,-0.011500000022351742,-0.030799999833106995,-0.06099999926066736,-0.06099999926066736,-0.12199999852133472
0.6273861527442932,0.0076327151618897915,9.770143508911133,0.020099999383091927,0.008100000210106373,-0.020899999886751175,0,0.12199999852133472,-0.06099999926066736
0.6324331760406494,-0.038134846836328506,9.785475730895996,0.020399998873472214,0.008100000210106373,-0.020999999716877937,0.06099999926066736,0.12199999852133472,-0.06099999926066736
0.6324331760406494,-0.038134846836328506,9.785475730895996,0.030299998819828033,-0.011500000022351742,-0.01119999960064888,-0.12199999852133472,0,0.06099999926066736
0.6286119818687439,-0.02648944780230522,9.767940521240234,0.010699999518692493,-0.020899999886751175,-0.05040000006556511,0.06099999926066736,0.06099999926066736,-0.06099999926066736
0.622636079788208,-0.030980970710515976,9.766437530517578,0.02070000022649765,-0.0013000000035390258,-0.030799999833106995,0.06099999926066736,0.06099999926066736,-0.06099999926066736
0.6467983722686768,-0.03192907199263573,9.77077579498291,0.020800000056624413,-0.01119999960064888,-0.030799999833106995,-0.06099999926066736,-0.06099999926066736,0.12199999852133472
0.6119866967201233,-0.0193164199590683,9.77828311920166,0.0405999980866909,-0.010999999940395355,-0.020999999716877937,0,0.06099999926066736,0.06099999926066736
0.6185084581375122,0.0027868507895618677,9.77312183380127,0.01119999960064888,0.008700000122189522,-0.020999999716877937,0.06099999926066736,0.06099999926066736,-0.06099999926066736
0.6302879452705383,-0.01909615285694599,9.762385368347168,0.020999999716877937,0.008499999530613422,-0.030799999833106995,0,0.12199999852133472,0
0.5899121761322021,-0.0076231383718550205,9.780007362365723,-0.01769999973475933,0.00839999970048666,-0.01119999960064888,-0.1830000044521087,0.12199999852133472,-0.12199999852133472
0.6108183264732361,-0.02656606212258339,9.77125358581543,-0.003000000026077032,-0.0008999999845400453,-0.02070000022649765,0,0.06099999926066736,0
0.5931586623191833,-0.0427795946598053,9.763736724853516,-0.013599999248981476,-0.011599999852478504,-0.031099999323487282,0,0,-0.06099999926066736
0.6112971901893616,-0.040557775646448135,9.762337684631348,0.0030999998562037945,-0.007400000002235174,-0.030899999663233757,-0.12199999852133472,0.12199999852133472,0.06099999926066736
0.600331723690033,-0.009500192478299141,9.752129554748535,-0.005200000014156103,0.01599999889731407,-0.04079999774694443,-0.06099999926066736,0.06099999926066736,-0.06099999926066736
0.619083046913147,-0.004232948645949364,9.773245811462402,0.008499999530613422,0.009999999776482582,-0.020800000056624413,-0.12199999852133472,0.06099999926066736,-0.06099999926066736
0.6163728833198547,-0.04168783873319626,9.749466896057129,0.005799999926239252,-0.0139999995008111,-0.040300000458955765,-0.06099999926066736,0.06099999926066736,0
0.6020363569259644,-0.014575900509953499,9.787506103515625,-0.006000000052154064,0.006799999624490738,-0.001500000013038516,0.06099999926066736,0,-0.06099999926066736
0.6248866319656372,0.0036200329195708036,9.749208450317383,0.017899999395012856,0.005200000014156103,-0.04039999842643738,0,0.06099999926066736,-0.06099999926066736
0.6135285496711731,-0.03444777429103851,9.772931098937988,0.0050999997183680534,-0.009599999524652958,-0.020600000396370888,0.12199999852133472,0.06099999926066736,-0.06099999926066736
0.5966063141822815,-0.015255853533744812,9.761811256408691,-0.010900000110268593,0.00699999975040555,-0.03059999831020832,-0.06099999926066736,0.06099999926066736,0.06099999926066736
0.6177710294723511,-0.03483084589242935,9.791241645812988,0.0037999998312443495,-0.005399999674409628,-0.0008999999845400453,0.06099999926066736,0.12199999852133472,0
0.6081081032752991,-0.01616564951837063,9.775784492492676,-0.00559999980032444,0.0139999995008111,-0.020600000396370888,0.06099999926066736,0.12199999852133472,-0.06099999926066736
0.6162195801734924,-0.019986795261502266,9.761783599853516,0.0044999998062849045,0.0038999998942017555,-0.030399998649954796,0.12199999852133472,-0.06099999926066736,-0.12199999852133472
0.6297899484634399,-0.07379887253046036,9.760576248168945,0.014099999330937862,0.013399999588727951,-0.010799999348819256,0.06099999926066736,-0.12199999852133472,-0.06099999926066736
0.6297899484634399,-0.07379887253046036,9.760576248168945,0.014499999582767487,-0.045499999076128006,-0.030399998649954796,0.06099999926066736,-0.12199999852133472,-0.06099999926066736
0.5853918790817261,-0.048544835299253464,9.7496976852417,-0.015199999324977398,-0.006399999838322401,-0.04019999876618385,0,0.06099999926066736,-0.06099999926066736
0.6033962965011597,-0.04755842313170433,9.782448768615723,-0.024699999019503593,-0.02589999884366989,-0.04019999876618385,0.06099999926066736,0,-0.06099999926066736
0.5985791683197021,-0.03061705268919468,9.742188453674316,-0.004900000058114529,-0.01599999889731407,-0.010799999348819256,0.06099999926066736,0,-0.06099999926066736
0.6294355988502502,-0.02602018415927887,9.748854637145996,0.014599999412894249,0.0031999999191612005,-0.04999999701976776,-0.06099999926066736,0,-0.06099999926066736
0.6078878045082092,-0.03703351318836212,9.794650077819824,-0.004900000058114529,-0.006300000008195639,-0.0009999999310821295,0.1830000044521087,-0.12199999852133472,-0.06099999926066736
0.6201460957527161,-0.036267369985580444,9.757349014282227,0.0044999998062849045,-0.0066999997943639755,-0.04019999876618385,0,0.12199999852133472,-0.06099999926066736
0.6143138408660889,-0.022859837859869003,9.770909309387207,0.004900000058114529,0.002899999963119626,-0.020600000396370888,0.06099999926066736,0.12199999852133472,0
0.6300485134124756,-0.03479253873229027,9.777948379516602,0.01489999983459711,-0.006899999920278788,-0.010799999348819256,-0.06099999926066736,0.1830000044521087,-0.12199999852133472
0.6212857961654663,-0.008082824759185314,9.755069732666016,0.00559999980032444,0.01269999984651804,-0.040300000458955765,0,0.1830000044521087,-0.12199999852133472
0.6105693578720093,-0.031028853729367256,9.769137382507324,-0.003599999938160181,-0.006799999624490738,-0.02070000022649765,-0.06099999926066736,0.06099999926066736,0
0.6067481637001038,-0.02942952699959278,9.757607460021973,-0.003399999812245369,-0.006599999964237213,-0.040300000458955765,0,0,0
0.6114407777786255,-0.02127966471016407,9.785274505615234,-0.003399999812245369,0.0030999998562037945,-0.010900000110268593,0.06099999926066736,0.12199999852133472,-0.06099999926066736
0.6192842125892639,-0.007891288958489895,9.773150444030762,0.006599999964237213,0.01269999984651804,-0.02070000022649765,-0.06099999926066736,0.06099999926066736,-0.06099999926066736
0.6009733080863953,-0.029113493859767914,9.769271850585938,-0.01269999984651804,-0.006599999964237213,-0.02070000022649765,0,0.12199999852133472,-0.12199999852133472
0.6219944357872009,-0.02881661243736744,9.753028869628906,0.0071000000461936,-0.006599999964237213,-0.04039999842643738,0.12199999852133472,0.06099999926066736,-0.06099999926066736
0.6159610748291016,-0.030674513429403305,9.764827728271484,0.007199999876320362,-0.006899999920278788,-0.03059999831020832,0,0,-0.06099999926066736
0.6153672933578491,-0.041343074291944504,9.746028900146484,0.007199999876320362,-0.016599999740719795,-0.050200000405311584,-0.06099999926066736,0,0
0.603683590888977,-0.02841438539326191,9.74930477142334,-0.0024999999441206455,0.003000000026077032,-0.04039999842643738,0.06099999926066736,0.1830000044521087,-0.06099999926066736
0.6129730939865112,-0.030339322984218597,9.746737480163574,0.007699999958276749,-0.006899999920278788,-0.050200000405311584,0,0,0
0.6152332425117493,-0.036008793860673904,9.779145240783691,0.007599999662488699,-0.006799999624490738,-0.04039999842643738,-0.06099999926066736,0.12199999852133472,-0.06099999926066736
0.6381601095199585,-0.01488235779106617,9.741327285766602,0.007699999958276749,-0.006599999964237213,-0.010999999940395355,0.12199999852133472,0,-0.12199999852133472
0.6084432601928711,0.0063781533390283585,9.77318000793457,-0.0017999999690800905,0.012600000016391277,-0.020800000056624413,0,0.1830000044521087,-0.06099999926066736
0.6033101081848145,-0.03303040564060211,9.78494930267334,-0.0017999999690800905,0.012600000016391277,-0.020800000056624413,0,0.06099999926066736,0
0.619083046913147,-0.02452620305120945,9.775602340698242,0.008700000122189522,0.00279999990016222,-0.020800000056624413,0.06099999926066736,0.06099999926066736,0.06099999926066736
0.6139020323753357,-0.027858929708600044,9.749371528625488,0.008799999952316284,0.002699999837204814,-0.04050000011920929,-0.06099999926066736,0.06099999926066736,0
0.6178860068321228,-0.02670971490442753,9.763649940490723,0.008899999782443047,0.002899999963119626,-0.030700000002980232,0,0.12199999852133472,0
0.6085677742958069,-0.03505111485719681,9.752963066101074,-0.0004999999655410647,-0.006799999624490738,-0.04050000011920929,0,0.12199999852133472,0
0.6199929118156433,-0.03952348232269287,9.773505210876465,0.009399999864399433,-0.016499999910593033,-0.020899999886751175,0,0,-0.06099999926066736
0.6461375951766968,-0.00529597420245409,9.778254508972168,0.03830000013113022,0.01269999984651804,-0.010999999940395355,0,0.12199999852133472,-0.12199999852133472
0.6313414573669434,-0.03923618048429489,9.758028030395508,0.018799999728798866,-0.016599999740719795,-0.04050000011920929,-0.06099999926066736,0.06099999926066736,0.06099999926066736
0.617455005645752,-0.0004979939549230039,9.758918762207031,0.009099999442696571,0.012799999676644802,-0.030700000002980232,0,0.1830000044521087,0
0.6213527917861938,-0.03063620626926422,9.762070655822754,0.009499999694526196,-0.006599999964237213,-0.030700000002980232,0,0,0
0.6184797286987305,-0.011731588281691074,9.799860000610352,0.00930000003427267,0.01269999984651804,0.00839999970048666,0.06099999926066736,0.12199999852133472,0.12199999852133472
0.59837806224823,-0.024449586868286133,9.783895492553711,-0.00969999935477972,0.002699999837204814,-0.011099999770522118,0.12199999852133472,0.06099999926066736,-0.12199999852133472
0.6148022413253784,-0.04784572497010231,9.753326416015625,0.00989999994635582,-0.016999999061226845,-0.04050000011920929,0,0.06099999926066736,0
0.6090179085731506,-0.026786329224705696,9.770593643188477,0.00019999999494757503,0.0024999999441206455,-0.020899999886751175,-0.12199999852133472,0.12199999852133472,-0.06099999926066736
0.6102437376976013,-0.03455311805009842,9.772528648376465,0.0004999999655410647,-0.006899999920278788,-0.020899999886751175,0.06099999926066736,0,0.06099999926066736
0.6274436712265015,-0.046524129807949066,9.747446060180664,0.019999999552965164,-0.016699999570846558,-0.05040000006556511,-0.12199999852133472,0.12199999852133472,-0.06099999926066736
0.6181350350379944,-0.014604630880057812,9.782238960266113,0.010400000028312206,-0.0064999996684491634,-0.020899999886751175,0.06099999926066736,0.06099999926066736,-0.06099999926066736
0.6071216464042664,-0.031172506511211395,9.792820930480957,0.010400000028312206,0.01269999984651804,-0.011099999770522118,0,0.1830000044521087,0.06099999926066736
0.6063172221183777,-0.02852930873632431,9.772183418273926,0.0010999999940395355,-0.0066999997943639755,-0.00139999995008111,0.06099999926066736,0.06099999926066736,-0.06099999926066736
0.6072174310684204,-0.036698322743177414,9.74956226348877,0.0010999999940395355,0.002699999837204814,-0.020999999716877937,0,0.12199999852133472,0
0.5924116969108582,-0.035367149859666824,9.762481689453125,0.0011999999405816197,-0.0071000000461936,-0.0405999980866909,0,0.12199999852133472,0
0.624043881893158,-0.0046447510831058025,9.760958671569824,0.021399999037384987,0.012199999764561653,-0.030799999833106995,0.06099999926066736,0.06099999926066736,0.06099999926066736
0.6270414590835571,-0.002308010356500745,9.780974388122559,0.021299999207258224,0.011799999512732029,-0.01119999960064888,0.06099999926066736,0.12199999852133472,-0.06099999926066736
0.6146011352539062,-0.007651868741959333,9.784671783447266,0.011500000022351742,0.011500000022351742,-0.01119999960064888,0.06099999926066736,0.06099999926066736,-0.06099999926066736
0.6175699234008789,-0.030444670468568802,9.781099319458008,0.011500000022351742,-0.008100000210106373,-0.01119999960064888,0.06099999926066736,0.12199999852133472,0
0.6260263323783875,-0.021605275571346283,9.78869342803955,0.0210999995470047,0.00139999995008111,-0.00139999995008111,0,0.06099999926066736,-0.06099999926066736
0.6265338659286499,-0.016836026683449745,9.778523445129395,0.020899999886751175,0.010999999940395355,-0.01119999960064888,0,0.1830000044521087,0.06099999926066736
0.6276639699935913,-0.013752294704318047,9.804437637329102,0.0210999995470047,0.010799999348819256,0.008299999870359898,0,0,0
0.6047753095626831,-0.02658521570265293,9.737438201904297,0.001500000013038516,0.0009999999310821295,-0.06019999831914902,-0.06099999926066736,0.12199999852133472,-0.06099999926066736
0.6053404211997986,-0.014671668410301208,9.758526802062988,0.0017999999690800905,0.010900000110268593,-0.0405999980866909,0.06099999926066736,-0.06099999926066736,0.06099999926066736
0.6195523738861084,-0.02151908539235592,9.748078346252441,0.011299999430775642,0.0008999999845400453,-0.05040000006556511,0,0.06099999926066736,0
0.6222721338272095,-0.030559591948986053,9.754982948303223,0.011299999430775642,-0.008700000122189522,-0.0405999980866909,0.12199999852133472,0.06099999926066736,-0.06099999926066736
0.6256911158561707,-0.035510800778865814,9.771024703979492,0.020999999716877937,-0.008999999612569809,-0.020999999716877937,-0.06099999926066736,0.06099999926066736,-0.06099999926066736
0.6186138391494751,-0.00209732074290514,9.759560585021973,0.01119999960064888,0.010499999858438969,-0.030799999833106995,0,0,0
0.6007339358329773,-0.015112200751900673,9.782584190368652,-0.008200000040233135,0.010400000028312206,-0.01119999960064888,0,-0.06099999926066736,0.06099999926066736
0.6148597598075867,-0.010122684761881828,9.774711608886719,0.010999999940395355,0.010199999436736107,-0.020999999716877937,-0.06099999926066736,0.06099999926066736,0
0.6119579672813416,-0.02341529354453087,9.77721118927002,0.0013000000035390258,0.0005999999702908099,-0.020999999716877937,0.12199999852133472,0.12199999852133472,-0.06099999926066736
0.5839458107948303,-0.04064396768808365,9.759560585021973,0.0015999999595806003,0.00019999999494757503,-0.020999999716877937,0.06099999926066736,0.06099999926066736,0
0.6243982315063477,-0.02184469625353813,9.76286506652832,-0.027300000190734863,-0.019299998879432678,-0.030799999833106995,-0.12199999852133472,0.06099999926066736,-0.06099999926066736
0.6243982315063477,-0.02184469625353813,9.76286506652832,0.021900000050663948,0.00019999999494757503,-0.030899999663233757,-0.12199999852133472,0.06099999926066736,-0.06099999926066736
0.59837806224823,-0.02780146896839142,9.757492065429688,-0.00699999975040555,0.00039999998989515007,-0.040699999779462814,0.06099999926066736,0.06099999926066736,-0.06099999926066736
0.6241108775138855,-0.038920141756534576,9.754819869995117,-0.00699999975040555,0.00039999998989515007,-0.040699999779462814,0,0,-0.12199999852133472
0.6176849007606506,-0.026087220758199692,9.734891891479492,0.012399999424815178,0.00029999998514540493,-0.06030000001192093,-0.06099999926066736,0.1830000044521087,-0.06099999926066736
0.5890023112297058,-0.010572794824838638,9.758211135864258,-0.016300000250339508,0.010199999436736107,-0.040699999779462814,0,0.06099999926066736,0
0.584750235080719,-0.006751649081707001,9.766858100891113,-0.01589999906718731,0.010099999606609344,-0.030899999663233757,0,-0.06099999926066736,0
0.6206249594688416,-0.015744270756840706,9.788664817810059,0.012799999676644802,0.009800000116229057,-0.001500000013038516,0,0.06099999926066736,-0.06099999926066736
0.6150608658790588,-0.016385916620492935,9.78156852722168,0.012799999676644802,0.009599999524652958,-0.011299999430775642,-0.06099999926066736,0.12199999852133472,0.06099999926066736
0.6041433215141296,-0.015514426864683628,9.775334358215332,0.0031999999191612005,0.009599999524652958,-0.0210999995470047,0.06099999926066736,0.1830000044521087,0
0.6342527270317078,-0.02976471558213234,9.756065368652344,0.03280000016093254,-0.009999999776482582,-0.040699999779462814,-0.12199999852133472,-0.06099999926066736,-0.06099999926066736
0.6078112125396729,-0.01926853507757187,9.783090591430664,0.0030999998562037945,0.00009999999747378752,-0.011299999430775642,-0.06099999926066736,0.12199999852133472,0.06099999926066736
0.6273095607757568,-0.03727293387055397,9.763678550720215,0.022699998691678047,-0.00930000003427267,-0.030899999663233757,0.06099999926066736,0,0.06099999926066736
0.6052924990653992,-0.027791893109679222,9.74215030670166,0.003000000026077032,0.00019999999494757503,-0.05049999803304672,0.12199999852133472,0.06099999926066736,0
0.6241300702095032,-0.044943954795598984,9.753164291381836,0.022499999031424522,-0.01939999870955944,-0.040699999779462814,-0.06099999926066736,0.1830000044521087,0
0.6063459515571594,-0.027638664469122887,9.755672454833984,0.003399999812245369,0.00029999998514540493,-0.040699999779462814,0,0.06099999926066736,-0.06099999926066736
0.6183456778526306,-0.006531381979584694,9.778149604797363,0.013100000098347664,0.00989999994635582,-0.011299999430775642,0.06099999926066736,-0.12199999852133472,0
0.6106459498405457,-0.0286729596555233,9.7684965133667,0.003000000026077032,0,-0.0210999995470047,0,0.1830000044521087,-0.06099999926066736
0.6074855923652649,-0.03299209848046303,9.754140853881836,0.013199999928474426,0,-0.030899999663233757,0,0.12199999852133472,0
0.6074855923652649,-0.03299209848046303,9.754140853881836,0.0031999999191612005,-0.00969999935477972,-0.040699999779462814,0,0.12199999852133472,0
0.6048519611358643,-0.021356279030442238,9.777786254882812,0.003399999812245369,0,-0.0210999995470047,0.06099999926066736,0.1830000044521087,-0.06099999926066736
0.6051009297370911,-0.009911995381116867,9.756295204162598,0.003999999724328518,0.009499999694526196,-0.04079999774694443,0.06099999926066736,-0.06099999926066736,-0.06099999926066736
0.6251547932624817,-0.01957499235868454,9.760815620422363,0.003999999724328518,0.009499999694526196,-0.04079999774694443,0,0.12199999852133472,0.06099999926066736
0.6078590750694275,-0.021413739770650864,9.770478248596191,0.003700000001117587,-0.00039999998989515007,-0.0210999995470047,0,0,-0.12199999852133472
0.6198588013648987,-0.00913627352565527,9.754705429077148,0.013399999588727951,0.009200000204145908,-0.040699999779462814,-0.06099999926066736,0,0
0.6069205403327942,-0.011032480746507645,9.772757530212402,0.013399999588727951,0.009200000204145908,-0.040699999779462814,-0.12199999852133472,0.12199999852133472,0
0.6236512660980225,-0.019507955759763718,9.759570121765137,0.023000000044703484,-0.00019999999494757503,-0.030899999663233757,-0.06099999926066736,0.1830000044521087,-0.06099999926066736
0.6012319326400757,-0.02738966792821884,9.736309051513672,-0.005699999630451202,0,-0.06039999797940254,0.06099999926066736,0,0
0.6166027188301086,-0.010773907415568829,9.767232894897461,0.013599999248981476,0.009499999694526196,-0.03099999949336052,0.06099999926066736,0.1830000044521087,-0.06099999926066736
0.6096212267875671,-0.026690561324357986,9.756669044494629,0.00419999985024333,-0.00039999998989515007,-0.04079999774694443,0.06099999926066736,0.12199999852133472,0
0.5939152240753174,-0.009299078956246376,9.755970001220703,-0.0050999997183680534,0.008999999612569809,-0.04079999774694443,0,0.06099999926066736,-0.06099999926066736
0.6299335956573486,-0.0344860814511776,9.757338523864746,0.02410000003874302,-0.010400000028312206,-0.04079999774694443,0.06099999926066736,0,0.06099999926066736
0.6091136336326599,0.0008714894065633416,9.762749671936035,0.004399999976158142,0.008799999952316284,-0.03099999949336052,0,0.1830000044521087,-0.06099999926066736
0.611804723739624,-0.039159562438726425,9.739468574523926,0.004799999762326479,-0.02029999904334545,-0.06039999797940254,0.06099999926066736,0.12199999852133472,0
0.6279512047767639,0.0025091234128922224,9.79192066192627,0.023899998515844345,0.008499999530613422,-0.0015999999595806003,-0.06099999926066736,0.12199999852133472,0.06099999926066736
0.6129539012908936,-0.040653545409440994,9.781291007995605,0.014099999330937862,-0.02019999921321869,-0.011399999260902405,0.12199999852133472,0.06099999926066736,0.06099999926066736
0.6082708835601807,-0.02851015515625477,9.795483589172363,0.004299999680370092,-0.0008999999845400453,-0.0015999999595806003,0,0.06099999926066736,-0.12199999852133472
0.6142946481704712,-0.03689943626523018,9.733752250671387,0.014099999330937862,-0.010599999688565731,-0.06039999797940254,0,0.06099999926066736,0.06099999926066736
0.6294451951980591,-0.006090848706662655,9.767882347106934,0.023799998685717583,0.008799999952316284,-0.03099999949336052,-0.06099999926066736,0,0.06099999926066736
0.6111726760864258,-0.04215710610151291,9.764415740966797,0.004100000020116568,-0.020099999383091927,-0.03099999949336052,0.06099999926066736,0.12199999852133472,0.12199999852133472
0.6187957525253296,-0.025483882054686546,9.764473915100098,0.02369999885559082,0.008899999782443047,-0.03099999949336052,0,0,-0.12199999852133472
0.6054936051368713,-0.02396116964519024,9.775545120239258,0.0139999995008111,-0.0008999999845400453,-0.03099999949336052,0,0.06099999926066736,-0.06099999926066736
0.6194661855697632,-0.023807941004633904,9.760480880737305,0.004100000020116568,-0.0008999999845400453,-0.021199999377131462,0,0.12199999852133472,0
0.6188532710075378,-0.004041412379592657,9.743213653564453,0.0139999995008111,0.008700000122189522,-0.050599999725818634,-0.06099999926066736,-0.06099999926066736,0.06099999926066736
0.6126188039779663,-0.026192566379904747,9.767970085144043,0.0038999998942017555,-0.0007999999797903001,-0.03099999949336052,0.06099999926066736,0.06099999926066736,-0.06099999926066736
0.6288130879402161,-0.018444929271936417,9.750127792358398,0.023399999365210533,0.008700000122189522,-0.04079999774694443,-0.06099999926066736,0.06099999926066736,0
0.6130592823028564,-0.006866570562124252,9.726521492004395,0.013700000010430813,0.008799999952316284,-0.07019999623298645,0.06099999926066736,0.06099999926066736,0
0.6037889122962952,-0.04269340634346008,9.761524200439453,0.0038999998942017555,-0.020399998873472214,-0.03099999949336052,0.06099999926066736,0.1830000044521087,0
0.5947962999343872,-0.032905906438827515,9.757962226867676,-0.0052999998442828655,-0.010599999688565731,-0.04079999774694443,0,0.06099999926066736,0
0.6146394610404968,-0.014662091620266438,9.773140907287598,0.0142000000923872,0.008700000122189522,-0.021199999377131462,-0.06099999926066736,0.06099999926066736,-0.06099999926066736
0.5989430546760559,-0.030186094343662262,9.75402545928955,-0.005200000014156103,-0.010499999858438969,-0.04079999774694443,-0.06099999926066736,0.06099999926066736,0
0.6126570701599121,-0.036075834184885025,9.753546714782715,0.004699999932199717,-0.010199999436736107,-0.04079999774694443,0,0,-0.12199999852133472
0.6115365624427795,-0.018282122910022736,9.772518157958984,0.004600000102072954,0.009099999442696571,-0.021199999377131462,0,0.06099999926066736,-0.06099999926066736
0.6309200525283813,-0.009327810257673264,9.778715133666992,0.02369999885559082,0.008899999782443047,-0.011399999260902405,0,0.1830000044521087,0
0.6343581080436707,-0.00684741698205471,9.749763488769531,0.03370000049471855,0.008799999952316284,-0.04079999774694443,0.12199999852133472,0.06099999926066736,-0.06099999926066736
0.6060011386871338,-0.04033751040697098,9.797236442565918,0.004299999680370092,-0.02029999904334545,0.008100000210106373,0,0,0
0.6152907013893127,-0.020082563161849976,9.778858184814453,0.013799999840557575,-0.000699999975040555,-0.011399999260902405,0,0.06099999926066736,-0.06099999926066736
0.624254584312439,-0.0279642753303051,9.75522232055664,0.023499999195337296,-0.000699999975040555,-0.04079999774694443,0.06099999926066736,0.06099999926066736,-0.06099999926066736
0.6136051416397095,-0.004979939665645361,9.758000373840332,0.013700000010430813,0.008700000122189522,-0.04079999774694443,0.12199999852133472,0.06099999926066736,0
0.6184989213943481,-0.028404807671904564,9.728081703186035,0.02329999953508377,-0.030299998819828033,-0.030899999663233757,0.06099999926066736,0.1830000044521087,-0.06099999926066736
0.6200215816497803,-0.04473326355218887,9.786491394042969,0.013799999840557575,-0.0009999999310821295,-0.07019999623298645,0,0,0
0.6315712332725525,-0.01338837668299675,9.782679557800293,0.013499999418854713,-0.02019999921321869,-0.011299999430775642,0.06099999926066736,0,-0.06099999926066736
0.6174646019935608,-0.018310854211449623,9.769195556640625,0.012999999336898327,0.008599999360740185,-0.0210999995470047,0,0.12199999852133472,0
0.6134328246116638,-0.02767697162926197,9.77823543548584,0.012999999336898327,0.008599999360740185,-0.0210999995470047,0.06099999926066736,0,-0.06099999926066736
0.6134328246116638,-0.02767697162926197,9.77823543548584,0.013100000098347664,-0.0009999999310821295,-0.011299999430775642,0.06099999926066736,0,-0.06099999926066736
0.622626543045044,-0.030933085829019547,9.778772354125977,0.02239999920129776,-0.010900000110268593,-0.011299999430775642,0.06099999926066736,0.06099999926066736,-0.06099999926066736
0.6159514784812927,-0.016290146857500076,9.746057510375977,0.012600000016391277,0.00839999970048666,-0.05049999803304672,0,0.06099999926066736,0.06099999926066736
0.6256815195083618,-0.0039169141091406345,9.750338554382324,0.022299999371170998,0.008299999870359898,-0.040699999779462814,0.06099999926066736,0.1830000044521087,0
0.5940205454826355,-0.04135265201330185,9.795215606689453,-0.006300000008195639,-0.020600000396370888,-0.001500000013038516,0.1830000044521087,0.24399999704266945,-0.1830000044521087
0.5925074219703674,-0.03584598749876022,9.77992057800293,-0.007899999618530273,-0.01249999925494194,-0.011799999512732029,0,0.12199999852133472,-0.06099999926066736
0.6085677742958069,-0.022400150075554848,9.741086959838867,0.006000000052154064,-0.0015999999595806003,-0.05069999769330025,0.12199999852133472,0.12199999852133472,-0.06099999926066736
0.6142851114273071,-0.03283886983990669,9.780362129211426,0.007199999876320362,-0.005499999970197678,-0.010900000110268593,-0.06099999926066736,0.24399999704266945,0
0.6029940843582153,0.0054779332131147385,9.769808769226074,-0.0066999997943639755,0.011799999512732029,-0.0210999995470047,0,0.12199999852133472,-0.06099999926066736
0.6404968500137329,-0.0324653722345829,9.76335334777832,0.022599998861551285,-0.005399999674409628,-0.030299998819828033,-0.06099999926066736,0.12199999852133472,0
0.6059437394142151,-0.017975665628910065,9.731520652770996,-0.0058999997563660145,0.011399999260902405,-0.05979999899864197,-0.12199999852133472,0.1830000044521087,0
0.6246184706687927,-0.011089942418038845,9.756573677062988,0.009800000116229057,0.008700000122189522,-0.03989999741315842,0.06099999926066736,0.06099999926066736,-0.06099999926066736
0.6071982979774475,-0.007431602105498314,9.748845100402832,-0.008100000210106373,0.0064999996684491634,-0.049799997359514236,0.06099999926066736,-0.06099999926066736,0.06099999926066736
0.5893087983131409,-0.0164721067994833,9.768400192260742,-0.018799999728798866,0.00419999985024333,-0.020999999716877937,-0.12199999852133472,0.1830000044521087,0
0.6160567998886108,-0.0026719290763139725,9.786846160888672,0.0064999996684491634,0.002699999837204814,-0.010900000110268593,0,0.12199999852133472,0.06099999926066736
0.617972195148468,-0.002212242456153035,9.759465217590332,0.0044999998062849045,0.001999999862164259,-0.030399998649954796,0,-0.06099999926066736,-0.06099999926066736
0.6266966462135315,-0.023309947922825813,9.783551216125488,-0.009800000116229057,-0.010999999940395355,-0.011099999770522118,0,0,-0.12199999852133472
0.6088742017745972,-0.03564487397670746,9.777143478393555,0.012000000104308128,-0.000699999975040555,-0.010599999688565731,-0.06099999926066736,0,0
0.6088742017745972,-0.03564487397670746,9.777143478393555,-0.005499999970197678,-0.0072999997064471245,-0.020600000396370888,-0.06099999926066736,0,0
0.5998241305351257,-0.017736246809363365,9.783283233642578,-0.01529999915510416,0.012199999764561653,-0.010799999348819256,0,0.12199999852133472,-0.06099999926066736
0.5972000956535339,-0.0017046716529875994,9.75402545928955,-0.01529999915510416,0.012199999764561653,-0.010799999348819256,0,0.06099999926066736,-0.12199999852133472
0.598809003829956,-0.03159388527274132,9.765748023986816,-0.014800000004470348,-0.0072999997064471245,-0.030399998649954796,0,0,0
0.6269456744194031,-0.041716571897268295,9.788761138916016,0.014499999582767487,-0.017099998891353607,-0.0009999999310821295,0.06099999926066736,0.12199999852133472,-0.06099999926066736
0.6249632835388184,-0.020293252542614937,9.78450870513916,0.014800000004470348,0.002199999988079071,-0.010799999348819256,0.12199999852133472,0.12199999852133472,-0.12199999852133472
0.6034537553787231,-0.041697416454553604,9.793635368347168,-0.004399999976158142,-0.017500000074505806,-0.0009999999310821295,0.1830000044521087,0.12199999852133472,0
0.5966350436210632,-0.043373361229896545,9.770966529846191,-0.013799999840557575,-0.017999999225139618,-0.02070000022649765,-0.06099999926066736,0,0
0.6255091428756714,-0.032570719718933105,9.752196311950684,0.01549999974668026,-0.008100000210106373,-0.040300000458955765,0.06099999926066736,0.24399999704266945,0
0.613308310508728,-0.007738059852272272,9.78024673461914,0.017799999564886093,0.008599999360740185,-0.011599999852478504,0.12199999852133472,0.12199999852133472,0
0.6162962913513184,-0.005228936672210693,9.762310028076172,0.010199999436736107,0.004900000058114529,-0.030700000002980232,0.06099999926066736,0.12199999852133472,-0.06099999926066736
0.6325576901435852,-0.031364042311906815,9.797840118408203,0.016699999570846558,-0.007999999448657036,0.009200000204145908,0,0.12199999852133472,0.06099999926066736
0.5955719947814941,-0.015543157234787941,9.752359390258789,-0.017400000244379044,0.008700000122189522,-0.04010000079870224,0,0.12199999852133472,-0.06099999926066736
0.6415407061576843,-0.00868616346269846,9.727450370788574,0.01719999872148037,0.0071000000461936,-0.06920000165700912,0,0.12199999852133472,-0.12199999852133472
0.632892906665802,-0.01926853507757187,9.731395721435547,0.012899999506771564,-0.001999999862164259,-0.05909999832510948,0,0.12199999852133472,-0.06099999926066736
0.6280948519706726,-0.03552995249629021,9.764397621154785,0.0017999999690800905,-0.008100000210106373,-0.029600000008940697,0,0,0
0.5908219814300537,-0.011425131000578403,9.740704536437988,-0.029600000008940697,0.008799999952316284,-0.04969999939203262,-0.06099999926066736,0,0
0.6134710907936096,-0.016223110258579254,9.7764253616333,-0.0004999999655410647,0.0058999997563660145,-0.02029999904334545,0.06099999926066736,0,-0.12199999852133472
0.6027546525001526,-0.013263877481222153,9.762194633483887,-0.0010999999940395355,0.004399999976158142,-0.04969999939203262,0,0,-0.06099999926066736
0.6027546525001526,-0.013263877481222153,9.762194633483887,-0.01529999915510416,0.0031999999191612005,-0.030399998649954796,0.12199999852133472,0.06099999926066736,-0.06099999926066736
0.6387346982955933,-0.01623268611729145,9.748183250427246,0.024000000208616257,0.002699999837204814,-0.030399998649954796,0.06099999926066736,0.06099999926066736,-0.06099999926066736
0.6253750324249268,-0.034352004528045654,9.787420272827148,0.024299999698996544,0.002899999963119626,-0.04999999701976776,0.12199999852133472,0.06099999926066736,-0.24399999704266945
0.6035016775131226,-0.03775177523493767,9.733704566955566,0.004699999932199717,-0.01589999906718731,-0.06039999797940254,-0.06099999926066736,0.06099999926066736,-0.12199999852133472
0.5983110070228577,-0.04558560252189636,9.76467514038086,-0.0037999998312443495,-0.016899999231100082,-0.031099999323487282,0,0.06099999926066736,0
0.6095733046531677,-0.030866049230098724,9.794334411621094,0.002899999963119626,-0.003399999812245369,-0.001500000013038516,-0.06099999926066736,0.06099999926066736,0
0.6022566556930542,-0.003715801052749157,9.765748023986816,-0.005499999970197678,0.012199999764561653,-0.03099999949336052,0,0.12199999852133472,0
0.5954570770263672,-0.037550657987594604,9.772058486938477,-0.0038999998942017555,-0.004999999888241291,-0.021299999207258224,-0.06099999926066736,0.06099999926066736,0
0.6274244785308838,-0.04090254381299019,9.756237983703613,0.01899999938905239,-0.01119999960064888,-0.04050000011920929,-0.12199999852133472,0.12199999852133472,0.06099999926066736
0.6227988600730896,0.01791820488870144,9.773820877075195,0.01249999925494194,0.012399999424815178,-0.020499998703598976,0.06099999926066736,0.06099999926066736,0
0.6275010704994202,-0.02042732760310173,9.782114028930664,0.007599999662488699,0.00139999995008111,-0.010400000028312206,0.06099999926066736,0.12199999852133472,-0.06099999926066736
0.6047945022583008,-0.02576160989701748,9.738204956054688,-0.010300000198185444,0.0010999999940395355,-0.05949999764561653,0.06099999926066736,0,0
0.6125516891479492,-0.0008427590364590287,9.767059326171875,-0.007899999618530273,0.007699999958276749,-0.03019999898970127,0,0.12199999852133472,-0.06099999926066736
0.5871444940567017,-0.03723462298512459,9.755212783813477,-0.021199999377131462,-0.008899999782443047,-0.04039999842643738,0.12199999852133472,0.12199999852133472,-0.06099999926066736
0.6031664609909058,-0.02825157903134823,9.760863304138184,-0.011099999770522118,0.00039999998989515007,-0.03059999831020832,0.06099999926066736,0,0
0.6038559675216675,-0.031718384474515915,9.772192001342773,-0.0013000000035390258,-0.009499999694526196,-0.020800000056624413,-0.06099999926066736,0.06099999926066736,-0.06099999926066736
0.6356509923934937,-0.022926876321434975,9.789565086364746,0.028099998831748962,0.00039999998989515007,-0.0011999999405816197,-0.06099999926066736,0.12199999852133472,-0.12199999852133472
0.6289471983909607,-0.018071433529257774,9.748930931091309,0.018699999898672104,0.010300000198185444,-0.0502999983727932,0.06099999926066736,0.1830000044521087,-0.1830000044521087
0.6367427110671997,-0.011463438160717487,9.796795845031738,0.03830000013113022,0.007999999448657036,-0.0017999999690800905,0,0.06099999926066736,-0.06099999926066736
0.619475781917572,-0.019038692116737366,9.745856285095215,0.012600000016391277,0.005699999630451202,-0.05049999803304672,0.06099999926066736,0.12199999852133472,-0.06099999926066736
0.6343772411346436,-0.018023550510406494,9.745779991149902,0.00839999970048666,0.0037999998312443495,-0.04039999842643738,0,-0.06099999926066736,-0.06099999926066736
0.6004179120063782,-0.04296155646443367,9.769539833068848,0.020399998873472214,0.00279999990016222,-0.049799997359514236,0,0.24399999704266945,-0.06099999926066736
0.6393284797668457,-0.03184288367629051,9.756372451782227,0.033799998462200165,-0.009200000204145908,-0.04079999774694443,0.12199999852133472,0.1830000044521087,-0.06099999926066736
0.5934364199638367,-0.02272576279938221,9.750089645385742,-0.011699999682605267,0.00009999999747378752,-0.04099999740719795,-0.06099999926066736,0.06099999926066736,-0.06099999926066736
0.604880690574646,-0.01971864514052868,9.774787902832031,-0.011699999682605267,0.00009999999747378752,-0.04099999740719795,-0.1830000044521087,0.12199999852133472,0
0.6167846918106079,-0.03547249361872673,9.780438423156738,0.008799999952316284,-0.005499999970197678,-0.010999999940395355,0,0.06099999926066736,-0.12199999852133472
0.5953804850578308,-0.029946673661470413,9.784250259399414,-0.00699999975040555,-0.003499999875202775,-0.011299999430775642,0,0,-0.12199999852133472
0.6016533374786377,-0.032120607793331146,9.76935863494873,-0.0052999998442828655,-0.0024999999441206455,-0.021199999377131462,0.06099999926066736,0.12199999852133472,0
0.6007243394851685,-0.022026654332876205,9.769674301147461,-0.0037999998312443495,0.004900000058114529,-0.021299999207258224,0,0.12199999852133472,0
0.5959646701812744,-0.01760217174887657,9.778179168701172,-0.0024999999441206455,0.00930000003427267,-0.011500000022351742,0,0.12199999852133472,0
0.6110768914222717,-0.030291439965367317,9.748845100402832,0.005499999970197678,-0.008200000040233135,-0.05069999769330025,0,0.06099999926066736,0
0.5991058945655823,-0.03272394835948944,9.766331672668457,-0.003399999812245369,-0.0058999997563660145,-0.031099999323487282,0,0,0
0.6039612889289856,-0.02473689243197441,9.76423454284668,0.003999999724328518,0.002699999837204814,-0.03099999949336052,0.06099999926066736,0,0
0.622511625289917,-0.006464344449341297,9.764569282531738,0.023599999025464058,0.012299999594688416,-0.03099999949336052,0.12199999852133472,0,-0.06099999926066736
0.6344155669212341,-0.03204399347305298,9.777000427246094,0.033299997448921204,-0.007499999832361937,-0.0210999995470047,0,0,-0.06099999926066736
0.5985121726989746,-0.019182344898581505,9.734957695007324,-0.005799999926239252,0.002199999988079071,-0.06039999797940254,-0.06099999926066736,0.12199999852133472,0
0.6221476793289185,-0.023511061444878578,9.77535343170166,0.014099999330937862,0.002300000051036477,-0.021199999377131462,0.12199999852133472,0.12199999852133472,-0.12199999852133472
0.6088933944702148,-0.025254039093852043,9.768533706665039,0.004600000102072954,0.001999999862164259,-0.021199999377131462,0,0.06099999926066736,0
0.6152523756027222,-0.02502419613301754,9.771723747253418,0.014499999582767487,0.001999999862164259,-0.021199999377131462,0,-0.06099999926066736,0.06099999926066736
0.6105884909629822,-0.025301923975348473,9.764388084411621,-0.005200000014156103,0.001999999862164259,-0.050599999725818634,0.06099999926066736,0.06099999926066736,0.06099999926066736
0.6072365641593933,-0.010275913402438164,9.784642219543457,0.004600000102072954,0.0018999999156221747,-0.03099999949336052,0,0.06099999926066736,0
0.6331034898757935,-0.020197484642267227,9.789460182189941,0.004799999762326479,0.011699999682605267,-0.011399999260902405,0,0.12199999852133472,-0.06099999926066736
0.6242353916168213,-0.03393062576651573,9.752110481262207,0.024699999019503593,-0.007899999618530273,-0.04079999774694443,-0.06099999926066736,-0.06099999926066736,-0.12199999852133472
0.6309966444969177,-0.006560112349689007,9.755126953125,0.024699999019503593,-0.007899999618530273,-0.04079999774694443,0,0,-0.06099999926066736
0.5928618311882019,-0.027150247246026993,9.743366241455078,-0.014599999412894249,0.001999999862164259,-0.050599999725818634,-0.06099999926066736,-0.06099999926066736,-0.12199999852133472
0.603683590888977,-0.032810140401124954,9.76467514038086,0.004699999932199717,-0.007599999662488699,-0.03099999949336052,-0.06099999926066736,0,0.06099999926066736
0.5882840752601624,-0.01777455396950245,9.785983085632324,-0.014800000004470348,0.012000000104308128,-0.011399999260902405,0.06099999926066736,0.1830000044521087,-0.06099999926066736
0.6022757887840271,-0.0027772739995270967,9.771714210510254,-0.0044999998062849045,0.011799999512732029,-0.021199999377131462,0,0.06099999926066736,-0.06099999926066736
0.6534063816070557,-0.03145023435354233,9.76805591583252,0.05419999733567238,-0.007699999958276749,-0.03099999949336052,-0.06099999926066736,0.24399999704266945,-0.06099999926066736
0.6134902238845825,-0.02950614131987095,9.803518295288086,0.027300000190734863,-0.01209999993443489,0.007400000002235174,0.06099999926066736,0.12199999852133472,-0.12199999852133472
0.6070737838745117,-0.00562158552929759,9.757051467895508,0.00989999994635582,0.004399999976158142,-0.041099999099969864,-0.06099999926066736,0,-0.06099999926066736
0.6119579672813416,-0.024842238053679466,9.769874572753906,0.0050999997183680534,-0.002899999963119626,-0.021199999377131462,0,0.12199999852133472,-0.06099999926066736
0.5888108015060425,-0.02547430619597435,9.757185935974121,-0.010999999940395355,-0.002099999925121665,-0.04099999740719795,0.06099999926066736,0,-0.06099999926066736
0.6315425634384155,-0.028337771072983742,9.777680397033691,0.01719999872148037,-0.00139999995008111,-0.020800000056624413,0,0.06099999926066736,0.06099999926066736
0.6235554814338684,-0.05033569782972336,9.767145156860352,0.011799999512732029,-0.021800000220537186,-0.03019999898970127,0,0.06099999926066736,-0.12199999852133472
0.6449213027954102,-0.01782243698835373,9.761495590209961,0.02159999869763851,0.01209999993443489,-0.029600000008940697,0,0.06099999926066736,0
0.619379997253418,-0.028969841077923775,9.77241325378418,-0.005399999674409628,-0.004799999762326479,-0.019999999552965164,0,0.12199999852133472,-0.06099999926066736
0.5944228768348694,-0.003246537409722805,9.752714157104492,-0.01939999870955944,0.01119999960064888,-0.03989999741315842,0,0,-0.06099999926066736
0.6021129488945007,-0.0229843370616436,9.756745338439941,-0.015199999324977398,0.0009999999310821295,-0.04019999876618385,0,0.12199999852133472,0
0.5983971953392029,-0.009844956919550896,9.745512008666992,-0.012199999764561653,0.00839999970048666,-0.050200000405311584,0,0.06099999926066736,-0.12199999852133472
0.597956657409668,-0.010620678775012493,9.78974723815918,-0.002199999988079071,0.008299999870359898,-0.03059999831020832,0.12199999852133472,0.3049999896332302,-0.06099999926066736
0.6076005101203918,-0.017956512048840523,9.765250205993652,-0.0016999999061226845,0.006899999920278788,-0.0017999999690800905,0.06099999926066736,0.06099999926066736,-0.06099999926066736
0.6076005101203918,-0.017956512048840523,9.765250205993652,0.004799999762326479,0.004699999932199717,-0.03099999949336052,0.06099999926066736,0.06099999926066736,-0.06099999926066736
0.5778453946113586,-0.03443819656968117,9.769951820373535,0.016499999910593033,0.0030999998562037945,-0.030499998480081558,0,0.06099999926066736,0
0.6044976115226746,-0.030693667009472847,9.759321212768555,0.0050999997183680534,-0.007799999788403511,-0.03099999949336052,0.06099999926066736,-0.06099999926066736,0
0.5994219183921814,-0.021701043471693993,9.776904106140137,-0.003599999938160181,0.0010999999940395355,-0.021299999207258224,0.06099999926066736,0,-0.12199999852133472
0.6259113550186157,-0.014575900509953499,9.790129661560059,0.011699999682605267,0.004900000058114529,-0.0007999999797903001,0.06099999926066736,0,-0.06099999926066736
0.6037410497665405,-0.017563864588737488,9.756946563720703,0.011699999682605267,0.004900000058114529,-0.0007999999797903001,-0.06099999926066736,0,-0.06099999926066736
0.6236129403114319,-0.027954699471592903,9.77312183380127,0.008200000040233135,-0.0038999998942017555,-0.02019999921321869,0,0,-0.06099999926066736
0.6261029243469238,-0.022572534158825874,9.771321296691895,0.0050999997183680534,-0.0026000000070780516,-0.019999999552965164,0.06099999926066736,0.06099999926066736,0
0.6274053454399109,-0.03819230571389198,9.7761869430542,0.0030999998562037945,-0.00839999970048666,-0.019899999722838402,-0.12199999852133472,-0.06099999926066736,0.06099999926066736
0.6267828345298767,-0.028854919597506523,9.785006523132324,0.003000000026077032,-0.008100000210106373,-0.010099999606609344,0.06099999926066736,0.06099999926066736,0
0.6164398789405823,-0.02099236100912094,9.769501686096191,-0.0064999996684491634,0.00139999995008111,-0.019899999722838402,0,0.12199999852133472,-0.06099999926066736
0.6085007190704346,-0.03770388662815094,9.744497299194336,-0.016099998727440834,-0.008299999870359898,-0.049300000071525574,0.06099999926066736,0.06099999926066736,-0.06099999926066736
0.5876902937889099,-0.04540364071726799,9.749601364135742,-0.035499997437000275,-0.018299998715519905,-0.03949999809265137,0.06099999926066736,0,0
0.6077632904052734,-0.02367386594414711,9.770584106445312,-0.015799999237060547,0.0010999999940395355,-0.019899999722838402,0,0.12199999852133472,0
0.6122931241989136,-0.031622614711523056,9.746057510375977,-0.01549999974668026,-0.008599999360740185,-0.04939999803900719,0,0.12199999852133472,0.06099999926066736
0.6238619089126587,-0.011358093470335007,9.778647422790527,0.004399999976158142,0.010900000110268593,-0.010199999436736107,0.12199999852133472,0.12199999852133472,-0.06099999926066736
0.6111822724342346,-0.032733526080846786,9.771982192993164,-0.014800000004470348,-0.008899999782443047,-0.019999999552965164,0.06099999926066736,0,0
0.6007722020149231,-0.020532673224806786,9.776224136352539,-0.02449999935925007,0.0005999999702908099,-0.019999999552965164,0.06099999926066736,0,0
0.6158556938171387,-0.02986048348248005,9.740541458129883,-0.014699999243021011,0.0004999999655410647,-0.02979999966919422,0,0.06099999926066736,0.12199999852133472
0.6158556938171387,-0.02986048348248005,9.740541458129883,-0.004699999932199717,-0.009200000204145908,-0.04939999803900719,-0.06099999926066736,0.06099999926066736,0
0.5963477492332458,-0.03076070360839367,9.754494667053223,-0.02410000003874302,0.000699999975040555,-0.04939999803900719,-0.06099999926066736,0.1830000044521087,0
0.5972384214401245,-0.02668098360300064,9.759303092956543,-0.023599999025464058,-0.008999999612569809,-0.03969999775290489,0.06099999926066736,0.06099999926066736,-0.1830000044521087
0.5819633603096008,0.007881712168455124,9.789775848388672,-0.04209999740123749,0.010499999858438969,-0.0004999999655410647,0,-0.06099999926066736,0
0.6343198418617249,-0.023654712364077568,9.774624824523926,0.01640000008046627,0.0005999999702908099,-0.020099999383091927,0.06099999926066736,0.1830000044521087,0
0.6217837333679199,-0.03609498590230942,9.807559967041016,0.01640000008046627,0.0005999999702908099,-0.020099999383091927,0.1830000044521087,0.12199999852133472,-0.06099999926066736
0.6281906366348267,-0.007814674638211727,9.766437530517578,0.007400000002235174,0.009800000116229057,-0.029999999329447746,-0.06099999926066736,0,0
0.6029461622238159,-0.03399766609072685,9.782123565673828,-0.012000000104308128,0.009999999776482582,-0.02019999921321869,0,0.12199999852133472,0
0.6029461622238159,-0.03399766609072685,9.782123565673828,-0.02149999886751175,-0.009800000116229057,-0.010400000028312206,0,0.12199999852133472,0
0.6058766841888428,-0.035223495215177536,9.779394149780273,-0.011299999430775642,-0.00969999935477972,-0.010400000028312206,0.06099999926066736,0.1830000044521087,0
0.6277405619621277,-0.030961817130446434,9.771416664123535,0.008799999952316284,-0.009800000116229057,-0.02019999921321869,0,0,-0.12199999852133472
0.625671923160553,-0.00959596037864685,9.758420944213867,0.008700000122189522,0.009599999524652958,-0.03989999741315842,-0.06099999926066736,0.24399999704266945,-0.06099999926066736
0.6150608658790588,-0.03391147404909134,9.763343811035156,0.0279999990016222,-0.014499999582767487,-0.03179999813437462,-0.06099999926066736,0.06099999926066736,-0.06099999926066736
0.6217933297157288,-0.04891832917928696,9.763975143432617,0.014499999582767487,-0.018400000408291817,-0.03099999949336052,-0.06099999926066736,0,0
0.6122643947601318,-0.03116292878985405,9.774079322814941,0.002099999925121665,0.000699999975040555,-0.020999999716877937,0,-0.06099999926066736,-0.06099999926066736
0.5954570770263672,-0.02142331749200821,9.75605583190918,-0.006300000008195639,0.007699999958276749,-0.040699999779462814,0,0.1830000044521087,-0.06099999926066736
0.6239672899246216,-0.01318726222962141,9.752779960632324,0.016300000250339508,0.01269999984651804,-0.040300000458955765,0,0.1830000044521087,0
0.5999295115470886,-0.016146495938301086,9.764914512634277,-0.010999999940395355,0.00989999994635582,-0.03059999831020832,-0.06099999926066736,0.06099999926066736,-0.12199999852133472
0.6232489943504333,-0.028759151697158813,9.74956226348877,0.012899999506771564,-0.006899999920278788,-0.04010000079870224,0,-0.06099999926066736,0.06099999926066736
0.6089412569999695,-0.001417367486283183,9.77949047088623,-0.004100000020116568,0.0071000000461936,-0.010799999348819256,0.06099999926066736,0.06099999926066736,-0.06099999926066736
0.5937715768814087,-0.007987056858837605,9.751066207885742,-0.004100000020116568,0.0071000000461936,-0.010799999348819256,0.06099999926066736,0.06099999926066736,-0.06099999926066736
0.6099564433097839,-0.04306689649820328,9.746315956115723,-0.01119999960064888,0.005399999674409628,-0.04039999842643738,0,0,0.06099999926066736
0.6152715682983398,-0.053429003804922104,9.750482559204102,0.007999999448657036,-0.02850000001490116,-0.04039999842643738,0.06099999926066736,-0.12199999852133472,0
0.623181939125061,-0.033068712800741196,9.743280410766602,0.017400000244379044,-0.008999999612569809,-0.050200000405311584,0.06099999926066736,0.06099999926066736,0
0.6083283424377441,-0.008073247969150543,9.744343757629395,0.017400000244379044,-0.008999999612569809,-0.050200000405311584,0.06099999926066736,0,0
0.6022757887840271,-0.03097139298915863,9.770000457763672,-0.011699999682605267,-0.009399999864399433,-0.020800000056624413,-0.06099999926066736,0.06099999926066736,0.06099999926066736
0.633563220500946,-0.025512613356113434,9.76624584197998,0.02759999968111515,0.0004999999655410647,-0.03059999831020832,0,-0.06099999926066736,0.06099999926066736
0.5995368361473083,-0.02213199995458126,9.759197235107422,-0.011699999682605267,0.0004999999655410647,-0.03059999831020832,0,0.1830000044521087,0
0.6176274418830872,-0.04855440929532051,9.769233703613281,0.008299999870359898,-0.028699999675154686,-0.020800000056624413,0,0,0
0.6137201189994812,-0.03876691311597824,9.782889366149902,0.008299999870359898,-0.018799999728798866,-0.010999999940395355,-0.06099999926066736,0,-0.12199999852133472
0.635507345199585,-0.016625335440039635,9.777153015136719,0.027799999341368675,0.010599999688565731,-0.020800000056624413,0.06099999926066736,0.12199999852133472,-0.06099999926066736
0.6142563819885254,-0.025033773854374886,9.76548957824707,0.008499999530613422,0.0005999999702908099,-0.03059999831020832,0,0,0
0.6069971919059753,-0.009509769268333912,9.748988151550293,0.018299998715519905,0.010400000028312206,-0.0502999983727932,0,0.06099999926066736,0.06099999926066736
0.6069971919059753,-0.009509769268333912,9.748988151550293,-0.0010999999940395355,0.010400000028312206,-0.0502999983727932,-0.06099999926066736,0,0
0.6041815876960754,-0.010026916861534119,9.75086498260498,-0.020499998703598976,-0.008899999782443047,0.008499999530613422,0,0.12199999852133472,0
0.6041815876960754,-0.010026916861534119,9.75086498260498,-0.0005999999702908099,0.010300000198185444,-0.04050000011920929,0,0.12199999852133472,0
0.6099276542663574,-0.001436521066352725,9.787908554077148,-0.00029999998514540493,0.010199999436736107,-0.0013000000035390258,0,0.12199999852133472,0.06099999926066736
0.6163345575332642,-0.0388626828789711,9.771771430969238,0.00969999935477972,-0.01899999938905239,-0.020899999886751175,0.12199999852133472,0.24399999704266945,-0.06099999926066736
0.6074855923652649,-0.015016432851552963,9.775755882263184,0.009599999524652958,0.00279999990016222,-0.02149999886751175,0.06099999926066736,0.12199999852133472,0.06099999926066736
0.6074855923652649,-0.015016432851552963,9.775755882263184,0.009599999524652958,0.00279999990016222,-0.02149999886751175,0.06099999926066736,0.12199999852133472,0.06099999926066736
0.6280853152275085,-0.03355713188648224,9.749265670776367,0.016300000250339508,-0.002899999963119626,-0.0004999999655410647,-0.06099999926066736,0.12199999852133472,0
0.6280853152275085,-0.03355713188648224,9.749265670776367,0.004900000058114529,-0.009800000116229057,-0.03959999978542328,0,0.12199999852133472,0
0.5897014737129211,-0.021748928353190422,9.773543357849121,-0.019099999219179153,0.007400000002235174,-0.03989999741315842,0.06099999926066736,0,0
0.5897014737129211,-0.021748928353190422,9.773543357849121,-0.01979999989271164,-0.0015999999595806003,-0.020899999886751175,0.06099999926066736,0.06099999926066736,0
0.5931395292282104,-0.02033155970275402,9.771368980407715,-0.016899999231100082,-0.000699999975040555,-0.0210999995470047,-0.12199999852133472,0.24399999704266945,-0.06099999926066736
0.6098606586456299,-0.013158531859517097,9.764551162719727,0.010799999348819256,0.007799999788403511,-0.03139999881386757,0,0.06099999926066736,0
0.6268786191940308,-0.008456320501863956,9.76269245147705,0.02149999886751175,0.00559999980032444,-0.030799999833106995,-0.06099999926066736,0.06099999926066736,-0.06099999926066736
0.633352518081665,-0.023903708904981613,9.765680313110352,0.021900000050663948,-0.00279999990016222,-0.030299998819828033,0.06099999926066736,0,0
0.6233256459236145,-0.03799119219183922,9.783551216125488,0.0066999997943639755,-0.007400000002235174,-0.010300000198185444,-0.1830000044521087,0.12199999852133472,0
0.5934843420982361,-0.04587290436029434,9.785160064697266,-0.020600000396370888,-0.010599999688565731,-0.010999999940395355,0,0.06099999926066736,0
0.6127815842628479,-0.024851813912391663,9.74584674835205,-0.0011999999405816197,0.007199999876320362,-0.050200000405311584,0.06099999926066736,0.24399999704266945,0.06099999926066736
0.603262186050415,-0.01124317105859518,9.7756986618042,-0.0010999999940395355,0.013100000098347664,-0.021399999037384987,0,0.12199999852133472,-0.12199999852133472
0.6133466362953186,-0.01933557353913784,9.776789665222168,0.012000000104308128,0.002199999988079071,-0.020999999716877937,0.06099999926066736,0.1830000044521087,-0.06099999926066736
0.6082326173782349,-0.01408748235553503,9.731337547302246,0.001500000013038516,0.009599999524652958,-0.06019999831914902,0,0.06099999926066736,-0.06099999926066736
0.6097169518470764,-0.0328197181224823,9.7586030960083,0.0005999999702908099,-0.0072999997064471245,-0.0405999980866909,0,0.1830000044521087,0
0.6184414625167847,-0.018205508589744568,9.790617942810059,0.004900000058114529,0.005399999674409628,-0.0009999999310821295,0,0.12199999852133472,0
0.5976885557174683,-0.004826710559427738,9.74956226348877,-0.011899999342858791,0.004299999680370092,-0.04039999842643738,0.06099999926066736,0.06099999926066736,-0.06099999926066736
0.6105693578720093,-0.022103268653154373,9.755126953125,-0.001999999862164259,-0.00559999980032444,-0.04039999842643738,0.06099999926066736,0.12199999852133472,0.06099999926066736
0.6054457426071167,-0.016596606001257896,9.749094009399414,-0.0015999999595806003,0.003999999724328518,-0.050200000405311584,0.12199999852133472,0.06099999926066736,0.06099999926066736
0.6221859455108643,-0.03940856084227562,9.759368896484375,-0.040699999779462814,-0.025599999353289604,-0.0011999999405816197,0.06099999926066736,0.12199999852133472,0
0.5814845561981201,-0.019373880699276924,9.76940631866455,0.008700000122189522,-0.02579999901354313,-0.030700000002980232,-0.06099999926066736,-0.06099999926066736,-0.1830000044521087
0.6047275066375732,-0.03239833936095238,9.779653549194336,-0.0007999999797903001,-0.016099998727440834,-0.011099999770522118,0,-0.06099999926066736,-0.06099999926066736
0.5979087352752686,-0.026594793424010277,9.791413307189941,-0.0007999999797903001,-0.016099998727440834,-0.011099999770522118,0,-0.06099999926066736,-0.06099999926066736
0.6282384991645813,-0.025349806994199753,9.766303062438965,0.018699999898672104,-0.006300000008195639,-0.030700000002980232,0.1830000044521087,0,-0.06099999926066736
0.6046221256256104,-0.02717897854745388,9.772375106811523,-0.0007999999797903001,-0.006799999624490738,-0.020899999886751175,0.06099999926066736,0.06099999926066736,-0.12199999852133472
0.5950931906700134,-0.010065224021673203,9.756017684936523,-0.010499999858438969,0.002699999837204814,-0.04050000011920929,0.06099999926066736,-0.06099999926066736,0
0.6178189516067505,-0.022170307114720345,9.764789581298828,0.008799999952316284,-0.0071000000461936,-0.030700000002980232,0.06099999926066736,0.12199999852133472,-0.06099999926066736
0.6274436712265015,-0.010314221493899822,9.773093223571777,0.01899999938905239,0.0023999998811632395,-0.020899999886751175,0,0.06099999926066736,-0.12199999852133472
0.6064225435256958,-0.01123359426856041,9.763094902038574,-0.00039999998989515007,0.002300000051036477,-0.030700000002980232,0.06099999926066736,0.1830000044521087,-0.12199999852133472
0.5974586606025696,-0.02473689243197441,9.761438369750977,-0.009599999524652958,-0.007599999662488699,-0.030700000002980232,0.06099999926066736,-0.06099999926066736,0
0.6073419451713562,-0.023147141560912132,9.767011642456055,0,-0.007699999958276749,-0.030700000002980232,-0.06099999926066736,0,0
0.5973246097564697,-0.020628442987799644,9.760757446289062,-0.009800000116229057,-0.007499999832361937,-0.030700000002980232,0.06099999926066736,0,0
0.6127241253852844,-0.036056678742170334,9.747906684875488,0,-0.017400000244379044,-0.0502999983727932,-0.1830000044521087,-0.06099999926066736,-0.06099999926066736
0.5931203365325928,-0.014317326247692108,9.782889366149902,-0.019600000232458115,0.0024999999441206455,-0.011099999770522118,0,0,-0.1830000044521087
0.6263231635093689,-0.040605660527944565,9.748978614807129,0.019500000402331352,-0.026799999177455902,-0.0502999983727932,0,0.06099999926066736,-0.06099999926066736
0.5985121726989746,-0.04429273307323456,9.772153854370117,-0.009599999524652958,-0.02669999934732914,-0.020899999886751175,0.06099999926066736,0,-0.1830000044521087
0.6035590767860413,-0.036171600222587585,9.776291847229004,0,-0.016999999061226845,-0.020899999886751175,0.06099999926066736,-0.06099999926066736,-0.12199999852133472
0.6328737139701843,-0.0031794998794794083,9.784527778625488,0.02889999933540821,0.0024999999441206455,-0.011099999770522118,0.06099999926066736,-0.06099999926066736,0
0.6328737139701843,-0.0031794998794794083,9.784527778625488,0.02889999933540821,0.0024999999441206455,-0.011099999770522118,0.06099999926066736,-0.06099999926066736,0
0.6071216464042664,-0.005027823615819216,9.76935863494873,-0.0005999999702908099,0.002300000051036477,-0.020899999886751175,-0.12199999852133472,0.1830000044521087,0
0.6048136353492737,-0.020456058904528618,9.748834609985352,-0.00019999999494757503,-0.0071000000461936,-0.0502999983727932,0.06099999926066736,0.12199999852133472,-0.12199999852133472
0.6116802096366882,-0.000804451759904623,9.777986526489258,0.00009999999747378752,0.0023999998811632395,-0.011099999770522118,0.06099999926066736,0.06099999926066736,0
0.6135381460189819,-0.04048116132616997,9.764780044555664,0.009800000116229057,-0.02709999866783619,-0.030700000002980232,0.06099999926066736,0.1830000044521087,0
0.6304316520690918,0.0023558945395052433,9.776799201965332,0.019999999552965164,0.001999999862164259,-0.020899999886751175,0.12199999852133472,0.12199999852133472,0
0.6211900115013123,-0.020561402663588524,9.760049819946289,0.010400000028312206,-0.007899999618530273,-0.030799999833106995,0,-0.06099999926066736,0
0.6161143183708191,-0.03376782312989235,9.761524200439453,0.010199999436736107,-0.01759999990463257,-0.030700000002980232,-0.06099999926066736,0,-0.06099999926066736
0.5975831747055054,-0.02274491637945175,9.785198211669922,-0.009200000204145908,-0.007499999832361937,-0.011099999770522118,0.06099999926066736,0,0
0.598598301410675,-0.013752294704318047,9.755212783813477,-0.009200000204145908,0.001999999862164259,-0.0405999980866909,-0.06099999926066736,0.06099999926066736,-0.12199999852133472
0.6189968585968018,-0.026738446205854416,9.73935317993164,0.010400000028312206,-0.007499999832361937,-0.06019999831914902,-0.06099999926066736,0.1830000044521087,-0.12199999852133472
0.6075621843338013,-0.016883911564946175,9.77397346496582,-0.008499999530613422,0.002300000051036477,0.008299999870359898,0.06099999926066736,0,0
0.6123985052108765,-0.006560112349689007,9.736040115356445,0.00139999995008111,0.002099999925121665,-0.020999999716877937,0.06099999926066736,0.12199999852133472,0
0.6123985052108765,-0.006560112349689007,9.736040115356445,0.0013000000035390258,0.0018999999156221747,-0.06019999831914902,0.06099999926066736,0.12199999852133472,0
0.6003603935241699,-0.03798161819577217,9.7432222366333,-0.008100000210106373,-0.01759999990463257,-0.05040000006556511,0.06099999926066736,0,-0.06099999926066736
0.6180296540260315,-0.004817133769392967,9.774127006530762,0.011299999430775642,0.0016999999061226845,-0.020999999716877937,0,0.06099999926066736,-0.06099999926066736
0.5856887698173523,-0.029630640521645546,9.768065452575684,-0.01769999973475933,-0.01769999973475933,-0.030799999833106995,-0.06099999926066736,0.1830000044521087,0.12199999852133472
0.6114982962608337,-0.03125869855284691,9.770210266113281,0.002300000051036477,-0.01730000041425228,-0.0210999995470047,-0.12199999852133472,0.12199999852133472,-0.06099999926066736
0.6180583834648132,-0.03468719497323036,9.765077590942383,0.012299999594688416,-0.01679999940097332,-0.030899999663233757,0.06099999926066736,0.12199999852133472,-0.06099999926066736
0.6122069954872131,-0.010745177045464516,9.781233787536621,0.00279999990016222,0.0024999999441206455,-0.011299999430775642,0,0.1830000044521087,0
0.611804723739624,-0.03449565917253494,9.748902320861816,0.0037999998312443495,-0.01679999940097332,-0.050599999725818634,-0.06099999926066736,0.06099999926066736,-0.06099999926066736
0.5959072113037109,-0.019661184400320053,9.756447792053223,-0.005799999926239252,-0.006799999624490738,-0.04079999774694443,-0.06099999926066736,-0.06099999926066736,0
0.6144000291824341,-0.023329101502895355,9.762711524963379,0.013399999588727951,-0.006599999964237213,-0.030899999663233757,0.06099999926066736,0,-0.06099999926066736
0.619169294834137,0.0005554548115469515,9.763564109802246,0.013399999588727951,-0.006599999964237213,-0.030899999663233757,0.06099999926066736,0,-0.06099999926066736
0.5984067916870117,-0.020513519644737244,9.776694297790527,0.013299999758601189,0.003000000026077032,-0.030899999663233757,-0.06099999926066736,-0.06099999926066736,0
0.6208069324493408,-0.029257144778966904,9.798921585083008,0.013199999928474426,-0.016200000420212746,0.008200000040233135,0.12199999852133472,0,0
0.5933310389518738,0.00242293206974864,9.737055778503418,-0.016099998727440834,0.003000000026077032,-0.06039999797940254,0,0.12199999852133472,0
0.6268211603164673,-0.02220861427485943,9.733933448791504,-0.016099998727440834,0.003000000026077032,-0.06039999797940254,0,0.06099999926066736,0
0.5873456001281738,-0.016768990084528923,9.756237983703613,-0.015599999576807022,0.003000000026077032,-0.04079999774694443,0.06099999926066736,0.06099999926066736,0
0.5997474789619446,-0.038757335394620895,9.787314414978027,-0.005499999970197678,-0.026099998503923416,-0.011399999260902405,0.06099999926066736,-0.06099999926066736,-0.12199999852133472
0.597209632396698,-0.013512874953448772,9.771608352661133,-0.00559999980032444,0.003000000026077032,-0.021199999377131462,0,0.06099999926066736,0
0.6193320751190186,-0.02104024589061737,9.759054183959961,0.013899999670684338,-0.006599999964237213,-0.03099999949336052,-0.06099999926066736,0.12199999852133472,-0.06099999926066736
0.6414161920547485,-0.03299209848046303,9.785428047180176,0.02369999885559082,0.0031999999191612005,-0.021199999377131462,0.12199999852133472,0.12199999852133472,-0.12199999852133472
0.6269265413284302,-0.032024841755628586,9.75294303894043,0.032899998128414154,-0.01599999889731407,-0.011299999430775642,0.06099999926066736,0.06099999926066736,-0.06099999926066736
0.6012319326400757,-0.031622614711523056,9.76684856414795,-0.0058999997563660145,-0.016300000250339508,-0.03099999949336052,0,0.06099999926066736,0
0.6289855241775513,-0.0030837319791316986,9.779318809509277,0.02319999970495701,0.0031999999191612005,-0.011299999430775642,-0.06099999926066736,0.12199999852133472,0.06099999926066736
0.6143617630004883,-0.01838746853172779,9.758401870727539,0.013599999248981476,0.0032999999821186066,-0.04079999774694443,-0.06099999926066736,0.12199999852133472,-0.06099999926066736
0.608883798122406,-0.02862507663667202,9.759896278381348,0.003999999724328518,-0.006199999712407589,-0.03099999949336052,0,0.1830000044521087,-0.06099999926066736
0.608883798122406,-0.02862507663667202,9.759896278381348,0.003999999724328518,-0.006199999712407589,-0.03099999949336052,0,0.1830000044521087,-0.06099999926066736
0.6130305528640747,-0.006770802661776543,9.763612747192383,0.01489999983459711,0.003399999812245369,-0.03099999949336052,0,0,-0.12199999852133472
0.6130305528640747,-0.006770802661776543,9.763612747192383,0.01489999983459711,0.003399999812245369,-0.03099999949336052,0,0,-0.12199999852133472
0.5966925024986267,-0.010266336612403393,9.747197151184082,-0.0044999998062849045,0.00279999990016222,-0.05069999769330025,-0.06099999926066736,0.1830000044521087,0
0.5966925024986267,-0.010266336612403393,9.747197151184082,-0.0044999998062849045,0.00279999990016222,-0.05069999769330025,-0.06099999926066736,0.1830000044521087,0
0.6085965037345886,0.0060429647564888,9.747618675231934,-0.013799999840557575,-0.02630000002682209,-0.04089999943971634,-0.06099999926066736,-0.06099999926066736,-0.12199999852133472
0.6018544435501099,-0.006789956241846085,9.754868507385254,0.005499999970197678,0.0031999999191612005,-0.05069999769330025,0.06099999926066736,0.12199999852133472,-0.06099999926066736
0.6125516891479492,-0.010371682234108448,9.73397159576416,-0.0038999998942017555,0.003499999875202775,-0.04089999943971634,0,0.12199999852133472,-0.06099999926066736
0.6144479513168335,-0.022898145020008087,9.788042068481445,0.016200000420212746,-0.006399999838322401,-0.0016999999061226845,0.06099999926066736,0.1830000044521087,-0.12199999852133472
0.5785923600196838,-0.04196557030081749,9.755155563354492,-0.02239999920129776,-0.026099998503923416,-0.04089999943971634,0.06099999926066736,0.06099999926066736,-0.06099999926066736
0.6074090003967285,-0.019661184400320053,9.748135566711426,0.0071000000461936,-0.0066999997943639755,-0.05079999938607216,0,0.06099999926066736,0.06099999926066736
0.6074185371398926,0.003217807039618492,9.797648429870605,0.007199999876320362,0.003000000026077032,0.007999999448657036,-0.12199999852133472,0,0.12199999852133472
0.6186425685882568,-0.004932055249810219,9.771273612976074,0.016699999570846558,0.0032999999821186066,-0.021299999207258224,0.06099999926066736,0.06099999926066736,-0.06099999926066736
0.5955433249473572,-0.047644615173339844,9.782066345214844,-0.0026000000070780516,-0.025699999183416367,-0.011500000022351742,-0.06099999926066736,0,0.06099999926066736
0.6166505813598633,-0.01623268611729145,9.750290870666504,0.01679999940097332,0.003700000001117587,-0.04099999740719795,0.06099999926066736,0.06099999926066736,0
0.6329886317253113,0.009375694207847118,9.775525093078613,0.035999998450279236,0.003499999875202775,-0.021299999207258224,0,0.12199999852133472,-0.1830000044521087
0.6047370433807373,-0.0431339368224144,9.8021879196167,0.0066999997943639755,-0.025100000202655792,0.007999999448657036,-0.06099999926066736,0.24399999704266945,0.06099999926066736
0.5900749564170837,-0.01947922445833683,9.770689010620117,0.0066999997943639755,-0.025100000202655792,0.007999999448657036,0.06099999926066736,0.1830000044521087,0
0.6249728202819824,-0.012957419268786907,9.754331588745117,0.027499999850988388,0.00419999985024333,-0.04099999740719795,0,0.12199999852133472,0.06099999926066736
0.6249728202819824,-0.012957419268786907,9.754331588745117,0.027499999850988388,0.00419999985024333,-0.04099999740719795,0,0.12199999852133472,0.06099999926066736
0.6151853799819946,-0.03205357491970062,9.74210262298584,0.017999999225139618,-0.01529999915510416,-0.05079999938607216,0.12199999852133472,0.12199999852133472,-0.12199999852133472
0.6062501668930054,-0.017314866185188293,9.763296127319336,0.028099998831748962,-0.015599999576807022,-0.031199999153614044,-0.06099999926066736,-0.06099999926066736,-0.1830000044521087
0.6062501668930054,-0.017314866185188293,9.763296127319336,0.008200000040233135,0.004100000020116568,-0.031199999153614044,0,0,0
0.6122452616691589,-0.024468740448355675,9.766226768493652,0.008200000040233135,-0.00559999980032444,-0.031199999153614044,0,0.06099999926066736,0
0.6127527952194214,-0.03326982632279396,9.766303062438965,0.008299999870359898,-0.015399999916553497,-0.031199999153614044,0.06099999926066736,0.12199999852133472,0.06099999926066736
0.6146394610404968,-0.015255853533744812,9.773361206054688,0.01860000006854534,0.0037999998312443495,-0.02149999886751175,0,0.12199999852133472,0
0.6161621809005737,-0.01368525717407465,9.750243186950684,0.01889999955892563,0.0037999998312443495,-0.041099999099969864,-0.06099999926066736,0.24399999704266945,0
0.6084911227226257,-0.03196737915277481,9.765297889709473,0.00989999994635582,-0.01549999974668026,-0.031300000846385956,-0.06099999926066736,0,-0.06099999926066736
0.6132603883743286,0.009337387047708035,9.782219886779785,0.019700000062584877,0.00419999985024333,-0.011699999682605267,-0.12199999852133472,0.06099999926066736,-0.06099999926066736
0.613633930683136,-0.017994819208979607,9.795387268066406,0.01979999989271164,0.0044999998062849045,-0.0018999999156221747,0,0.06099999926066736,-0.06099999926066736
0.6156545877456665,-0.018052279949188232,9.77900218963623,0.019899999722838402,0.0044999998062849045,-0.011699999682605267,-0.06099999926066736,-0.06099999926066736,-0.06099999926066736
0.6136051416397095,-0.025301923975348473,9.78205680847168,0.019600000232458115,-0.0050999997183680534,-0.011699999682605267,0,0.06099999926066736,0.06099999926066736
0.610080897808075,-0.014326903037726879,9.783167839050293,0.009999999776482582,0.004600000102072954,-0.011699999682605267,-0.06099999926066736,0.12199999852133472,-0.06099999926066736
0.6279608011245728,-0.018109740689396858,9.773016929626465,0.02979999966919422,0.004799999762326479,-0.02149999886751175,0.06099999926066736,0,-0.12199999852133472
0.6220998167991638,-0.03214934095740318,9.790647506713867,0.019899999722838402,-0.01489999983459711,-0.0018999999156221747,0.06099999926066736,0.12199999852133472,-0.06099999926066736
0.6265434622764587,-0.04286578670144081,9.760241508483887,0.029899999499320984,-0.024799998849630356,-0.031300000846385956,-0.12199999852133472,0.1830000044521087,0.06099999926066736
0.6058192253112793,-0.04817133769392967,9.761007308959961,0.020499998703598976,-0.004799999762326479,-0.011799999512732029,-0.06099999926066736,0.1830000044521087,-0.06099999926066736
0.6279799938201904,-0.015112200751900673,9.794343948364258,0.02969999983906746,0.004699999932199717,-0.0018999999156221747,-0.06099999926066736,0.1830000044521087,-0.12199999852133472
0.596213698387146,-0.01469082199037075,9.801871299743652,0.0007999999797903001,0.004699999932199717,0.007799999788403511,-0.06099999926066736,0.12199999852133472,0
0.619504451751709,-0.038642413914203644,9.753968238830566,0.020399998873472214,-0.02419999986886978,-0.041200000792741776,0.06099999926066736,-0.06099999926066736,0
0.6166219115257263,-0.025866955518722534,9.75822925567627,0.019999999552965164,-0.004699999932199717,-0.041099999099969864,0,0.06099999926066736,0
0.6166219115257263,-0.025866955518722534,9.75822925567627,0.019999999552965164,-0.004699999932199717,-0.041099999099969864,0,0.06099999926066736,0
0.6059245467185974,-0.004960786085575819,9.741058349609375,0.010199999436736107,0.004999999888241291,-0.050999999046325684,0,0,-0.06099999926066736
0.6104448437690735,-0.011712434701621532,9.772432327270508,0.009999999776482582,0.004900000058114529,-0.02149999886751175,0,0,-0.06099999926066736
0.6142563819885254,-0.005784391425549984,9.74259090423584,0.019600000232458115,0.004799999762326479,-0.05089999735355377,-0.06099999926066736,0.12199999852133472,0
0.6333908438682556,-0.027638664469122887,9.765881538391113,0.03929999843239784,-0.004900000058114529,-0.031300000846385956,0.06099999926066736,0.12199999852133472,0
0.625882625579834,-0.019258959218859673,9.769386291503906,0.029199998825788498,-0.004999999888241291,-0.02149999886751175,0.12199999852133472,0.06099999926066736,0
0.6406117677688599,-0.03783796355128288,9.74930477142334,0.038599997758865356,-0.01489999983459711,-0.041099999099969864,0,0.12199999852133472,-0.06099999926066736
0.6078974008560181,-0.02158612199127674,9.753077507019043,0.009399999864399433,-0.004999999888241291,-0.041099999099969864,0,0.12199999852133472,0
0.6130496859550476,-0.022122424095869064,9.804965019226074,0.01899999938905239,-0.004900000058114529,0.007799999788403511,0,0.06099999926066736,0.12199999852133472
0.6110577583312988,-0.020657172426581383,9.756678581237793,0.009200000204145908,-0.004799999762326479,-0.041099999099969864,0,0.06099999926066736,0
0.6128773093223572,-0.01912488415837288,9.774740219116211,0.009200000204145908,0.004799999762326479,-0.02149999886751175,0,0.06099999926066736,0
0.6003699898719788,-0.01517923828214407,9.762931823730469,-0.00039999998989515007,0.004799999762326479,-0.031300000846385956,0,0.06099999926066736,0
0.624675989151001,-0.002288856776431203,9.766073226928711,0.028699999675154686,0.004699999932199717,-0.031300000846385956,0,0,0
0.619504451751709,-0.02580949477851391,9.771943092346191,0.01850000023841858,-0.004900000058114529,-0.021399999037384987,0,0.12199999852133472,0
0.5901036858558655,-0.03668874874711037,9.763649940490723,-0.010400000028312206,-0.014499999582767487,-0.031300000846385956,0.1830000044521087,0.06099999926066736,0
0.6340420246124268,-0.020858285948634148,9.768707275390625,0.03799999877810478,-0.005200000014156103,-0.021399999037384987,-0.06099999926066736,0,0
0.6025822758674622,-0.035721488296985626,9.740723609924316,-0.00139999995008111,-0.014099999330937862,-0.05079999938607216,0.06099999926066736,0.12199999852133472,-0.06099999926066736
0.6025822758674622,-0.035721488296985626,9.740723609924316,-0.00139999995008111,-0.014099999330937862,-0.05079999938607216,0.06099999926066736,0.12199999852133472,-0.06099999926066736
0.6096212267875671,-0.02950614131987095,9.777688980102539,0.00839999970048666,-0.0139999995008111,-0.021399999037384987,0.06099999926066736,0.1830000044521087,-0.12199999852133472
0.6316382884979248,-0.048880018293857574,9.765852928161621,0.028099998831748962,-0.033299997448921204,-0.031199999153614044,-0.06099999926066736,0.06099999926066736,-0.06099999926066736
0.5918657779693604,-0.038163572549819946,9.764809608459473,-0.010699999518692493,-0.013299999758601189,-0.031300000846385956,0.12199999852133472,0.12199999852133472,-0.06099999926066736
0.6017586588859558,-0.020848708227276802,9.761207580566406,-0.010400000028312206,-0.003700000001117587,-0.05089999735355377,-0.06099999926066736,0.24399999704266945,-0.06099999926066736
0.6339942216873169,-0.013464991003274918,9.749763488769531,0.03949999809265137,0.006000000052154064,-0.041099999099969864,-0.12199999852133472,0,0
0.608768880367279,-0.019728220999240875,9.759283065795898,0.010099999606609344,-0.003399999812245369,-0.031300000846385956,-0.06099999926066736,0,-0.06099999926066736
0.6039900779724121,-0.018598157912492752,9.758756637573242,0.010099999606609344,0.0064999996684491634,-0.041099999099969864,0.06099999926066736,0.06099999926066736,-0.12199999852133472
0.6059820652008057,-0.019440917298197746,9.756458282470703,0.010199999436736107,-0.003399999812245369,-0.041099999099969864,0.06099999926066736,0.06099999926066736,0.12199999852133472
0.5921531319618225,-0.026240449398756027,9.76712703704834,-0.009099999442696571,-0.003499999875202775,-0.03139999881386757,0,0.24399999704266945,-0.06099999926066736
0.608558177947998,-0.038996756076812744,9.738492012023926,0.010999999940395355,-0.02319999970495701,-0.06079999729990959,0,0,0
0.6109715700149536,-0.03615244850516319,9.766179084777832,0.010999999940395355,-0.013299999758601189,-0.03139999881386757,0.06099999926066736,0.06099999926066736,-0.06099999926066736
0.6177902221679688,-0.023654712364077568,9.753670692443848,0.010999999940395355,-0.013299999758601189,-0.03139999881386757,0.12199999852133472,0,-0.12199999852133472
0.6175987124443054,-0.036573827266693115,9.77414608001709,0.020899999886751175,-0.013799999840557575,-0.02159999869763851,-0.12199999852133472,0.12199999852133472,0.12199999852133472
0.6214389801025391,-0.03637271001935005,9.777153015136719,0.021199999377131462,-0.013299999758601189,-0.02159999869763851,0,0,0
0.6062789559364319,-0.05467398837208748,9.80984878540039,0.011399999260902405,-0.03280000016093254,0.017500000074505806,-0.06099999926066736,0.12199999852133472,0
0.6209027171134949,-0.0193164199590683,9.772662162780762,0.021399999037384987,-0.0032999999821186066,-0.02159999869763851,0,0.12199999852133472,0
0.6200120449066162,-0.012536040507256985,9.78174114227295,0.021699998527765274,0.006399999838322401,-0.011799999512732029,0,0.12199999852133472,0
0.6175603866577148,-0.04466622695326805,9.789316177368164,0.021900000050663948,-0.02279999852180481,-0.001999999862164259,0.06099999926066736,0.06099999926066736,0
0.6363404989242554,-0.00484586413949728,9.771292686462402,0.041600000113248825,0.006399999838322401,-0.021699998527765274,-0.06099999926066736,0.12199999852133472,0
0.5965871810913086,-0.024535780772566795,9.792657852172852,0.00279999990016222,-0.002899999963119626,-0.002099999925121665,0.12199999852133472,0.06099999926066736,0.06099999926066736
0.6092573404312134,-0.024497471749782562,9.777326583862305,0.01249999925494194,-0.0031999999191612005,-0.021699998527765274,0.12199999852133472,0.06099999926066736,0
0.5907931923866272,0.0005841852398589253,9.776646614074707,-0.0066999997943639755,0.006099999882280827,-0.021699998527765274,0,0.12199999852133472,-0.06099999926066736
0.5907931923866272,0.0005841852398589253,9.776646614074707,-0.0066999997943639755,0.006099999882280827,-0.021699998527765274,0,0.12199999852133472,-0.06099999926066736
0.5972288250923157,-0.003303998149931431,9.753662109375,0.003700000001117587,0.006000000052154064,-0.04129999876022339,0,0.12199999852133472,0
0.6286311745643616,-0.03797203674912453,9.763899803161621,0.033399999141693115,-0.013499999418854713,-0.031599998474121094,-0.06099999926066736,0,-0.06099999926066736
0.6286311745643616,-0.03797203674912453,9.763899803161621,0.033399999141693115,-0.013499999418854713,-0.031599998474121094,-0.06099999926066736,0,-0.06099999926066736
0.6018352508544922,-0.017209522426128387,9.747178077697754,0.004100000020116568,0.006099999882280827,-0.05119999870657921,-0.06099999926066736,0.06099999926066736,-0.06099999926066736
0.6290237903594971,-0.010620678775012493,9.757329940795898,0.03359999880194664,0.006199999712407589,-0.0414000004529953,0,0.06099999926066736,0
0.6423547267913818,-0.026738446205854416,9.74471664428711,0.05329999700188637,-0.003499999875202775,-0.05119999870657921,-0.06099999926066736,0,-0.06099999926066736
0.6079548597335815,-0.00674207229167223,9.754322052001953,0.014099999330937862,0.006399999838322401,-0.0414000004529953,0.12199999852133472,0.12199999852133472,-0.12199999852133472
0.6201940178871155,-0.03481169044971466,9.766101837158203,0.014099999330937862,0.006399999838322401,-0.0414000004529953,0,0.06099999926066736,-0.1830000044521087
0.5989047884941101,-0.029889212921261787,9.756085395812988,0.004699999932199717,-0.013499999418854713,-0.0414000004529953,0,0.1830000044521087,0
0.5984642505645752,-0.050728343427181244,9.753508567810059,0.005200000014156103,-0.032999999821186066,-0.0414000004529953,0.06099999926066736,0.06099999926066736,0
0.6332376003265381,-0.03000413440167904,9.773380279541016,0.044499997049570084,-0.013499999418854713,-0.021800000220537186,0,0,-0.06099999926066736
0.6180775165557861,-0.012698845937848091,9.79104995727539,0.0050999997183680534,0.0058999997563660145,-0.031599998474121094,0,0.06099999926066736,0
0.6180775165557861,-0.012698845937848091,9.79104995727539,0.025499999523162842,0.005799999926239252,-0.002300000051036477,0,0.06099999926066736,0
0.6216018199920654,-0.030597899109125137,9.792917251586914,0.025499999523162842,-0.013599999248981476,-0.002199999988079071,0.06099999926066736,0,-0.06099999926066736
0.6197918057441711,-0.005324704572558403,9.780141830444336,0.025100000202655792,0.0052999998442828655,-0.012000000104308128,0.06099999926066736,0.06099999926066736,-0.06099999926066736
0.6197918057441711,-0.005324704572558403,9.780141830444336,0.025100000202655792,0.0052999998442828655,-0.012000000104308128,0.06099999926066736,0.06099999926066736,-0.06099999926066736
0.6103203296661377,-0.01886630989611149,9.752694129943848,0.01549999974668026,0.0050999997183680534,-0.04149999842047691,0,0,0
0.6213815212249756,-0.024152705445885658,9.774319648742676,0.025299999862909317,-0.0044999998062849045,-0.021800000220537186,0,0.06099999926066736,0
0.6213815212249756,-0.024152705445885658,9.774319648742676,0.025299999862909317,-0.0044999998062849045,-0.021800000220537186,0,0.06099999926066736,0
0.6032047867774963,-0.004539406392723322,9.771302223205566,0.005799999926239252,0.005200000014156103,-0.021900000050663948,0,0.12199999852133472,0
0.6048232316970825,-0.0004692635266110301,9.759215354919434,0.01589999906718731,0.005200000014156103,-0.031700000166893005,0.12199999852133472,0.12199999852133472,0
0.592995822429657,-0.02921883761882782,9.787046432495117,0.035599999129772186,-0.004799999762326479,-0.01209999993443489,-0.06099999926066736,0,-0.06099999926066736
0.632500171661377,-0.027092786505818367,9.764616966247559,0.044999998062849045,-0.0044999998062849045,-0.031700000166893005,0.06099999926066736,0.06099999926066736,-0.06099999926066736
0.6040666699409485,-0.04004063084721565,9.766120910644531,0.015399999916553497,-0.023799998685717583,-0.031700000166893005,-0.12199999852133472,0,0
0.6204429864883423,-0.010745177045464516,9.77856159210205,0.024299999698996544,0.00559999980032444,-0.012000000104308128,0,0.06099999926066736,-0.06099999926066736
0.6134040355682373,-0.02542642131447792,9.793213844299316,0.02319999970495701,-0.0038999998942017555,-0.002099999925121665,0.06099999926066736,0.12199999852133472,-0.06099999926066736
0.6144383549690247,-0.014767436310648918,9.767701148986816,0.023099999874830246,0.005499999970197678,-0.03150000050663948,0.06099999926066736,0,0
0.6267828345298767,-0.04116111248731613,9.765288352966309,0.03229999914765358,-0.023499999195337296,-0.03150000050663948,0,0.06099999926066736,-0.12199999852133472
0.6169092059135437,-0.01729571260511875,9.746211051940918,0.022299999371170998,0.005699999630451202,-0.0510999970138073,0,0.12199999852133472,0.06099999926066736
0.6467600464820862,-0.03592260181903839,9.789958000183105,0.04959999769926071,-0.013199999928474426,-0.0018999999156221747,0,0.12199999852133472,0.06099999926066736
0.638313353061676,-0.026642676442861557,9.766073226928711,0.03929999843239784,-0.0032999999821186066,-0.031300000846385956,0,0.12199999852133472,0.06099999926066736
0.6270893216133118,-0.025464728474617004,9.752388000488281,0.029500000178813934,-0.0031999999191612005,-0.041099999099969864,0.12199999852133472,0.12199999852133472,0
0.6242641806602478,-0.004261679016053677,9.769769668579102,0.028999999165534973,0.006099999882280827,-0.02149999886751175,0.06099999926066736,0.12199999852133472,0
0.6445669531822205,-0.02089659310877323,9.768035888671875,0.04809999838471413,-0.0037999998312443495,-0.031300000846385956,0,0,0.06099999926066736
0.6034250259399414,-0.04158249497413635,9.746479034423828,0.008700000122189522,-0.023099999874830246,-0.05089999735355377,-0.06099999926066736,0.12199999852133472,0
0.5999581813812256,-0.010314221493899822,9.758986473083496,-0.000699999975040555,0.006300000008195639,-0.031300000846385956,0.06099999926066736,0.1830000044521087,0.06099999926066736
0.5999581813812256,-0.010314221493899822,9.758986473083496,-0.000699999975040555,0.006300000008195639,-0.031300000846385956,0.06099999926066736,0.1830000044521087,0.06099999926066736
0.6058766841888428,-0.006876147352159023,9.749151229858398,0.00930000003427267,0.006099999882280827,-0.05089999735355377,-0.06099999926066736,0.06099999926066736,0
0.6130592823028564,-0.04507802799344063,9.767165184020996,0.018699999898672104,-0.022699998691678047,-0.031300000846385956,0,0.1830000044521087,0.06099999926066736
0.616142988204956,-0.009605537168681622,9.785618782043457,0.01860000006854534,0.006399999838322401,-0.011599999852478504,0.06099999926066736,0.1830000044521087,-0.06099999926066736
0.6235267519950867,-0.04412034898996353,9.78877067565918,0.027699999511241913,-0.02199999988079071,-0.0017999999690800905,-0.06099999926066736,0.12199999852133472,0.12199999852133472
0.5911380052566528,-0.036200329661369324,9.768850326538086,-0.010999999940395355,-0.011799999512732029,-0.021399999037384987,0.06099999926066736,0.06099999926066736,-0.06099999926066736
0.6139690279960632,-0.02632664144039154,9.769904136657715,0.01809999905526638,-0.002099999925121665,-0.021399999037384987,0.12199999852133472,0.06099999926066736,0
0.626514732837677,-0.040394969284534454,9.75356674194336,0.02759999968111515,-0.021699998527765274,-0.04099999740719795,0,0.06099999926066736,0
0.6159131526947021,-0.05406107380986214,9.762568473815918,0.01769999973475933,-0.03099999949336052,-0.031199999153614044,0.06099999926066736,0.1830000044521087,-0.12199999852133472
0.6159131526947021,-0.05406107380986214,9.762568473815918,0.01769999973475933,-0.03099999949336052,-0.031199999153614044,0.06099999926066736,0.1830000044521087,-0.12199999852133472
0.6234596967697144,-0.02952529489994049,9.7821044921875,0.026999998837709427,-0.010999999940395355,-0.011599999852478504,0.06099999926066736,0,0
0.6366181969642639,0.0012354080099612474,9.766303062438965,0.03619999811053276,0.008200000040233135,-0.031099999323487282,0.12199999852133472,0.12199999852133472,0
0.6127623915672302,-0.0013024457730352879,9.751727104187012,0.00699999975040555,0.007799999788403511,-0.04099999740719795,-0.06099999926066736,0.12199999852133472,0.06099999926066736
0.6198300719261169,-0.03229299187660217,9.746689796447754,0.016899999231100082,-0.011399999260902405,-0.05079999938607216,-0.06099999926066736,0.06099999926066736,0
0.6026971936225891,-0.029276298359036446,9.769444465637207,-0.0023999998811632395,-0.010999999940395355,-0.021399999037384987,0.06099999926066736,0.06099999926066736,-0.06099999926066736
0.6153864860534668,0.005995080806314945,9.757329940795898,-0.002199999988079071,-0.02029999904334545,0.007999999448657036,0,0.1830000044521087,-0.06099999926066736
0.6270318627357483,-0.012756306678056717,9.78646183013916,0.02709999866783619,0.008599999360740185,-0.011599999852478504,0.06099999926066736,0.06099999926066736,0
0.6255091428756714,-0.014671668410301208,9.750511169433594,0.026899999007582664,0.00839999970048666,-0.04099999740719795,-0.06099999926066736,0,0
0.6255091428756714,-0.014671668410301208,9.750511169433594,0.026899999007582664,0.00839999970048666,-0.04099999740719795,-0.06099999926066736,0,0
0.6350189447402954,0.0017046716529875994,9.76094913482666,0.03659999743103981,0.008799999952316284,-0.031199999153614044,-0.06099999926066736,0.1830000044521087,-0.06099999926066736
0.6006764769554138,-0.04822879657149315,9.757166862487793,0.03659999743103981,0.008799999952316284,-0.031199999153614044,0.06099999926066736,0.12199999852133472,0.06099999926066736
0.6242066621780396,-0.04630386084318161,9.757779121398926,0.02719999849796295,-0.019899999722838402,-0.04099999740719795,-0.06099999926066736,0.12199999852133472,0
0.6165739893913269,-0.019163191318511963,9.768342971801758,0.017400000244379044,0,-0.021399999037384987,0,0.06099999926066736,0.06099999926066736
0.6156162619590759,-0.03457227349281311,9.757512092590332,0.017400000244379044,0,-0.021399999037384987,0,0,-0.06099999926066736
0.6202898025512695,-0.03952348232269287,9.784087181091309,0.016899999231100082,-0.01899999938905239,-0.011500000022351742,0.06099999926066736,0.06099999926066736,0
0.6202898025512695,-0.03952348232269287,9.784087181091309,0.016899999231100082,-0.01899999938905239,-0.011500000022351742,0.06099999926066736,0.06099999926066736,0
0.6197438836097717,-0.02175850421190262,9.770238876342773,-0.0023999998811632395,0.009999999776482582,-0.06059999763965607,0.06099999926066736,0.1830000044521087,-0.12199999852133472
0.5854589343070984,-0.024344241246581078,9.778742790222168,-0.011399999260902405,-0.00019999999494757503,-0.011599999852478504,0.06099999926066736,0.12199999852133472,0
0.5854589343070984,-0.024344241246581078,9.778742790222168,-0.011399999260902405,-0.00019999999494757503,-0.011599999852478504,0.06099999926066736,0.12199999852133472,0
0.6097457408905029,-0.021854272112250328,9.777517318725586,0.007400000002235174,-0.0007999999797903001,-0.021399999037384987,0,0.12199999852133472,-0.06099999926066736
0.6143521666526794,-0.005832275375723839,9.752666473388672,0.007400000002235174,-0.0007999999797903001,-0.021399999037384987,0.06099999926066736,0.06099999926066736,-0.06099999926066736
0.6129443645477295,-0.025340231135487556,9.756017684936523,0.01679999940097332,-0.0009999999310821295,-0.04099999740719795,0,0.06099999926066736,0
0.619925856590271,-0.013062763959169388,9.754082679748535,0.01679999940097332,-0.0009999999310821295,-0.04099999740719795,-0.06099999926066736,0.06099999926066736,0
0.5952847003936768,-0.028596345335245132,9.787036895751953,-0.002899999963119626,-0.0007999999797903001,-0.011500000022351742,-0.06099999926066736,0.06099999926066736,0
0.6093626022338867,-0.024631548672914505,9.765144348144531,0.006599999964237213,-0.0005999999702908099,-0.031099999323487282,0.1830000044521087,0.1830000044521087,0
0.5955049991607666,-0.03449565917253494,9.753833770751953,-0.002699999837204814,-0.0010999999940395355,-0.031099999323487282,0,0.06099999926066736,0.06099999926066736
0.6230670809745789,-0.03990655392408371,9.765680313110352,0.026200000196695328,-0.02019999921321869,-0.031099999323487282,0,0.06099999926066736,0
0.6230670809745789,-0.03990655392408371,9.765680313110352,0.026200000196695328,-0.02019999921321869,-0.031099999323487282,0,0.06099999926066736,0
0.6202802062034607,-0.01727655902504921,9.779892921447754,0.01599999889731407,0.008999999612569809,-0.011500000022351742,0,0.12199999852133472,0
0.5873264074325562,0.006521805189549923,9.785629272460938,-0.012999999336898327,0.008799999952316284,-0.011500000022351742,0,0.06099999926066736,0
0.6032238602638245,-0.005583278369158506,9.766446113586426,-0.003399999812245369,0.008999999612569809,-0.031099999323487282,0,0,0
0.6030227541923523,-0.03402639552950859,9.784690856933594,-0.003599999938160181,-0.010199999436736107,-0.011500000022351742,0.06099999926066736,0.1830000044521087,-0.1830000044521087
0.6030227541923523,-0.03402639552950859,9.784690856933594,-0.003599999938160181,-0.010199999436736107,-0.011500000022351742,0.06099999926066736,0.1830000044521087,-0.1830000044521087
0.6188149452209473,-0.010572794824838638,9.761858940124512,0.044999998062849045,-0.0005999999702908099,-0.031099999323487282,-0.06099999926066736,0.12199999852133472,-0.06099999926066736
0.6073323488235474,-0.02950614131987095,9.755041122436523,0.005499999970197678,-0.010099999606609344,-0.04089999943971634,0.06099999926066736,0.12199999852133472,-0.12199999852133472
0.5998624563217163,-0.039303213357925415,9.772671699523926,-0.003999999724328518,-0.019700000062584877,-0.021299999207258224,-0.06099999926066736,0,-0.06099999926066736
0.6015384197235107,-0.033068712800741196,9.807463645935059,-0.004100000020116568,-0.009499999694526196,0.017899999395012856,0.06099999926066736,0.1830000044521087,-0.12199999852133472
0.6356222629547119,-0.056838348507881165,9.796987533569336,0.03399999812245369,-0.028099998831748962,-0.0015999999595806003,0,0.24399999704266945,0
0.6208356618881226,-0.05635950714349747,9.79535961151123,0.0142000000923872,-0.02709999866783619,-0.0015999999595806003,0.06099999926066736,0.06099999926066736,0
0.6076962947845459,-0.028491001576185226,9.739928245544434,0.004299999680370092,0.002099999925121665,-0.050599999725818634,-0.06099999926066736,0.06099999926066736,-0.06099999926066736
0.6219274401664734,-0.033662475645542145,9.753220558166504,0.013899999670684338,-0.007400000002235174,-0.04079999774694443,-0.12199999852133472,-0.06099999926066736,-0.06099999926066736
0.6185468435287476,-0.029640216380357742,9.732027053833008,0.013399999588727951,-0.006899999920278788,-0.06039999797940254,0,0.12199999852133472,-0.12199999852133472
0.5815228819847107,-0.002269703196361661,9.760135650634766,-0.025299999862909317,0.012399999424815178,-0.03099999949336052,0,0.1830000044521087,-0.06099999926066736
0.6294835209846497,-0.027380090206861496,9.747992515563965,0.023599999025464058,0.0026000000070780516,-0.050599999725818634,0,0.06099999926066736,-0.06099999926066736
0.6048424243927002,-0.03339432552456856,9.725984573364258,0.0038999998942017555,-0.00699999975040555,-0.07019999623298645,0.06099999926066736,0.12199999852133472,-0.06099999926066736
0.6145628690719604,-0.029199684038758278,9.76881217956543,0.013599999248981476,-0.00699999975040555,-0.0210999995470047,0.06099999926066736,0.12199999852133472,-0.06099999926066736
0.6101287603378296,-0.03549164533615112,9.778197288513184,0.0037999998312443495,-0.00699999975040555,-0.011299999430775642,0,0.06099999926066736,0
0.6295027136802673,-0.020934900268912315,9.771014213562012,0.02290000021457672,0.002699999837204814,-0.0210999995470047,0.12199999852133472,0.12199999852133472,-0.06099999926066736
0.6334099769592285,-0.03529053181409836,9.761083602905273,0.03240000084042549,-0.0071000000461936,-0.030899999663233757,0.12199999852133472,0.12199999852133472,-0.06099999926066736
0.6152044534683228,-0.03668874874711037,9.78002643585205,0.012799999676644802,-0.0072999997064471245,-0.011299999430775642,-0.06099999926066736,0.12199999852133472,-0.06099999926066736
0.6250016093254089,-0.01670195162296295,9.766742706298828,0.02239999920129776,0.012199999764561653,-0.030899999663233757,-0.12199999852133472,0.12199999852133472,0
0.630632758140564,-0.0325898751616478,9.770468711853027,0.022199999541044235,-0.006799999624490738,-0.0210999995470047,-0.06099999926066736,-0.06099999926066736,-0.06099999926066736
0.6020459532737732,-0.030980970710515976,9.733128547668457,-0.007400000002235174,-0.0064999996684491634,-0.06030000001192093,0,-0.06099999926066736,0
0.6020459532737732,-0.030980970710515976,9.733128547668457,-0.007400000002235174,-0.0064999996684491634,-0.06030000001192093,0,-0.06099999926066736,0
0.6044976115226746,-0.023999476805329323,9.788578987121582,0.0017999999690800905,0.0030999998562037945,-0.00139999995008111,0.06099999926066736,0.06099999926066736,-0.06099999926066736
0.626840353012085,-0.013034033589065075,9.766054153442383,0.020999999716877937,0.01249999925494194,-0.030799999833106995,0.06099999926066736,0.12199999852133472,-0.06099999926066736
0.5916934013366699,-0.03822103515267372,9.7838773727417,-0.01759999990463257,-0.00699999975040555,-0.01119999960064888,-0.06099999926066736,0.06099999926066736,-0.06099999926066736
0.640506386756897,-0.019469648599624634,9.774079322814941,0.030799999833106995,0.00279999990016222,-0.020999999716877937,0,0.12199999852133472,-0.1830000044521087
0.6152140498161316,-0.014796166680753231,9.768888473510742,0.011099999770522118,0.012399999424815178,-0.020999999716877937,0,0.24399999704266945,-0.12199999852133472
0.621008038520813,-0.026058491319417953,9.748470306396484,0.011399999260902405,0.0026000000070780516,-0.05040000006556511,0.06099999926066736,0.1830000044521087,-0.06099999926066736
0.6595163345336914,-0.004501099232584238,9.806957244873047,0.05009999871253967,0.01209999993443489,0.018199998885393143,-0.06099999926066736,0,-0.3049999896332302
0.6291483044624329,-0.020963631570339203,9.805845260620117,0.020499998703598976,0.0023999998811632395,0.00839999970048666,0.06099999926066736,0.12199999852133472,-0.06099999926066736
0.612139880657196,-0.0063973069190979,9.755547523498535,0.0009999999310821295,0.01209999993443489,-0.0405999980866909,0,0.1830000044521087,0
0.6062118411064148,-0.04028962552547455,9.776626586914062,0.0013000000035390258,-0.017099998891353607,-0.020999999716877937,-0.06099999926066736,0.06099999926066736,0
0.6106650829315186,-0.026929982006549835,9.790321350097656,0.0013000000035390258,0.0026000000070780516,-0.00139999995008111,-0.06099999926066736,0.12199999852133472,-0.06099999926066736
0.5938003659248352,-0.03073197416961193,9.757597923278809,-0.008299999870359898,-0.006899999920278788,-0.0405999980866909,0,0,0.06099999926066736
0.6101383566856384,-0.03156515583395958,9.745684623718262,0.0011999999405816197,-0.006899999920278788,-0.05040000006556511,0,0.06099999926066736,0.06099999926066736
0.6196097731590271,-0.024296358227729797,9.771167755126953,0.030499998480081558,-0.006799999624490738,-0.020999999716877937,-0.06099999926066736,0.12199999852133472,-0.06099999926066736
0.6196097731590271,-0.024296358227729797,9.771167755126953,0.010999999940395355,0.0030999998562037945,-0.020999999716877937,-0.06099999926066736,0.06099999926066736,0
0.5903335213661194,-0.006071695126593113,9.77743148803711,0.010900000110268593,0.013100000098347664,-0.020999999716877937,0.12199999852133472,-0.12199999852133472,-0.06099999926066736
0.5903335213661194,-0.006071695126593113,9.77743148803711,-0.018199998885393143,0.013100000098347664,-0.020999999716877937,0.12199999852133472,-0.12199999852133472,-0.06099999926066736
0.5913582444190979,-0.011540052480995655,9.753134727478027,-0.018299998715519905,0.012299999594688416,-0.0405999980866909,0.06099999926066736,0.12199999852133472,0.06099999926066736
0.6039612889289856,-0.020647596567869186,9.773112297058105,-0.018299998715519905,0.012299999594688416,-0.0405999980866909,0,0.12199999852133472,0
0.6038559675216675,-0.007364564575254917,9.798423767089844,0.00139999995008111,0.011899999342858791,0.008299999870359898,0,0,0
0.6110960841178894,-0.010764330625534058,9.762874603271484,0.0010999999940395355,0.011799999512732029,-0.030799999833106995,-0.12199999852133472,0.06099999926066736,-0.12199999852133472
0.6000730991363525,-0.015677232295274734,9.754714965820312,-0.008599999360740185,0.012000000104308128,-0.0405999980866909,-0.06099999926066736,0,0
0.6149171590805054,-0.022658726200461388,9.797341346740723,0.010499999858438969,0.002300000051036477,0.00839999970048666,0,0.06099999926066736,-0.12199999852133472
0.6172922253608704,-0.024631548672914505,9.759552001953125,0.010300000198185444,0.002300000051036477,-0.030700000002980232,0,0,-0.06099999926066736
0.6099372506141663,-0.009299078956246376,9.788827896118164,0.00029999998514540493,0.011799999512732029,-0.0013000000035390258,-0.06099999926066736,0.06099999926066736,0.12199999852133472
0.6118334531784058,-0.031143775209784508,9.734383583068848,0.00019999999494757503,-0.007400000002235174,-0.060099996626377106,0.06099999926066736,0.06099999926066736,0
0.6147831678390503,-0.02450704760849476,9.76063346862793,0.009800000116229057,0.002099999925121665,-0.030700000002980232,0.06099999926066736,0.06099999926066736,0
0.6221093535423279,-0.04744350165128708,9.76645565032959,0.009599999524652958,-0.01730000041425228,-0.030700000002980232,0.06099999926066736,0.1830000044521087,-0.12199999852133472
0.6137201189994812,-0.002470816019922495,9.75240707397461,0.009800000116229057,0.011699999682605267,-0.04050000011920929,0.06099999926066736,0.12199999852133472,0
0.6316670775413513,-0.023242909461259842,9.752551078796387,0.019500000402331352,0.0017999999690800905,-0.04050000011920929,0.06099999926066736,0,-0.1830000044521087
0.6209313869476318,-0.020350713282823563,9.75899600982666,0.00930000003427267,0.0015999999595806003,-0.030700000002980232,-0.12199999852133472,0.12199999852133472,-0.06099999926066736
0.61571204662323,-0.010735600255429745,9.749496459960938,0.00930000003427267,0.011699999682605267,-0.04050000011920929,0.06099999926066736,0.12199999852133472,-0.06099999926066736
0.603472888469696,-0.0423007532954216,9.736309051513672,-0.00029999998514540493,-0.017500000074505806,-0.060099996626377106,0.06099999926066736,0,-0.06099999926066736
0.5939248204231262,-0.026269180700182915,9.760920524597168,-0.010199999436736107,0.0017999999690800905,-0.030700000002980232,0.06099999926066736,-0.06099999926066736,0
0.6207112073898315,-0.03061705268919468,9.73774528503418,0.008799999952316284,-0.007899999618530273,-0.0502999983727932,0,0.12199999852133472,0
0.6207112073898315,-0.03061705268919468,9.73774528503418,0.008799999952316284,-0.007799999788403511,-0.060099996626377106,-0.06099999926066736,0.12199999852133472,0
0.6327875256538391,-0.03902548551559448,9.757770538330078,-0.000699999975040555,0.011500000022351742,-0.0011999999405816197,0,0.12199999852133472,-0.06099999926066736
0.6262178421020508,-0.010371682234108448,9.763228416442871,0.0279999990016222,-0.017400000244379044,-0.04039999842643738,0,0.06099999926066736,0
0.5991824865341187,-0.021509507670998573,9.761763572692871,-0.01119999960064888,0.001999999862164259,-0.03059999831020832,0.06099999926066736,0.06099999926066736,0
0.6019406318664551,-0.03988740220665932,9.759896278381348,-0.011099999770522118,-0.017400000244379044,-0.03059999831020832,0.06099999926066736,0.06099999926066736,-0.06099999926066736
0.6262944340705872,-0.01642422378063202,9.750387191772461,0.017899999395012856,0.011599999852478504,-0.04039999842643738,0.06099999926066736,0.06099999926066736,-0.1830000044521087
0.6179817318916321,-0.009710881859064102,9.789392471313477,0.007799999788403511,0.011099999770522118,-0.0011999999405816197,0.06099999926066736,0.1830000044521087,0.06099999926066736
0.6223200559616089,-0.01832043007016182,9.791145324707031,0.007799999788403511,0.010599999688565731,-0.0011999999405816197,0,0,0.06099999926066736
0.6068247556686401,-0.03274310380220413,9.793558120727539,-0.001999999862164259,-0.008599999360740185,-0.0011999999405816197,0.1830000044521087,0.12199999852133472,0
0.6261412501335144,-0.0035913025494664907,9.784106254577637,0.01730000041425228,0.010199999436736107,-0.010999999940395355,0,0.12199999852133472,-0.06099999926066736
0.6230383515357971,-0.014863204210996628,9.750357627868652,0.01719999872148037,0.010199999436736107,-0.04039999842643738,0.06099999926066736,-0.06099999926066736,-0.06099999926066736
0.6291099786758423,-0.01737232692539692,9.805166244506836,0.016499999910593033,0.009800000116229057,0.008599999360740185,0,0,0.06099999926066736
0.6143330335617065,-0.027332207188010216,9.742093086242676,0.006399999838322401,0.00009999999747378752,-0.05009999871253967,0,-0.12199999852133472,0
0.6154438853263855,-0.01398213766515255,9.763813018798828,0.005799999926239252,0.009800000116229057,-0.030499998480081558,0,0.12199999852133472,0
0.6173018217086792,-0.05251920595765114,9.767375946044922,0.005799999926239252,-0.02889999933540821,-0.030499998480081558,0,0.06099999926066736,-0.06099999926066736
0.6159418821334839,-0.04607401788234711,9.762654304504395,0.005699999630451202,-0.018799999728798866,-0.030499998480081558,0.12199999852133472,-0.06099999926066736,-0.12199999852133472
0.6203759908676147,-0.012574347667396069,9.751468658447266,-0.00419999985024333,0.009999999776482582,-0.010799999348819256,0,0.1830000044521087,-0.06099999926066736
0.6203759908676147,-0.012574347667396069,9.751468658447266,0.0052999998442828655,0.009800000116229057,-0.040300000458955765,0,0.1830000044521087,-0.06099999926066736
0.6325097680091858,-0.03394978120923042,9.749035835266113,0.024899998679757118,-0.009599999524652958,-0.05009999871253967,-0.06099999926066736,0.12199999852133472,-0.06099999926066736
0.6208069324493408,-0.038642413914203644,9.72569751739502,0.005399999674409628,-0.019099999219179153,-0.06969999521970749,0.06099999926066736,0,0.06099999926066736
0.6091232299804688,-0.030291439965367317,9.77961540222168,-0.0044999998062849045,-0.009200000204145908,-0.010799999348819256,0.06099999926066736,0.06099999926066736,-0.06099999926066736
0.5900940895080566,0.0010726023465394974,9.779825210571289,-0.023599999025464058,0.009999999776482582,-0.010900000110268593,0,0.06099999926066736,-0.06099999926066736
0.5929192304611206,-0.000976834329776466,9.76668643951416,-0.013799999840557575,0.00989999994635582,-0.05009999871253967,0,0.1830000044521087,0.06099999926066736
0.604545533657074,-0.01727655902504921,9.772747993469238,-0.023000000044703484,0.009999999776482582,-0.030499998480081558,-0.06099999926066736,0.06099999926066736,0
0.6156449913978577,-0.022754494100809097,9.76602554321289,-0.0030999998562037945,0.00989999994635582,-0.02070000022649765,-0.06099999926066736,0.06099999926066736,0
0.6348465085029602,-0.048659756779670715,9.767864227294922,0.02579999901354313,-0.028599999845027924,-0.030499998480081558,0,0,0
0.6203089356422424,-0.021815964952111244,9.72618579864502,0.005799999926239252,0.0007999999797903001,-0.06969999521970749,0.06099999926066736,0,0
0.6029174327850342,-0.0012449849164113402,9.747618675231934,-0.013799999840557575,0.010400000028312206,-0.05009999871253967,-0.06099999926066736,0.1830000044521087,-0.06099999926066736
0.6145819425582886,-0.022400150075554848,9.787735939025879,0.0058999997563660145,0.0007999999797903001,-0.0010999999940395355,0.06099999926066736,0.12199999852133472,0
0.6079931855201721,-0.014317326247692108,9.768533706665039,-0.003700000001117587,0.010300000198185444,-0.02070000022649765,0.06099999926066736,0.06099999926066736,0
0.6137201189994812,-0.027782315388321877,9.77060317993164,0.0058999997563660145,0.00029999998514540493,-0.02070000022649765,0,0.12199999852133472,-0.06099999926066736
0.6267924308776855,-0.011616666801273823,9.780313491821289,0.01549999974668026,0.009999999776482582,-0.010900000110268593,-0.06099999926066736,0.12199999852133472,0.06099999926066736
0.6061256527900696,-0.012909535318613052,9.748011589050293,-0.0038999998942017555,0.010099999606609344,-0.05009999871253967,0.06099999926066736,0.12199999852133472,-0.06099999926066736
0.6329023838043213,-0.027973853051662445,9.770660400390625,0.025100000202655792,0.00009999999747378752,-0.020600000396370888,0.06099999926066736,0.12199999852133472,0
0.6066523790359497,-0.012469002977013588,9.784192085266113,-0.003999999724328518,0.009599999524652958,-0.010900000110268593,0.06099999926066736,0.12199999852133472,-0.12199999852133472
0.6248483061790466,0.01369483396410942,9.766963958740234,0.015399999916553497,0.00930000003427267,-0.030499998480081558,0,0.12199999852133472,0
0.6082996129989624,-0.019804837182164192,9.75338363647461,-0.003999999724328518,-0.00029999998514540493,-0.040300000458955765,0.06099999926066736,0.06099999926066736,0
0.630517840385437,-0.016740258783102036,9.760834693908691,0.01529999915510416,0.009099999442696571,-0.030499998480081558,-0.12199999852133472,0.06099999926066736,0
0.6031090021133423,-0.025321077555418015,9.751276969909668,-0.0139999995008111,-0.00019999999494757503,-0.040300000458955765,0.06099999926066736,-0.12199999852133472,-0.12199999852133472
0.6133849024772644,-0.010544064454734325,9.77175235748291,0.004799999762326479,0.009200000204145908,-0.020600000396370888,0.12199999852133472,0.1830000044521087,0
0.6170815229415894,-0.03442861884832382,9.791508674621582,-0.004600000102072954,-0.000699999975040555,-0.020600000396370888,-0.06099999926066736,0,-0.12199999852133472
0.6245322823524475,-0.030368054285645485,9.773744583129883,0.005200000014156103,-0.010099999606609344,-0.0009999999310821295,-0.06099999926066736,0,-0.12199999852133472
0.6116418838500977,-0.008810662664473057,9.7392578125,0.014599999412894249,-0.009800000116229057,-0.020600000396370888,0,0.06099999926066736,0
0.6116418838500977,-0.008810662664473057,9.7392578125,-0.004999999888241291,0.00969999935477972,-0.05979999899864197,0,0.06099999926066736,0
0.6192267537117004,-0.03584598749876022,9.78712272644043,0.004900000058114529,-0.009599999524652958,-0.010799999348819256,-0.06099999926066736,0,0
0.6224254369735718,-0.008810662664473057,9.767423629760742,0.004600000102072954,0.010099999606609344,-0.030399998649954796,-0.06099999926066736,0.06099999926066736,0
0.6182499527931213,-0.011109095998108387,9.758737564086914,0.0044999998062849045,0.010099999606609344,-0.04019999876618385,0,0.24399999704266945,0.12199999852133472
0.6212666034698486,-0.013464991003274918,9.777603149414062,0.004900000058114529,0.009999999776482582,-0.020600000396370888,0,0.06099999926066736,-0.06099999926066736
0.5906974673271179,-0.02942952699959278,9.77353286743164,-0.02410000003874302,-0.00930000003427267,-0.020600000396370888,-0.06099999926066736,0.12199999852133472,0
0.6091614961624146,-0.0395713672041893,9.740857124328613,-0.004399999976158142,-0.018699999898672104,-0.05009999871253967,0.06099999926066736,0,0
0.6015862226486206,-0.017860744148492813,9.76486587524414,-0.014299999922513962,0.010300000198185444,-0.030399998649954796,0.12199999852133472,0.12199999852133472,-0.06099999926066736
0.6225690245628357,-0.04141968861222267,9.802053451538086,0.014800000004470348,-0.01889999955892563,0.008700000122189522,0,0.06099999926066736,0.06099999926066736
0.6089699864387512,-0.02194046415388584,9.756390571594238,-0.004699999932199717,0.000699999975040555,-0.04019999876618385,0.1830000044521087,0.1830000044521087,-0.06099999926066736
