Accelerometer_Gx,Accelerometer_Gy,Accelerometer_Gz,Accelerometer_X,Accelerometer_Y,Accelerometer_Z,Gyroscope_Z,Gyroscope_X,Gyroscope_Y
-0.06703764945268631,0,9.911994934082031,0,0,0.01939999870955944,0.0030000000934877653,-0.007000000079177565,-0.6459999853908935
-0.05746084079146385,0,9.931148529052734,-0.00839999970048666,0,-0.00989999994635582,0.0030000000934877653,-0.007000000079177565,-0.6459999853908935
-0.06703764945268631,0,9.931148529052734,0.0013000000035390258,0,-0.00989999994635582,0.0030000000934877653,-0.007000000079177565,-0.6459999853908935
-0.05746084079146385,0,9.921571731567383,0.0010999999940395355,0,0.009599999524652958,0.0030000000934877653,-0.007000000079177565,-0.6459999853908935
-0.06703764945268631,0,9.921571731567383,-0.008599999360740185,0,0.009599999524652958,0.0030000000934877653,-0.007000000079177565,-0.6459999853908935
-0.06703764945268631,0,9.921571731567383,-0.007499999832361937,0,0.01939999870955944,0.0030000000934877653,-0.007000000079177565,-0.6459999853908935
-0.08619125932455063,0,9.940725326538086,-0.007499999832361937,0,0.029199998825788498,0.0030000000934877653,-0.007000000079177565,-0.6459999853908935
-0.05746084079146385,0,9.950302124023438,0.0018999999156221747,0,-0.00009999999747378752,0.0030000000934877653,-0.007000000079177565,-0.6459999853908935
-0.05746084079146385,0,9.950302124023438,-0.007699999958276749,0,0,0.0030000000934877653,-0.007000000079177565,-0.6459999853908935
-0.06703764945268631,0,9.940725326538086,0.010599999688565731,0,-0.009800000116229057,0.0030000000934877653,-0.007000000079177565,-0.6459999853908935
-0.05746084079146385,0,9.931148529052734,0.0007999999797903001,0,0.00969999935477972,0.0030000000934877653,-0.007000000079177565,-0.6459999853908935
-0.05746084079146385,0,9.931148529052734,-0.016899999231100082,0,0.00969999935477972,0.0030000000934877653,-0.007000000079177565,-0.6459999853908935
-0.06703764945268631,0,9.940725326538086,-0.0071000000461936,0,-0.019600000232458115,0.0030000000934877653,-0.007000000079177565,-0.6459999853908935
-0.05746084079146385,0,9.911994934082031,-0.01529999915510416,0,0.00969999935477972,0.0030000000934877653,-0.007000000079177565,-0.6459999853908935
-0.047884032130241394,0,9.931148529052734,0.00419999985024333,0,0,0.07300000130214508,0.27200001069959295,0.05300000012305109
-0.05746084079146385,0,9.921571731567383,-0.004999999888241291,0,0.00969999935477972,0.21299999621558977,0.1319999957758284,-0.0859999990670082
-0.05746084079146385,0,9.90241813659668,0.004699999932199717,0,0.019500000402331352,0.0030000000934877653,-0.07699999753589991,0.05300000012305109
-0.05746084079146385,0,9.931148529052734,0.004299999680370092,0,0.019500000402331352,0.0030000000934877653,-0.21700000578955783,0.05300000012305109
-0.06703764945268631,0,9.911994934082031,0.012899999506771564,0,0,-0.13600000534979648,0.27200001069959295,0.05300000012305109
-0.05746084079146385,0,9.921571731567383,0.012899999506771564,0,0,-0.20599999947146552,0.06200000165415938,0.05300000012305109
-0.05746084079146385,0,9.931148529052734,-0.006000000052154064,0,-0.009800000116229057,0.07300000130214508,-0.007000000079177565,0.05300000012305109
-0.05746084079146385,0,9.931148529052734,0.003399999812245369,0,-0.019600000232458115,0.07300000130214508,-0.07699999753589991,-0.015999999942759198
-0.05746084079146385,0,9.911994934082031,0.003399999812245369,0,-0.009800000116229057,-0.13600000534979648,-0.007000000079177565,0.05300000012305109
-0.05746084079146385,0,9.921571731567383,0.0030999998562037945,0,-0.019600000232458115,0.14300000209392072,-0.28699998657101367,-0.015999999942759198
-0.06703764945268631,0,9.921571731567383,-0.015099999494850636,0,-0.009800000116229057,0.14300000209392072,-0.07699999753589991,-0.015999999942759198
-0.05746084079146385,0,9.892841339111328,-0.0052999998442828655,0,-0.029399998486042023,-0.0659999978879142,-0.07699999753589991,0.05300000012305109
-0.06703764945268631,0,9.90241813659668,0.004100000020116568,0,-0.03920000046491623,-0.0659999978879142,0.06200000165415938,-0.015999999942759198
-0.05746084079146385,0,9.90241813659668,-0.01549999974668026,0,-0.029399998486042023,0.0030000000934877653,-0.07699999753589991,-0.015999999942759198
-0.06703764945268631,0,9.90241813659668,0.012799999676644802,0,-0.03920000046491623,0.07300000130214508,-0.007000000079177565,-0.015999999942759198
-0.047884032130241394,0,9.90241813659668,-0.006199999712407589,0,-0.009800000116229057,0.0030000000934877653,-0.07699999753589991,0.05300000012305109
-0.047884032130241394,0,9.90241813659668,-0.006199999712407589,0,-0.009800000116229057,0.0030000000934877653,-0.07699999753589991,0.05300000012305109
-0.07661445438861847,0,9.90241813659668,-0.006199999712407589,0,-0.019600000232458115,0.0030000000934877653,-0.007000000079177565,-0.015999999942759198
-0.05746084079146385,0,9.90241813659668,0.0032999999821186066,0,-0.019600000232458115,0.07300000130214508,-0.007000000079177565,0.05300000012305109
-0.07661445438861847,0,9.892841339111328,0.0032999999821186066,0,-0.03920000046491623,-0.0659999978879142,-0.007000000079177565,-0.015999999942759198
-0.05746084079146385,0,9.90241813659668,0.003000000026077032,0,-0.029399998486042023,0.07300000130214508,-0.007000000079177565,-0.015999999942759198
-0.07661445438861847,0,9.911994934082031,0.003000000026077032,0,-0.029399998486042023,0.07300000130214508,-0.007000000079177565,-0.015999999942759198
-0.06703764945268631,0,9.892841339111328,-0.005499999970197678,0,-0.03920000046491623,0.0030000000934877653,-0.07699999753589991,-0.015999999942759198
-0.06703764945268631,0,9.911994934082031,-0.0142000000923872,0,-0.019600000232458115,0.0030000000934877653,-0.007000000079177565,0.05300000012305109
-0.05746084079146385,0,9.911994934082031,0.004999999888241291,0,-0.019600000232458115,0.07300000130214508,-0.007000000079177565,-0.015999999942759198
-0.07661445438861847,0,9.921571731567383,0.014800000004470348,0,-0.019600000232458115,0.0030000000934877653,-0.07699999753589991,0.05300000012305109
-0.06703764945268631,0,9.921571731567383,-0.004399999976158142,0,-0.019600000232458115,0.07300000130214508,-0.007000000079177565,0.05300000012305109
-0.06703764945268631,0,9.921571731567383,-0.004399999976158142,0,-0.009800000116229057,-0.0659999978879142,-0.07699999753589991,-0.015999999942759198
-0.06703764945268631,0,9.931148529052734,-0.004100000020116568,0,0,0.0030000000934877653,-0.007000000079177565,-0.015999999942759198
-0.06703764945268631,0,9.921571731567383,0.00559999980032444,0,0,0.07300000130214508,0.1319999957758284,-0.015999999942759198
-0.06703764945268631,0,9.921571731567383,0.005200000014156103,0,0,-0.0659999978879142,-0.007000000079177565,-0.015999999942759198
-0.06703764945268631,0,9.921571731567383,-0.0044999998062849045,0,-0.009800000116229057,0.0030000000934877653,-0.007000000079177565,-0.015999999942759198
-0.06703764945268631,0,9.931148529052734,0.0139999995008111,0,0.019500000402331352,0.07300000130214508,0.06200000165415938,-0.015999999942759198
-0.06703764945268631,0,9.940725326538086,-0.005499999970197678,0,0.00969999935477972,0.14300000209392072,-0.007000000079177565,-0.015999999942759198
-0.05746084079146385,0,9.931148529052734,0.012999999336898327,0,-0.009800000116229057,0.0030000000934877653,-0.007000000079177565,0.05300000012305109
-0.06703764945268631,0,9.959878921508789,0.0031999999191612005,0,0.019500000402331352,0.07300000130214508,-0.07699999753589991,-0.015999999942759198
-0.05746084079146385,0,9.931148529052734,0.003000000026077032,0,0,0.0030000000934877653,0.06200000165415938,-0.015999999942759198
-0.05746084079146385,0,9.931148529052734,-0.0066999997943639755,0,0.00969999935477972,0.07300000130214508,0.06200000165415938,0.05300000012305109
-0.05746084079146385,0,9.940725326538086,-0.016699999570846558,0,-0.00009999999747378752,-0.0659999978879142,-0.07699999753589991,0.05300000012305109
-0.06703764945268631,0,9.959878921508789,0.0026000000070780516,0,0.00969999935477972,0.0030000000934877653,-0.007000000079177565,-0.015999999942759198
-0.06703764945268631,0,9.950302124023438,-0.0071000000461936,0,-0.019700000062584877,0.0030000000934877653,-0.07699999753589991,-0.015999999942759198
-0.05746084079146385,0,9.979032516479492,-0.0071000000461936,0,-0.019700000062584877,0.0030000000934877653,-0.07699999753589991,-0.015999999942759198
-0.05746084079146385,0,9.96945571899414,0.0024999999441206455,0,-0.00009999999747378752,0.0030000000934877653,-0.07699999753589991,-0.015999999942759198
-0.06703764945268631,0,9.950302124023438,0.0024999999441206455,0,-0.019700000062584877,0.07300000130214508,0.06200000165415938,0.05300000012305109
-0.06703764945268631,0,9.959878921508789,-0.01589999906718731,0,0.00969999935477972,0.14300000209392072,0.06200000165415938,-0.015999999942759198
-0.06703764945268631,0,9.959878921508789,0.003599999938160181,0,0.00969999935477972,0.0030000000934877653,-0.007000000079177565,-0.015999999942759198
-0.047884032130241394,0,9.96945571899414,-0.00559999980032444,0,0,0.0030000000934877653,-0.007000000079177565,-0.015999999942759198
-0.05746084079146385,0,9.96945571899414,-0.014399999752640724,0,0.019500000402331352,0.07300000130214508,-0.07699999753589991,-0.015999999942759198
-0.047884032130241394,0,9.96945571899414,-0.004299999680370092,0,0.03909999877214432,0.0030000000934877653,-0.07699999753589991,-0.015999999942759198
-0.06703764945268631,0,9.979032516479492,-0.004299999680370092,0,0.02929999865591526,0.07300000130214508,-0.007000000079177565,-0.0859999990670082
-0.07661445438861847,0,9.96945571899414,-0.003999999724328518,0,0.02929999865591526,-0.0659999978879142,-0.007000000079177565,0.05300000012305109
-0.05746084079146385,0,9.96945571899414,-0.003999999724328518,0,0.02929999865591526,0.07300000130214508,-0.07699999753589991,-0.015999999942759198
-0.05746084079146385,0,9.96945571899414,0.0052999998442828655,0,0.019500000402331352,-0.0659999978879142,0.06200000165415938,0.05300000012305109
-0.07661445438861847,0,9.979032516479492,0.0052999998442828655,0,0.03909999877214432,0.0030000000934877653,-0.007000000079177565,0.05300000012305109
-0.07661445438861847,0,9.988609313964844,0.004900000058114529,0,0.019500000402331352,0.0030000000934877653,-0.007000000079177565,-0.015999999942759198
-0.05746084079146385,0,9.979032516479492,0.014699999243021011,0,0.048899997025728226,0.0030000000934877653,-0.07699999753589991,-0.015999999942759198
-0.06703764945268631,0,9.998186111450195,-0.0044999998062849045,0,0.03909999877214432,0.07300000130214508,-0.007000000079177565,-0.015999999942759198
-0.05746084079146385,0,9.979032516479492,0.0052999998442828655,0,0.048899997025728226,0.0030000000934877653,-0.007000000079177565,-0.015999999942759198
-0.06703764945268631,0,9.979032516479492,-0.00419999985024333,0,0.02929999865591526,0.07300000130214508,-0.007000000079177565,-0.015999999942759198
-0.07661445438861847,0,9.979032516479492,-0.00419999985024333,0,0.02929999865591526,0.0030000000934877653,-0.07699999753589991,-0.015999999942759198
-0.07661445438861847,0,9.979032516479492,-0.0038999998942017555,0,0.03909999877214432,0.0030000000934877653,-0.07699999753589991,-0.015999999942759198
-0.07661445438861847,0,9.998186111450195,-0.0038999998942017555,0,0.03909999877214432,0.07300000130214508,-0.007000000079177565,0.05300000012305109
-0.05746084079146385,0,10.007762908935547,-0.003599999938160181,0,0.03909999877214432,0.0030000000934877653,-0.007000000079177565,-0.015999999942759198
-0.05746084079146385,0,9.998186111450195,0.00559999980032444,0,0.05869999900460243,-0.0659999978879142,-0.07699999753589991,-0.015999999942759198
-0.05746084079146385,0,9.998186111450195,0.00559999980032444,0,0.05869999900460243,-0.0659999978879142,-0.07699999753589991,-0.015999999942759198
-0.06703764945268631,0,9.979032516479492,-0.013899999670684338,0,0.03909999877214432,0.0030000000934877653,-0.07699999753589991,0.05300000012305109
-0.06703764945268631,0,9.979032516479492,-0.0037999998312443495,0,0.048899997025728226,0.0030000000934877653,-0.007000000079177565,0.05300000012305109
-0.07661445438861847,0,9.988609313964844,-0.023399999365210533,0,0.02929999865591526,0.0030000000934877653,-0.007000000079177565,-0.015999999942759198
-0.07661445438861847,0,9.988609313964844,-0.003599999938160181,0,0.03909999877214432,0.0030000000934877653,-0.007000000079177565,0.05300000012305109
-0.05746084079146385,0,9.998186111450195,0.005699999630451202,0,0.06849999725818634,0.07300000130214508,0.06200000165415938,-0.015999999942759198
-0.07661445438861847,0,9.988609313964844,-0.003999999724328518,0,0.05869999900460243,0.14300000209392072,-0.007000000079177565,-0.015999999942759198
-0.06703764945268631,0,9.979032516479492,-0.003999999724328518,0,0.05869999900460243,0.14300000209392072,-0.007000000079177565,-0.015999999942759198
-0.05746084079146385,0,9.979032516479492,0.0052999998442828655,0,0.05869999900460243,0.0030000000934877653,-0.07699999753589991,-0.015999999942759198
-0.06703764945268631,0,9.998186111450195,-0.0142000000923872,0,0.05869999900460243,0.07300000130214508,-0.007000000079177565,0.05300000012305109
-0.07661445438861847,0,9.998186111450195,-0.004100000020116568,0,0.048899997025728226,0.07300000130214508,-0.007000000079177565,0.05300000012305109
-0.07661445438861847,0,10.017339706420898,-0.0038999998942017555,0,0.048899997025728226,0.0030000000934877653,-0.07699999753589991,-0.015999999942759198
-0.06703764945268631,0,9.998186111450195,0.005799999926239252,0,0.05869999900460243,-0.0659999978879142,-0.007000000079177565,-0.015999999942759198
-0.05746084079146385,0,9.979032516479492,-0.012799999676644802,0,0.05869999900460243,0.07300000130214508,-0.007000000079177565,-0.015999999942759198
-0.047884032130241394,0,9.988609313964844,0.006799999624490738,0,0.03909999877214432,0.0030000000934877653,-0.007000000079177565,-0.015999999942759198
-0.06703764945268631,0,9.988609313964844,-0.00279999990016222,0,0.03909999877214432,0.07300000130214508,-0.07699999753589991,-0.015999999942759198
-0.05746084079146385,0,9.988609313964844,0.006899999920278788,0,0.048899997025728226,0.07300000130214508,-0.007000000079177565,-0.015999999942759198
-0.047884032130241394,0,9.998186111450195,0.006399999838322401,0,0.06849999725818634,0.07300000130214508,-0.007000000079177565,-0.015999999942759198
-0.06703764945268631,0,9.988609313964844,-0.013100000098347664,0,0.048899997025728226,0.07300000130214508,-0.007000000079177565,-0.015999999942759198
-0.06703764945268631,0,9.988609313964844,0.006000000052154064,0,0.03909999877214432,-0.0659999978879142,-0.007000000079177565,0.05300000012305109
-0.047884032130241394,0,9.998186111450195,0.025599999353289604,0,0.048899997025728226,0.0030000000934877653,-0.007000000079177565,-0.015999999942759198
-0.047884032130241394,0,10.007762908935547,-0.0031999999191612005,0,0,-0.0659999978879142,-0.007000000079177565,-0.015999999942759198
-0.06703764945268631,0,10.007762908935547,0.006000000052154064,0,0.00969999935477972,0.07300000130214508,-0.007000000079177565,-0.015999999942759198
-0.06703764945268631,0,9.998186111450195,0.006000000052154064,0,0.00969999935477972,0.07300000130214508,-0.007000000079177565,-0.015999999942759198
-0.047884032130241394,0,9.998186111450195,0.006000000052154064,0,-0.009800000116229057,0.0030000000934877653,-0.007000000079177565,-0.015999999942759198
-0.05746084079146385,0,10.017339706420898,-0.003399999812245369,0,-0.019600000232458115,0.0030000000934877653,-0.007000000079177565,0.05300000012305109
-0.07661445438861847,0,10.007762908935547,-0.0031999999191612005,0,0,0.07300000130214508,-0.007000000079177565,0.05300000012305109
-0.06703764945268631,0,9.988609313964844,-0.0031999999191612005,0,-0.019600000232458115,-0.0659999978879142,-0.07699999753589991,-0.015999999942759198
-0.06703764945268631,0,9.988609313964844,-0.003000000026077032,0,-0.009800000116229057,0.0030000000934877653,-0.007000000079177565,-0.015999999942759198
-0.05746084079146385,0,9.979032516479492,0.006799999624490738,0,0.00969999935477972,-0.0659999978879142,-0.007000000079177565,-0.015999999942759198
-0.05746084079146385,0,9.998186111450195,-0.002699999837204814,0,0,0.0030000000934877653,-0.007000000079177565,-0.015999999942759198
-0.047884032130241394,0,9.988609313964844,0.00699999975040555,0,-0.009800000116229057,0.07300000130214508,-0.007000000079177565,-0.015999999942759198
-0.07661445438861847,0,9.988609313964844,-0.011699999682605267,0,-0.019600000232458115,0.14300000209392072,-0.07699999753589991,0.05300000012305109
-0.07661445438861847,0,9.979032516479492,-0.0018999999156221747,0,-0.009800000116229057,-0.0659999978879142,-0.07699999753589991,-0.015999999942759198
-0.05746084079146385,0,9.96945571899414,0.0072999997064471245,0,-0.019600000232458115,-0.0659999978879142,-0.07699999753589991,-0.015999999942759198
-0.06703764945268631,0,9.96945571899414,-0.0023999998811632395,0,-0.009800000116229057,0.0030000000934877653,0.06200000165415938,0.05300000012305109
-0.06703764945268631,0,9.96945571899414,0.01589999906718731,0,-0.019600000232458115,0.0030000000934877653,-0.007000000079177565,-0.015999999942759198
-0.07661445438861847,0,9.998186111450195,-0.013399999588727951,0,-0.03920000046491623,0.07300000130214508,-0.007000000079177565,-0.015999999942759198
-0.047884032130241394,0,9.979032516479492,0.014800000004470348,0,-0.03920000046491623,0.07300000130214508,-0.007000000079177565,-0.015999999942759198
-0.047884032130241394,0,9.979032516479492,-0.004699999932199717,0,-0.058799996972084045,0.0030000000934877653,-0.07699999753589991,-0.015999999942759198
-0.06703764945268631,0,9.959878921508789,-0.013499999418854713,0,-0.058799996972084045,0.0030000000934877653,-0.07699999753589991,0.05300000012305109
-0.05746084079146385,0,9.96945571899414,-0.003700000001117587,0,-0.06859999895095825,0.0030000000934877653,-0.07699999753589991,-0.015999999942759198
-0.06703764945268631,0,9.950302124023438,0.00559999980032444,0,-0.04899999871850014,0.0030000000934877653,-0.007000000079177565,-0.015999999942759198
-0.08619125932455063,0,9.940725326538086,-0.013899999670684338,0,-0.07840000092983246,0.0030000000934877653,-0.007000000079177565,-0.015999999942759198
-0.047884032130241394,0,9.950302124023438,-0.0037999998312443495,0,-0.04899999871850014,0.0030000000934877653,-0.007000000079177565,-0.015999999942759198
-0.06703764945268631,0,9.940725326538086,-0.0037999998312443495,0,-0.04899999871850014,0.0030000000934877653,-0.007000000079177565,-0.015999999942759198
-0.05746084079146385,0,9.940725326538086,0.00559999980032444,0,-0.04899999871850014,0.0030000000934877653,-0.007000000079177565,-0.015999999942759198
-0.06703764945268631,0,9.931148529052734,0.005499999970197678,0,-0.03920000046491623,-0.0659999978879142,-0.07699999753589991,-0.015999999942759198
-0.05746084079146385,0,9.931148529052734,-0.012999999336898327,0,-0.03920000046491623,0.0030000000934877653,-0.07699999753589991,-0.015999999942759198
-0.06703764945268631,0,9.931148529052734,-0.002899999963119626,0,-0.058799996972084045,0.0030000000934877653,-0.007000000079177565,-0.015999999942759198
-0.06703764945268631,0,9.911994934082031,-0.002899999963119626,0,-0.058799996972084045,0.0030000000934877653,-0.007000000079177565,-0.015999999942759198
-0.06703764945268631,0,9.892841339111328,-0.002699999837204814,0,-0.03920000046491623,0.0030000000934877653,-0.07699999753589991,-0.015999999942759198
-0.06703764945268631,0,9.96945571899414,-0.02070000022649765,0,-0.058799996972084045,0.0030000000934877653,-0.007000000079177565,0.05300000012305109
-0.08619125932455063,0,9.979032516479492,0.008599999360740185,0,-0.10779999941587448,0.07300000130214508,0.06200000165415938,0.05300000012305109
-0.06703764945268631,0,9.921571731567383,0.007999999448657036,0,-0.09799999743700027,0.0030000000934877653,-0.007000000079177565,0.05300000012305109
-0.06703764945268631,0,9.921571731567383,0.007999999448657036,0,-0.09799999743700027,0.0030000000934877653,-0.007000000079177565,0.05300000012305109
-0.05746084079146385,0,9.931148529052734,0.007999999448657036,0,-0.08819999545812607,0.0030000000934877653,-0.007000000079177565,0.05300000012305109
-0.06703764945268631,0,9.931148529052734,0.007499999832361937,0,-0.07840000092983246,0.07300000130214508,-0.007000000079177565,-0.015999999942759198
-0.06703764945268631,0,9.921571731567383,-0.001999999862164259,0,-0.07840000092983246,0.07300000130214508,-0.007000000079177565,-0.015999999942759198
-0.07661445438861847,0,9.892841339111328,-0.011799999512732029,0,-0.07840000092983246,0.0030000000934877653,-0.007000000079177565,0.05300000012305109
-0.06703764945268631,0,9.911994934082031,0.007199999876320362,0,-0.07840000092983246,0.07300000130214508,-0.007000000079177565,-0.015999999942759198
-0.06703764945268631,0,9.911994934082031,0.015799999237060547,0,-0.10779999941587448,0.0030000000934877653,-0.007000000079177565,0.05300000012305109
-0.047884032130241394,0,9.911994934082031,-0.02329999953508377,0,-0.08819999545812607,0.0030000000934877653,-0.007000000079177565,0.05300000012305109
-0.047884032130241394,0,9.911994934082031,-0.02329999953508377,0,-0.08819999545812607,0.0030000000934877653,-0.007000000079177565,0.05300000012305109
-0.06703764945268631,0,9.90241813659668,-0.01249999925494194,0,-0.10779999941587448,0.0030000000934877653,-0.07699999753589991,0.05300000012305109
-0.06703764945268631,0,9.883264541625977,0.00699999975040555,0,-0.09799999743700027,0.0030000000934877653,-0.007000000079177565,-0.015999999942759198
-0.06703764945268631,0,9.90241813659668,-0.0024999999441206455,0,-0.08819999545812607,-0.0659999978879142,-0.07699999753589991,-0.015999999942759198
-0.06703764945268631,0,9.883264541625977,-0.0024999999441206455,0,-0.08819999545812607,0.14300000209392072,-0.007000000079177565,-0.015999999942759198
-0.047884032130241394,0,9.892841339111328,0.006099999882280827,0,0,0.06299999737754478,0.013000000266153095,0.012000000373951061
-0.05746084079146385,0,9.90241813659668,0.006099999882280827,0,0,-0.006000000186975531,0.013000000266153095,0.08200000283325337
-0.06703764945268631,0,9.90241813659668,-0.002699999837204814,0,0.009800000116229057,-0.006000000186975531,0.013000000266153095,0.08200000283325337
-0.05746084079146385,0,9.892841339111328,-0.0024999999441206455,0,0.019600000232458115,-0.006000000186975531,0.08299999855663877,0.08200000283325337
-0.06703764945268631,0,9.90241813659668,-0.0024999999441206455,0,0.019600000232458115,-0.07600000181251451,-0.05600000063342052,0.012000000373951061
-0.047884032130241394,0,9.911994934082031,-0.002300000051036477,0,0.019600000232458115,-0.006000000186975531,0.013000000266153095,0.012000000373951061
-0.06703764945268631,0,9.911994934082031,-0.002300000051036477,0,0.019600000232458115,-0.006000000186975531,0.013000000266153095,0.012000000373951061
-0.047884032130241394,0,9.883264541625977,0.01599999889731407,0,0,-0.006000000186975531,0.013000000266153095,0.08200000283325337
-0.06703764945268631,0,9.883264541625977,0.006199999712407589,0,0.009800000116229057,-0.006000000186975531,-0.05600000063342052,0.08200000283325337
-0.06703764945268631,0,9.873687744140625,0.01489999983459711,0,0.019600000232458115,0.06299999737754478,0.013000000266153095,0.012000000373951061
-0.05746084079146385,0,9.90241813659668,0.0050999997183680534,0,0.03920000046491623,-0.07600000181251451,0.013000000266153095,0.08200000283325337
-0.05746084079146385,0,9.90241813659668,-0.004299999680370092,0,0.009800000116229057,0.06299999737754478,0.013000000266153095,0.012000000373951061
-0.06703764945268631,0,9.883264541625977,-0.004299999680370092,0,0.029399998486042023,-0.07600000181251451,0.013000000266153095,0.08200000283325337
-0.07661445438861847,0,9.90241813659668,0.014099999330937862,0,0.019600000232458115,-0.006000000186975531,-0.05600000063342052,0.08200000283325337
-0.05746084079146385,0,9.911994934082031,0.004299999680370092,0,0.019600000232458115,-0.006000000186975531,0.013000000266153095,0.012000000373951061
-0.06703764945268631,0,9.911994934082031,0.003999999724328518,0,0.009800000116229057,0.06299999737754478,0.08299999855663877,0.08200000283325337
-0.07661445438861847,0,9.911994934082031,-0.01549999974668026,0,0.029399998486042023,-0.006000000186975531,0.013000000266153095,0.012000000373951061
-0.06703764945268631,0,9.911994934082031,-0.0052999998442828655,0,0.019600000232458115,-0.006000000186975531,0.013000000266153095,0.012000000373951061
-0.06703764945268631,0,9.921571731567383,0.004399999976158142,0,0.019600000232458115,-0.006000000186975531,0.013000000266153095,0.012000000373951061
-0.07661445438861847,0,9.921571731567383,-0.014099999330937862,0,0.04899999871850014,-0.006000000186975531,-0.05600000063342052,0.012000000373951061
-0.07661445438861847,0,9.921571731567383,-0.004299999680370092,0,0.058799996972084045,0.13300000483942703,0.08299999855663877,0.012000000373951061
-0.05746084079146385,0,9.911994934082031,-0.003999999724328518,0,0.029399998486042023,-0.006000000186975531,0.013000000266153095,0.012000000373951061
-0.05746084079146385,0,9.911994934082031,0.005699999630451202,0,0.029399998486042023,0.06299999737754478,0.013000000266153095,0.08200000283325337
-0.05746084079146385,0,9.940725326538086,-0.003700000001117587,0,0.03920000046491623,-0.006000000186975531,0.013000000266153095,0.012000000373951061
-0.06703764945268631,0,9.911994934082031,-0.003700000001117587,0,0.058799996972084045,-0.006000000186975531,-0.05600000063342052,0.08200000283325337
-0.06703764945268631,0,9.940725326538086,-0.003499999875202775,0,0.04899999871850014,0.06299999737754478,0.013000000266153095,0.08200000283325337
-0.06703764945268631,0,9.931148529052734,-0.003499999875202775,0,0.03920000046491623,-0.006000000186975531,-0.05600000063342052,0.012000000373951061
-0.06703764945268631,0,9.931148529052734,0.005799999926239252,0,0.029399998486042023,0.06299999737754478,-0.05600000063342052,0.012000000373951061
-0.05746084079146385,0,9.931148529052734,-0.0038999998942017555,0,0.04899999871850014,0.06299999737754478,0.013000000266153095,0.012000000373951061
-0.06703764945268631,0,9.940725326538086,0.014499999582767487,0,0.058799996972084045,0.06299999737754478,0.013000000266153095,0.012000000373951061
-0.07661445438861847,0,9.940725326538086,0.004699999932199717,0,0.04899999871850014,0.06299999737754478,-0.05600000063342052,0.08200000283325337
-0.06703764945268631,0,9.931148529052734,-0.005399999674409628,0,0.04899999871850014,-0.006000000186975531,-0.05600000063342052,0.012000000373951061
-0.06703764945268631,0,9.921571731567383,-0.004999999888241291,0,0.03920000046491623,-0.006000000186975531,0.013000000266153095,0.012000000373951061
-0.06703764945268631,0,9.921571731567383,-0.014800000004470348,0,0.04899999871850014,-0.006000000186975531,0.013000000266153095,0.012000000373951061
-0.05746084079146385,0,9.911994934082031,0.004399999976158142,0,0.029399998486042023,-0.006000000186975531,-0.05600000063342052,0.08200000283325337
-0.05746084079146385,0,9.931148529052734,0.004399999976158142,0,0.04899999871850014,0.13300000483942703,0.013000000266153095,0.08200000283325337
-0.05746084079146385,0,9.921571731567383,0.003999999724328518,0,0.04899999871850014,0.13300000483942703,0.013000000266153095,0.012000000373951061
-0.05746084079146385,0,9.931148529052734,-0.005699999630451202,0,0.04899999871850014,-0.006000000186975531,0.013000000266153095,0.08200000283325337
-0.06703764945268631,0,9.90241813659668,-0.014399999752640724,0,0.03920000046491623,0.06299999737754478,0.013000000266153095,0.08200000283325337
-0.05746084079146385,0,9.921571731567383,0.0050999997183680534,0,0.04899999871850014,0.13300000483942703,0.013000000266153095,0.08200000283325337
-0.06703764945268631,0,9.921571731567383,0.004699999932199717,0,0.03920000046491623,-0.006000000186975531,-0.05600000063342052,0.08200000283325337
-0.06703764945268631,0,9.921571731567383,-0.004999999888241291,0,0.03920000046491623,0.06299999737754478,0.013000000266153095,0.012000000373951061
-0.07661445438861847,0,9.921571731567383,-0.004699999932199717,0,0.04899999871850014,0.06299999737754478,0.013000000266153095,0.08200000283325337
-0.06703764945268631,0,9.921571731567383,0.004999999888241291,0,0.04899999871850014,-0.07600000181251451,-0.05600000063342052,0.08200000283325337
-0.06703764945268631,0,9.931148529052734,-0.013499999418854713,0,0.03920000046491623,0.06299999737754478,-0.05600000063342052,0.012000000373951061
-0.047884032130241394,0,9.940725326538086,-0.013499999418854713,0,0.058799996972084045,-0.07600000181251451,-0.05600000063342052,0.012000000373951061
-0.05746084079146385,0,9.940725326538086,0.00559999980032444,0,0.04899999871850014,-0.006000000186975531,0.013000000266153095,0.012000000373951061
-0.06703764945268631,0,9.950302124023438,-0.004100000020116568,0,0.04899999871850014,-0.006000000186975531,0.013000000266153095,0.012000000373951061
-0.06703764945268631,0,9.940725326538086,0.004900000058114529,0,0,0.06299999737754478,0.08299999855663877,0.08200000283325337
-0.07661445438861847,0,9.940725326538086,0.004900000058114529,0,0,0.06299999737754478,0.08299999855663877,0.08200000283325337
-0.05746084079146385,0,9.931148529052734,-0.0044999998062849045,0,-0.00969999935477972,-0.07600000181251451,-0.05600000063342052,0.08200000283325337
-0.06703764945268631,0,9.959878921508789,-0.0044999998062849045,0,-0.019500000402331352,-0.006000000186975531,0.013000000266153095,0.15200000362502902
-0.07661445438861847,0,9.950302124023438,-0.004900000058114529,0,0,0.06299999737754478,0.013000000266153095,0.012000000373951061
-0.05746084079146385,0,9.959878921508789,-0.013599999248981476,0,-0.00969999935477972,0.06299999737754478,0.013000000266153095,0.012000000373951061
-0.06703764945268631,0,9.940725326538086,-0.0037999998312443495,0,-0.00969999935477972,-0.006000000186975531,-0.05600000063342052,0.012000000373951061
-0.07661445438861847,0,9.931148529052734,-0.01269999984651804,0,-0.00969999935477972,0.06299999737754478,0.013000000266153095,0.08200000283325337
-0.06703764945268631,0,9.959878921508789,-0.002899999963119626,0,0,-0.006000000186975531,-0.05600000063342052,0.012000000373951061
-0.07661445438861847,0,9.950302124023438,0.01549999974668026,0,0,0.06299999737754478,0.013000000266153095,0.08200000283325337
-0.06703764945268631,0,9.959878921508789,-0.003999999724328518,0,0.009800000116229057,-0.07600000181251451,-0.05600000063342052,0.08200000283325337
-0.07661445438861847,0,9.96945571899414,-0.0037999998312443495,0,-0.00969999935477972,-0.006000000186975531,0.013000000266153095,0.012000000373951061
-0.05746084079146385,0,9.959878921508789,-0.0037999998312443495,0,0.019600000232458115,-0.006000000186975531,0.013000000266153095,0.08200000283325337
-0.06703764945268631,0,9.96945571899414,-0.003499999875202775,0,0,-0.006000000186975531,0.013000000266153095,0.08200000283325337
-0.06703764945268631,0,9.96945571899414,-0.003499999875202775,0,0.019600000232458115,-0.006000000186975531,0.013000000266153095,0.012000000373951061
-0.06703764945268631,0,9.959878921508789,-0.003499999875202775,0,0.019600000232458115,0.06299999737754478,0.013000000266153095,0.012000000373951061
-0.047884032130241394,0,9.979032516479492,-0.0031999999191612005,0,0.03920000046491623,0.06299999737754478,0.013000000266153095,0.08200000283325337
-0.06703764945268631,0,9.96945571899414,-0.003000000026077032,0,0.019600000232458115,0.06299999737754478,0.013000000266153095,0.012000000373951061
-0.05746084079146385,0,9.96945571899414,0.0066999997943639755,0,0.029399998486042023,-0.07600000181251451,0.013000000266153095,0.012000000373951061
-0.07661445438861847,0,9.96945571899414,-0.00279999990016222,0,0.019600000232458115,0.06299999737754478,-0.05600000063342052,0.08200000283325337
-0.08619125932455063,0,9.979032516479492,-0.00279999990016222,0,0.029399998486042023,-0.07600000181251451,-0.05600000063342052,0.08200000283325337
-0.06703764945268631,0,9.988609313964844,0.006399999838322401,0,0.03920000046491623,-0.07600000181251451,-0.05600000063342052,0.012000000373951061
-0.047884032130241394,0,9.988609313964844,0.006399999838322401,0,0.04899999871850014,0.06299999737754478,0.013000000266153095,0.012000000373951061
-0.05746084079146385,0,9.979032516479492,0.0058999997563660145,0,0.03920000046491623,-0.07600000181251451,0.013000000266153095,0.08200000283325337
-0.05746084079146385,0,9.979032516479492,-0.0037999998312443495,0,0.03920000046491623,0.06299999737754478,-0.05600000063342052,0.012000000373951061
-0.06703764945268631,0,9.988609313964844,0.005499999970197678,0,0.03920000046491623,-0.07600000181251451,-0.05600000063342052,0.08200000283325337
-0.05746084079146385,0,9.998186111450195,-0.00419999985024333,0,0.03920000046491623,-0.07600000181251451,-0.05600000063342052,0.012000000373951061
-0.05746084079146385,0,9.998186111450195,-0.0038999998942017555,0,0.03920000046491623,-0.006000000186975531,0.013000000266153095,0.012000000373951061
-0.047884032130241394,0,9.998186111450195,-0.0038999998942017555,0,0.03920000046491623,0.06299999737754478,0.013000000266153095,0.012000000373951061
-0.07661445438861847,0,10.017339706420898,-0.014099999330937862,0,0.06859999895095825,-0.07600000181251451,0.013000000266153095,0.012000000373951061
-0.05746084079146385,0,9.998186111450195,-0.004100000020116568,0,0.04899999871850014,0.06299999737754478,0.08299999855663877,0.012000000373951061
-0.05746084079146385,0,10.017339706420898,-0.004100000020116568,0,0.058799996972084045,-0.07600000181251451,0.013000000266153095,0.012000000373951061
-0.05746084079146385,0,10.017339706420898,-0.0037999998312443495,0,0.06859999895095825,-0.07600000181251451,-0.12599999475508955,0.08200000283325337
-0.047884032130241394,0,10.007762908935547,0.0058999997563660145,0,0.058799996972084045,-0.006000000186975531,-0.05600000063342052,0.012000000373951061
-0.06703764945268631,0,9.998186111450195,0.005499999970197678,0,0.058799996972084045,-0.006000000186975531,-0.05600000063342052,0.08200000283325337
-0.06703764945268631,0,9.998186111450195,-0.00419999985024333,0,0.04899999871850014,0.06299999737754478,0.013000000266153095,0.012000000373951061
-0.05746084079146385,0,9.998186111450195,0.0142000000923872,0,0.06859999895095825,-0.006000000186975531,0.013000000266153095,0.08200000283325337
-0.047884032130241394,0,10.02691650390625,0.0142000000923872,0,0.07840000092983246,-0.006000000186975531,-0.05600000063342052,0.012000000373951061
-0.06703764945268631,0,10.017339706420898,-0.004999999888241291,0,0.03920000046491623,-0.07600000181251451,0.013000000266153095,0.08200000283325337
-0.06703764945268631,0,10.017339706420898,-0.004999999888241291,0,0.04899999871850014,0.06299999737754478,0.013000000266153095,0.08200000283325337
-0.06703764945268631,0,10.017339706420898,-0.004600000102072954,0,0.04899999871850014,-0.006000000186975531,0.013000000266153095,0.012000000373951061
-0.05746084079146385,0,9.998186111450195,0.0050999997183680534,0,0.06859999895095825,-0.006000000186975531,0.013000000266153095,0.012000000373951061
-0.05746084079146385,0,10.007762908935547,-0.004299999680370092,0,0.06859999895095825,-0.006000000186975531,0.013000000266153095,0.012000000373951061
-0.05746084079146385,0,10.007762908935547,0.005399999674409628,0,0.03920000046491623,-0.006000000186975531,0.013000000266153095,0.012000000373951061
-0.047884032130241394,0,9.998186111450195,-0.004100000020116568,0,0.04899999871850014,0.06299999737754478,0.013000000266153095,0.012000000373951061
-0.047884032130241394,0,9.998186111450195,0.005699999630451202,0,0.04899999871850014,-0.006000000186975531,-0.05600000063342052,0.012000000373951061
-0.05746084079146385,0,9.988609313964844,0.005200000014156103,0,0.029399998486042023,0.06299999737754478,-0.05600000063342052,0.012000000373951061
-0.06703764945268631,0,9.979032516479492,-0.0044999998062849045,0,0.03920000046491623,-0.006000000186975531,0.013000000266153095,0.08200000283325337
-0.07661445438861847,0,9.96945571899414,-0.013299999758601189,0,0.029399998486042023,0.06299999737754478,0.013000000266153095,0.08200000283325337
-0.06703764945268631,0,9.959878921508789,0.006300000008195639,0,0,-0.006000000186975531,0.08299999855663877,0.08200000283325337
-0.07661445438861847,0,9.96945571899414,-0.0030999998562037945,0,0.009800000116229057,0.06299999737754478,0.08299999855663877,0.012000000373951061
-0.06703764945268631,0,9.979032516479492,0.006599999964237213,0,0,-0.07600000181251451,-0.05600000063342052,0.012000000373951061
-0.06703764945268631,0,9.988609313964844,0.006099999882280827,0,0,0.06299999737754478,0.013000000266153095,0.012000000373951061
-0.06703764945268631,0,9.979032516479492,0.005699999630451202,0,-0.019500000402331352,-0.07600000181251451,-0.05600000063342052,0.08200000283325337
-0.06703764945268631,0,9.959878921508789,0.005699999630451202,0,-0.019500000402331352,0.06299999737754478,0.013000000266153095,0.012000000373951061
-0.06703764945268631,0,9.959878921508789,-0.003999999724328518,0,-0.019500000402331352,0.06299999737754478,0.013000000266153095,0.012000000373951061
-0.05746084079146385,0,9.959878921508789,-0.0142000000923872,0,-0.00969999935477972,0.06299999737754478,0.013000000266153095,0.012000000373951061
-0.047884032130241394,0,9.988609313964844,0.014099999330937862,0,-0.00969999935477972,-0.006000000186975531,0.08299999855663877,0.012000000373951061
-0.05746084079146385,0,9.959878921508789,-0.01529999915510416,0,-0.00969999935477972,-0.07600000181251451,-0.12599999475508955,0.012000000373951061
-0.05746084079146385,0,9.96945571899414,0.003999999724328518,0,-0.00969999935477972,-0.006000000186975531,0.013000000266153095,0.012000000373951061
-0.038307227194309235,0,9.979032516479492,0.003999999724328518,0,0.019600000232458115,-0.006000000186975531,-0.05600000063342052,0.08200000283325337
-0.05746084079146385,0,9.950302124023438,-0.0052999998442828655,0,-0.00969999935477972,0.06299999737754478,-0.05600000063342052,0.012000000373951061
-0.06703764945268631,0,9.940725326538086,-0.0052999998442828655,0,-0.019500000402331352,-0.006000000186975531,0.013000000266153095,0.012000000373951061
-0.06703764945268631,0,9.979032516479492,-0.014099999330937862,0,0.009800000116229057,-0.006000000186975531,-0.05600000063342052,0.08200000283325337
-0.06703764945268631,0,9.979032516479492,-0.004299999680370092,0,0.009800000116229057,-0.006000000186975531,0.013000000266153095,0.08200000283325337
-0.06703764945268631,0,9.96945571899414,-0.003999999724328518,0,-0.00969999935477972,-0.006000000186975531,0.013000000266153095,0.012000000373951061
-0.06703764945268631,0,9.959878921508789,-0.003999999724328518,0,0,-0.006000000186975531,0.013000000266153095,0.012000000373951061
-0.047884032130241394,0,9.979032516479492,0.014399999752640724,0,0.009800000116229057,-0.006000000186975531,-0.05600000063342052,0.012000000373951061
-0.06703764945268631,0,9.988609313964844,0.014399999752640724,0,0,-0.006000000186975531,0.013000000266153095,0.08200000283325337
-0.06703764945268631,0,9.979032516479492,0.004299999680370092,0,-0.00969999935477972,-0.006000000186975531,0.013000000266153095,0.08200000283325337
-0.047884032130241394,0,9.998186111450195,0.004299999680370092,0,0.009800000116229057,-0.006000000186975531,0.013000000266153095,0.012000000373951061
-0.07661445438861847,0,9.979032516479492,-0.0142000000923872,0,0.019600000232458115,0.06299999737754478,0.013000000266153095,0.012000000373951061
-0.047884032130241394,0,9.998186111450195,-0.004299999680370092,0,0.029399998486042023,-0.006000000186975531,0.013000000266153095,0.08200000283325337
-0.047884032130241394,0,9.988609313964844,0.004999999888241291,0,0.03920000046491623,-0.07600000181251451,-0.05600000063342052,0.012000000373951061
-0.047884032130241394,0,9.998186111450195,0.014800000004470348,0,0.009800000116229057,-0.07600000181251451,-0.05600000063342052,0.012000000373951061
-0.06703764945268631,0,9.988609313964844,0.004600000102072954,0,0.04899999871850014,0.06299999737754478,0.013000000266153095,0.012000000373951061
-0.07661445438861847,0,9.998186111450195,0.004600000102072954,0,0.04899999871850014,0.06299999737754478,0.013000000266153095,0.012000000373951061
-0.07661445438861847,0,9.988609313964844,0.004299999680370092,0,0.029399998486042023,-0.07600000181251451,0.013000000266153095,0.08200000283325337
-0.047884032130241394,0,9.988609313964844,0.004299999680370092,0,0.029399998486042023,-0.006000000186975531,0.013000000266153095,-0.057000003026912535
-0.07661445438861847,0,10.007762908935547,0.003999999724328518,0,0.029399998486042023,-0.006000000186975531,-0.05600000063342052,0.012000000373951061
-0.05746084079146385,0,9.998186111450195,0.003999999724328518,0,0.029399998486042023,-0.006000000186975531,-0.05600000063342052,0.012000000373951061
-0.07661445438861847,0,9.998186111450195,0.003700000001117587,0,0.019600000232458115,-0.006000000186975531,-0.12599999475508955,0.012000000373951061
-0.05746084079146385,0,10.007762908935547,0.003700000001117587,0,0.03920000046491623,0.06299999737754478,0.013000000266153095,0.08200000283325337
-0.06703764945268631,0,9.998186111450195,0.003399999812245369,0,0.019600000232458115,-0.006000000186975531,0.013000000266153095,0.012000000373951061
-0.06703764945268631,0,10.007762908935547,0.0031999999191612005,0,0.03920000046491623,0.06299999737754478,-0.05600000063342052,0.08200000283325337
-0.05746084079146385,0,9.998186111450195,-0.016300000250339508,0,0.029399998486042023,-0.006000000186975531,0.013000000266153095,0.012000000373951061
-0.07661445438861847,0,10.007762908935547,0.002899999963119626,0,0.029399998486042023,-0.07600000181251451,0.013000000266153095,0.012000000373951061
-0.05746084079146385,0,10.007762908935547,0.002899999963119626,0,0.029399998486042023,-0.006000000186975531,0.013000000266153095,0.012000000373951061
-0.05746084079146385,0,9.998186111450195,-0.02459999918937683,0,0.029399998486042023,0.06299999737754478,0.013000000266153095,0.012000000373951061
-0.047884032130241394,0,10.007762908935547,-0.014800000004470348,0,0.019600000232458115,0.06299999737754478,0.013000000266153095,0.012000000373951061
-0.047884032130241394,0,10.007762908935547,-0.013799999840557575,0,0.04899999871850014,0.06299999737754478,0.013000000266153095,0.012000000373951061
-0.07661445438861847,0,9.998186111450195,0.02539999969303608,0,0.04899999871850014,0.06299999737754478,0.013000000266153095,0.012000000373951061
-0.05746084079146385,0,9.988609313964844,-0.012799999676644802,0,0.03920000046491623,-0.006000000186975531,0.013000000266153095,0.08200000283325337
-0.06703764945268631,0,9.998186111450195,0.0066999997943639755,0,0.03920000046491623,-0.006000000186975531,0.013000000266153095,0.012000000373951061
-0.05746084079146385,0,9.988609313964844,-0.012000000104308128,0,0.029399998486042023,-0.07600000181251451,0.013000000266153095,0.08200000283325337
-0.05746084079146385,0,9.998186111450195,0.007599999662488699,0,0.029399998486042023,-0.006000000186975531,0.013000000266153095,0.012000000373951061
-0.06703764945268631,0,10.017339706420898,0.00699999975040555,0,0.03920000046491623,-0.07600000181251451,0.013000000266153095,0.08200000283325337
-0.047884032130241394,0,10.02691650390625,0.007199999876320362,0,0,-0.006000000186975531,-0.05600000063342052,0.012000000373951061
-0.06703764945268631,0,10.007762908935547,0.0066999997943639755,0,0.009800000116229057,0.06299999737754478,0.013000000266153095,0.08200000283325337
-0.05746084079146385,0,10.007762908935547,-0.003000000026077032,0,-0.00969999935477972,-0.006000000186975531,0.013000000266153095,0.012000000373951061
-0.06703764945268631,0,10.017339706420898,-0.011899999342858791,0,0,0.06299999737754478,0.08299999855663877,0.012000000373951061
-0.05746084079146385,0,10.007762908935547,-0.011899999342858791,0,0.019600000232458115,-0.07600000181251451,0.013000000266153095,0.012000000373951061
-0.05746084079146385,0,10.017339706420898,0.0071000000461936,0,0,0.06299999737754478,0.013000000266153095,0.012000000373951061
-0.047884032130241394,0,10.017339706420898,-0.0026000000070780516,0,0,0.06299999737754478,-0.05600000063342052,0.08200000283325337
-0.05746084079146385,0,9.998186111450195,-0.012199999764561653,0,-0.019500000402331352,-0.006000000186975531,0.013000000266153095,0.08200000283325337
-0.05746084079146385,0,9.988609313964844,0.006799999624490738,0,0,-0.006000000186975531,-0.05600000063342052,0.012000000373951061
-0.05746084079146385,0,9.988609313964844,0.006799999624490738,0,-0.00969999935477972,-0.006000000186975531,0.08299999855663877,0.08200000283325337
-0.05746084079146385,0,9.979032516479492,-0.002699999837204814,0,-0.019500000402331352,-0.006000000186975531,0.08299999855663877,0.08200000283325337
-0.07661445438861847,0,9.979032516479492,0.00699999975040555,0,-0.03909999877214432,-0.006000000186975531,0.013000000266153095,0.08200000283325337
-0.05746084079146385,0,9.988609313964844,-0.0024999999441206455,0,-0.019500000402331352,-0.07600000181251451,0.013000000266153095,0.08200000283325337
-0.05746084079146385,0,9.96945571899414,-0.0024999999441206455,0,-0.02929999865591526,-0.006000000186975531,0.013000000266153095,0.08200000283325337
-0.05746084079146385,0,9.96945571899414,-0.011399999260902405,0,-0.048899997025728226,-0.07600000181251451,0.013000000266153095,0.08200000283325337
-0.05746084079146385,0,9.988609313964844,-0.0015999999595806003,0,-0.03909999877214432,-0.006000000186975531,0.013000000266153095,0.012000000373951061
-0.06703764945268631,0,9.96945571899414,-0.001500000013038516,0,-0.048899997025728226,-0.006000000186975531,-0.05600000063342052,0.012000000373951061
-0.06703764945268631,0,9.96945571899414,-0.001500000013038516,0,-0.05869999900460243,0.06299999737754478,0.013000000266153095,0.012000000373951061
-0.05746084079146385,0,9.950302124023438,0.007599999662488699,0,-0.048899997025728226,0.06299999737754478,0.013000000266153095,0.012000000373951061
-0.06703764945268631,0,9.950302124023438,-0.002099999925121665,0,-0.048899997025728226,-0.006000000186975531,-0.05600000063342052,0.012000000373951061
-0.05746084079146385,0,9.950302124023438,-0.0018999999156221747,0,-0.048899997025728226,-0.006000000186975531,0.08299999855663877,0.08200000283325337
-0.06703764945268631,0,9.931148529052734,-0.0018999999156221747,0,-0.07840000092983246,-0.006000000186975531,0.013000000266153095,0.08200000283325337
-0.047884032130241394,0,9.940725326538086,-0.0016999999061226845,0,-0.05869999900460243,0.06299999737754478,0.08299999855663877,0.012000000373951061
-0.05746084079146385,0,9.931148529052734,0.017799999564886093,0,-0.07840000092983246,-0.07600000181251451,0.013000000266153095,0.08200000283325337
-0.05746084079146385,0,9.921571731567383,-0.0015999999595806003,0,-0.08819999545812607,0.06299999737754478,0.013000000266153095,0.012000000373951061
-0.06703764945268631,0,9.931148529052734,0.008100000210106373,0,-0.11759999394416809,-0.006000000186975531,-0.05600000063342052,0.08200000283325337
-0.05746084079146385,0,9.931148529052734,-0.010599999688565731,0,-0.07840000092983246,-0.006000000186975531,0.08299999855663877,0.08200000283325337
-0.07661445438861847,0,9.90241813659668,0.008999999612569809,0,-0.08819999545812607,-0.006000000186975531,0.08299999855663877,0.08200000283325337
-0.06703764945268631,0,9.931148529052734,-0.000699999975040555,0,-0.07840000092983246,-0.006000000186975531,-0.05600000063342052,0.08200000283325337
-0.06703764945268631,0,9.931148529052734,-0.000699999975040555,0,-0.08819999545812607,-0.006000000186975531,0.013000000266153095,0.012000000373951061
-0.05746084079146385,0,9.931148529052734,-0.00969999935477972,0,-0.06849999725818634,-0.006000000186975531,-0.05600000063342052,0.012000000373951061
-0.06703764945268631,0,9.931148529052734,0.009800000116229057,0,-0.05869999900460243,0.06299999737754478,0.013000000266153095,0.08200000283325337
-0.05746084079146385,0,9.940725326538086,-0.008999999612569809,0,-0.08819999545812607,-0.07600000181251451,0.013000000266153095,0.08200000283325337
-0.05746084079146385,0,9.911994934082031,0.010499999858438969,0,-0.08819999545812607,-0.006000000186975531,0.08299999855663877,0.012000000373951061
-0.06703764945268631,0,9.911994934082031,0.000699999975040555,0,-0.08819999545812607,-0.006000000186975531,0.013000000266153095,0.012000000373951061
-0.06703764945268631,0,9.921571731567383,-0.008299999870359898,0,-0.07829999923706055,-0.006000000186975531,0.013000000266153095,0.012000000373951061
-0.06703764945268631,0,9.921571731567383,-0.008299999870359898,0,-0.07829999923706055,-0.006000000186975531,0.013000000266153095,0.08200000283325337
-0.05746084079146385,0,9.931148529052734,0.0013000000035390258,0,-0.08810000121593475,-0.006000000186975531,0.08299999855663877,0.08200000283325337
-0.05746084079146385,0,9.931148529052734,0.030700000002980232,0,-0.08810000121593475,-0.006000000186975531,-0.05600000063342052,0.08200000283325337
-0.08619125932455063,0,9.940725326538086,0.0011999999405816197,0,-0.08810000121593475,-0.006000000186975531,0.013000000266153095,0.012000000373951061
-0.05746084079146385,0,9.931148529052734,-0.008499999530613422,0,-0.07829999923706055,0.06299999737754478,0.013000000266153095,0.012000000373951061
-0.07661445438861847,0,9.931148529052734,0.0011999999405816197,0,-0.06849999725818634,0.06299999737754478,0.013000000266153095,0.08200000283325337
-0.06703764945268631,0,9.940725326538086,0.0011999999405816197,0,-0.05869999900460243,-0.07600000181251451,0.013000000266153095,0.08200000283325337
-0.06703764945268631,0,9.940725326538086,0.0010999999940395355,0,-0.06849999725818634,-0.006000000186975531,-0.05600000063342052,0.012000000373951061
-0.07661445438861847,0,9.959878921508789,0.0010999999940395355,0,-0.05869999900460243,-0.006000000186975531,0.013000000266153095,0.08200000283325337
-0.08619125932455063,0,9.950302124023438,-0.008599999360740185,0,-0.05869999900460243,0.06299999737754478,0.013000000266153095,0.012000000373951061
-0.07661445438861847,0,9.940725326538086,-0.008599999360740185,0,-0.05869999900460243,0.06299999737754478,0.013000000266153095,0.012000000373951061
-0.06703764945268631,0,9.959878921508789,-0.007999999448657036,0,-0.06849999725818634,-0.006000000186975531,-0.05600000063342052,0.012000000373951061
-0.05746084079146385,0,9.959878921508789,-0.00839999970048666,0,0,0.06299999737754478,-0.05600000063342052,0.012000000373951061
-0.06703764945268631,0,9.959878921508789,0.0011999999405816197,0,0.019500000402331352,0.06299999737754478,0.013000000266153095,0.012000000373951061
-0.05746084079146385,0,9.959878921508789,0.0011999999405816197,0,0.019500000402331352,0.06299999737754478,0.013000000266153095,0.012000000373951061
-0.08619125932455063,0,9.96945571899414,0.01939999870955944,0,0.02929999865591526,-0.07600000181251451,0.013000000266153095,0.08200000283325337
-0.047884032130241394,0,9.96945571899414,-0.00009999999747378752,0,0.019500000402331352,-0.006000000186975531,-0.05600000063342052,0.012000000373951061
-0.06703764945268631,0,9.96945571899414,0.017999999225139618,0,0.019500000402331352,-0.07600000181251451,-0.05600000063342052,0.012000000373951061
-0.06703764945268631,0,9.988609313964844,-0.001500000013038516,0,0.02929999865591526,0.06299999737754478,0.013000000266153095,0.012000000373951061
-0.05746084079146385,0,9.96945571899414,0.017500000074505806,0,0.03909999877214432,-0.07600000181251451,-0.05600000063342052,0.012000000373951061
-0.047884032130241394,0,9.96945571899414,0.017500000074505806,0,0.03909999877214432,-0.07600000181251451,-0.05600000063342052,0.012000000373951061
-0.05746084079146385,0,9.96945571899414,0.006399999838322401,0,0.02929999865591526,-0.006000000186975531,0.013000000266153095,0.08200000283325337
-0.05746084079146385,0,9.998186111450195,-0.0030999998562037945,0,0.048899997025728226,0.06299999737754478,0.013000000266153095,0.08200000283325337
-0.06703764945268631,0,9.998186111450195,-0.0030999998562037945,0,0.019500000402331352,-0.006000000186975531,0.013000000266153095,0.012000000373951061
-0.05746084079146385,0,9.998186111450195,0.006199999712407589,0,0.02929999865591526,-0.07600000181251451,-0.05600000063342052,0.012000000373951061
-0.05746084079146385,0,9.998186111450195,0.006199999712407589,0,0.048899997025728226,-0.006000000186975531,-0.05600000063342052,0.08200000283325337
-0.047884032130241394,0,9.998186111450195,-0.0032999999821186066,0,0.048899997025728226,-0.006000000186975531,0.013000000266153095,0.012000000373951061
-0.06703764945268631,0,9.979032516479492,-0.013100000098347664,0,0.05869999900460243,0.06299999737754478,-0.05600000063342052,0.012000000373951061
-0.07661445438861847,0,9.979032516479492,0.015099999494850636,0,0.048899997025728226,-0.006000000186975531,-0.05600000063342052,0.012000000373951061
-0.06703764945268631,0,9.988609313964844,0.0052999998442828655,0,0.03909999877214432,0.06299999737754478,0.013000000266153095,0.08200000283325337
-0.05746084079146385,0,9.979032516479492,-0.004100000020116568,0,0.048899997025728226,0.06299999737754478,0.013000000266153095,0.012000000373951061
-0.05746084079146385,0,9.988609313964844,0.00559999980032444,0,0.048899997025728226,0.06299999737754478,0.08299999855663877,0.012000000373951061
-0.047884032130241394,0,9.988609313964844,0.005200000014156103,0,0.03909999877214432,-0.006000000186975531,0.013000000266153095,0.08200000283325337
-0.05746084079146385,0,9.988609313964844,0.014999999664723873,0,0.048899997025728226,-0.006000000186975531,-0.05600000063342052,0.012000000373951061
-0.05746084079146385,0,9.96945571899414,0.004799999762326479,0,0.019500000402331352,-0.07600000181251451,0.013000000266153095,0.012000000373951061
-0.05746084079146385,0,9.96945571899414,-0.004900000058114529,0,0.019500000402331352,-0.006000000186975531,0.013000000266153095,0.08200000283325337
-0.06703764945268631,0,9.96945571899414,0.0044999998062849045,0,0.019500000402331352,-0.006000000186975531,0.08299999855663877,0.012000000373951061
-0.047884032130241394,0,9.959878921508789,0.0044999998062849045,0,0.019500000402331352,-0.07600000181251451,-0.05600000063342052,0.012000000373951061
-0.08619125932455063,0,9.96945571899414,-0.004900000058114529,0,0.00969999935477972,0.06299999737754478,0.013000000266153095,0.012000000373951061
-0.047884032130241394,0,9.96945571899414,0.004799999762326479,0,0.00969999935477972,-0.07600000181251451,-0.05600000063342052,0.012000000373951061
-0.06703764945268631,0,9.950302124023438,0.0044999998062849045,0,0,0.13300000483942703,0.013000000266153095,0.012000000373951061
-0.047884032130241394,0,9.940725326538086,0.0044999998062849045,0,0.00969999935477972,-0.006000000186975531,0.013000000266153095,0.08200000283325337
-0.05746084079146385,0,9.950302124023438,-0.004900000058114529,0,0.00969999935477972,0.06299999737754478,-0.05600000063342052,0.012000000373951061
-0.05746084079146385,0,9.959878921508789,-0.004900000058114529,0,0,0.06299999737754478,0.013000000266153095,0.08200000283325337
-0.05746084079146385,0,9.940725326538086,0.0044999998062849045,0,-0.009800000116229057,0.06299999737754478,0.013000000266153095,0.012000000373951061
-0.06703764945268631,0,9.940725326538086,-0.005200000014156103,0,0,-0.07600000181251451,-0.05600000063342052,0.012000000373951061
-0.06703764945268631,0,9.950302124023438,0.00419999985024333,0,-0.00989999994635582,0.06299999737754478,-0.05600000063342052,0.08200000283325337
-0.07661445438861847,0,9.959878921508789,-0.0050999997183680534,0,0.00969999935477972,-0.07600000181251451,-0.05600000063342052,0.08200000283325337
-0.06703764945268631,0,9.950302124023438,0.014399999752640724,0,0.019500000402331352,0.06299999737754478,0.08299999855663877,0.08200000283325337
-0.05746084079146385,0,9.950302124023438,-0.004799999762326479,0,0.00969999935477972,0.06299999737754478,0.013000000266153095,0.08200000283325337
-0.05746084079146385,0,9.96945571899414,0.004900000058114529,0,0.02929999865591526,0.06299999737754478,-0.05600000063342052,0.012000000373951061
-0.038307227194309235,0,9.96945571899414,0.02279999852180481,0,0,0.06299999737754478,0.08299999855663877,0.012000000373951061
-0.05746084079146385,0,9.96945571899414,0.0031999999191612005,0,0.019500000402331352,-0.07600000181251451,-0.05600000063342052,0.012000000373951061
-0.06703764945268631,0,9.979032516479492,-0.006000000052154064,0,0.00969999935477972,-0.07600000181251451,-0.05600000063342052,0.08200000283325337
-0.05746084079146385,0,9.959878921508789,-0.006000000052154064,0,0.00969999935477972,-0.006000000186975531,0.013000000266153095,0.08200000283325337
-0.06703764945268631,0,9.96945571899414,0.003399999812245369,0,0,-0.006000000186975531,-0.05600000063342052,0.012000000373951061
-0.05746084079146385,0,9.950302124023438,-0.006300000008195639,0,0.00969999935477972,-0.07600000181251451,-0.05600000063342052,0.08200000283325337
-0.06703764945268631,0,9.959878921508789,0.0031999999191612005,0,0.019500000402331352,-0.006000000186975531,0.013000000266153095,0.012000000373951061
-0.07661445438861847,0,9.96945571899414,-0.0064999996684491634,0,0.019500000402331352,-0.006000000186975531,0.013000000266153095,0.08200000283325337
-0.06703764945268631,0,9.96945571899414,-0.006099999882280827,0,0.019500000402331352,0.06299999737754478,0.013000000266153095,0.012000000373951061
-0.06703764945268631,0,9.959878921508789,-0.006000000052154064,0,0,-0.07600000181251451,0.013000000266153095,0.012000000373951061
-0.06703764945268631,0,9.979032516479492,0.003399999812245369,0,0.00969999935477972,-0.006000000186975531,0.013000000266153095,0.08200000283325337
-0.047884032130241394,0,9.96945571899414,0.003399999812245369,0,0.00969999935477972,0.06299999737754478,0.013000000266153095,0.012000000373951061
-0.05746084079146385,0,9.979032516479492,0.0031999999191612005,0,0.00969999935477972,-0.07600000181251451,0.013000000266153095,0.012000000373951061
-0.05746084079146385,0,9.950302124023438,-0.0064999996684491634,0,0.00969999935477972,0.06299999737754478,-0.05600000063342052,0.012000000373951061
-0.06703764945268631,0,9.959878921508789,0.002899999963119626,0,0,-0.07600000181251451,0.013000000266153095,0.08200000283325337
-0.06703764945268631,0,9.959878921508789,0.002899999963119626,0,0.00969999935477972,-0.006000000186975531,0.013000000266153095,0.012000000373951061
-0.07661445438861847,0,9.959878921508789,0.002699999837204814,0,-0.019600000232458115,0.13300000483942703,-0.05600000063342052,0.012000000373951061
-0.05746084079146385,0,9.959878921508789,0.002699999837204814,0,-0.019600000232458115,0.13300000483942703,-0.05600000063342052,0.012000000373951061
-0.06703764945268631,0,9.950302124023438,0.0024999999441206455,0,0.00969999935477972,0.06299999737754478,0.08299999855663877,0.08200000283325337
-0.05746084079146385,0,9.959878921508789,-0.007199999876320362,0,-0.019600000232458115,0.06299999737754478,0.013000000266153095,0.012000000373951061
-0.05746084079146385,0,9.940725326538086,-0.0066999997943639755,0,-0.009800000116229057,-0.07600000181251451,-0.05600000063342052,0.012000000373951061
-0.05746084079146385,0,9.950302124023438,0.003000000026077032,0,-0.019600000232458115,0.06299999737754478,0.013000000266153095,0.012000000373951061
-0.038307227194309235,0,9.940725326538086,0.00279999990016222,0,-0.009800000116229057,-0.07600000181251451,0.013000000266153095,0.012000000373951061
-0.06703764945268631,0,9.931148529052734,-0.01549999974668026,0,-0.009800000116229057,-0.006000000186975531,0.013000000266153095,0.08200000283325337
-0.07661445438861847,0,9.931148529052734,-0.01549999974668026,0,-0.04899999871850014,0.06299999737754478,0.013000000266153095,0.08200000283325337
-0.07661445438861847,0,9.921571731567383,-0.0052999998442828655,0,-0.019600000232458115,0.06299999737754478,0.013000000266153095,0.012000000373951061
-0.047884032130241394,0,9.950302124023438,0.0142000000923872,0,-0.03920000046491623,0.06299999737754478,-0.05600000063342052,0.012000000373951061
-0.06703764945268631,0,9.931148529052734,0.004100000020116568,0,-0.029399998486042023,-0.07600000181251451,-0.05600000063342052,0.08200000283325337
-0.07661445438861847,0,9.950302124023438,0.013899999670684338,0,-0.009800000116229057,0.06299999737754478,0.013000000266153095,0.012000000373951061
-0.06703764945268631,0,9.940725326538086,-0.005200000014156103,0,-0.019600000232458115,-0.07600000181251451,0.013000000266153095,0.012000000373951061
-0.05746084079146385,0,9.950302124023438,-0.014999999664723873,0,-0.029399998486042023,-0.006000000186975531,-0.05600000063342052,0.012000000373951061
-0.06703764945268631,0,9.950302124023438,0.00419999985024333,0,-0.009800000116229057,-0.006000000186975531,-0.05600000063342052,0.012000000373951061
-0.06703764945268631,0,9.950302124023438,-0.01529999915510416,0,-0.019600000232458115,0.06299999737754478,0.013000000266153095,0.012000000373951061
-0.047884032130241394,0,9.96945571899414,0.0038999998942017555,0,-0.029399998486042023,0.06299999737754478,0.013000000266153095,0.012000000373951061
-0.05746084079146385,0,9.950302124023438,0.0038999998942017555,0,-0.009800000116229057,-0.006000000186975531,-0.05600000063342052,0.012000000373951061
-0.07661445438861847,0,9.950302124023438,-0.005399999674409628,0,0,-0.006000000186975531,0.013000000266153095,0.012000000373951061
-0.07661445438861847,0,9.950302124023438,0.004299999680370092,0,0,0.06299999737754478,0.013000000266153095,0.012000000373951061
-0.05746084079146385,0,9.959878921508789,0.003999999724328518,0,-0.009800000116229057,-0.006000000186975531,0.013000000266153095,0.08200000283325337
-0.07661445438861847,0,9.959878921508789,0.003999999724328518,0,0,-0.07600000181251451,-0.05600000063342052,0.012000000373951061
-0.05746084079146385,0,9.950302124023438,-0.0052999998442828655,0,-0.009800000116229057,-0.006000000186975531,0.013000000266153095,0.012000000373951061
-0.06703764945268631,0,9.959878921508789,0.004399999976158142,0,-0.009800000116229057,-0.006000000186975531,0.013000000266153095,0.012000000373951061
-0.06703764945268631,0,9.959878921508789,0.004799999762326479,0,-0.019600000232458115,-0.006000000186975531,0.013000000266153095,0.012000000373951061
-0.05746084079146385,0,9.940725326538086,0.004799999762326479,0,-0.019600000232458115,-0.006000000186975531,0.013000000266153095,0.08200000283325337
-0.05746084079146385,0,9.950302124023438,0.013599999248981476,0,-0.019600000232458115,0.06299999737754478,0.013000000266153095,0.08200000283325337
-0.05746084079146385,0,9.959878921508789,0.0037999998312443495,0,-0.009800000116229057,-0.006000000186975531,0.013000000266153095,0.012000000373951061
-0.05746084079146385,0,9.959878921508789,-0.02579999901354313,0,-0.029399998486042023,-0.006000000186975531,0.013000000266153095,0.012000000373951061
-0.05746084079146385,0,9.96945571899414,0.0032999999821186066,0,-0.009800000116229057,-0.07600000181251451,0.013000000266153095,0.08200000283325337
-0.038307227194309235,0,9.940725326538086,0.013100000098347664,0,-0.029399998486042023,-0.006000000186975531,0.013000000266153095,0.012000000373951061
-0.05746084079146385,0,9.959878921508789,-0.015099999494850636,0,-0.019600000232458115,-0.006000000186975531,0.013000000266153095,0.08200000283325337
-0.05746084079146385,0,9.931148529052734,0.004399999976158142,0,-0.019600000232458115,-0.006000000186975531,-0.05600000063342052,0.012000000373951061
-0.05746084079146385,0,9.940725326538086,0.004100000020116568,0,-0.019600000232458115,-0.006000000186975531,-0.05600000063342052,0.012000000373951061
-0.047884032130241394,0,9.940725326538086,0.004100000020116568,0,-0.019600000232458115,-0.006000000186975531,-0.05600000063342052,0.012000000373951061
-0.05746084079146385,0,9.931148529052734,0.0037999998312443495,0,-0.019600000232458115,0.06299999737754478,0.013000000266153095,0.012000000373951061
-0.06703764945268631,0,9.931148529052734,-0.0058999997563660145,0,-0.029399998486042023,-0.006000000186975531,0.013000000266153095,0.012000000373951061
-0.05746084079146385,0,9.931148529052734,-0.005499999970197678,0,-0.029399998486042023,0.06299999737754478,0.013000000266153095,0.08200000283325337
-0.06703764945268631,0,9.931148529052734,-0.005499999970197678,0,-0.029399998486042023,-0.006000000186975531,0.013000000266153095,0.012000000373951061
-0.06703764945268631,0,9.940725326538086,0.022199999541044235,0,-0.029399998486042023,0.05600000063342052,0.08700000146050021,-0.024999999806340833
-0.05746084079146385,0,9.911994934082031,-0.016999999061226845,0,-0.00009999999747378752,-0.08299999855663877,0.01700000066872456,0.043999998591942806
-0.05746084079146385,0,9.911994934082031,-0.0066999997943639755,0,-0.00989999994635582,-0.013000000266153095,0.01700000066872456,-0.024999999806340833
-0.07661445438861847,0,9.931148529052734,0.003000000026077032,0,-0.00989999994635582,-0.08299999855663877,0.01700000066872456,-0.024999999806340833
-0.06703764945268631,0,9.940725326538086,-0.006199999712407589,0,-0.029500000178813934,-0.013000000266153095,0.01700000066872456,-0.024999999806340833
-0.05746084079146385,0,9.940725326538086,-0.006199999712407589,0,-0.029500000178813934,0.05600000063342052,0.01700000066872456,-0.024999999806340833
-0.047884032130241394,0,9.931148529052734,0.0031999999191612005,0,-0.00009999999747378752,-0.013000000266153095,-0.05200000106461238,-0.024999999806340833
-0.06703764945268631,0,9.940725326538086,0.0031999999191612005,0,-0.019700000062584877,0.05600000063342052,0.01700000066872456,0.043999998591942806
-0.07661445438861847,0,9.931148529052734,-0.006000000052154064,0,-0.00989999994635582,-0.08299999855663877,-0.05200000106461238,-0.024999999806340833
-0.05746084079146385,0,9.950302124023438,-0.006000000052154064,0,-0.00989999994635582,0.05600000063342052,0.01700000066872456,-0.024999999806340833
-0.06703764945268631,0,9.950302124023438,0.012600000016391277,0,-0.00009999999747378752,-0.08299999855663877,-0.05200000106461238,-0.024999999806340833
-0.05746084079146385,0,9.950302124023438,0.00279999990016222,0,-0.00009999999747378752,-0.013000000266153095,0.01700000066872456,0.043999998591942806
-0.06703764945268631,0,9.940725326538086,0.0026000000070780516,0,0.00969999935477972,-0.013000000266153095,0.01700000066872456,-0.024999999806340833
-0.08619125932455063,0,9.950302124023438,-0.0071000000461936,0,0.019500000402331352,-0.013000000266153095,0.08700000146050021,0.043999998591942806
-0.06703764945268631,0,9.950302124023438,0.012899999506771564,0,0.019500000402331352,0.05600000063342052,0.01700000066872456,0.043999998591942806
-0.06703764945268631,0,9.931148529052734,0.00279999990016222,0,0.00969999935477972,0.05600000063342052,0.01700000066872456,0.043999998591942806
-0.05746084079146385,0,9.959878921508789,0.00279999990016222,0,-0.00009999999747378752,-0.08299999855663877,0.01700000066872456,0.043999998591942806
-0.07661445438861847,0,9.96945571899414,-0.006399999838322401,0,0.02929999865591526,0.05600000063342052,0.01700000066872456,-0.024999999806340833
-0.047884032130241394,0,9.96945571899414,0.013100000098347664,0,0.02929999865591526,-0.013000000266153095,0.01700000066872456,0.043999998591942806
-0.06703764945268631,0,9.979032516479492,0.0030999998562037945,0,0.019500000402331352,-0.013000000266153095,0.01700000066872456,-0.024999999806340833
-0.08619125932455063,0,9.96945571899414,-0.01640000008046627,0,0.02929999865591526,-0.013000000266153095,0.01700000066872456,-0.024999999806340833
-0.07661445438861847,0,9.979032516479492,-0.006199999712407589,0,0.019500000402331352,-0.013000000266153095,-0.05200000106461238,-0.024999999806340833
-0.047884032130241394,0,9.96945571899414,0.013299999758601189,0,0.02929999865591526,-0.013000000266153095,0.01700000066872456,-0.024999999806340833
-0.06703764945268631,0,9.998186111450195,0.0032999999821186066,0,0.048899997025728226,-0.013000000266153095,-0.05200000106461238,-0.024999999806340833
-0.06703764945268631,0,9.998186111450195,-0.006399999838322401,0,0.048899997025728226,-0.013000000266153095,0.01700000066872456,-0.024999999806340833
-0.06703764945268631,0,9.979032516479492,-0.024299999698996544,0,0.05869999900460243,-0.013000000266153095,0.01700000066872456,0.043999998591942806
-0.047884032130241394,0,9.988609313964844,0.014800000004470348,0,0.03909999877214432,-0.013000000266153095,0.01700000066872456,-0.024999999806340833
-0.06703764945268631,0,9.979032516479492,-0.004399999976158142,0,0.03909999877214432,-0.013000000266153095,0.01700000066872456,0.043999998591942806
-0.05746084079146385,0,9.998186111450195,0.015099999494850636,0,0.05869999900460243,0.05600000063342052,0.01700000066872456,0.043999998591942806
-0.06703764945268631,0,10.007762908935547,-0.004100000020116568,0,0.05869999900460243,-0.013000000266153095,0.01700000066872456,0.043999998591942806
-0.05746084079146385,0,9.998186111450195,0.00559999980032444,0,0.048899997025728226,-0.013000000266153095,-0.05200000106461238,0.043999998591942806
-0.06703764945268631,0,10.007762908935547,0.014299999922513962,0,0.05869999900460243,-0.013000000266153095,0.01700000066872456,0.043999998591942806
-0.05746084079146385,0,10.007762908935547,0.00419999985024333,0,0.05869999900460243,0.05600000063342052,0.01700000066872456,-0.024999999806340833
-0.047884032130241394,0,10.007762908935547,0.00419999985024333,0,0.05869999900460243,0.05600000063342052,0.01700000066872456,-0.024999999806340833
-0.06703764945268631,0,10.02691650390625,-0.005499999970197678,0,0.07829999923706055,-0.013000000266153095,-0.05200000106461238,-0.024999999806340833
-0.06703764945268631,0,10.007762908935547,-0.005200000014156103,0,0.06849999725818634,-0.013000000266153095,-0.05200000106461238,-0.024999999806340833
-0.06703764945268631,0,9.998186111450195,0.004600000102072954,0,0.05869999900460243,0.05600000063342052,0.01700000066872456,-0.024999999806340833
-0.05746084079146385,0,9.998186111450195,-0.004799999762326479,0,0.05869999900460243,-0.08299999855663877,0.01700000066872456,0.043999998591942806
-0.05746084079146385,0,9.998186111450195,0.0044999998062849045,0,0.06849999725818634,0.05600000063342052,-0.05200000106461238,-0.024999999806340833
-0.06703764945268631,0,10.007762908935547,0.014299999922513962,0,0.06849999725818634,-0.013000000266153095,-0.05200000106461238,-0.024999999806340833
-0.038307227194309235,0,10.007762908935547,-0.004900000058114529,0,0.07829999923706055,-0.08299999855663877,-0.05200000106461238,-0.024999999806340833
-0.07661445438861847,0,10.017339706420898,0.014699999243021011,0,0.048899997025728226,0.05600000063342052,0.01700000066872456,-0.024999999806340833
-0.05746084079146385,0,10.007762908935547,-0.0044999998062849045,0,0.05869999900460243,-0.013000000266153095,-0.05200000106461238,-0.024999999806340833
-0.06703764945268631,0,9.998186111450195,0.005200000014156103,0,0.03909999877214432,-0.013000000266153095,0.01700000066872456,-0.024999999806340833
-0.06703764945268631,0,10.017339706420898,-0.004299999680370092,0,0.06849999725818634,-0.013000000266153095,0.01700000066872456,-0.024999999806340833
-0.06703764945268631,0,10.007762908935547,-0.004299999680370092,0,0.06849999725818634,-0.013000000266153095,0.01700000066872456,0.043999998591942806
-0.06703764945268631,0,10.007762908935547,0.0142000000923872,0,0.05869999900460243,-0.08299999855663877,0.01700000066872456,-0.024999999806340833
-0.05746084079146385,0,10.007762908935547,0.004399999976158142,0,0.07829999923706055,-0.08299999855663877,-0.05200000106461238,0.043999998591942806
-0.07661445438861847,0,9.998186111450195,0.004100000020116568,0,0.05869999900460243,-0.08299999855663877,0.01700000066872456,0.043999998591942806
-0.05746084079146385,0,10.007762908935547,0.004399999976158142,0,0,-0.013000000266153095,0.01700000066872456,-0.024999999806340833
-0.06703764945268631,0,9.998186111450195,-0.004999999888241291,0,-0.00969999935477972,-0.08299999855663877,0.01700000066872456,0.043999998591942806
-0.06703764945268631,0,9.979032516479492,0.004699999932199717,0,-0.019500000402331352,-0.013000000266153095,-0.05200000106461238,0.043999998591942806
-0.05746084079146385,0,9.988609313964844,-0.004600000102072954,0,-0.019500000402331352,-0.08299999855663877,0.08700000146050021,0.043999998591942806
-0.06703764945268631,0,9.96945571899414,0.0050999997183680534,0,-0.019500000402331352,-0.1529999993484144,0.08700000146050021,0.043999998591942806
-0.06703764945268631,0,9.950302124023438,0.013899999670684338,0,-0.03920000046491623,-0.013000000266153095,0.01700000066872456,0.043999998591942806
-0.07661445438861847,0,9.96945571899414,-0.015399999916553497,0,-0.03920000046491623,-0.08299999855663877,0.01700000066872456,-0.024999999806340833
-0.05746084079146385,0,9.959878921508789,-0.005200000014156103,0,-0.02929999865591526,-0.013000000266153095,-0.05200000106461238,0.043999998591942806
-0.07661445438861847,0,9.96945571899414,0.0044999998062849045,0,-0.03920000046491623,0.05600000063342052,0.08700000146050021,-0.024999999806340833
-0.06703764945268631,0,9.931148529052734,-0.004799999762326479,0,-0.02929999865591526,-0.013000000266153095,-0.05200000106461238,-0.024999999806340833
-0.06703764945268631,0,9.959878921508789,0.014699999243021011,0,-0.04899999871850014,-0.08299999855663877,-0.05200000106461238,0.043999998591942806
-0.06703764945268631,0,9.979032516479492,0.0044999998062849045,0,-0.03920000046491623,0.05600000063342052,0.01700000066872456,0.043999998591942806
-0.07661445438861847,0,9.959878921508789,-0.013899999670684338,0,-0.03909999877214432,-0.08299999855663877,0.01700000066872456,0.043999998591942806
-0.06703764945268631,0,9.96945571899414,-0.004100000020116568,0,-0.04899999871850014,-0.013000000266153095,0.01700000066872456,-0.024999999806340833
-0.06703764945268631,0,9.96945571899414,-0.012899999506771564,0,-0.048899997025728226,-0.013000000266153095,0.08700000146050021,-0.024999999806340833
-0.06703764945268631,0,9.959878921508789,-0.0030999998562037945,0,-0.03909999877214432,-0.08299999855663877,-0.05200000106461238,-0.024999999806340833
-0.06703764945268631,0,9.959878921508789,-0.002899999963119626,0,-0.058799996972084045,-0.013000000266153095,0.01700000066872456,-0.024999999806340833
-0.06703764945268631,0,9.959878921508789,-0.01269999984651804,0,-0.048899997025728226,-0.08299999855663877,-0.05200000106461238,-0.024999999806340833
-0.05746084079146385,0,9.950302124023438,-0.002699999837204814,0,-0.048899997025728226,0.05600000063342052,0.01700000066872456,-0.024999999806340833
-0.06703764945268631,0,9.959878921508789,0.00699999975040555,0,-0.03909999877214432,-0.08299999855663877,-0.05200000106461238,-0.024999999806340833
-0.06703764945268631,0,9.959878921508789,-0.0024999999441206455,0,-0.03909999877214432,-0.013000000266153095,0.01700000066872456,0.043999998591942806
-0.047884032130241394,0,9.950302124023438,0.007199999876320362,0,-0.03909999877214432,-0.013000000266153095,-0.05200000106461238,0.043999998591942806
-0.06703764945268631,0,9.950302124023438,-0.002300000051036477,0,-0.02929999865591526,-0.013000000266153095,-0.05200000106461238,0.043999998591942806
-0.06703764945268631,0,9.940725326538086,-0.002300000051036477,0,-0.02929999865591526,-0.08299999855663877,0.01700000066872456,-0.024999999806340833
-0.05746084079146385,0,9.96945571899414,0.006899999920278788,0,-0.00969999935477972,-0.08299999855663877,0.01700000066872456,-0.024999999806340833
-0.06703764945268631,0,9.959878921508789,-0.012600000016391277,0,-0.02929999865591526,-0.013000000266153095,-0.05200000106461238,-0.024999999806340833
-0.06703764945268631,0,9.959878921508789,0.006399999838322401,0,-0.02929999865591526,-0.013000000266153095,0.01700000066872456,-0.024999999806340833
-0.07661445438861847,0,9.988609313964844,0.006399999838322401,0,-0.02929999865591526,-0.013000000266153095,0.01700000066872456,-0.024999999806340833
-0.06703764945268631,0,9.96945571899414,-0.01209999993443489,0,-0.02929999865591526,-0.013000000266153095,-0.05200000106461238,0.043999998591942806
-0.06703764945268631,0,9.979032516479492,0.007400000002235174,0,-0.02929999865591526,0.05600000063342052,0.01700000066872456,0.043999998591942806
-0.06703764945268631,0,9.979032516479492,-0.002199999988079071,0,-0.03909999877214432,-0.013000000266153095,0.01700000066872456,0.043999998591942806
-0.06703764945268631,0,9.96945571899414,-0.002199999988079071,0,-0.02929999865591526,-0.013000000266153095,0.01700000066872456,0.043999998591942806
-0.06703764945268631,0,9.96945571899414,-0.001999999862164259,0,-0.03909999877214432,-0.013000000266153095,0.08700000146050021,0.043999998591942806
-0.06703764945268631,0,9.998186111450195,0.007699999958276749,0,-0.019500000402331352,0.05600000063342052,0.01700000066872456,-0.024999999806340833
-0.06703764945268631,0,9.988609313964844,0.007199999876320362,0,-0.02929999865591526,-0.013000000266153095,0.01700000066872456,0.043999998591942806
-0.047884032130241394,0,9.988609313964844,-0.0024999999441206455,0,-0.00969999935477972,0.05600000063342052,0.08700000146050021,0.043999998591942806
-0.05746084079146385,0,9.998186111450195,0.0066999997943639755,0,-0.00969999935477972,-0.08299999855663877,0.01700000066872456,0.043999998591942806
-0.06703764945268631,0,9.988609313964844,-0.00279999990016222,0,0,0.05600000063342052,0.08700000146050021,0.043999998591942806
-0.05746084079146385,0,9.988609313964844,-0.00279999990016222,0,0,-0.013000000266153095,-0.05200000106461238,-0.024999999806340833
-0.05746084079146385,0,9.96945571899414,-0.0026000000070780516,0,-0.019500000402331352,0.05600000063342052,0.01700000066872456,-0.024999999806340833
-0.047884032130241394,0,10.007762908935547,0.0071000000461936,0,-0.00969999935477972,-0.08299999855663877,0.01700000066872456,-0.024999999806340833
-0.06703764945268631,0,9.998186111450195,0.006599999964237213,0,0.009800000116229057,-0.013000000266153095,0.01700000066872456,-0.024999999806340833
-0.05746084079146385,0,10.007762908935547,0.006599999964237213,0,0.009800000116229057,-0.013000000266153095,-0.05200000106461238,0.043999998591942806
-0.047884032130241394,0,9.988609313964844,0.01529999915510416,0,0,0.05600000063342052,0.01700000066872456,-0.024999999806340833
-0.047884032130241394,0,9.988609313964844,0.01529999915510416,0,0,0.05600000063342052,0.01700000066872456,-0.024999999806340833
-0.047884032130241394,0,9.979032516479492,-0.013100000098347664,0,0.009800000116229057,0.05600000063342052,-0.05200000106461238,-0.024999999806340833
-0.07661445438861847,0,10.02691650390625,0.006399999838322401,0,0.009800000116229057,-0.013000000266153095,0.01700000066872456,-0.024999999806340833
-0.05746084079146385,0,10.007762908935547,0.006000000052154064,0,0.019600000232458115,-0.08299999855663877,0.01700000066872456,0.043999998591942806
-0.09576806426048279,0,10.017339706420898,-0.02329999953508377,0,-0.00009999999747378752,0.05600000063342052,0.01700000066872456,-0.024999999806340833
-0.05746084079146385,0,10.007762908935547,-0.003399999812245369,0,-0.00009999999747378752,-0.013000000266153095,0.01700000066872456,0.043999998591942806
-0.06703764945268631,0,9.998186111450195,-0.003399999812245369,0,-0.00009999999747378752,-0.013000000266153095,-0.05200000106461238,-0.024999999806340833
-0.06703764945268631,0,10.017339706420898,0.0058999997563660145,0,-0.00009999999747378752,-0.013000000266153095,0.01700000066872456,0.043999998591942806
-0.047884032130241394,0,9.998186111450195,-0.0037999998312443495,0,0.009599999524652958,-0.013000000266153095,-0.05200000106461238,-0.024999999806340833
-0.05746084079146385,0,10.036493301391602,0.005499999970197678,0,0.009599999524652958,-0.013000000266153095,0.01700000066872456,-0.024999999806340833
-0.047884032130241394,0,10.007762908935547,0.01529999915510416,0,0.009599999524652958,-0.013000000266153095,0.01700000066872456,-0.024999999806340833
-0.05746084079146385,0,10.017339706420898,0.0050999997183680534,0,0.009599999524652958,-0.013000000266153095,-0.05200000106461238,-0.024999999806340833
-0.05746084079146385,0,10.036493301391602,-0.014399999752640724,0,0.009599999524652958,-0.08299999855663877,-0.12199999852133472,-0.024999999806340833
-0.038307227194309235,0,9.998186111450195,0.004699999932199717,0,0.01939999870955944,0.05600000063342052,0.01700000066872456,-0.024999999806340833
-0.05746084079146385,0,10.017339706420898,-0.004999999888241291,0,0.009599999524652958,-0.013000000266153095,-0.05200000106461238,-0.024999999806340833
-0.05746084079146385,0,10.007762908935547,0.004399999976158142,0,-0.00009999999747378752,0.05600000063342052,-0.05200000106461238,-0.024999999806340833
-0.07661445438861847,0,10.007762908935547,-0.0052999998442828655,0,-0.00009999999747378752,-0.013000000266153095,0.01700000066872456,-0.024999999806340833
-0.06703764945268631,0,9.998186111450195,-0.004900000058114529,0,-0.019700000062584877,0.05600000063342052,0.01700000066872456,-0.024999999806340833
-0.05746084079146385,0,9.998186111450195,0.004399999976158142,0,-0.00989999994635582,-0.08299999855663877,-0.05200000106461238,0.043999998591942806
-0.07661445438861847,0,9.988609313964844,-0.0052999998442828655,0,-0.029500000178813934,0.05600000063342052,0.01700000066872456,-0.024999999806340833
-0.06703764945268631,0,9.979032516479492,0.004100000020116568,0,-0.029500000178813934,-0.08299999855663877,-0.12199999852133472,-0.024999999806340833
-0.06703764945268631,0,9.96945571899414,-0.00559999980032444,0,-0.00989999994635582,-0.013000000266153095,-0.05200000106461238,-0.024999999806340833
-0.05746084079146385,0,10.007762908935547,0.0037999998312443495,0,-0.019700000062584877,0.05600000063342052,0.08700000146050021,0.043999998591942806
-0.05746084079146385,0,9.96945571899414,0.0037999998312443495,0,-0.00989999994635582,-0.013000000266153095,0.01700000066872456,-0.024999999806340833
-0.06703764945268631,0,9.959878921508789,0.003599999938160181,0,-0.019700000062584877,0.05600000063342052,0.01700000066872456,0.043999998591942806
-0.06703764945268631,0,9.988609313964844,-0.006099999882280827,0,-0.03929999843239784,-0.08299999855663877,-0.05200000106461238,-0.024999999806340833
-0.06703764945268631,0,9.979032516479492,0.0032999999821186066,0,-0.029500000178813934,0.05600000063342052,0.01700000066872456,-0.024999999806340833
-0.06703764945268631,0,9.979032516479492,-0.006399999838322401,0,-0.04919999837875366,-0.013000000266153095,0.01700000066872456,-0.024999999806340833
-0.06703764945268631,0,9.96945571899414,0.0030999998562037945,0,-0.029500000178813934,-0.013000000266153095,-0.05200000106461238,-0.024999999806340833
-0.05746084079146385,0,9.96945571899414,0.0030999998562037945,0,-0.03929999843239784,-0.013000000266153095,0.01700000066872456,0.043999998591942806
-0.047884032130241394,0,9.988609313964844,0.002899999963119626,0,-0.03929999843239784,0.05600000063342052,0.01700000066872456,-0.024999999806340833
-0.07661445438861847,0,9.96945571899414,-0.006799999624490738,0,-0.019700000062584877,0.05600000063342052,0.08700000146050021,0.043999998591942806
-0.05746084079146385,0,9.979032516479492,0.002699999837204814,0,-0.029500000178813934,0.05600000063342052,-0.05200000106461238,-0.024999999806340833
-0.06703764945268631,0,9.979032516479492,0.0024999999441206455,0,-0.019700000062584877,-0.08299999855663877,0.01700000066872456,0.043999998591942806
-0.05746084079146385,0,9.979032516479492,0.0024999999441206455,0,-0.029500000178813934,-0.013000000266153095,0.01700000066872456,-0.024999999806340833
-0.07661445438861847,0,9.979032516479492,0.0024999999441206455,0,-0.029500000178813934,-0.013000000266153095,0.01700000066872456,-0.024999999806340833
-0.06703764945268631,0,9.979032516479492,-0.0066999997943639755,0,-0.029500000178813934,-0.013000000266153095,0.01700000066872456,-0.024999999806340833
-0.05746084079146385,0,9.998186111450195,-0.0066999997943639755,0,-0.029500000178813934,-0.013000000266153095,0.01700000066872456,0.043999998591942806
-0.05746084079146385,0,9.988609313964844,0.012000000104308128,0,-0.029500000178813934,-0.013000000266153095,0.01700000066872456,-0.024999999806340833
-0.05746084079146385,0,9.988609313964844,-0.007499999832361937,0,-0.019700000062584877,-0.08299999855663877,0.01700000066872456,0.043999998591942806
-0.06703764945268631,0,9.979032516479492,0.01119999960064888,0,-0.039400000125169754,-0.013000000266153095,0.01700000066872456,0.043999998591942806
-0.06703764945268631,0,9.998186111450195,-0.025999998673796654,0,-0.019700000062584877,0.05600000063342052,-0.05200000106461238,0.043999998591942806
-0.06703764945268631,0,9.988609313964844,-0.006399999838322401,0,-0.029500000178813934,-0.013000000266153095,0.01700000066872456,0.043999998591942806
-0.08619125932455063,0,9.988609313964844,-0.006000000052154064,0,-0.029500000178813934,-0.08299999855663877,0.01700000066872456,-0.024999999806340833
-0.05746084079146385,0,9.998186111450195,-0.006000000052154064,0,-0.03929999843239784,-0.013000000266153095,-0.12199999852133472,-0.024999999806340833
-0.06703764945268631,0,9.988609313964844,-0.005499999970197678,0,-0.019700000062584877,-0.08299999855663877,0.01700000066872456,0.043999998591942806
-0.06703764945268631,0,9.988609313964844,-0.005499999970197678,0,-0.019700000062584877,-0.08299999855663877,-0.05200000106461238,0.043999998591942806
-0.047884032130241394,0,9.988609313964844,-0.014299999922513962,0,-0.029500000178813934,0.05600000063342052,0.08700000146050021,0.043999998591942806
-0.06703764945268631,0,9.979032516479492,0.015099999494850636,0,-0.019700000062584877,-0.08299999855663877,0.01700000066872456,-0.024999999806340833
-0.05746084079146385,0,9.96945571899414,0.004900000058114529,0,-0.029500000178813934,0.12599999475508955,0.01700000066872456,-0.024999999806340833
-0.05746084079146385,0,9.988609313964844,0.004900000058114529,0,-0.029500000178813934,-0.013000000266153095,0.01700000066872456,0.043999998591942806
-0.05746084079146385,0,9.979032516479492,0.013700000010430813,0,-0.019700000062584877,-0.08299999855663877,0.01700000066872456,0.043999998591942806
-0.047884032130241394,0,9.998186111450195,0.003700000001117587,0,0,-0.08299999855663877,0.01700000066872456,0.043999998591942806
-0.06703764945268631,0,9.988609313964844,0.003499999875202775,0,0,-0.013000000266153095,-0.05200000106461238,0.043999998591942806
-0.06703764945268631,0,9.988609313964844,-0.016099998727440834,0,0.019600000232458115,-0.013000000266153095,-0.05200000106461238,0.043999998591942806
-0.06703764945268631,0,9.979032516479492,0.0031999999191612005,0,0.019600000232458115,-0.013000000266153095,0.01700000066872456,-0.024999999806340833
-0.07661445438861847,0,9.979032516479492,-0.006000000052154064,0,-0.00969999935477972,-0.013000000266153095,-0.05200000106461238,0.043999998591942806
-0.05746084079146385,0,9.988609313964844,-0.006000000052154064,0,-0.00969999935477972,0.05600000063342052,0.01700000066872456,0.043999998591942806
-0.047884032130241394,0,9.979032516479492,-0.00559999980032444,0,0.019600000232458115,0.05600000063342052,0.08700000146050021,-0.024999999806340833
-0.06703764945268631,0,9.988609313964844,-0.005200000014156103,0,0,-0.013000000266153095,0.01700000066872456,0.043999998591942806
-0.05746084079146385,0,9.979032516479492,-0.005200000014156103,0,0,-0.013000000266153095,0.01700000066872456,0.043999998591942806
-0.06703764945268631,0,9.988609313964844,-0.006199999712407589,0,0.019600000232458115,0.05600000063342052,-0.05200000106461238,-0.024999999806340833
-0.047884032130241394,0,9.998186111450195,-0.005799999926239252,0,0.009800000116229057,-0.013000000266153095,-0.12199999852133472,-0.024999999806340833
-0.05746084079146385,0,9.988609313964844,-0.005799999926239252,0,0.009800000116229057,-0.013000000266153095,-0.12199999852133472,-0.024999999806340833
-0.05746084079146385,0,9.988609313964844,0.003700000001117587,0,0,0.05600000063342052,0.08700000146050021,-0.024999999806340833
-0.05746084079146385,0,9.988609313964844,-0.006099999882280827,0,0.009800000116229057,-0.013000000266153095,0.01700000066872456,-0.024999999806340833
-0.05746084079146385,0,9.96945571899414,-0.00559999980032444,0,0,0.05600000063342052,-0.05200000106461238,-0.024999999806340833
-0.06703764945268631,0,9.979032516479492,-0.00559999980032444,0,0.009800000116229057,-0.013000000266153095,0.01700000066872456,0.043999998591942806
-0.047884032130241394,0,9.979032516479492,-0.005200000014156103,0,0,-0.013000000266153095,-0.05200000106461238,-0.024999999806340833
-0.047884032130241394,0,9.979032516479492,0.0044999998062849045,0,-0.00969999935477972,-0.08299999855663877,0.01700000066872456,-0.024999999806340833
-0.06703764945268631,0,9.998186111450195,-0.004900000058114529,0,0.009800000116229057,-0.08299999855663877,-0.05200000106461238,-0.024999999806340833
-0.05746084079146385,0,9.979032516479492,0.004799999762326479,0,0.009800000116229057,-0.013000000266153095,0.01700000066872456,-0.024999999806340833
-0.06703764945268631,0,9.979032516479492,-0.0044999998062849045,0,0.009800000116229057,-0.013000000266153095,-0.05200000106461238,-0.024999999806340833
-0.07661445438861847,0,9.979032516479492,-0.0044999998062849045,0,0,-0.013000000266153095,0.01700000066872456,-0.024999999806340833
-0.07661445438861847,0,9.96945571899414,-0.013299999758601189,0,-0.019500000402331352,-0.013000000266153095,0.01700000066872456,-0.024999999806340833
-0.07661445438861847,0,9.940725326538086,0.006199999712407589,0,-0.00969999935477972,-0.013000000266153095,0.01700000066872456,-0.024999999806340833
-0.06703764945268631,0,9.959878921508789,0.005699999630451202,0,-0.019500000402331352,-0.08299999855663877,-0.05200000106461238,-0.024999999806340833
-0.05746084079146385,0,9.96945571899414,0.014499999582767487,0,-0.019500000402331352,-0.013000000266153095,-0.05200000106461238,-0.024999999806340833
-0.07661445438861847,0,9.959878921508789,0.014499999582767487,0,-0.019500000402331352,-0.013000000266153095,-0.05200000106461238,-0.024999999806340833
-0.05746084079146385,0,9.950302124023438,0.004699999932199717,0,-0.03920000046491623,-0.08299999855663877,0.01700000066872456,0.043999998591942806
-0.06703764945268631,0,9.950302124023438,0.004399999976158142,0,-0.02929999865591526,-0.08299999855663877,0.01700000066872456,0.043999998591942806
-0.06703764945268631,0,9.931148529052734,-0.015199999324977398,0,-0.03920000046491623,-0.013000000266153095,0.01700000066872456,-0.024999999806340833
-0.06703764945268631,0,9.940725326538086,-0.004999999888241291,0,-0.02929999865591526,0.05600000063342052,0.01700000066872456,0.043999998591942806
-0.047884032130241394,0,9.940725326538086,-0.004600000102072954,0,-0.04899999871850014,0.05600000063342052,0.01700000066872456,-0.024999999806340833
-0.05746084079146385,0,9.940725326538086,0.0050999997183680534,0,-0.03920000046491623,-0.013000000266153095,0.01700000066872456,-0.024999999806340833
-0.05746084079146385,0,9.931148529052734,-0.004299999680370092,0,-0.03909999877214432,0.05600000063342052,0.01700000066872456,0.043999998591942806
-0.05746084079146385,0,9.940725326538086,0.005399999674409628,0,-0.058799996972084045,-0.08299999855663877,0.01700000066872456,-0.024999999806340833
-0.047884032130241394,0,9.921571731567383,-0.0038999998942017555,0,-0.04899999871850014,-0.013000000266153095,-0.05200000106461238,-0.024999999806340833
-0.05746084079146385,0,9.90241813659668,-0.0038999998942017555,0,-0.06859999895095825,-0.013000000266153095,0.08700000146050021,-0.024999999806340833
-0.05746084079146385,0,9.931148529052734,-0.003599999938160181,0,-0.058799996972084045,0.05600000063342052,0.01700000066872456,-0.024999999806340833
-0.06703764945268631,0,9.911994934082031,0.006099999882280827,0,-0.058799996972084045,0.05600000063342052,0.01700000066872456,-0.024999999806340833
-0.047884032130241394,0,9.921571731567383,0.014800000004470348,0,-0.06859999895095825,-0.08299999855663877,0.01700000066872456,-0.024999999806340833
-0.06703764945268631,0,9.921571731567383,-0.014499999582767487,0,-0.03920000046491623,0.05600000063342052,-0.05200000106461238,0.043999998591942806
-0.05746084079146385,0,9.911994934082031,0.006000000052154064,0,-0.04899999871850014,-0.013000000266153095,0.01700000066872456,0.043999998591942806
-0.05746084079146385,0,9.90241813659668,0.006000000052154064,0,-0.04899999871850014,-0.013000000266153095,0.01700000066872456,0.043999998591942806
-0.07661445438861847,0,9.921571731567383,0.014699999243021011,0,-0.07840000092983246,-0.08299999855663877,-0.05200000106461238,-0.024999999806340833
-0.06703764945268631,0,9.940725326538086,-0.014599999412894249,0,-0.07840000092983246,-0.013000000266153095,0.08700000146050021,0.043999998591942806
-0.06703764945268631,0,9.940725326538086,-0.013499999418854713,0,-0.06859999895095825,-0.013000000266153095,0.08700000146050021,0.043999998591942806
-0.07661445438861847,0,9.940725326538086,-0.00419999985024333,0,0,-0.013000000266153095,-0.05200000106461238,-0.024999999806340833
-0.06703764945268631,0,9.90241813659668,-0.004600000102072954,0,0.019500000402331352,-0.013000000266153095,-0.05200000106461238,-0.024999999806340833
-0.07661445438861847,0,9.931148529052734,-0.004600000102072954,0,0.019500000402331352,-0.013000000266153095,-0.05200000106461238,-0.024999999806340833
-0.047884032130241394,0,9.931148529052734,0.004699999932199717,0,0.00969999935477972,-0.013000000266153095,-0.05200000106461238,-0.024999999806340833
-0.06703764945268631,0,9.911994934082031,0.004399999976158142,0,0.019500000402331352,0.05600000063342052,0.01700000066872456,-0.024999999806340833
-0.05746084079146385,0,9.90241813659668,0.004399999976158142,0,0.03909999877214432,-0.013000000266153095,0.01700000066872456,-0.024999999806340833
-0.06703764945268631,0,9.911994934082031,-0.004900000058114529,0,0.03909999877214432,-0.013000000266153095,0.01700000066872456,-0.024999999806340833
-0.05746084079146385,0,9.921571731567383,-0.014800000004470348,0,0.019500000402331352,-0.08299999855663877,0.01700000066872456,0.043999998591942806
-0.07661445438861847,0,9.911994934082031,0.013499999418854713,0,0.02929999865591526,-0.013000000266153095,0.01700000066872456,-0.024999999806340833
-0.07661445438861847,0,9.940725326538086,-0.006000000052154064,0,0.02929999865591526,-0.013000000266153095,0.01700000066872456,-0.024999999806340833
-0.07661445438861847,0,9.940725326538086,0.003499999875202775,0,0.048899997025728226,-0.013000000266153095,0.01700000066872456,-0.024999999806340833
-0.05746084079146385,0,9.931148529052734,0.003499999875202775,0,0.058799996972084045,0.05600000063342052,0.01700000066872456,0.043999998591942806
-0.047884032130241394,0,9.931148529052734,0.0031999999191612005,0,0.048899997025728226,-0.013000000266153095,-0.05200000106461238,-0.024999999806340833
-0.06703764945268631,0,9.931148529052734,-0.016300000250339508,0,0.03909999877214432,-0.013000000266153095,0.01700000066872456,0.043999998591942806
-0.06703764945268631,0,9.940725326538086,0.003000000026077032,0,0.03909999877214432,-0.013000000266153095,0.01700000066872456,0.043999998591942806
-0.06703764945268631,0,9.940725326538086,-0.0066999997943639755,0,0.06859999895095825,-0.08299999855663877,0.01700000066872456,-0.024999999806340833
-0.07661445438861847,0,9.940725326538086,0.002699999837204814,0,0.05869999900460243,-0.08299999855663877,0.08700000146050021,0.043999998591942806
-0.06703764945268631,0,9.950302124023438,-0.01679999940097332,0,0.048899997025728226,-0.08299999855663877,-0.05200000106461238,-0.024999999806340833
-0.06703764945268631,0,9.940725326538086,-0.0064999996684491634,0,0.048899997025728226,-0.08299999855663877,0.01700000066872456,-0.024999999806340833
-0.047884032130241394,0,9.940725326538086,0.003000000026077032,0,0.048899997025728226,0.05600000063342052,0.01700000066872456,-0.024999999806340833
-0.047884032130241394,0,9.940725326538086,0.012799999676644802,0,0.058799996972084045,-0.013000000266153095,0.01700000066872456,0.043999998591942806
-0.07661445438861847,0,9.950302124023438,0.002699999837204814,0,0.048899997025728226,0.05600000063342052,-0.05200000106461238,-0.024999999806340833
-0.05746084079146385,0,9.940725326538086,-0.00699999975040555,0,0.05869999900460243,-0.013000000266153095,0.01700000066872456,0.043999998591942806
-0.05746084079146385,0,9.940725326538086,-0.0064999996684491634,0,0.03909999877214432,-0.013000000266153095,0.01700000066872456,-0.024999999806340833
-0.05746084079146385,0,9.950302124023438,-0.016300000250339508,0,0.048899997025728226,-0.013000000266153095,-0.05200000106461238,0.043999998591942806
-0.06703764945268631,0,9.931148529052734,-0.015199999324977398,0,0.02929999865591526,0.05600000063342052,0.01700000066872456,-0.024999999806340833
-0.05746084079146385,0,9.921571731567383,0.003999999724328518,0,0.019500000402331352,-0.08299999855663877,0.01700000066872456,-0.024999999806340833
-0.047884032130241394,0,9.931148529052734,-0.005699999630451202,0,0.02929999865591526,-0.013000000266153095,-0.05200000106461238,-0.024999999806340833
-0.07661445438861847,0,9.959878921508789,0.012899999506771564,0,0.02929999865591526,0.05600000063342052,0.01700000066872456,-0.024999999806340833
-0.047884032130241394,0,9.921571731567383,-0.01529999915510416,0,0.02929999865591526,0.05600000063342052,0.01700000066872456,0.043999998591942806
-0.05746084079146385,0,9.931148529052734,-0.005499999970197678,0,0.03909999877214432,-0.08299999855663877,-0.05200000106461238,-0.024999999806340833
-0.06703764945268631,0,9.921571731567383,0.0044999998062849045,0,0.02929999865591526,-0.08299999855663877,-0.05200000106461238,-0.024999999806340833
-0.06703764945268631,0,9.921571731567383,-0.0139999995008111,0,0.02929999865591526,0.05600000063342052,-0.05200000106461238,-0.024999999806340833
-0.05746084079146385,0,9.921571731567383,0.00559999980032444,0,0.03920000046491623,-0.08299999855663877,-0.05200000106461238,-0.024999999806340833
-0.06703764945268631,0,9.940725326538086,0.005200000014156103,0,0.04899999871850014,0.05600000063342052,0.01700000066872456,-0.024999999806340833
-0.06703764945268631,0,9.940725326538086,-0.004600000102072954,0,0.058799996972084045,-0.013000000266153095,0.01700000066872456,-0.024999999806340833
-0.06703764945268631,0,9.921571731567383,-0.00419999985024333,0,0.02929999865591526,0.05600000063342052,0.01700000066872456,-0.024999999806340833
-0.05746084079146385,0,9.921571731567383,-0.00419999985024333,0,0.04899999871850014,-0.013000000266153095,0.01700000066872456,0.043999998591942806
-0.05746084079146385,0,9.921571731567383,-0.00419999985024333,0,0.04899999871850014,0.05600000063342052,0.01700000066872456,-0.024999999806340833
-0.06703764945268631,0,9.921571731567383,0.0050999997183680534,0,0.03909999877214432,0.05600000063342052,0.01700000066872456,-0.024999999806340833
-0.07661445438861847,0,9.931148529052734,-0.004299999680370092,0,0.03920000046491623,-0.013000000266153095,-0.05200000106461238,-0.024999999806340833
-0.05746084079146385,0,9.911994934082031,-0.014099999330937862,0,0.02929999865591526,-0.013000000266153095,0.01700000066872456,0.043999998591942806
-0.05746084079146385,0,9.921571731567383,0.004999999888241291,0,0.02929999865591526,-0.08299999855663877,-0.05200000106461238,-0.024999999806340833
-0.07661445438861847,0,9.931148529052734,-0.004699999932199717,0,0.03909999877214432,0.05600000063342052,-0.05200000106461238,-0.024999999806340833
-0.05746084079146385,0,9.931148529052734,0.004600000102072954,0,0.02929999865591526,-0.013000000266153095,-0.05200000106461238,-0.024999999806340833
-0.05746084079146385,0,9.921571731567383,-0.004900000058114529,0,0,0.05600000063342052,-0.05200000106461238,-0.024999999806340833
-0.07661445438861847,0,9.950302124023438,-0.004600000102072954,0,0,-0.013000000266153095,0.01700000066872456,-0.024999999806340833
-0.05746084079146385,0,9.921571731567383,-0.004600000102072954,0,0,-0.013000000266153095,0.01700000066872456,-0.024999999806340833
-0.05746084079146385,0,9.883264541625977,0.004799999762326479,0,0,-0.013000000266153095,0.01700000066872456,-0.024999999806340833
-0.05746084079146385,0,9.90241813659668,0.004399999976158142,0,0,-0.013000000266153095,0.01700000066872456,-0.024999999806340833
-0.06703764945268631,0,9.931148529052734,0.004399999976158142,0,0,-0.013000000266153095,0.01700000066872456,-0.024999999806340833
-0.05746084079146385,0,9.931148529052734,-0.015099999494850636,0,0.019500000402331352,-0.013000000266153095,-0.05200000106461238,-0.024999999806340833
-0.047884032130241394,0,9.90241813659668,0.004799999762326479,0,0.00969999935477972,0.05600000063342052,-0.05200000106461238,0.043999998591942806
-0.05746084079146385,0,9.931148529052734,0.0044999998062849045,0,-0.009800000116229057,-0.013000000266153095,0.01700000066872456,-0.024999999806340833
-0.05746084079146385,0,9.931148529052734,-0.014999999664723873,0,-0.009800000116229057,0.05600000063342052,0.08700000146050021,0.043999998591942806
-0.06703764945268631,0,9.90241813659668,-0.004900000058114529,0,-0.029399998486042023,0.05600000063342052,-0.05200000106461238,-0.024999999806340833
-0.05746084079146385,0,9.911994934082031,-0.0044999998062849045,0,0,-0.08299999855663877,0.01700000066872456,0.043999998591942806
-0.07661445438861847,0,9.883264541625977,-0.0044999998062849045,0,-0.03920000046491623,-0.013000000266153095,0.08700000146050021,0.043999998591942806
-0.05746084079146385,0,9.90241813659668,-0.00419999985024333,0,0.00969999935477972,-0.08299999855663877,-0.05200000106461238,0.043999998591942806
-0.06703764945268631,0,9.90241813659668,-0.00419999985024333,0,0.019500000402331352,0.05600000063342052,0.01700000066872456,-0.024999999806340833
-0.05746084079146385,0,9.883264541625977,-0.0038999998942017555,0,0,-0.08299999855663877,-0.05200000106461238,-0.024999999806340833
-0.07661445438861847,0,9.883264541625977,-0.013700000010430813,0,0.03920000046491623,0.05600000063342052,0.01700000066872456,-0.024999999806340833
-0.06703764945268631,0,9.883264541625977,-0.021900000050663948,0,0,-0.013000000266153095,0.01700000066872456,0.043999998591942806
-0.06703764945268631,0,9.90241813659668,-0.002300000051036477,0,0.019500000402331352,-0.013000000266153095,0.01700000066872456,-0.024999999806340833
-0.05746084079146385,0,9.883264541625977,-0.002099999925121665,0,-0.009800000116229057,-0.013000000266153095,0.08700000146050021,-0.024999999806340833
-0.06703764945268631,0,9.873687744140625,0.007599999662488699,0,0,-0.08299999855663877,-0.05200000106461238,-0.024999999806340833
-0.06703764945268631,0,9.883264541625977,-0.001999999862164259,0,-0.029399998486042023,0.05600000063342052,-0.05200000106461238,-0.024999999806340833
-0.06703764945268631,0,9.90241813659668,-0.011799999512732029,0,-0.019600000232458115,-0.08299999855663877,0.01700000066872456,0.043999998591942806
-0.07661445438861847,0,9.90241813659668,-0.010900000110268593,0,-0.03920000046491623,-0.013000000266153095,0.01700000066872456,0.043999998591942806
-0.06703764945268631,0,9.90241813659668,0.008599999360740185,0,-0.019600000232458115,-0.013000000266153095,-0.05200000106461238,-0.024999999806340833
-0.05746084079146385,0,9.883264541625977,-0.0009999999310821295,0,-0.058799996972084045,0.05600000063342052,0.01700000066872456,-0.024999999806340833
-0.06703764945268631,0,9.873687744140625,0.008100000210106373,0,-0.03920000046491623,-0.013000000266153095,0.01700000066872456,-0.024999999806340833
-0.06703764945268631,0,9.873687744140625,-0.0015999999595806003,0,-0.04899999871850014,0.05600000063342052,0.01700000066872456,0.043999998591942806
-0.06703764945268631,0,9.883264541625977,-0.001500000013038516,0,-0.029399998486042023,-0.08299999855663877,-0.05200000106461238,0.043999998591942806
-0.05746084079146385,0,9.883264541625977,-0.001500000013038516,0,-0.03920000046491623,-0.013000000266153095,-0.05200000106461238,-0.024999999806340833
-0.05746084079146385,0,9.911994934082031,0.007699999958276749,0,-0.029399998486042023,-0.013000000266153095,0.01700000066872456,-0.024999999806340833
-0.05746084079146385,0,9.883264541625977,0.017500000074505806,0,-0.03920000046491623,0.05600000063342052,0.01700000066872456,-0.024999999806340833
-0.06703764945268631,0,9.873687744140625,-0.0018999999156221747,0,-0.058799996972084045,-0.013000000266153095,0.01700000066872456,0.043999998591942806
-0.047884032130241394,0,9.864110946655273,-0.0018999999156221747,0,-0.03920000046491623,-0.013000000266153095,0.01700000066872456,-0.024999999806340833
-0.05746084079146385,0,9.892841339111328,-0.0018999999156221747,0,-0.03920000046491623,-0.013000000266153095,0.01700000066872456,-0.024999999806340833
-0.06703764945268631,0,9.892841339111328,-0.011500000022351742,0,-0.03920000046491623,-0.013000000266153095,0.01700000066872456,-0.024999999806340833
-0.06703764945268631,0,9.864110946655273,-0.0015999999595806003,0,-0.04899999871850014,0.05600000063342052,0.01700000066872456,0.043999998591942806
-0.05746084079146385,0,9.883264541625977,-0.021199999377131462,0,-0.029399998486042023,-0.013000000266153095,0.01700000066872456,-0.024999999806340833
-0.07661445438861847,0,9.883264541625977,0.007599999662488699,0,-0.058799996972084045,-0.013000000266153095,0.01700000066872456,0.043999998591942806
-0.06703764945268631,0,9.90241813659668,0.007599999662488699,0,-0.029399998486042023,-0.013000000266153095,0.01700000066872456,0.043999998591942806
-0.06703764945268631,0,9.90241813659668,-0.0018999999156221747,0,-0.08819999545812607,0.05600000063342052,0.01700000066872456,-0.024999999806340833
-0.07661445438861847,0,9.911994934082031,0.007799999788403511,0,-0.04899999871850014,-0.08299999855663877,0.01700000066872456,0.043999998591942806
-0.05746084079146385,0,9.883264541625977,-0.010900000110268593,0,0.019600000232458115,0.05600000063342052,0.01700000066872456,-0.024999999806340833
-0.05746084079146385,0,9.911994934082031,-0.0010999999940395355,0,-0.058799996972084045,-0.013000000266153095,-0.05200000106461238,0.043999998591942806
-0.038307227194309235,0,9.873687744140625,-0.0010999999940395355,0,0,-0.013000000266153095,-0.05200000106461238,-0.024999999806340833
-0.06703764945268631,0,9.921571731567383,-0.0009999999310821295,0,-0.019600000232458115,0.06700000028140622,0.01700000066872456,-0.024999999806340833
-0.06703764945268631,0,9.873687744140625,0.008700000122189522,0,0,0.13700000107318186,0.01700000066872456,-0.024999999806340833
-0.05746084079146385,0,9.90241813659668,0.008100000210106373,0,-0.00969999935477972,-0.0019999999928448997,0.01700000066872456,0.043999998591942806
-0.07661445438861847,0,9.90241813659668,-0.0015999999595806003,0,-0.00969999935477972,0.06700000028140622,0.01700000066872456,0.043999998591942806
-0.05746084079146385,0,9.90241813659668,-0.0015999999595806003,0,-0.00969999935477972,-0.0019999999928448997,0.01700000066872456,-0.024999999806340833
-0.06703764945268631,0,9.883264541625977,-0.011299999430775642,0,-0.019500000402331352,-0.0019999999928448997,0.01700000066872456,-0.024999999806340833
-0.07661445438861847,0,9.911994934082031,-0.00139999995008111,0,-0.00969999935477972,-0.0019999999928448997,0.01700000066872456,-0.024999999806340833
-0.047884032130241394,0,9.892841339111328,0.008299999870359898,0,-0.00969999935477972,-0.07199999890865307,0.01700000066872456,-0.024999999806340833
-0.05746084079146385,0,9.90241813659668,-0.010400000028312206,0,-0.019500000402331352,-0.0019999999928448997,0.01700000066872456,-0.024999999806340833
-0.05746084079146385,0,9.911994934082031,-0.0005999999702908099,0,0,-0.0019999999928448997,0.01700000066872456,-0.024999999806340833
-0.047884032130241394,0,9.90241813659668,-0.0004999999655410647,0,-0.00969999935477972,-0.0019999999928448997,0.01700000066872456,0.043999998591942806
-0.06703764945268631,0,9.883264541625977,-0.0005999999702908099,0,-0.019500000402331352,-0.07199999890865307,-0.05200000106461238,-0.024999999806340833
-0.07661445438861847,0,9.90241813659668,-0.0004999999655410647,0,-0.02929999865591526,0.06700000028140622,0.01700000066872456,-0.024999999806340833
-0.05746084079146385,0,9.90241813659668,-0.010300000198185444,0,-0.00969999935477972,-0.0019999999928448997,0.01700000066872456,0.043999998591942806
-0.07661445438861847,0,9.90241813659668,-0.009599999524652958,0,0,-0.0019999999928448997,-0.05200000106461238,-0.024999999806340833
-0.047884032130241394,0,9.90241813659668,0.00009999999747378752,0,-0.00969999935477972,-0.07199999890865307,0.01700000066872456,-0.024999999806340833
-0.047884032130241394,0,9.90241813659668,0.009200000204145908,0,0.009800000116229057,-0.0019999999928448997,-0.05200000106461238,0.043999998591942806
-0.05746084079146385,0,9.90241813659668,-0.0004999999655410647,0,0,0.06700000028140622,0.01700000066872456,-0.024999999806340833
-0.05746084079146385,0,9.90241813659668,0.008599999360740185,0,-0.019500000402331352,-0.0019999999928448997,-0.05200000106461238,-0.024999999806340833
-0.05746084079146385,0,9.90241813659668,-0.0010999999940395355,0,-0.019500000402331352,0.06700000028140622,0.01700000066872456,-0.024999999806340833
-0.05746084079146385,0,9.911994934082031,0.017099998891353607,0,0,-0.0019999999928448997,0.01700000066872456,0.043999998591942806
-0.05746084079146385,0,9.921571731567383,0.0072999997064471245,0,-0.019500000402331352,0.13700000107318186,0.01700000066872456,0.043999998591942806
-0.05746084079146385,0,9.921571731567383,-0.011299999430775642,0,0.009800000116229057,-0.0019999999928448997,0.01700000066872456,-0.024999999806340833
-0.038307227194309235,0,9.911994934082031,-0.001500000013038516,0,0.009800000116229057,-0.0019999999928448997,-0.05200000106461238,0.043999998591942806
-0.05746084079146385,0,9.940725326538086,0.007599999662488699,0,0.009800000116229057,-0.0019999999928448997,0.01700000066872456,0.043999998591942806
-0.08619125932455063,0,9.940725326538086,-0.011899999342858791,0,0.019600000232458115,-0.0019999999928448997,-0.05200000106461238,-0.024999999806340833
-0.05746084079146385,0,9.940725326538086,-0.001999999862164259,0,0.029399998486042023,-0.0019999999928448997,-0.05200000106461238,-0.024999999806340833
-0.05746084079146385,0,9.940725326538086,0.007699999958276749,0,0.03920000046491623,-0.07199999890865307,-0.05200000106461238,-0.024999999806340833
-0.06703764945268631,0,9.931148529052734,-0.0017999999690800905,0,0.019600000232458115,0.13700000107318186,0.01700000066872456,0.043999998591942806
-0.05746084079146385,0,9.950302124023438,0.007899999618530273,0,0.019600000232458115,0.06700000028140622,-0.05200000106461238,-0.024999999806340833
-0.06703764945268631,0,9.940725326538086,-0.0010999999940395355,0,0.04899999871850014,0.06700000028140622,0.01700000066872456,0.043999998591942806
-0.06703764945268631,0,9.950302124023438,-0.0010999999940395355,0,0.04899999871850014,0.06700000028140622,-0.05200000106461238,-0.024999999806340833
-0.047884032130241394,0,9.959878921508789,-0.002300000051036477,0,0.03920000046491623,-0.0019999999928448997,0.01700000066872456,0.043999998591942806
-0.05746084079146385,0,9.950302124023438,0.01599999889731407,0,0.04899999871850014,-0.07199999890865307,0.01700000066872456,-0.024999999806340833
-0.06703764945268631,0,9.96945571899414,0.006199999712407589,0,0.04899999871850014,0.06700000028140622,0.01700000066872456,-0.024999999806340833
-0.06703764945268631,0,9.950302124023438,-0.01249999925494194,0,0.058799996972084045,-0.0019999999928448997,0.01700000066872456,-0.024999999806340833
-0.06703764945268631,0,9.979032516479492,0.0071000000461936,0,0.06859999895095825,-0.0019999999928448997,0.01700000066872456,-0.024999999806340833
-0.06703764945268631,0,9.959878921508789,-0.0024999999441206455,0,0.06859999895095825,-0.0019999999928448997,0.01700000066872456,-0.024999999806340833
-0.08619125932455063,0,9.96945571899414,0.007199999876320362,0,0.06859999895095825,0.06700000028140622,0.01700000066872456,0.043999998591942806
-0.05746084079146385,0,9.979032516479492,0.0066999997943639755,0,0.07840000092983246,0.06700000028140622,-0.05200000106461238,0.043999998591942806
-0.06703764945268631,0,9.988609313964844,-0.003000000026077032,0,0.07840000092983246,-0.0019999999928448997,-0.05200000106461238,0.043999998591942806
-0.05746084079146385,0,9.96945571899414,-0.00279999990016222,0,0.08819999545812607,-0.0019999999928448997,0.01700000066872456,0.043999998591942806
-0.06703764945268631,0,9.998186111450195,0.006899999920278788,0,0.07840000092983246,-0.0019999999928448997,-0.05200000106461238,0.043999998591942806
-0.06703764945268631,0,9.998186111450195,-0.002699999837204814,0,0.08819999545812607,-0.0019999999928448997,0.01700000066872456,0.043999998591942806
-0.06703764945268631,0,9.998186111450195,-0.022299999371170998,0,0.08819999545812607,-0.07199999890865307,0.01700000066872456,0.043999998591942806
-0.05746084079146385,0,10.007762908935547,-0.020800000056624413,0,0.08829999715089798,-0.0019999999928448997,-0.05200000106461238,-0.024999999806340833
-0.05746084079146385,0,10.017339706420898,-0.010999999940395355,0,0.1078999936580658,-0.07199999890865307,-0.05200000106461238,-0.024999999806340833
-0.06703764945268631,0,9.998186111450195,-0.0010999999940395355,0,0.08829999715089798,-0.0019999999928448997,0.01700000066872456,0.043999998591942806
-0.047884032130241394,0,10.017339706420898,-0.020800000056624413,0,0.09809999912977219,-0.0019999999928448997,0.01700000066872456,0.043999998591942806
-0.06703764945268631,0,10.007762908935547,-0.0004999999655410647,0,0,-0.0019999999928448997,0.01700000066872456,0.043999998591942806
-0.06703764945268631,0,10.017339706420898,-0.009599999524652958,0,-0.019600000232458115,-0.07199999890865307,-0.12199999852133472,0.043999998591942806
-0.06703764945268631,0,10.007762908935547,0.009999999776482582,0,0,-0.0019999999928448997,0.08700000146050021,-0.024999999806340833
-0.047884032130241394,0,10.007762908935547,0.009999999776482582,0,0,-0.07199999890865307,-0.05200000106461238,0.043999998591942806
-0.05746084079146385,0,10.02691650390625,0.00009999999747378752,0,0,-0.07199999890865307,-0.05200000106461238,0.043999998591942806
-0.06703764945268631,0,10.017339706420898,0.01979999989271164,0,0,-0.07199999890865307,-0.05200000106461238,-0.024999999806340833
-0.047884032130241394,0,10.017339706420898,0.00930000003427267,0,0.009800000116229057,-0.07199999890865307,0.01700000066872456,-0.024999999806340833
-0.047884032130241394,0,10.017339706420898,0.01769999973475933,0,-0.009800000116229057,-0.0019999999928448997,0.08700000146050021,-0.024999999806340833
-0.05746084079146385,0,10.017339706420898,-0.0017999999690800905,0,0,-0.0019999999928448997,-0.05200000106461238,-0.024999999806340833
-0.08619125932455063,0,9.998186111450195,-0.0015999999595806003,0,0,0.06700000028140622,0.01700000066872456,0.043999998591942806
-0.07661445438861847,0,10.017339706420898,-0.0015999999595806003,0,0,-0.1419999930303221,-0.05200000106461238,0.043999998591942806
-0.06703764945268631,0,9.998186111450195,0.007499999832361937,0,0,-0.0019999999928448997,-0.05200000106461238,-0.024999999806340833
-0.047884032130241394,0,10.017339706420898,-0.002199999988079071,0,-0.009800000116229057,-0.0019999999928448997,0.01700000066872456,-0.024999999806340833
-0.047884032130241394,0,10.017339706420898,-0.001999999862164259,0,-0.009800000116229057,-0.0019999999928448997,-0.05200000106461238,-0.024999999806340833
-0.05746084079146385,0,10.017339706420898,0.007699999958276749,0,-0.029399998486042023,-0.07199999890865307,0.01700000066872456,-0.024999999806340833
-0.05746084079146385,0,10.017339706420898,-0.0018999999156221747,0,0,-0.0019999999928448997,-0.05200000106461238,-0.024999999806340833
-0.05746084079146385,0,10.017339706420898,0.007799999788403511,0,0,0.06700000028140622,0.01700000066872456,0.043999998591942806
-0.06703764945268631,0,10.007762908935547,-0.010900000110268593,0,-0.009800000116229057,-0.0019999999928448997,0.01700000066872456,-0.024999999806340833
-0.06703764945268631,0,10.017339706420898,0.018400000408291817,0,0,0.06700000028140622,0.01700000066872456,0.043999998591942806
-0.07661445438861847,0,10.046070098876953,-0.0009999999310821295,0,0,-0.0019999999928448997,0.01700000066872456,0.043999998591942806
-0.05746084079146385,0,10.02691650390625,0.008700000122189522,0,0,-0.0019999999928448997,0.01700000066872456,0.043999998591942806
-0.05746084079146385,0,10.007762908935547,-0.010099999606609344,0,0.009800000116229057,0.06700000028140622,0.01700000066872456,-0.024999999806340833
-0.08619125932455063,0,10.017339706420898,-0.00029999998514540493,0,0,-0.0019999999928448997,0.01700000066872456,0.043999998591942806
-0.06703764945268631,0,10.017339706420898,-0.00019999999494757503,0,0,-0.0019999999928448997,0.01700000066872456,0.043999998591942806
-0.06703764945268631,0,10.007762908935547,0.029099998995661736,0,0,0.06700000028140622,-0.05200000106461238,-0.024999999806340833
-0.07661445438861847,0,10.007762908935547,0.017899999395012856,0,0.00969999935477972,-0.0019999999928448997,0.01700000066872456,0.043999998591942806
-0.06703764945268631,0,9.998186111450195,-0.010599999688565731,0,-0.029399998486042023,-0.0019999999928448997,0.01700000066872456,0.043999998591942806
-0.07661445438861847,0,10.007762908935547,0.008899999782443047,0,-0.009800000116229057,-0.07199999890865307,-0.05200000106461238,0.043999998591942806
-0.05746084079146385,0,10.017339706420898,0.008899999782443047,0,-0.009800000116229057,-0.07199999890865307,-0.05200000106461238,0.043999998591942806
-0.05746084079146385,0,10.02691650390625,0.017400000244379044,0,-0.009800000116229057,0.06700000028140622,0.01700000066872456,-0.024999999806340833
-0.07661445438861847,0,10.017339706420898,-0.002099999925121665,0,0,-0.0019999999928448997,0.01700000066872456,-0.024999999806340833
-0.06703764945268631,0,10.007762908935547,-0.010999999940395355,0,-0.009800000116229057,0.06700000028140622,0.01700000066872456,-0.024999999806340833
-0.05746084079146385,0,10.02691650390625,0.007899999618530273,0,0.00969999935477972,-0.0019999999928448997,-0.05200000106461238,0.043999998591942806
-0.047884032130241394,0,10.017339706420898,0.007899999618530273,0,0.00969999935477972,0.06700000028140622,0.08700000146050021,-0.024999999806340833
-0.06703764945268631,0,10.02691650390625,0.0072999997064471245,0,0,-0.0019999999928448997,0.01700000066872456,-0.024999999806340833
-0.05746084079146385,0,10.017339706420898,0.0072999997064471245,0,0,0.06700000028140622,0.01700000066872456,0.043999998591942806
-0.05746084079146385,0,10.02691650390625,0.0072999997064471245,0,0,-0.07199999890865307,-0.05200000106461238,-0.024999999806340833
-0.06703764945268631,0,10.017339706420898,-0.002899999963119626,0,-0.009800000116229057,-0.0019999999928448997,0.01700000066872456,-0.024999999806340833
-0.06703764945268631,0,10.007762908935547,0.006399999838322401,0,0,-0.0019999999928448997,0.08700000146050021,0.043999998591942806
-0.06703764945268631,0,10.007762908935547,-0.0032999999821186066,0,-0.019600000232458115,-0.07199999890865307,0.01700000066872456,-0.024999999806340833
-0.05746084079146385,0,10.017339706420898,-0.012199999764561653,0,0,-0.0019999999928448997,0.01700000066872456,-0.024999999806340833
-0.07661445438861847,0,10.017339706420898,-0.012199999764561653,0,-0.009800000116229057,0.06700000028140622,0.01700000066872456,-0.024999999806340833
-0.06703764945268631,0,10.017339706420898,-0.011399999260902405,0,-0.009800000116229057,-0.0019999999928448997,0.01700000066872456,-0.024999999806340833
-0.05746084079146385,0,10.02691650390625,0.008100000210106373,0,0,-0.0019999999928448997,0.01700000066872456,-0.024999999806340833
-0.05746084079146385,0,10.02691650390625,-0.001500000013038516,0,0,-0.0019999999928448997,-0.05200000106461238,-0.024999999806340833
-0.06703764945268631,0,9.998186111450195,-0.00139999995008111,0,-0.009800000116229057,0.06700000028140622,0.01700000066872456,-0.024999999806340833
-0.06703764945268631,0,10.017339706420898,-0.00139999995008111,0,-0.009800000116229057,-0.0019999999928448997,-0.05200000106461238,0.043999998591942806
-0.06703764945268631,0,10.02691650390625,-0.0013000000035390258,0,0,-0.0019999999928448997,-0.05200000106461238,-0.024999999806340833
-0.05746084079146385,0,10.007762908935547,-0.0011999999405816197,0,0,-0.07199999890865307,0.01700000066872456,0.043999998591942806
-0.06703764945268631,0,10.017339706420898,0.007899999618530273,0,0.00969999935477972,-0.0019999999928448997,-0.05200000106461238,-0.024999999806340833
-0.06703764945268631,0,10.017339706420898,-0.0017999999690800905,0,-0.009800000116229057,-0.0019999999928448997,0.01700000066872456,0.043999998591942806
-0.06703764945268631,0,10.017339706420898,-0.010799999348819256,0,-0.009800000116229057,-0.0019999999928448997,-0.05200000106461238,-0.024999999806340833
-0.07661445438861847,0,10.055646896362305,-0.019199999049305916,0,-0.009800000116229057,-0.07199999890865307,-0.05200000106461238,-0.024999999806340833
