Accelerometer_Gx,Accelerometer_Gy,Accelerometer_Gz,Accelerometer_X,Accelerometer_Y,Accelerometer_Z,Gyroscope_Z,Gyroscope_X,Gyroscope_Y
-0.09576806426048279,0,9.959878921508789,-0.00019999999494757503,0,-0.00989999994635582,0.035000000395887826,0.06299999737754478,-0.67699997287776
-0.07661445438861847,0,9.959878921508789,-0.00019999999494757503,0,0.02929999865591526,0.035000000395887826,0.06299999737754478,-0.67699997287776
-0.06703764945268631,0,9.940725326538086,0.01640000008046627,0,0.009599999524652958,0.035000000395887826,0.06299999737754478,-0.67699997287776
-0.07661445438861847,0,9.940725326538086,0.005699999630451202,0,0.01939999870955944,0.035000000395887826,0.06299999737754478,-0.67699997287776
-0.08619125932455063,0,9.950302124023438,-0.013799999840557575,0,0.01939999870955944,0.035000000395887826,0.06299999737754478,-0.67699997287776
-0.07661445438861847,0,9.940725326538086,0.004999999888241291,0,-0.00009999999747378752,0.035000000395887826,0.06299999737754478,-0.67699997287776
-0.09576806426048279,0,9.950302124023438,-0.014499999582767487,0,0.009599999524652958,0.035000000395887826,0.06299999737754478,-0.67699997287776
-0.07661445438861847,0,9.940725326538086,0.013100000098347664,0,0.01939999870955944,0.035000000395887826,0.06299999737754478,-0.67699997287776
-0.06703764945268631,0,9.959878921508789,0.013100000098347664,0,0.01939999870955944,0.035000000395887826,0.06299999737754478,-0.67699997287776
-0.07661445438861847,0,9.940725326538086,0.011699999682605267,0,0.009599999524652958,0.035000000395887826,0.06299999737754478,-0.67699997287776
-0.06703764945268631,0,9.931148529052734,-0.007799999788403511,0,0.009599999524652958,0.035000000395887826,0.06299999737754478,-0.67699997287776
-0.10534487664699554,0,9.950302124023438,-0.01589999906718731,0,0.029199998825788498,0.035000000395887826,0.06299999737754478,-0.67699997287776
-0.07661445438861847,0,9.950302124023438,0.003700000001117587,0,0.01939999870955944,0.035000000395887826,0.06299999737754478,-0.67699997287776
-0.08619125932455063,0,9.959878921508789,-0.004600000102072954,0,0.02929999865591526,0.035000000395887826,0.20299999896109608,0.021999999295971403
-0.08619125932455063,0,9.940725326538086,0.013599999248981476,0,0.009599999524652958,-0.10400000212922476,-0.2159999967259592,0.021999999295971403
-0.07661445438861847,0,9.950302124023438,-0.0058999997563660145,0,0.029199998825788498,-0.10400000212922476,-0.07600000181251451,0.021999999295971403
-0.07661445438861847,0,9.950302124023438,-0.0058999997563660145,0,0.029199998825788498,-0.10400000212922476,-0.07600000181251451,0.021999999295971403
-0.07661445438861847,0,9.96945571899414,0.004299999680370092,0,0.03909999877214432,0.035000000395887826,0.06299999737754478,-0.11699999322398127
-0.07661445438861847,0,9.950302124023438,0.004299999680370092,0,0.03909999877214432,0.035000000395887826,0.06299999737754478,-0.11699999322398127
-0.08619125932455063,0,9.959878921508789,0.0038999998942017555,0,0.01939999870955944,0.035000000395887826,0.20299999896109608,-0.046999999102312236
-0.07661445438861847,0,9.959878921508789,0.003599999938160181,0,0.029199998825788498,-0.03400000133744912,0.13300000483942703,0.021999999295971403
-0.08619125932455063,0,9.96945571899414,0.003599999938160181,0,0.039000000804662704,-0.03400000133744912,-0.07600000181251451,-0.046999999102312236
-0.06703764945268631,0,9.979032516479492,0.012299999594688416,0,0.04879999905824661,-0.10400000212922476,-0.006000000186975531,0.021999999295971403
-0.07661445438861847,0,9.979032516479492,0.0024999999441206455,0,0.04879999905824661,0.035000000395887826,-0.2159999967259592,-0.046999999102312236
-0.07661445438861847,0,9.988609313964844,-0.0066999997943639755,0,0.05869999900460243,-0.17400000292100043,0.13300000483942703,0.021999999295971403
-0.06703764945268631,0,10.007762908935547,0.012799999676644802,0,0.08810000121593475,-0.17400000292100043,0.13300000483942703,0.021999999295971403
-0.09576806426048279,0,9.979032516479492,-0.01529999915510416,0,0.05869999900460243,-0.10400000212922476,-0.006000000186975531,0.021999999295971403
-0.07661445438861847,0,9.988609313964844,-0.005499999970197678,0,0.05869999900460243,0.035000000395887826,0.06299999737754478,-0.046999999102312236
-0.07661445438861847,0,9.988609313964844,0.012899999506771564,0,0.05869999900460243,-0.03400000133744912,-0.006000000186975531,0.021999999295971403
-0.08619125932455063,0,9.998186111450195,-0.006599999964237213,0,0.06849999725818634,-0.10400000212922476,0.06299999737754478,-0.046999999102312236
-0.07661445438861847,0,9.988609313964844,0.011899999342858791,0,0.04879999905824661,-0.03400000133744912,-0.006000000186975531,-0.046999999102312236
-0.07661445438861847,0,9.988609313964844,0.002099999925121665,0,0.05859999731183052,0.035000000395887826,0.06299999737754478,0.021999999295971403
-0.07661445438861847,0,10.007762908935547,0.010999999940395355,0,0.06849999725818634,0.035000000395887826,-0.07600000181251451,0.021999999295971403
-0.07661445438861847,0,10.007762908935547,0.0011999999405816197,0,0.05859999731183052,0.035000000395887826,0.06299999737754478,0.021999999295971403
-0.09576806426048279,0,9.988609313964844,-0.007899999618530273,0,0.05859999731183052,0.10499999785261017,0.06299999737754478,0.021999999295971403
-0.08619125932455063,0,9.988609313964844,-0.007899999618530273,0,0.05859999731183052,-0.03400000133744912,-0.006000000186975531,0.021999999295971403
-0.07661445438861847,0,9.979032516479492,-0.0072999997064471245,0,0.04879999905824661,-0.03400000133744912,-0.006000000186975531,0.021999999295971403
-0.07661445438861847,0,9.96945571899414,0.0023999998811632395,0,0.05869999900460243,0.035000000395887826,0.06299999737754478,0.021999999295971403
-0.07661445438861847,0,9.979032516479492,0.020399998873472214,0,0.04879999905824661,-0.03400000133744912,-0.006000000186975531,-0.046999999102312236
-0.08619125932455063,0,9.96945571899414,-0.018799999728798866,0,0.05859999731183052,0.035000000395887826,0.06299999737754478,0.021999999295971403
-0.08619125932455063,0,9.979032516479492,0.009800000116229057,0,0.04879999905824661,-0.03400000133744912,-0.006000000186975531,0.021999999295971403
-0.07661445438861847,0,9.959878921508789,0,0,0.01939999870955944,-0.03400000133744912,-0.006000000186975531,-0.046999999102312236
-0.08619125932455063,0,9.950302124023438,0,0,0.01939999870955944,-0.03400000133744912,-0.006000000186975531,0.021999999295971403
-0.07661445438861847,0,9.96945571899414,0,0,0.01939999870955944,-0.03400000133744912,-0.006000000186975531,0.021999999295971403
-0.07661445438861847,0,9.959878921508789,-0.008899999782443047,0,0,0.10499999785261017,0.06299999737754478,0.021999999295971403
-0.08619125932455063,0,9.950302124023438,-0.008200000040233135,0,-0.009800000116229057,0.035000000395887826,-0.07600000181251451,-0.046999999102312236
-0.08619125932455063,0,9.96945571899414,0.001500000013038516,0,0.00969999935477972,-0.03400000133744912,0.13300000483942703,0.021999999295971403
-0.08619125932455063,0,9.950302124023438,-0.007599999662488699,0,-0.009800000116229057,-0.03400000133744912,-0.006000000186975531,0.021999999295971403
-0.06703764945268631,0,9.950302124023438,0.011899999342858791,0,0,0.035000000395887826,0.06299999737754478,0.021999999295971403
-0.07661445438861847,0,9.979032516479492,0.0018999999156221747,0,0.019500000402331352,-0.03400000133744912,-0.07600000181251451,-0.046999999102312236
-0.09576806426048279,0,9.96945571899414,-0.01759999990463257,0,0,0.10499999785261017,-0.006000000186975531,0.021999999295971403
-0.06703764945268631,0,9.950302124023438,0.010900000110268593,0,0.00969999935477972,-0.03400000133744912,-0.006000000186975531,0.021999999295971403
-0.07661445438861847,0,9.96945571899414,0.0010999999940395355,0,0.019500000402331352,-0.03400000133744912,-0.006000000186975531,0.021999999295971403
-0.06703764945268631,0,9.96945571899414,0.0009999999310821295,0,0.00969999935477972,0.035000000395887826,-0.006000000186975531,-0.046999999102312236
-0.08619125932455063,0,9.979032516479492,-0.008700000122189522,0,0,-0.03400000133744912,0.13300000483942703,-0.046999999102312236
-0.06703764945268631,0,9.96945571899414,0.009999999776482582,0,0.00969999935477972,0.10499999785261017,0.13300000483942703,0.021999999295971403
-0.07661445438861847,0,9.96945571899414,0.010099999606609344,0,0,0.035000000395887826,0.06299999737754478,0.021999999295971403
-0.07661445438861847,0,9.979032516479492,0.00019999999494757503,0,0.019500000402331352,0.035000000395887826,-0.006000000186975531,-0.046999999102312236
-0.07661445438861847,0,9.979032516479492,0.009999999776482582,0,0.019500000402331352,-0.03400000133744912,-0.006000000186975531,-0.046999999102312236
-0.07661445438861847,0,9.988609313964844,0.00930000003427267,0,0.019500000402331352,-0.03400000133744912,0.06299999737754478,0.021999999295971403
-0.08619125932455063,0,9.988609313964844,-0.010199999436736107,0,0.02929999865591526,0.035000000395887826,-0.07600000181251451,0.021999999295971403
-0.08619125932455063,0,9.979032516479492,-0.009499999694526196,0,0.019500000402331352,-0.03400000133744912,0.13300000483942703,0.021999999295971403
-0.08619125932455063,0,9.998186111450195,-0.009499999694526196,0,0.02929999865591526,0.035000000395887826,-0.006000000186975531,0.021999999295971403
-0.07661445438861847,0,9.988609313964844,0.00019999999494757503,0,0.02929999865591526,-0.03400000133744912,-0.006000000186975531,0.021999999295971403
-0.08619125932455063,0,9.979032516479492,-0.009499999694526196,0,0.03909999877214432,0.10499999785261017,-0.006000000186975531,-0.046999999102312236
-0.06703764945268631,0,9.998186111450195,0.00930000003427267,0,0.02929999865591526,0.035000000395887826,-0.006000000186975531,0.021999999295971403
-0.08619125932455063,0,9.988609313964844,-0.00039999998989515007,0,0.03909999877214432,-0.03400000133744912,-0.006000000186975531,0.021999999295971403
-0.07661445438861847,0,9.998186111450195,-0.009499999694526196,0,0.02929999865591526,0.035000000395887826,-0.07600000181251451,0.021999999295971403
-0.07661445438861847,0,9.998186111450195,0.00930000003427267,0,0.03909999877214432,-0.03400000133744912,-0.006000000186975531,0.021999999295971403
-0.07661445438861847,0,9.998186111450195,-0.00039999998989515007,0,0.02929999865591526,0.035000000395887826,0.06299999737754478,0.021999999295971403
-0.07661445438861847,0,10.007762908935547,-0.00039999998989515007,0,0.048899997025728226,-0.03400000133744912,-0.006000000186975531,0.021999999295971403
-0.06703764945268631,0,9.998186111450195,-0.00039999998989515007,0,0.03909999877214432,0.035000000395887826,-0.006000000186975531,0.021999999295971403
-0.07661445438861847,0,9.988609313964844,-0.00039999998989515007,0,0.05869999900460243,-0.03400000133744912,-0.006000000186975531,0.021999999295971403
-0.07661445438861847,0,9.998186111450195,-0.010199999436736107,0,0.03909999877214432,0.035000000395887826,-0.006000000186975531,0.021999999295971403
-0.07661445438861847,0,10.007762908935547,-0.009499999694526196,0,0.03909999877214432,-0.03400000133744912,-0.006000000186975531,0.021999999295971403
-0.06703764945268631,0,9.998186111450195,0.009999999776482582,0,0.03909999877214432,0.035000000395887826,0.06299999737754478,0.021999999295971403
-0.06703764945268631,0,10.017339706420898,0.00009999999747378752,0,0.048899997025728226,-0.03400000133744912,-0.006000000186975531,-0.046999999102312236
-0.08619125932455063,0,10.017339706420898,-0.009599999524652958,0,0.05869999900460243,-0.03400000133744912,-0.006000000186975531,0.021999999295971403
-0.08619125932455063,0,9.998186111450195,-0.008899999782443047,0,0.048899997025728226,0.10499999785261017,0.06299999737754478,0.021999999295971403
-0.07661445438861847,0,10.017339706420898,0.0007999999797903001,0,0.05869999900460243,0.035000000395887826,-0.07600000181251451,0.021999999295971403
-0.08619125932455063,0,10.007762908935547,-0.008299999870359898,0,0.048899997025728226,0.035000000395887826,-0.07600000181251451,-0.046999999102312236
-0.07661445438861847,0,10.017339706420898,0.00139999995008111,0,0.06849999725818634,-0.10400000212922476,0.06299999737754478,0.021999999295971403
-0.07661445438861847,0,9.998186111450195,0.0011999999405816197,0,0.03909999877214432,-0.03400000133744912,-0.006000000186975531,-0.046999999102312236
-0.09576806426048279,0,9.998186111450195,-0.008499999530613422,0,0.05869999900460243,-0.03400000133744912,-0.006000000186975531,0.021999999295971403
-0.06703764945268631,0,10.007762908935547,0.0010999999940395355,0,0.048899997025728226,-0.03400000133744912,-0.07600000181251451,0.021999999295971403
-0.08619125932455063,0,10.007762908935547,0.0010999999940395355,0,0.048899997025728226,-0.10400000212922476,-0.006000000186975531,0.021999999295971403
-0.08619125932455063,0,9.998186111450195,-0.007999999448657036,0,0.02929999865591526,0.035000000395887826,-0.07600000181251451,0.021999999295971403
-0.07661445438861847,0,10.017339706420898,-0.007999999448657036,0,0.048899997025728226,0.035000000395887826,0.06299999737754478,0.021999999295971403
-0.08619125932455063,0,10.02691650390625,-0.007499999832361937,0,0.03909999877214432,0.035000000395887826,-0.006000000186975531,0.021999999295971403
-0.08619125932455063,0,10.007762908935547,0.002199999988079071,0,0.06849999725818634,0.035000000395887826,-0.006000000186975531,-0.046999999102312236
-0.07661445438861847,0,10.02691650390625,-0.00699999975040555,0,0.048899997025728226,-0.03400000133744912,-0.006000000186975531,0.021999999295971403
-0.06703764945268631,0,10.017339706420898,0.002699999837204814,0,0.06849999725818634,0.035000000395887826,-0.07600000181251451,0.021999999295971403
-0.07661445438861847,0,10.017339706420898,0.002300000051036477,0,0,-0.03400000133744912,-0.006000000186975531,-0.046999999102312236
-0.06703764945268631,0,10.02691650390625,0.01119999960064888,0,-0.00969999935477972,-0.03400000133744912,-0.07600000181251451,0.021999999295971403
-0.06703764945268631,0,10.046070098876953,0.01119999960064888,0,0.029399998486042023,0.035000000395887826,0.06299999737754478,0.021999999295971403
-0.07661445438861847,0,10.017339706420898,0.0013000000035390258,0,0,-0.03400000133744912,-0.006000000186975531,0.021999999295971403
-0.06703764945268631,0,10.007762908935547,0.0013000000035390258,0,0,-0.03400000133744912,-0.006000000186975531,-0.046999999102312236
-0.07661445438861847,0,10.036493301391602,0.0011999999405816197,0,0.019600000232458115,0.035000000395887826,0.06299999737754478,0.021999999295971403
-0.08619125932455063,0,10.036493301391602,0.0011999999405816197,0,0.009800000116229057,0.035000000395887826,-0.006000000186975531,0.021999999295971403
-0.08619125932455063,0,10.02691650390625,-0.007899999618530273,0,0.019600000232458115,-0.03400000133744912,-0.006000000186975531,0.021999999295971403
-0.09576806426048279,0,10.02691650390625,-0.007899999618530273,0,0.019600000232458115,0.035000000395887826,-0.006000000186975531,-0.046999999102312236
-0.09576806426048279,0,10.02691650390625,-0.016499999910593033,0,0,-0.03400000133744912,0.06299999737754478,0.021999999295971403
-0.07661445438861847,0,10.036493301391602,0.003000000026077032,0,0.019600000232458115,-0.03400000133744912,-0.006000000186975531,-0.046999999102312236
-0.07661445438861847,0,10.036493301391602,-0.006199999712407589,0,0.009800000116229057,0.10499999785261017,0.06299999737754478,0.021999999295971403
-0.06703764945268631,0,10.036493301391602,0.013299999758601189,0,0.029399998486042023,-0.10400000212922476,-0.006000000186975531,-0.046999999102312236
-0.06703764945268631,0,10.046070098876953,0.0031999999191612005,0,0.019600000232458115,-0.03400000133744912,-0.006000000186975531,0.021999999295971403
-0.07661445438861847,0,10.02691650390625,-0.0064999996684491634,0,0.009800000116229057,-0.10400000212922476,-0.006000000186975531,-0.046999999102312236
-0.07661445438861847,0,10.02691650390625,0.003000000026077032,0,0.009800000116229057,-0.03400000133744912,-0.07600000181251451,0.021999999295971403
-0.06703764945268631,0,10.02691650390625,0.012799999676644802,0,0.009800000116229057,-0.03400000133744912,-0.006000000186975531,0.021999999295971403
-0.06703764945268631,0,10.036493301391602,0.011899999342858791,0,0.019600000232458115,-0.03400000133744912,-0.006000000186975531,0.021999999295971403
-0.08619125932455063,0,10.036493301391602,-0.007599999662488699,0,0.009800000116229057,0.035000000395887826,-0.006000000186975531,-0.046999999102312236
-0.07661445438861847,0,10.02691650390625,0.001999999862164259,0,0.009800000116229057,-0.03400000133744912,-0.006000000186975531,0.021999999295971403
-0.07661445438861847,0,10.02691650390625,-0.01759999990463257,0,-0.00969999935477972,0.035000000395887826,-0.006000000186975531,0.021999999295971403
-0.08619125932455063,0,10.017339706420898,0.0017999999690800905,0,0,-0.03400000133744912,0.06299999737754478,0.021999999295971403
-0.07661445438861847,0,9.988609313964844,-0.007899999618530273,0,0,0.10499999785261017,0.06299999737754478,-0.046999999102312236
-0.07661445438861847,0,10.017339706420898,0.0016999999061226845,0,-0.019600000232458115,-0.03400000133744912,-0.006000000186975531,0.021999999295971403
-0.08619125932455063,0,9.988609313964844,-0.007400000002235174,0,-0.029399998486042023,-0.03400000133744912,-0.006000000186975531,-0.046999999102312236
-0.08619125932455063,0,9.979032516479492,-0.007400000002235174,0,-0.03920000046491623,0.035000000395887826,0.06299999737754478,0.021999999295971403
-0.07661445438861847,0,9.979032516479492,0.002099999925121665,0,-0.04899999871850014,-0.03400000133744912,-0.006000000186975531,-0.046999999102312236
-0.09576806426048279,0,9.979032516479492,-0.007599999662488699,0,-0.03920000046491623,0.035000000395887826,-0.006000000186975531,-0.046999999102312236
-0.07661445438861847,0,9.979032516479492,0.011099999770522118,0,-0.03920000046491623,-0.03400000133744912,-0.006000000186975531,-0.046999999102312236
-0.07661445438861847,0,9.979032516479492,0.0013000000035390258,0,-0.03920000046491623,-0.10400000212922476,-0.07600000181251451,0.021999999295971403
-0.06703764945268631,0,9.988609313964844,0.010400000028312206,0,-0.03920000046491623,0.035000000395887826,-0.006000000186975531,-0.046999999102312236
-0.08619125932455063,0,9.96945571899414,-0.009099999442696571,0,-0.03920000046491623,0.035000000395887826,-0.006000000186975531,0.021999999295971403
-0.06703764945268631,0,9.988609313964844,0.0004999999655410647,0,-0.03920000046491623,-0.03400000133744912,-0.006000000186975531,0.021999999295971403
-0.06703764945268631,0,9.979032516479492,0.010400000028312206,0,-0.04899999871850014,0.035000000395887826,0.06299999737754478,0.021999999295971403
-0.08619125932455063,0,9.979032516479492,-0.008499999530613422,0,-0.03920000046491623,0.035000000395887826,-0.006000000186975531,0.021999999295971403
-0.07661445438861847,0,9.979032516479492,0.0011999999405816197,0,-0.04899999871850014,0.035000000395887826,-0.006000000186975531,0.021999999295971403
-0.07661445438861847,0,9.979032516479492,0.0010999999940395355,0,-0.03920000046491623,0.035000000395887826,0.06299999737754478,-0.046999999102312236
-0.08619125932455063,0,9.96945571899414,-0.008599999360740185,0,-0.029399998486042023,-0.03400000133744912,0.06299999737754478,0.021999999295971403
-0.07661445438861847,0,9.979032516479492,0.010199999436736107,0,-0.03920000046491623,-0.03400000133744912,0.06299999737754478,0.021999999295971403
-0.08619125932455063,0,9.96945571899414,-0.019099999219179153,0,-0.04899999871850014,0.035000000395887826,-0.006000000186975531,-0.046999999102312236
-0.07661445438861847,0,9.979032516479492,0.00039999998989515007,0,-0.03920000046491623,0.10499999785261017,0.06299999737754478,0.021999999295971403
-0.07661445438861847,0,9.96945571899414,0.00039999998989515007,0,-0.04899999871850014,-0.03400000133744912,-0.006000000186975531,0.021999999295971403
-0.07661445438861847,0,9.988609313964844,0.00039999998989515007,0,-0.029399998486042023,-0.03400000133744912,-0.006000000186975531,-0.046999999102312236
-0.08619125932455063,0,9.988609313964844,0.00039999998989515007,0,-0.029399998486042023,0.035000000395887826,-0.006000000186975531,0.021999999295971403
-0.06703764945268631,0,9.988609313964844,0.00039999998989515007,0,-0.03920000046491623,0.035000000395887826,-0.006000000186975531,0.021999999295971403
-0.07661445438861847,0,9.998186111450195,-0.00930000003427267,0,-0.029399998486042023,0.035000000395887826,0.06299999737754478,0.021999999295971403
-0.08619125932455063,0,10.007762908935547,-0.008700000122189522,0,-0.019600000232458115,-0.03400000133744912,-0.006000000186975531,0.021999999295971403
-0.06703764945268631,0,9.998186111450195,0.0009999999310821295,0,-0.029399998486042023,0.035000000395887826,0.06299999737754478,0.021999999295971403
-0.08619125932455063,0,9.998186111450195,-0.008899999782443047,0,0,-0.03400000133744912,0.06299999737754478,0.021999999295971403
-0.08619125932455063,0,9.988609313964844,-0.008299999870359898,0,0,-0.03400000133744912,-0.006000000186975531,0.021999999295971403
-0.09576806426048279,0,9.988609313964844,-0.008299999870359898,0,0,-0.10400000212922476,-0.006000000186975531,0.021999999295971403
-0.08619125932455063,0,9.998186111450195,-0.007699999958276749,0,0.019500000402331352,-0.10400000212922476,-0.07600000181251451,-0.046999999102312236
-0.08619125932455063,0,9.988609313964844,-0.007699999958276749,0,0,-0.03400000133744912,0.06299999737754478,0.021999999295971403
-0.07661445438861847,0,10.007762908935547,0.0018999999156221747,0,0.00969999935477972,-0.10400000212922476,-0.006000000186975531,-0.046999999102312236
-0.08619125932455063,0,10.007762908935547,-0.007799999788403511,0,0.00969999935477972,-0.03400000133744912,-0.006000000186975531,0.021999999295971403
-0.08619125932455063,0,10.007762908935547,-0.0072999997064471245,0,0.00969999935477972,0.035000000395887826,0.06299999737754478,-0.046999999102312236
-0.09576806426048279,0,10.007762908935547,-0.017099998891353607,0,0,0.035000000395887826,0.06299999737754478,0.021999999295971403
-0.09576806426048279,0,10.007762908935547,0.002199999988079071,0,0.00969999935477972,-0.10400000212922476,-0.07600000181251451,0.021999999295971403
-0.06703764945268631,0,10.017339706420898,0.012000000104308128,0,0.019500000402331352,0.035000000395887826,-0.006000000186975531,0.021999999295971403
-0.07661445438861847,0,10.007762908935547,0.002099999925121665,0,0,0.035000000395887826,0.06299999737754478,-0.046999999102312236
-0.08619125932455063,0,10.007762908935547,-0.007599999662488699,0,0.00969999935477972,-0.03400000133744912,-0.006000000186975531,0.021999999295971403
-0.07661445438861847,0,10.017339706420898,0.0018999999156221747,0,0.00969999935477972,-0.03400000133744912,0.06299999737754478,0.021999999295971403
-0.07661445438861847,0,10.017339706420898,0.011699999682605267,0,0.019500000402331352,-0.03400000133744912,-0.006000000186975531,0.021999999295971403
-0.07661445438861847,0,10.017339706420898,0.0017999999690800905,0,0.02929999865591526,-0.03400000133744912,-0.006000000186975531,0.021999999295971403
-0.07661445438861847,0,10.007762908935547,0.0017999999690800905,0,0,-0.03400000133744912,0.06299999737754478,0.021999999295971403
-0.07661445438861847,0,10.007762908935547,0.0015999999595806003,0,0.019500000402331352,0.035000000395887826,-0.006000000186975531,-0.046999999102312236
-0.06703764945268631,0,10.017339706420898,0.0015999999595806003,0,0.019500000402331352,0.035000000395887826,-0.07600000181251451,-0.046999999102312236
-0.07661445438861847,0,10.02691650390625,0.001500000013038516,0,0.02929999865591526,0.035000000395887826,-0.006000000186975531,-0.046999999102312236
-0.06703764945268631,0,9.998186111450195,0.001500000013038516,0,0,0.035000000395887826,0.06299999737754478,0.021999999295971403
-0.08619125932455063,0,9.979032516479492,-0.007599999662488699,0,-0.019600000232458115,0.035000000395887826,0.06299999737754478,0.021999999295971403
-0.07661445438861847,0,9.998186111450195,-0.007599999662488699,0,-0.019600000232458115,0.035000000395887826,0.06299999737754478,0.021999999295971403
-0.07661445438861847,0,10.017339706420898,-0.0071000000461936,0,0,-0.03400000133744912,-0.006000000186975531,0.021999999295971403
-0.07661445438861847,0,9.988609313964844,0.0023999998811632395,0,0.00969999935477972,-0.03400000133744912,-0.006000000186975531,0.021999999295971403
-0.07661445438861847,0,9.998186111450195,0.0023999998811632395,0,0,-0.03400000133744912,0.06299999737754478,0.021999999295971403
-0.08619125932455063,0,10.017339706420898,-0.006799999624490738,0,0.019500000402331352,0.035000000395887826,-0.006000000186975531,0.021999999295971403
-0.08619125932455063,0,9.998186111450195,0.01269999984651804,0,0,0.035000000395887826,-0.006000000186975531,-0.046999999102312236
-0.06703764945268631,0,10.017339706420898,0.011799999512732029,0,0,0.035000000395887826,-0.006000000186975531,-0.046999999102312236
-0.07661445438861847,0,9.998186111450195,0.001999999862164259,0,0,-0.03400000133744912,0.06299999737754478,0.021999999295971403
-0.06703764945268631,0,10.007762908935547,0.010999999940395355,0,0.00969999935477972,0.035000000395887826,-0.006000000186975531,-0.046999999102312236
-0.07661445438861847,0,10.007762908935547,0.0011999999405816197,0,0.00969999935477972,0.035000000395887826,-0.006000000186975531,0.021999999295971403
-0.07661445438861847,0,10.007762908935547,-0.007899999618530273,0,0.019500000402331352,-0.03400000133744912,-0.07600000181251451,0.021999999295971403
-0.07661445438861847,0,10.017339706420898,0.021399999037384987,0,0.019500000402331352,0.035000000395887826,0.06299999737754478,0.021999999295971403
-0.08619125932455063,0,10.007762908935547,-0.007400000002235174,0,0.019500000402331352,-0.10400000212922476,-0.006000000186975531,0.021999999295971403
-0.08619125932455063,0,9.988609313964844,-0.01719999872148037,0,0,0.035000000395887826,-0.006000000186975531,0.021999999295971403
-0.09576806426048279,0,10.007762908935547,-0.01599999889731407,0,0.00969999935477972,0.035000000395887826,-0.006000000186975531,-0.046999999102312236
-0.07661445438861847,0,10.007762908935547,0.003499999875202775,0,0,-0.03400000133744912,-0.006000000186975531,-0.046999999102312236
-0.07661445438861847,0,10.007762908935547,0.0032999999821186066,0,0.00969999935477972,-0.03400000133744912,0.06299999737754478,0.021999999295971403
-0.08619125932455063,0,10.02691650390625,-0.006399999838322401,0,0.03909999877214432,-0.03400000133744912,-0.006000000186975531,0.021999999295971403
-0.07661445438861847,0,10.007762908935547,0.003000000026077032,0,0.00969999935477972,0.10499999785261017,0.06299999737754478,-0.046999999102312236
-0.06703764945268631,0,10.007762908935547,0.012799999676644802,0,0.00969999935477972,0.035000000395887826,-0.006000000186975531,-0.046999999102312236
-0.07661445438861847,0,10.007762908935547,0.00279999990016222,0,0.019500000402331352,0.035000000395887826,0.06299999737754478,0.021999999295971403
-0.09576806426048279,0,10.02691650390625,-0.006899999920278788,0,0.02929999865591526,-0.03400000133744912,-0.006000000186975531,0.021999999295971403
-0.07661445438861847,0,10.017339706420898,-0.006399999838322401,0,0.019500000402331352,0.035000000395887826,-0.006000000186975531,-0.046999999102312236
-0.07661445438861847,0,10.02691650390625,0.013100000098347664,0,0.03909999877214432,0.035000000395887826,-0.07600000181251451,0.021999999295971403
-0.06703764945268631,0,10.02691650390625,0.003000000026077032,0,0.03909999877214432,0.035000000395887826,0.06299999737754478,0.021999999295971403
-0.06703764945268631,0,10.02691650390625,0.011899999342858791,0,0.02929999865591526,0.035000000395887826,-0.006000000186975531,-0.046999999102312236
-0.07661445438861847,0,10.017339706420898,0.002300000051036477,0,0,-0.03400000133744912,-0.006000000186975531,-0.046999999102312236
-0.06703764945268631,0,10.02691650390625,0.002099999925121665,0,0.019600000232458115,-0.03400000133744912,-0.006000000186975531,0.021999999295971403
-0.07661445438861847,0,10.02691650390625,-0.007599999662488699,0,0.009800000116229057,-0.03400000133744912,-0.006000000186975531,0.021999999295971403
-0.08619125932455063,0,10.036493301391602,-0.0071000000461936,0,0.019600000232458115,0.10499999785261017,-0.006000000186975531,0.021999999295971403
-0.08619125932455063,0,10.02691650390625,-0.0071000000461936,0,0,0.035000000395887826,-0.006000000186975531,0.021999999295971403
-0.07661445438861847,0,10.036493301391602,0.0023999998811632395,0,0.009800000116229057,-0.03400000133744912,0.06299999737754478,-0.046999999102312236
-0.08619125932455063,0,10.02691650390625,-0.0072999997064471245,0,0.009800000116229057,-0.03400000133744912,-0.006000000186975531,0.021999999295971403
-0.08619125932455063,0,10.036493301391602,0.011399999260902405,0,0.019600000232458115,0.035000000395887826,0.06299999737754478,0.021999999295971403
-0.08619125932455063,0,10.017339706420898,-0.008100000210106373,0,0,-0.10400000212922476,-0.006000000186975531,0.021999999295971403
-0.05746084079146385,0,10.036493301391602,0.019700000062584877,0,0.019600000232458115,0.035000000395887826,-0.006000000186975531,-0.046999999102312236
-0.08619125932455063,0,10.017339706420898,-0.009599999524652958,0,0,0.035000000395887826,0.06299999737754478,0.021999999295971403
-0.06703764945268631,0,10.02691650390625,0.009200000204145908,0,0.009800000116229057,-0.03400000133744912,-0.006000000186975531,0.021999999295971403
-0.07661445438861847,0,10.02691650390625,-0.0004999999655410647,0,0.009800000116229057,0.035000000395887826,-0.006000000186975531,-0.046999999102312236
-0.07661445438861847,0,10.02691650390625,-0.0004999999655410647,0,0.009800000116229057,0.035000000395887826,-0.006000000186975531,-0.046999999102312236
-0.07661445438861847,0,10.046070098876953,-0.0004999999655410647,0,0.019600000232458115,0.10499999785261017,0.06299999737754478,0.021999999295971403
-0.08619125932455063,0,10.017339706420898,-0.00039999998989515007,0,0,0.035000000395887826,0.06299999737754478,0.021999999295971403
-0.08619125932455063,0,10.02691650390625,-0.00039999998989515007,0,0,0.035000000395887826,-0.006000000186975531,0.021999999295971403
-0.07661445438861847,0,10.02691650390625,0.008700000122189522,0,-0.009800000116229057,0.10499999785261017,-0.006000000186975531,-0.046999999102312236
-0.08619125932455063,0,10.017339706420898,-0.0009999999310821295,0,0,-0.03400000133744912,0.06299999737754478,0.021999999295971403
-0.08619125932455063,0,10.017339706420898,-0.0009999999310821295,0,0,0.035000000395887826,0.06299999737754478,0.021999999295971403
-0.07661445438861847,0,10.02691650390625,0.008100000210106373,0,0.019600000232458115,-0.03400000133744912,-0.006000000186975531,0.021999999295971403
-0.08619125932455063,0,10.017339706420898,0.008100000210106373,0,0.019600000232458115,-0.03400000133744912,-0.006000000186975531,0.021999999295971403
-0.07661445438861847,0,10.007762908935547,-0.010599999688565731,0,-0.009800000116229057,-0.03400000133744912,-0.006000000186975531,0.021999999295971403
-0.07661445438861847,0,10.007762908935547,-0.010599999688565731,0,-0.009800000116229057,-0.03400000133744912,-0.006000000186975531,0.021999999295971403
-0.08619125932455063,0,10.02691650390625,-0.00989999994635582,0,0.009800000116229057,0.035000000395887826,-0.006000000186975531,0.021999999295971403
-0.05746084079146385,0,10.02691650390625,0.009599999524652958,0,0.009800000116229057,0.035000000395887826,-0.006000000186975531,-0.046999999102312236
-0.06703764945268631,0,10.02691650390625,-0.018299998715519905,0,-0.00969999935477972,-0.03400000133744912,0.06299999737754478,-0.046999999102312236
-0.07661445438861847,0,10.007762908935547,0.010300000198185444,0,0,0.035000000395887826,0.06299999737754478,0.021999999295971403
-0.07661445438861847,0,10.007762908935547,0.010300000198185444,0,0,0.035000000395887826,0.06299999737754478,0.021999999295971403
-0.07661445438861847,0,10.02691650390625,0.00039999998989515007,0,-0.009800000116229057,-0.03400000133744912,-0.006000000186975531,-0.046999999102312236
-0.05746084079146385,0,10.017339706420898,0.018699999898672104,0,0,-0.03400000133744912,0.06299999737754478,0.021999999295971403
-0.09576806426048279,0,10.02691650390625,-0.010599999688565731,0,0.009800000116229057,-0.10400000212922476,-0.006000000186975531,0.021999999295971403
-0.09576806426048279,0,10.007762908935547,-0.00989999994635582,0,0.009800000116229057,0.035000000395887826,0.06299999737754478,-0.046999999102312236
-0.08619125932455063,0,10.017339706420898,-0.00009999999747378752,0,0.019600000232458115,-0.03400000133744912,-0.006000000186975531,0.021999999295971403
-0.08619125932455063,0,10.02691650390625,-0.009200000204145908,0,0,-0.03400000133744912,-0.006000000186975531,-0.046999999102312236
-0.07661445438861847,0,10.007762908935547,-0.009200000204145908,0,0.009800000116229057,-0.10400000212922476,0.06299999737754478,0.021999999295971403
-0.05746084079146385,0,10.007762908935547,0.0010999999940395355,0,-0.00969999935477972,0.035000000395887826,-0.07600000181251451,-0.046999999102312236
-0.07661445438861847,0.009576806798577309,10.007762908935547,0.0010999999940395355,0,-0.00969999935477972,0.035000000395887826,0.06299999737754478,0.021999999295971403
-0.08619125932455063,0,10.017339706420898,-0.008700000122189522,0,-0.00969999935477972,-0.03400000133744912,-0.006000000186975531,0.021999999295971403
-0.08619125932455063,0,10.017339706420898,-0.008700000122189522,0,-0.00969999935477972,0.035000000395887826,0.06299999737754478,-0.046999999102312236
-0.07661445438861847,0,10.017339706420898,0.0009999999310821295,0,0,-0.03400000133744912,-0.006000000186975531,0.021999999295971403
-0.07661445438861847,0,10.017339706420898,0.010799999348819256,0,0.009800000116229057,0.035000000395887826,-0.006000000186975531,-0.046999999102312236
-0.07661445438861847,0,10.017339706420898,0.009999999776482582,0,0.009800000116229057,0.035000000395887826,0.06299999737754478,0.021999999295971403
-0.08619125932455063,0,10.017339706420898,-0.009499999694526196,0,-0.009800000116229057,-0.03400000133744912,-0.006000000186975531,0.021999999295971403
-0.07661445438861847,0,10.017339706420898,0.0008999999845400453,0,0,-0.03400000133744912,-0.006000000186975531,0.021999999295971403
-0.08619125932455063,0,10.007762908935547,-0.008200000040233135,0,0,-0.03400000133744912,-0.006000000186975531,-0.046999999102312236
-0.07661445438861847,0,9.998186111450195,-0.008200000040233135,0,0,-0.03400000133744912,-0.006000000186975531,-0.046999999102312236
-0.07661445438861847,0,10.017339706420898,0.001500000013038516,0,0,-0.03400000133744912,-0.006000000186975531,0.021999999295971403
-0.07661445438861847,0,9.988609313964844,-0.008499999530613422,0,0,-0.03400000133744912,-0.006000000186975531,0.09200000008774706
-0.07661445438861847,0,9.988609313964844,0.010199999436736107,0,0,-0.03400000133744912,-0.006000000186975531,0.09200000008774706
-0.07661445438861847,0,10.007762908935547,0.009499999694526196,0,0.019500000402331352,0.035000000395887826,-0.006000000186975531,0.021999999295971403
-0.07661445438861847,0,9.979032516479492,-0.009999999776482582,0,0.019500000402331352,0.035000000395887826,-0.006000000186975531,-0.046999999102312236
-0.07661445438861847,0,9.998186111450195,-0.00019999999494757503,0,0.00969999935477972,0.035000000395887826,-0.006000000186975531,0.021999999295971403
-0.06703764945268631,0,9.979032516479492,-0.00019999999494757503,0,0.00969999935477972,-0.10400000212922476,-0.006000000186975531,0.021999999295971403
-0.08619125932455063,0,9.998186111450195,0.008899999782443047,0,0,-0.03400000133744912,0.06299999737754478,0.021999999295971403
-0.08619125932455063,0,9.998186111450195,-0.0007999999797903001,0,0.00969999935477972,-0.03400000133744912,-0.006000000186975531,0.021999999295971403
-0.09576806426048279,0,9.998186111450195,-0.00989999994635582,0,0,0.035000000395887826,0.06299999737754478,-0.046999999102312236
-0.08619125932455063,0,9.988609313964844,-0.00009999999747378752,0,-0.029399998486042023,-0.03400000133744912,-0.006000000186975531,0.021999999295971403
-0.08619125932455063,0,9.988609313964844,-0.009200000204145908,0,0.00969999935477972,-0.03400000133744912,-0.006000000186975531,0.021999999295971403
-0.07661445438861847,0,9.979032516479492,-0.009200000204145908,0,-0.009800000116229057,-0.03400000133744912,-0.006000000186975531,0.021999999295971403
-0.08619125932455063,0,9.959878921508789,-0.008599999360740185,0,-0.029399998486042023,-0.03400000133744912,-0.07600000181251451,-0.046999999102312236
-0.08619125932455063,0,9.96945571899414,-0.008599999360740185,0,-0.019600000232458115,0.035000000395887826,0.13300000483942703,-0.046999999102312236
-0.07661445438861847,0,9.959878921508789,0.0010999999940395355,0,-0.03920000046491623,-0.03400000133744912,-0.006000000186975531,0.021999999295971403
-0.07661445438861847,0,9.959878921508789,0.0010999999940395355,0,-0.03920000046491623,-0.03400000133744912,-0.006000000186975531,0.021999999295971403
-0.08619125932455063,0,9.950302124023438,0.010799999348819256,0,-0.03920000046491623,-0.03400000133744912,0.06299999737754478,0.021999999295971403
-0.06703764945268631,0,9.931148529052734,0.0009999999310821295,0,-0.05889999866485596,-0.03400000133744912,-0.006000000186975531,-0.046999999102312236
-0.06703764945268631,0,9.950302124023438,0.010799999348819256,0,-0.04899999871850014,-0.03400000133744912,-0.07600000181251451,0.021999999295971403
-0.07661445438861847,0,9.950302124023438,0.009999999776482582,0,-0.029399998486042023,-0.03400000133744912,-0.006000000186975531,0.021999999295971403
-0.07661445438861847,0,9.950302124023438,0.009999999776482582,0,-0.029399998486042023,-0.03400000133744912,-0.006000000186975531,0.021999999295971403
-0.07661445438861847,0,9.959878921508789,0.002300000051036477,0,-0.029399998486042023,-0.03400000133744912,0.06299999737754478,0.021999999295971403
-0.09576806426048279,0,9.959878921508789,-0.006899999920278788,0,-0.029399998486042023,0.035000000395887826,0.06299999737754478,0.021999999295971403
-0.08619125932455063,0,9.940725326538086,0.00279999990016222,0,-0.03920000046491623,-0.03400000133744912,-0.006000000186975531,-0.046999999102312236
-0.07661445438861847,0,9.940725326538086,0.0026000000070780516,0,-0.03920000046491623,-0.03400000133744912,-0.006000000186975531,0.021999999295971403
-0.09576806426048279,0,9.959878921508789,-0.0071000000461936,0,-0.029399998486042023,-0.03400000133744912,-0.006000000186975531,0.021999999295971403
-0.07661445438861847,0,9.950302124023438,-0.006599999964237213,0,-0.03920000046491623,-0.03400000133744912,-0.006000000186975531,-0.046999999102312236
-0.08619125932455063,0,9.959878921508789,-0.006599999964237213,0,-0.029399998486042023,0.035000000395887826,-0.006000000186975531,0.021999999295971403
-0.08619125932455063,0,9.959878921508789,-0.006099999882280827,0,-0.029399998486042023,-0.03400000133744912,-0.006000000186975531,0.021999999295971403
-0.06703764945268631,0,9.959878921508789,-0.006099999882280827,0,-0.029399998486042023,-0.03400000133744912,-0.006000000186975531,-0.046999999102312236
-0.07661445438861847,0,9.959878921508789,-0.005699999630451202,0,-0.019600000232458115,-0.03400000133744912,-0.006000000186975531,0.021999999295971403
-0.07661445438861847,0,9.950302124023438,0.004100000020116568,0,-0.029399998486042023,-0.03400000133744912,-0.006000000186975531,0.021999999295971403
-0.07661445438861847,0,9.959878921508789,0.0037999998312443495,0,-0.019600000232458115,0.035000000395887826,0.06299999737754478,0.021999999295971403
-0.07661445438861847,0,9.959878921508789,0.0037999998312443495,0,-0.029399998486042023,-0.03400000133744912,-0.006000000186975531,0.021999999295971403
-0.07661445438861847,0,9.959878921508789,0.003499999875202775,0,-0.04899999871850014,0.10499999785261017,-0.006000000186975531,0.021999999295971403
-0.06703764945268631,0,9.950302124023438,0.003499999875202775,0,-0.029399998486042023,0.035000000395887826,-0.006000000186975531,0.021999999295971403
-0.08619125932455063,0,9.959878921508789,-0.005699999630451202,0,-0.03920000046491623,-0.03400000133744912,-0.07600000181251451,0.021999999295971403
-0.06703764945268631,0,9.959878921508789,0.003700000001117587,0,-0.029399998486042023,0.10499999785261017,0.06299999737754478,-0.046999999102312236
-0.07661445438861847,0,9.950302124023438,0.003700000001117587,0,-0.03920000046491623,-0.10400000212922476,-0.006000000186975531,0.021999999295971403
-0.07661445438861847,0,9.96945571899414,0.003499999875202775,0,-0.04899999871850014,0.035000000395887826,0.06299999737754478,0.021999999295971403
-0.07661445438861847,0,9.96945571899414,-0.006199999712407589,0,-0.029399998486042023,-0.03400000133744912,-0.006000000186975531,-0.046999999102312236
-0.07661445438861847,0,9.979032516479492,0.0032999999821186066,0,-0.009800000116229057,-0.03400000133744912,-0.006000000186975531,-0.046999999102312236
-0.08619125932455063,0,9.979032516479492,-0.0064999996684491634,0,0,0.035000000395887826,0.06299999737754478,0.021999999295971403
-0.08619125932455063,0,9.979032516479492,-0.0064999996684491634,0,0,0.035000000395887826,0.06299999737754478,0.021999999295971403
-0.07661445438861847,0,9.96945571899414,-0.006000000052154064,0,-0.019600000232458115,0.10499999785261017,-0.006000000186975531,0.021999999295971403
-0.09576806426048279,0,9.998186111450195,0.003499999875202775,0,0,0.03699999851276524,-0.019000000453128628,0.05200000106461238
-0.08619125932455063,0,9.979032516479492,0.003399999812245369,0,0,0.03699999851276524,0.049999999612681666,-0.01700000066872456
-0.08619125932455063,0,9.979032516479492,-0.0058999997563660145,0,0.009800000116229057,0.03699999851276524,-0.019000000453128628,-0.01700000066872456
-0.08619125932455063,0,9.979032516479492,-0.0058999997563660145,0,0.009800000116229057,0.03699999851276524,0.049999999612681666,-0.01700000066872456
-0.09576806426048279,0,9.988609313964844,-0.005499999970197678,0,0.009800000116229057,-0.031999999885518396,-0.019000000453128628,0.05200000106461238
-0.07661445438861847,0,9.988609313964844,0.00419999985024333,0,0.009800000116229057,0.03699999851276524,-0.019000000453128628,0.05200000106461238
-0.06703764945268631,0,9.998186111450195,0.0038999998942017555,0,0.009800000116229057,-0.031999999885518396,-0.019000000453128628,0.05200000106461238
-0.09576806426048279,0,9.988609313964844,-0.005799999926239252,0,0.009800000116229057,-0.031999999885518396,-0.019000000453128628,0.05200000106461238
-0.07661445438861847,0,9.998186111450195,0.003599999938160181,0,0,-0.031999999885518396,-0.08899999957737763,0.05200000106461238
-0.05746084079146385,0,9.998186111450195,0.003599999938160181,0,0.019600000232458115,-0.031999999885518396,0.049999999612681666,0.05200000106461238
-0.08619125932455063,0,10.007762908935547,-0.00559999980032444,0,0.019600000232458115,-0.031999999885518396,-0.019000000453128628,0.05200000106461238
-0.08619125932455063,0,10.017339706420898,0.004100000020116568,0,0.029399998486042023,0.03699999851276524,-0.08899999957737763,-0.01700000066872456
-0.07661445438861847,0,10.007762908935547,0.0037999998312443495,0,0.029399998486042023,0.03699999851276524,0.049999999612681666,0.05200000106461238
-0.06703764945268631,0,10.017339706420898,0.0037999998312443495,0,0.009800000116229057,-0.031999999885518396,-0.019000000453128628,0.05200000106461238
-0.07661445438861847,0,9.998186111450195,0.012600000016391277,0,0.03920000046491623,-0.031999999885518396,-0.019000000453128628,0.05200000106461238
-0.06703764945268631,0,10.02691650390625,0.011699999682605267,0,0.03920000046491623,-0.031999999885518396,0.049999999612681666,0.05200000106461238
-0.07661445438861847,0,10.017339706420898,0.0018999999156221747,0,0.03920000046491623,-0.031999999885518396,-0.019000000453128628,0.05200000106461238
-0.08619125932455063,0,10.017339706420898,-0.0072999997064471245,0,0.03920000046491623,0.03699999851276524,0.049999999612681666,-0.01700000066872456
-0.08619125932455063,0,10.007762908935547,0.0023999998811632395,0,0.03920000046491623,-0.031999999885518396,-0.019000000453128628,0.05200000106461238
-0.08619125932455063,0,10.007762908935547,-0.006799999624490738,0,0.03920000046491623,-0.031999999885518396,-0.019000000453128628,0.05200000106461238
-0.08619125932455063,0,10.017339706420898,0.01269999984651804,0,0.03920000046491623,-0.031999999885518396,-0.019000000453128628,-0.01700000066872456
-0.05746084079146385,0,10.017339706420898,0.011799999512732029,0,0.03920000046491623,0.03699999851276524,-0.019000000453128628,0.05200000106461238
-0.07661445438861847,0,10.017339706420898,0.001999999862164259,0,0.04899999871850014,-0.031999999885518396,0.049999999612681666,0.05200000106461238
-0.07661445438861847,0,10.017339706420898,0.0018999999156221747,0,0.03920000046491623,0.1070000026395942,0.049999999612681666,-0.01700000066872456
-0.08619125932455063,0,10.007762908935547,-0.007799999788403511,0,0.029399998486042023,0.03699999851276524,0.049999999612681666,-0.01700000066872456
-0.07661445438861847,0,10.017339706420898,0.0016999999061226845,0,0.019600000232458115,0.03699999851276524,0.049999999612681666,-0.01700000066872456
-0.08619125932455063,0,10.02691650390625,0.0016999999061226845,0,0.029399998486042023,0.03699999851276524,0.049999999612681666,0.05200000106461238
-0.07661445438861847,0,9.988609313964844,0.0015999999595806003,0,0.03920000046491623,-0.10199999734224074,-0.019000000453128628,0.05200000106461238
-0.07661445438861847,0,10.017339706420898,-0.008100000210106373,0,0.029399998486042023,-0.031999999885518396,-0.019000000453128628,0.05200000106461238
-0.07661445438861847,0,10.017339706420898,0.00139999995008111,0,0.04899999871850014,0.03699999851276524,-0.019000000453128628,-0.01700000066872456
-0.07661445438861847,0,10.017339706420898,0.00139999995008111,0,0.03920000046491623,0.03699999851276524,-0.019000000453128628,0.05200000106461238
-0.09576806426048279,0,10.007762908935547,0.0013000000035390258,0,0.04899999871850014,-0.031999999885518396,-0.08899999957737763,-0.01700000066872456
-0.09576806426048279,0,10.007762908935547,-0.018199998885393143,0,0.029399998486042023,0.03699999851276524,0.049999999612681666,-0.01700000066872456
-0.06703764945268631,0,9.988609313964844,0.0011999999405816197,0,0.04899999871850014,-0.10199999734224074,-0.019000000453128628,-0.01700000066872456
-0.10534487664699554,0,9.998186111450195,0.010999999940395355,0,0.029399998486042023,-0.031999999885518396,-0.019000000453128628,-0.01700000066872456
-0.07661445438861847,0,9.979032516479492,-0.017099998891353607,0,0.019600000232458115,-0.031999999885518396,-0.019000000453128628,-0.01700000066872456
-0.07661445438861847,0,9.998186111450195,0.011399999260902405,0,0.019600000232458115,0.03699999851276524,-0.019000000453128628,-0.01700000066872456
-0.08619125932455063,0,9.979032516479492,0.0015999999595806003,0,0,0.03699999851276524,0.049999999612681666,-0.01700000066872456
-0.10534487664699554,0,9.988609313964844,-0.016699999570846558,0,0.009800000116229057,0.03699999851276524,-0.019000000453128628,-0.01700000066872456
-0.07661445438861847,0,9.998186111450195,0.00279999990016222,0,0.019600000232458115,-0.031999999885518396,-0.019000000453128628,0.05200000106461238
-0.07661445438861847,0,9.998186111450195,-0.006399999838322401,0,0.009800000116229057,-0.031999999885518396,-0.019000000453128628,0.05200000106461238
-0.07661445438861847,0,9.998186111450195,-0.006399999838322401,0,0.019600000232458115,0.03699999851276524,-0.019000000453128628,-0.01700000066872456
-0.09576806426048279,0,9.998186111450195,-0.015099999494850636,0,0.019600000232458115,-0.031999999885518396,-0.019000000453128628,0.05200000106461238
-0.08619125932455063,0,9.998186111450195,-0.0052999998442828655,0,0.019600000232458115,0.1070000026395942,0.049999999612681666,0.05200000106461238
-0.07661445438861847,0,9.998186111450195,0.004100000020116568,0,0.029399998486042023,-0.031999999885518396,0.049999999612681666,0.05200000106461238
-0.07661445438861847,0,10.007762908935547,0.004100000020116568,0,0.019600000232458115,0.03699999851276524,-0.019000000453128628,0.05200000106461238
-0.08619125932455063,0,10.017339706420898,0.0037999998312443495,0,0.03920000046491623,-0.031999999885518396,0.049999999612681666,-0.01700000066872456
-0.06703764945268631,0,10.007762908935547,0.0037999998312443495,0,0.019600000232458115,0.1070000026395942,0.049999999612681666,0.05200000106461238
-0.08619125932455063,0,10.017339706420898,-0.005499999970197678,0,0.03920000046491623,-0.031999999885518396,-0.019000000453128628,0.05200000106461238
-0.08619125932455063,0,9.998186111450195,0.014299999922513962,0,0,-0.031999999885518396,0.049999999612681666,0.05200000106461238
-0.07661445438861847,0,9.988609313964844,0.00419999985024333,0,-0.019500000402331352,0.03699999851276524,-0.019000000453128628,0.05200000106461238
-0.08619125932455063,0,10.007762908935547,0.0139999995008111,0,-0.00969999935477972,-0.031999999885518396,-0.019000000453128628,-0.01700000066872456
-0.07661445438861847,0,9.998186111450195,0.0038999998942017555,0,-0.00969999935477972,0.03699999851276524,-0.019000000453128628,0.05200000106461238
-0.06703764945268631,0,9.998186111450195,0.013700000010430813,0,-0.00969999935477972,0.03699999851276524,-0.08899999957737763,0.05200000106461238
-0.07661445438861847,0,9.998186111450195,0.003599999938160181,0,-0.00969999935477972,-0.031999999885518396,-0.019000000453128628,0.05200000106461238
-0.08619125932455063,0,10.007762908935547,-0.006099999882280827,0,-0.00969999935477972,0.03699999851276524,-0.019000000453128628,-0.01700000066872456
-0.08619125932455063,0,10.007762908935547,0.003399999812245369,0,-0.019500000402331352,-0.031999999885518396,-0.08899999957737763,-0.01700000066872456
-0.09576806426048279,0,10.007762908935547,-0.006300000008195639,0,-0.019500000402331352,0.1070000026395942,0.049999999612681666,0.05200000106461238
-0.10534487664699554,0,10.017339706420898,-0.014999999664723873,0,-0.00969999935477972,-0.031999999885518396,0.049999999612681666,0.05200000106461238
-0.06703764945268631,0,10.017339706420898,0.013299999758601189,0,0,0.03699999851276524,0.049999999612681666,-0.01700000066872456
-0.06703764945268631,0,10.017339706420898,0.013299999758601189,0,0,0.03699999851276524,-0.019000000453128628,0.05200000106461238
-0.07661445438861847,0,10.007762908935547,0.003499999875202775,0,-0.00969999935477972,-0.031999999885518396,-0.019000000453128628,0.05200000106461238
-0.07661445438861847,0,10.007762908935547,0.0032999999821186066,0,-0.019500000402331352,-0.031999999885518396,0.049999999612681666,0.05200000106461238
-0.07661445438861847,0,10.02691650390625,0.003000000026077032,0,0,-0.031999999885518396,-0.019000000453128628,-0.01700000066872456
-0.08619125932455063,0,10.017339706420898,-0.015399999916553497,0,0.009800000116229057,-0.10199999734224074,-0.019000000453128628,0.05200000106461238
-0.08619125932455063,0,10.017339706420898,-0.015399999916553497,0,0.009800000116229057,-0.031999999885518396,-0.019000000453128628,0.05200000106461238
-0.06703764945268631,0,9.998186111450195,0.012999999336898327,0,-0.019500000402331352,0.03699999851276524,0.049999999612681666,0.05200000106461238
-0.07661445438861847,0,10.007762908935547,0.0031999999191612005,0,-0.00969999935477972,-0.031999999885518396,-0.019000000453128628,-0.01700000066872456
-0.06703764945268631,0,9.998186111450195,0.01209999993443489,0,-0.00969999935477972,-0.031999999885518396,0.049999999612681666,0.05200000106461238
-0.06703764945268631,0,9.998186111450195,0.01209999993443489,0,-0.019500000402331352,-0.031999999885518396,-0.019000000453128628,0.05200000106461238
-0.07661445438861847,0,10.007762908935547,0.011299999430775642,0,-0.019500000402331352,0.03699999851276524,-0.019000000453128628,-0.01700000066872456
-0.07661445438861847,0,9.998186111450195,0.001500000013038516,0,-0.019500000402331352,-0.10199999734224074,-0.019000000453128628,-0.01700000066872456
-0.07661445438861847,0,9.998186111450195,-0.007699999958276749,0,-0.019500000402331352,-0.031999999885518396,-0.019000000453128628,-0.01700000066872456
-0.07661445438861847,0,9.998186111450195,0.002099999925121665,0,-0.00969999935477972,-0.10199999734224074,-0.019000000453128628,0.05200000106461238
-0.07661445438861847,0,9.998186111450195,0.010999999940395355,0,-0.019500000402331352,-0.10199999734224074,-0.019000000453128628,0.05200000106461238
-0.09576806426048279,0,9.988609313964844,-0.018299998715519905,0,-0.02929999865591526,-0.031999999885518396,-0.019000000453128628,0.05200000106461238
-0.08619125932455063,0,9.959878921508789,-0.007799999788403511,0,-0.05869999900460243,-0.031999999885518396,-0.019000000453128628,0.05200000106461238
-0.07661445438861847,0,9.979032516479492,0.011699999682605267,0,-0.06849999725818634,0.03699999851276524,-0.019000000453128628,0.05200000106461238
-0.08619125932455063,0,9.96945571899414,0.0017999999690800905,0,-0.05869999900460243,0.03699999851276524,-0.019000000453128628,0.05200000106461238
-0.08619125932455063,0,9.959878921508789,-0.007999999448657036,0,-0.048899997025728226,0.03699999851276524,0.049999999612681666,0.05200000106461238
-0.08619125932455063,0,9.959878921508789,0.0016999999061226845,0,-0.06849999725818634,-0.031999999885518396,-0.019000000453128628,0.05200000106461238
-0.08619125932455063,0,9.959878921508789,0.011500000022351742,0,-0.06849999725818634,0.03699999851276524,0.049999999612681666,0.05200000106461238
-0.07661445438861847,0,9.950302124023438,0.0015999999595806003,0,-0.06849999725818634,-0.10199999734224074,-0.019000000453128628,-0.01700000066872456
-0.07661445438861847,0,9.96945571899414,0.0015999999595806003,0,-0.05869999900460243,0.1070000026395942,0.049999999612681666,-0.01700000066872456
-0.07661445438861847,0,9.931148529052734,-0.016599999740719795,0,-0.06849999725818634,0.03699999851276524,0.049999999612681666,0.05200000106461238
-0.07661445438861847,0,9.940725326538086,-0.006799999624490738,0,-0.09789999574422836,-0.031999999885518396,-0.019000000453128628,0.05200000106461238
-0.08619125932455063,0,9.931148529052734,-0.00699999975040555,0,-0.08810000121593475,0.03699999851276524,0.049999999612681666,-0.01700000066872456
-0.06703764945268631,0,9.940725326538086,0.011699999682605267,0,-0.08810000121593475,-0.031999999885518396,-0.019000000453128628,-0.01700000066872456
-0.08619125932455063,0,9.940725326538086,0.0018999999156221747,0,-0.06849999725818634,0.03699999851276524,-0.019000000453128628,0.05200000106461238
-0.06703764945268631,0,9.950302124023438,0.0017999999690800905,0,-0.07829999923706055,-0.031999999885518396,-0.019000000453128628,-0.01700000066872456
-0.07661445438861847,0,9.931148529052734,0.0017999999690800905,0,-0.06849999725818634,0.03699999851276524,-0.019000000453128628,0.05200000106461238
-0.07661445438861847,0,9.950302124023438,0.0016999999061226845,0,-0.05869999900460243,-0.031999999885518396,-0.019000000453128628,-0.01700000066872456
-0.06703764945268631,0,9.940725326538086,0.011500000022351742,0,-0.07829999923706055,0.03699999851276524,0.049999999612681666,0.05200000106461238
-0.07661445438861847,0,9.959878921508789,0.0015999999595806003,0,-0.06849999725818634,-0.031999999885518396,-0.019000000453128628,0.05200000106461238
-0.07661445438861847,0,9.950302124023438,0.011399999260902405,0,-0.06849999725818634,-0.031999999885518396,-0.019000000453128628,0.12199999852133472
-0.07661445438861847,0,9.940725326538086,0.001500000013038516,0,-0.08810000121593475,-0.031999999885518396,-0.019000000453128628,-0.01700000066872456
-0.08619125932455063,0,9.950302124023438,0.0009999999310821295,0,0,-0.031999999885518396,-0.019000000453128628,0.05200000106461238
-0.07661445438861847,0,9.940725326538086,0.0008999999845400453,0,0,-0.031999999885518396,-0.019000000453128628,-0.01700000066872456
-0.08619125932455063,0,9.950302124023438,-0.008799999952316284,0,0.009800000116229057,0.03699999851276524,-0.019000000453128628,0.05200000106461238
-0.07661445438861847,0,9.940725326538086,0.0007999999797903001,0,0,-0.031999999885518396,-0.019000000453128628,0.05200000106461238
-0.07661445438861847,0,9.96945571899414,0.010599999688565731,0,0.009800000116229057,-0.031999999885518396,-0.019000000453128628,-0.01700000066872456
-0.07661445438861847,0,9.96945571899414,0.0007999999797903001,0,0.009800000116229057,-0.031999999885518396,-0.019000000453128628,-0.01700000066872456
-0.07661445438861847,0,9.940725326538086,0.010599999688565731,0,0,0.03699999851276524,-0.019000000453128628,0.05200000106461238
-0.08619125932455063,0,9.959878921508789,0.009800000116229057,0,0.019600000232458115,0.03699999851276524,0.049999999612681666,-0.01700000066872456
-0.06703764945268631,0,9.959878921508789,-0.00969999935477972,0,0.009800000116229057,-0.031999999885518396,-0.019000000453128628,-0.01700000066872456
-0.07661445438861847,0,9.959878921508789,0,0,0.019600000232458115,-0.031999999885518396,-0.019000000453128628,0.05200000106461238
-0.08619125932455063,0,9.979032516479492,0,0,0.03920000046491623,0.03699999851276524,0.049999999612681666,0.05200000106461238
-0.09576806426048279,0,9.96945571899414,-0.018199998885393143,0,0.029399998486042023,-0.031999999885518396,-0.019000000453128628,0.05200000106461238
-0.07661445438861847,0,9.979032516479492,0.0013000000035390258,0,0.03920000046491623,-0.031999999885518396,-0.019000000453128628,-0.01700000066872456
-0.07661445438861847,0,9.96945571899414,0.0011999999405816197,0,0.029399998486042023,-0.031999999885518396,-0.019000000453128628,0.05200000106461238
-0.06703764945268631,0,9.96945571899414,0.010999999940395355,0,0.029399998486042023,-0.031999999885518396,-0.019000000453128628,-0.01700000066872456
-0.07661445438861847,0,9.96945571899414,-0.007899999618530273,0,0.03920000046491623,0.03699999851276524,0.049999999612681666,0.05200000106461238
-0.07661445438861847,0,9.96945571899414,0.0016999999061226845,0,0.03920000046491623,-0.031999999885518396,-0.08899999957737763,0.05200000106461238
-0.08619125932455063,0,9.988609313964844,0.0016999999061226845,0,0.03920000046491623,-0.031999999885518396,-0.019000000453128628,0.05200000106461238
-0.08619125932455063,0,9.988609313964844,-0.008100000210106373,0,0.04899999871850014,-0.031999999885518396,-0.019000000453128628,0.05200000106461238
-0.06703764945268631,0,9.979032516479492,-0.007499999832361937,0,0.029399998486042023,-0.031999999885518396,-0.019000000453128628,0.05200000106461238
-0.07661445438861847,0,9.979032516479492,-0.00699999975040555,0,0.03920000046491623,-0.10199999734224074,0.049999999612681666,0.05200000106461238
-0.06703764945268631,0,9.979032516479492,0.01249999925494194,0,0.03920000046491623,-0.10199999734224074,0.049999999612681666,0.05200000106461238
-0.07661445438861847,0,9.96945571899414,-0.0064999996684491634,0,0.029399998486042023,-0.031999999885518396,-0.019000000453128628,-0.01700000066872456
-0.07661445438861847,0,9.96945571899414,0.0031999999191612005,0,0.029399998486042023,-0.031999999885518396,-0.019000000453128628,-0.01700000066872456
-0.07661445438861847,0,9.96945571899414,0.002899999963119626,0,0.029399998486042023,-0.031999999885518396,-0.019000000453128628,0.05200000106461238
-0.07661445438861847,0,9.959878921508789,-0.016599999740719795,0,0.009800000116229057,-0.031999999885518396,-0.019000000453128628,0.05200000106461238
-0.06703764945268631,0,9.959878921508789,0.011799999512732029,0,0.019600000232458115,0.03699999851276524,0.049999999612681666,-0.01700000066872456
-0.07661445438861847,0,9.959878921508789,0.001999999862164259,0,0.009800000116229057,-0.031999999885518396,-0.019000000453128628,-0.01700000066872456
-0.08619125932455063,0,9.940725326538086,-0.0071000000461936,0,0,0.03699999851276524,0.049999999612681666,-0.01700000066872456
-0.07661445438861847,0,9.950302124023438,0.0026000000070780516,0,0.009800000116229057,0.03699999851276524,0.049999999612681666,-0.01700000066872456
-0.08619125932455063,0,9.940725326538086,0.011500000022351742,0,0,0.03699999851276524,0.049999999612681666,-0.01700000066872456
-0.06703764945268631,0,9.940725326538086,0.0016999999061226845,0,0,-0.031999999885518396,0.049999999612681666,0.05200000106461238
-0.07661445438861847,0,9.931148529052734,-0.007400000002235174,0,-0.00969999935477972,0.1070000026395942,-0.019000000453128628,0.05200000106461238
-0.08619125932455063,0,9.940725326538086,-0.007400000002235174,0,-0.00969999935477972,-0.031999999885518396,-0.019000000453128628,0.05200000106461238
-0.05746084079146385,0,9.940725326538086,0.020399998873472214,0,0.009800000116229057,-0.031999999885518396,-0.019000000453128628,-0.01700000066872456
-0.08619125932455063,0,9.931148529052734,-0.018699999898672104,0,0,0.03699999851276524,-0.019000000453128628,-0.01700000066872456
-0.06703764945268631,0,9.940725326538086,-0.008299999870359898,0,-0.00969999935477972,-0.031999999885518396,-0.08899999957737763,0.05200000106461238
-0.07661445438861847,0,9.959878921508789,0.0013000000035390258,0,0.009800000116229057,0.03699999851276524,-0.019000000453128628,0.05200000106461238
-0.09576806426048279,0,9.931148529052734,0.0013000000035390258,0,-0.00969999935477972,-0.10199999734224074,-0.019000000453128628,0.05200000106461238
-0.09576806426048279,0,9.931148529052734,0.0013000000035390258,0,-0.00969999935477972,-0.031999999885518396,-0.019000000453128628,-0.01700000066872456
-0.07661445438861847,0,9.940725326538086,0.0011999999405816197,0,0,0.03699999851276524,-0.019000000453128628,0.05200000106461238
-0.06703764945268631,0,9.931148529052734,0.02850000001490116,0,-0.009800000116229057,0.1070000026395942,-0.019000000453128628,0.05200000106461238
-0.08619125932455063,0,9.940725326538086,-0.010599999688565731,0,0,0.03699999851276524,-0.019000000453128628,0.05200000106461238
-0.07661445438861847,0,9.940725326538086,-0.0007999999797903001,0,0,0.17700000343136985,0.049999999612681666,-0.01700000066872456
-0.07661445438861847,0,9.950302124023438,-0.0007999999797903001,0,0.009800000116229057,-0.031999999885518396,-0.019000000453128628,-0.01700000066872456
-0.08619125932455063,0,9.979032516479492,-0.000699999975040555,0,0.03920000046491623,-0.031999999885518396,-0.019000000453128628,-0.01700000066872456
-0.08619125932455063,0,9.940725326538086,-0.02029999904334545,0,0.009800000116229057,-0.031999999885518396,0.049999999612681666,0.05200000106461238
-0.07661445438861847,0,9.959878921508789,-0.000699999975040555,0,0.009800000116229057,-0.031999999885518396,-0.019000000453128628,0.05200000106461238
-0.06703764945268631,0,9.940725326538086,0.008999999612569809,0,0,-0.031999999885518396,-0.08899999957737763,-0.01700000066872456
-0.08619125932455063,0,9.950302124023438,-0.0005999999702908099,0,0.009800000116229057,-0.031999999885518396,-0.019000000453128628,-0.01700000066872456
-0.06703764945268631,0,9.950302124023438,0.009099999442696571,0,0.009800000116229057,0.03699999851276524,-0.019000000453128628,-0.01700000066872456
-0.06703764945268631,0,9.96945571899414,0.00839999970048666,0,0.029399998486042023,0.03699999851276524,-0.019000000453128628,-0.01700000066872456
-0.07661445438861847,0,9.950302124023438,0.00839999970048666,0,0.009800000116229057,-0.031999999885518396,-0.019000000453128628,-0.01700000066872456
-0.06703764945268631,0,9.940725326538086,-0.0011999999405816197,0,0.009800000116229057,-0.031999999885518396,-0.019000000453128628,0.05200000106461238
-0.06703764945268631,0,9.950302124023438,-0.0011999999405816197,0,0.009800000116229057,-0.031999999885518396,0.049999999612681666,0.05200000106461238
-0.09576806426048279,0,9.940725326538086,-0.010199999436736107,0,0.009800000116229057,0.03699999851276524,-0.019000000453128628,-0.01700000066872456
-0.09576806426048279,0,9.96945571899414,-0.019999999552965164,0,0.019600000232458115,-0.031999999885518396,-0.019000000453128628,0.05200000106461238
-0.07661445438861847,0,9.979032516479492,0.008599999360740185,0,0.029399998486042023,-0.031999999885518396,-0.019000000453128628,0.05200000106461238
-0.07661445438861847,0,9.96945571899414,-0.0010999999940395355,0,0.029399998486042023,-0.031999999885518396,-0.019000000453128628,0.05200000106461238
-0.08619125932455063,0,9.96945571899414,-0.010199999436736107,0,0.029399998486042023,-0.031999999885518396,-0.019000000453128628,0.05200000106461238
-0.07661445438861847,0,9.96945571899414,-0.010199999436736107,0,0.03920000046491623,-0.031999999885518396,-0.019000000453128628,0.05200000106461238
-0.08619125932455063,0,9.998186111450195,-0.009499999694526196,0,0.03920000046491623,-0.10199999734224074,-0.08899999957737763,0.05200000106461238
-0.08619125932455063,0,9.998186111450195,0.00019999999494757503,0,0.05889999866485596,0.03699999851276524,-0.019000000453128628,0.05200000106461238
-0.06703764945268631,0,9.979032516479492,0.009999999776482582,0,0.03920000046491623,-0.031999999885518396,-0.019000000453128628,-0.01700000066872456
-0.08619125932455063,0,9.988609313964844,0.00009999999747378752,0,0.04899999871850014,0.03699999851276524,-0.019000000453128628,-0.01700000066872456
-0.09576806426048279,0,9.979032516479492,0.00009999999747378752,0,0.04899999871850014,0.03699999851276524,0.049999999612681666,0.05200000106461238
-0.06703764945268631,0,9.988609313964844,0.00009999999747378752,0,0.04899999871850014,-0.031999999885518396,-0.08899999957737763,-0.01700000066872456
-0.07661445438861847,0,10.017339706420898,0.00009999999747378752,0,0.06870000064373016,-0.10199999734224074,-0.019000000453128628,0.05200000106461238
-0.06703764945268631,0,9.988609313964844,0.009200000204145908,0,0.058799996972084045,0.03699999851276524,-0.019000000453128628,0.05200000106461238
-0.07661445438861847,0,9.998186111450195,0.009200000204145908,0,0.06870000064373016,0.03699999851276524,-0.019000000453128628,0.05200000106461238
-0.08619125932455063,0,10.007762908935547,-0.009599999524652958,0,0.06870000064373016,-0.031999999885518396,0.049999999612681666,-0.01700000066872456
-0.09576806426048279,0,9.998186111450195,-0.01939999870955944,0,0.05889999866485596,0.03699999851276524,0.049999999612681666,-0.01700000066872456
-0.06703764945268631,0,10.017339706420898,0.009200000204145908,0,0.07849999517202377,-0.10199999734224074,-0.019000000453128628,0.05200000106461238
-0.06703764945268631,0,10.017339706420898,-0.0004999999655410647,0,0.07849999517202377,0.1070000026395942,0.049999999612681666,-0.01700000066872456
-0.08619125932455063,0,9.998186111450195,-0.00969999935477972,0,0.05889999866485596,0.03699999851276524,0.049999999612681666,-0.01700000066872456
-0.09576806426048279,0,10.036493301391602,0,0,0.09809999912977219,-0.031999999885518396,-0.019000000453128628,0.05200000106461238
-0.09576806426048279,0,9.998186111450195,-0.018199998885393143,0,0.07849999517202377,0.03699999851276524,-0.019000000453128628,0.05200000106461238
-0.07661445438861847,0,10.017339706420898,0.0013000000035390258,0,0.06870000064373016,-0.031999999885518396,-0.019000000453128628,0.05200000106461238
-0.06703764945268631,0,10.007762908935547,0.010400000028312206,0,0.06870000064373016,0.03699999851276524,-0.019000000453128628,0.05200000106461238
-0.08619125932455063,0,10.017339706420898,-0.009200000204145908,0,0.07849999517202377,-0.031999999885518396,-0.019000000453128628,0.05200000106461238
-0.06703764945268631,0,10.007762908935547,0.009599999524652958,0,0.06870000064373016,-0.031999999885518396,-0.019000000453128628,0.05200000106461238
-0.07661445438861847,0,10.017339706420898,-0.00009999999747378752,0,0.07849999517202377,-0.031999999885518396,0.049999999612681666,0.05200000106461238
-0.08619125932455063,0,10.017339706420898,-0.00009999999747378752,0,0.06870000064373016,0.03699999851276524,-0.08899999957737763,0.05200000106461238
-0.07661445438861847,0,10.02691650390625,-0.00009999999747378752,0,0.08829999715089798,-0.031999999885518396,-0.019000000453128628,-0.01700000066872456
-0.07661445438861847,0,10.017339706420898,-0.00930000003427267,0,0.07849999517202377,-0.031999999885518396,-0.019000000453128628,0.05200000106461238
-0.07661445438861847,0,10.017339706420898,0.00039999998989515007,0,0.07849999517202377,0.03699999851276524,-0.019000000453128628,-0.01700000066872456
-0.07661445438861847,0,10.007762908935547,0.00039999998989515007,0,0.07849999517202377,-0.10199999734224074,-0.019000000453128628,0.05200000106461238
-0.09576806426048279,0,10.017339706420898,-0.017899999395012856,0,0.08829999715089798,0.1070000026395942,-0.019000000453128628,-0.01700000066872456
-0.08619125932455063,0,10.007762908935547,-0.017899999395012856,0,0.08829999715089798,0.03699999851276524,-0.019000000453128628,0.05200000106461238
-0.08619125932455063,0,10.007762908935547,-0.008100000210106373,0,0.06870000064373016,-0.031999999885518396,-0.019000000453128628,-0.01700000066872456
-0.08619125932455063,0,10.007762908935547,0.001500000013038516,0,0.06870000064373016,0.03699999851276524,-0.019000000453128628,0.05200000106461238
-0.09576806426048279,0,10.007762908935547,-0.008200000040233135,0,0.06870000064373016,-0.031999999885518396,-0.08899999957737763,0.05200000106461238
-0.07661445438861847,0,10.007762908935547,0.0013000000035390258,0,0.06870000064373016,0.03699999851276524,0.049999999612681666,0.05200000106461238
-0.07661445438861847,0,10.007762908935547,0.0013000000035390258,0,0.05889999866485596,-0.031999999885518396,-0.019000000453128628,0.05200000106461238
-0.07661445438861847,0,9.998186111450195,0.020800000056624413,0,0.05889999866485596,0.03699999851276524,0.049999999612681666,-0.01700000066872456
-0.05746084079146385,0,9.979032516479492,0.020800000056624413,0,0.05889999866485596,-0.031999999885518396,-0.019000000453128628,0.05200000106461238
-0.06703764945268631,0,9.998186111450195,0.009999999776482582,0,0,0.1070000026395942,-0.019000000453128628,0.05200000106461238
-0.08619125932455063,0,9.988609313964844,0.00930000003427267,0,0.009800000116229057,0.1070000026395942,-0.019000000453128628,0.05200000106461238
-0.06703764945268631,0,9.988609313964844,-0.00039999998989515007,0,-0.019500000402331352,0.03699999851276524,0.049999999612681666,-0.01700000066872456
-0.08619125932455063,0,9.998186111450195,0.008599999360740185,0,0,-0.031999999885518396,-0.019000000453128628,0.05200000106461238
-0.08619125932455063,0,9.988609313964844,-0.0010999999940395355,0,-0.00969999935477972,0.03699999851276524,-0.019000000453128628,0.05200000106461238
-0.08619125932455063,0,9.979032516479492,-0.010099999606609344,0,-0.019500000402331352,0.1070000026395942,0.049999999612681666,0.05200000106461238
-0.07661445438861847,0,9.979032516479492,-0.00029999998514540493,0,-0.02929999865591526,-0.10199999734224074,-0.08899999957737763,-0.01700000066872456
-0.06703764945268631,0,9.96945571899414,0.008700000122189522,0,-0.019500000402331352,-0.031999999885518396,0.049999999612681666,-0.01700000066872456
-0.08619125932455063,0,9.96945571899414,-0.010799999348819256,0,-0.02929999865591526,-0.031999999885518396,-0.019000000453128628,-0.01700000066872456
-0.08619125932455063,0,9.96945571899414,0.01730000041425228,0,-0.03909999877214432,-0.031999999885518396,-0.019000000453128628,0.05200000106461238
-0.08619125932455063,0,9.959878921508789,-0.021800000220537186,0,-0.048899997025728226,-0.10199999734224074,-0.019000000453128628,0.05200000106461238
-0.07661445438861847,0,9.959878921508789,-0.02029999904334545,0,-0.03909999877214432,-0.031999999885518396,0.049999999612681666,-0.01700000066872456
-0.07661445438861847,0,9.959878921508789,-0.000699999975040555,0,-0.03909999877214432,0.03699999851276524,-0.019000000453128628,0.05200000106461238
-0.07661445438861847,0,9.940725326538086,-0.0005999999702908099,0,-0.05869999900460243,0.03699999851276524,-0.019000000453128628,-0.01700000066872456
-0.09576806426048279,0,9.950302124023438,-0.010400000028312206,0,-0.03909999877214432,-0.031999999885518396,-0.019000000453128628,0.05200000106461238
-0.07661445438861847,0,9.950302124023438,-0.00969999935477972,0,-0.048899997025728226,0.03699999851276524,-0.019000000453128628,0.05200000106461238
-0.07661445438861847,0,9.950302124023438,0,0,-0.02929999865591526,0.03699999851276524,-0.019000000453128628,0.05200000106461238
-0.08619125932455063,0,9.950302124023438,-0.010999999940395355,0,-0.048899997025728226,-0.031999999885518396,-0.019000000453128628,0.05200000106461238
-0.07661445438861847,0,9.950302124023438,0.007899999618530273,0,-0.048899997025728226,-0.10199999734224074,-0.019000000453128628,-0.01700000066872456
-0.07661445438861847,0,9.940725326538086,0.007899999618530273,0,-0.048899997025728226,-0.10199999734224074,-0.019000000453128628,-0.01700000066872456
-0.08619125932455063,0,9.959878921508789,-0.010799999348819256,0,-0.02929999865591526,-0.10199999734224074,-0.019000000453128628,0.05200000106461238
-0.07661445438861847,0,9.959878921508789,-0.0009999999310821295,0,-0.048899997025728226,-0.031999999885518396,0.049999999612681666,0.05200000106461238
-0.07661445438861847,0,9.950302124023438,0.010199999436736107,0,-0.048899997025728226,-0.10199999734224074,-0.019000000453128628,0.05200000106461238
-0.09576806426048279,0,9.959878921508789,-0.017799999564886093,0,-0.03909999877214432,-0.10199999734224074,-0.019000000453128628,0.05200000106461238
-0.06703764945268631,0,9.96945571899414,0.011500000022351742,0,-0.02929999865591526,0.03699999851276524,0.049999999612681666,-0.01700000066872456
-0.07661445438861847,0,9.959878921508789,0.0015999999595806003,0,-0.03909999877214432,-0.031999999885518396,-0.019000000453128628,-0.01700000066872456
-0.07661445438861847,0,9.950302124023438,-0.008100000210106373,0,-0.02929999865591526,0.03699999851276524,-0.019000000453128628,0.05200000106461238
-0.08619125932455063,0,9.96945571899414,0.001500000013038516,0,-0.02929999865591526,-0.10199999734224074,-0.019000000453128628,-0.01700000066872456
-0.08619125932455063,0,9.950302124023438,-0.017999999225139618,0,-0.02929999865591526,0.03699999851276524,0.049999999612681666,-0.01700000066872456
-0.07661445438861847,0,9.96945571899414,0.00139999995008111,0,-0.02929999865591526,-0.031999999885518396,-0.019000000453128628,0.05200000106461238
-0.07661445438861847,0,9.979032516479492,0.00139999995008111,0,-0.019500000402331352,-0.031999999885518396,-0.08899999957737763,-0.01700000066872456
-0.07661445438861847,0,9.979032516479492,0.00139999995008111,0,-0.019500000402331352,-0.031999999885518396,-0.08899999957737763,-0.01700000066872456
-0.08619125932455063,0,9.959878921508789,-0.00839999970048666,0,-0.048899997025728226,-0.031999999885518396,-0.019000000453128628,0.05200000106461238
-0.05746084079146385,0,9.959878921508789,0.010400000028312206,0,-0.03909999877214432,0.03699999851276524,-0.019000000453128628,0.05200000106461238
-0.08619125932455063,0,9.959878921508789,-0.009099999442696571,0,-0.02929999865591526,0.03699999851276524,-0.019000000453128628,-0.01700000066872456
-0.08619125932455063,0,9.959878921508789,-0.02669999934732914,0,-0.03909999877214432,0.03699999851276524,0.049999999612681666,0.05200000106461238
-0.06703764945268631,0,9.96945571899414,-0.0071000000461936,0,-0.03909999877214432,-0.031999999885518396,0.049999999612681666,0.05200000106461238
-0.09576806426048279,0,9.96945571899414,-0.017099998891353607,0,-0.03909999877214432,-0.10199999734224074,-0.019000000453128628,0.05200000106461238
-0.07661445438861847,0,9.950302124023438,0.002300000051036477,0,-0.048899997025728226,-0.031999999885518396,-0.019000000453128628,0.05200000106461238
-0.07661445438861847,0,9.950302124023438,-0.01719999872148037,0,-0.05869999900460243,-0.031999999885518396,-0.019000000453128628,-0.01700000066872456
-0.07661445438861847,0,9.931148529052734,0.011299999430775642,0,-0.048899997025728226,-0.031999999885518396,-0.08899999957737763,-0.01700000066872456
-0.07661445438861847,0,9.950302124023438,-0.007599999662488699,0,-0.03909999877214432,0.03699999851276524,-0.019000000453128628,0.05200000106461238
-0.07661445438861847,0,9.940725326538086,0.011899999342858791,0,-0.05869999900460243,0.03699999851276524,-0.019000000453128628,-0.01700000066872456
-0.09576806426048279,0,9.931148529052734,0.0018999999156221747,0,-0.05869999900460243,0.03699999851276524,0.049999999612681666,0.05200000106461238
-0.08619125932455063,0,9.911994934082031,-0.007799999788403511,0,-0.08810000121593475,0.03699999851276524,-0.019000000453128628,-0.01700000066872456
-0.08619125932455063,0,9.950302124023438,-0.007199999876320362,0,-0.048899997025728226,0.03699999851276524,-0.019000000453128628,-0.01700000066872456
-0.08619125932455063,0,9.921571731567383,-0.007799999788403511,0,0,-0.031999999885518396,-0.019000000453128628,0.05200000106461238
-0.07661445438861847,0,9.921571731567383,0.0017999999690800905,0,0,-0.031999999885518396,-0.019000000453128628,0.05200000106461238
-0.08619125932455063,0,9.931148529052734,-0.007899999618530273,0,0.00969999935477972,-0.031999999885518396,0.049999999612681666,0.05200000106461238
-0.08619125932455063,0,9.921571731567383,0.0016999999061226845,0,-0.009800000116229057,-0.031999999885518396,-0.019000000453128628,0.05200000106461238
-0.06703764945268631,0,9.921571731567383,0.0016999999061226845,0,-0.009800000116229057,-0.031999999885518396,-0.019000000453128628,-0.01700000066872456
-0.08619125932455063,0,9.931148529052734,-0.016599999740719795,0,0.00969999935477972,-0.031999999885518396,-0.019000000453128628,0.05200000106461238
-0.07661445438861847,0,9.931148529052734,0.002899999963119626,0,0.02929999865591526,-0.031999999885518396,-0.019000000453128628,-0.01700000066872456
-0.06703764945268631,0,9.931148529052734,0.011799999512732029,0,0.00969999935477972,0.03699999851276524,-0.019000000453128628,-0.01700000066872456
-0.07661445438861847,0,9.940725326538086,0.001999999862164259,0,0.019500000402331352,0.03699999851276524,-0.019000000453128628,0.05200000106461238
-0.08619125932455063,0,9.940725326538086,-0.007199999876320362,0,0.019500000402331352,0.03699999851276524,-0.019000000453128628,0.05200000106461238
-0.08619125932455063,0,9.940725326538086,-0.007199999876320362,0,0.019500000402331352,0.03699999851276524,-0.019000000453128628,-0.01700000066872456
-0.07661445438861847,0,9.940725326538086,0.0023999998811632395,0,0.019500000402331352,0.03699999851276524,-0.019000000453128628,-0.01700000066872456
-0.07661445438861847,0,9.940725326538086,0.0023999998811632395,0,0,-0.031999999885518396,-0.019000000453128628,0.05200000106461238
-0.07661445438861847,0,9.950302124023438,0.002199999988079071,0,0.019500000402331352,0.03699999851276524,-0.019000000453128628,0.05200000106461238
-0.07661445438861847,0,9.950302124023438,0.002199999988079071,0,0.03909999877214432,-0.031999999885518396,-0.019000000453128628,-0.01700000066872456
-0.09576806426048279,0,9.921571731567383,-0.00699999975040555,0,0,-0.031999999885518396,-0.019000000453128628,-0.01700000066872456
-0.07661445438861847,0,9.940725326538086,-0.00699999975040555,0,0.019500000402331352,-0.10199999734224074,-0.019000000453128628,0.05200000106461238
-0.07661445438861847,0,9.940725326538086,-0.015599999576807022,0,0.00969999935477972,0.03699999851276524,-0.019000000453128628,0.05200000106461238
-0.06703764945268631,0,9.950302124023438,0.0038999998942017555,0,0.02929999865591526,-0.031999999885518396,-0.019000000453128628,0.05200000106461238
-0.07661445438861847,0,9.959878921508789,0.01269999984651804,0,0.03909999877214432,0.03699999851276524,-0.08899999957737763,0.05200000106461238
-0.07661445438861847,0,9.959878921508789,0.002899999963119626,0,0.03909999877214432,0.03699999851276524,0.049999999612681666,0.05200000106461238
-0.09576806426048279,0,9.950302124023438,0.002699999837204814,0,0.03909999877214432,0.03699999851276524,-0.019000000453128628,0.05200000106461238
-0.06703764945268631,0,9.959878921508789,0.011599999852478504,0,0.03909999877214432,-0.031999999885518396,-0.019000000453128628,-0.01700000066872456
-0.08619125932455063,0,9.950302124023438,-0.01769999973475933,0,0.02929999865591526,-0.031999999885518396,-0.019000000453128628,0.05200000106461238
-0.08619125932455063,0,9.979032516479492,0.0016999999061226845,0,0.03909999877214432,0.03699999851276524,-0.019000000453128628,0.05200000106461238
-0.07661445438861847,0,9.96945571899414,-0.017899999395012856,0,0.03909999877214432,-0.031999999885518396,-0.08899999957737763,0.05200000106461238
-0.07661445438861847,0,9.959878921508789,0.001500000013038516,0,0.03909999877214432,-0.031999999885518396,-0.08899999957737763,0.05200000106461238
-0.09576806426048279,0,9.988609313964844,0.001500000013038516,0,0.06849999725818634,-0.031999999885518396,-0.019000000453128628,-0.01700000066872456
-0.07661445438861847,0,9.979032516479492,0.00139999995008111,0,0.05869999900460243,-0.031999999885518396,-0.019000000453128628,0.05200000106461238
-0.07661445438861847,0,9.979032516479492,0.00139999995008111,0,0.06849999725818634,0.03699999851276524,0.049999999612681666,0.05200000106461238
-0.07661445438861847,0,9.96945571899414,0.0013000000035390258,0,0.048899997025728226,-0.031999999885518396,-0.08899999957737763,-0.01700000066872456
-0.08619125932455063,0,9.96945571899414,-0.008499999530613422,0,0.05869999900460243,0.03699999851276524,0.049999999612681666,-0.01700000066872456
-0.08619125932455063,0,9.96945571899414,-0.007899999618530273,0,0.048899997025728226,0.03699999851276524,-0.019000000453128628,0.05200000106461238
-0.06703764945268631,0,9.979032516479492,0.0017999999690800905,0,0.05869999900460243,0.03699999851276524,-0.019000000453128628,0.05200000106461238
-0.07661445438861847,0,9.96945571899414,0.0016999999061226845,0,0.05869999900460243,0.03699999851276524,0.049999999612681666,0.05200000106461238
-0.07661445438861847,0,9.988609313964844,0.0016999999061226845,0,0.07829999923706055,-0.031999999885518396,-0.019000000453128628,0.05200000106461238
-0.08619125932455063,0,9.959878921508789,-0.007499999832361937,0,0.048899997025728226,0.03699999851276524,-0.019000000453128628,0.05200000106461238
-0.07661445438861847,0,9.988609313964844,0.002199999988079071,0,0.06849999725818634,-0.10199999734224074,-0.019000000453128628,-0.01700000066872456
-0.07661445438861847,0,9.998186111450195,0.001999999862164259,0,0.05869999900460243,-0.031999999885518396,0.049999999612681666,0.05200000106461238
-0.08619125932455063,0,9.988609313964844,0.001999999862164259,0,0.06849999725818634,0.03699999851276524,-0.019000000453128628,-0.01700000066872456
-0.07661445438861847,0,9.988609313964844,0.0017999999690800905,0,0.05869999900460243,-0.10199999734224074,-0.019000000453128628,0.05200000106461238
-0.07661445438861847,0,10.007762908935547,-0.007899999618530273,0,0.08810000121593475,-0.1719999981340164,0.049999999612681666,0.05200000106461238
-0.06703764945268631,0,9.979032516479492,0.010799999348819256,0,0.07829999923706055,-0.031999999885518396,0.049999999612681666,-0.01700000066872456
-0.08619125932455063,0,9.979032516479492,0.0009999999310821295,0,0.07829999923706055,0.03699999851276524,0.049999999612681666,0.05200000106461238
-0.08619125932455063,0,9.988609313964844,-0.008100000210106373,0,0.06849999725818634,0.03699999851276524,0.049999999612681666,0.05200000106461238
-0.08619125932455063,0,9.979032516479492,0.0015999999595806003,0,0.06849999725818634,0.03699999851276524,-0.019000000453128628,0.05200000106461238
-0.07661445438861847,0,9.998186111450195,-0.007599999662488699,0,0.05869999900460243,-0.031999999885518396,-0.019000000453128628,0.05200000106461238
-0.07661445438861847,0,9.998186111450195,0.011899999342858791,0,0.07829999923706055,0.04200000047506539,-0.012000000373951061,-0.043999998591942806
-0.08619125932455063,0,9.988609313964844,0.012299999594688416,0,0,-0.0269999995907449,0.057000003026912535,0.024999999806340833
-0.05746084079146385,0,9.988609313964844,0.020600000396370888,0,-0.00969999935477972,-0.0269999995907449,-0.012000000373951061,0.024999999806340833
-0.07661445438861847,0,9.979032516479492,0.010799999348819256,0,-0.00969999935477972,0.04200000047506539,0.057000003026912535,0.024999999806340833
-0.07661445438861847,0,9.998186111450195,0.0008999999845400453,0,0,-0.0269999995907449,-0.08200000283325337,-0.043999998591942806
-0.09576806426048279,0,9.988609313964844,-0.008799999952316284,0,-0.00969999935477972,0.04200000047506539,-0.012000000373951061,0.024999999806340833
-0.07661445438861847,0,9.979032516479492,-0.008200000040233135,0,-0.019500000402331352,0.04200000047506539,-0.012000000373951061,-0.043999998591942806
-0.08619125932455063,0,9.998186111450195,-0.008200000040233135,0,0,-0.0269999995907449,-0.012000000373951061,0.024999999806340833
-0.08619125932455063,0,9.998186111450195,-0.01679999940097332,0,0.019600000232458115,0.04200000047506539,-0.012000000373951061,-0.043999998591942806
-0.07661445438861847,0,9.988609313964844,-0.00699999975040555,0,-0.00969999935477972,0.11200000126684104,0.057000003026912535,-0.043999998591942806
-0.08619125932455063,0,10.007762908935547,0.011699999682605267,0,0,-0.0269999995907449,0.057000003026912535,0.024999999806340833
-0.06703764945268631,0,9.988609313964844,0.0018999999156221747,0,-0.00969999935477972,0.04200000047506539,-0.012000000373951061,-0.043999998591942806
-0.07661445438861847,0,9.979032516479492,-0.01640000008046627,0,-0.019500000402331352,0.04200000047506539,0.057000003026912535,-0.043999998591942806
-0.08619125932455063,0,9.96945571899414,-0.01640000008046627,0,-0.019500000402331352,-0.0269999995907449,-0.012000000373951061,-0.043999998591942806
-0.05746084079146385,0,9.988609313964844,-0.006099999882280827,0,0,0.04200000047506539,-0.012000000373951061,0.024999999806340833
-0.07661445438861847,0,9.979032516479492,-0.006099999882280827,0,-0.00969999935477972,-0.0269999995907449,-0.012000000373951061,-0.043999998591942806
-0.08619125932455063,0,9.96945571899414,-0.005699999630451202,0,-0.03909999877214432,-0.0269999995907449,-0.012000000373951061,-0.043999998591942806
-0.07661445438861847,0,9.96945571899414,0.003999999724328518,0,-0.03909999877214432,-0.0269999995907449,-0.012000000373951061,0.024999999806340833
-0.07661445438861847,0,9.96945571899414,-0.0052999998442828655,0,-0.02929999865591526,-0.0269999995907449,0.057000003026912535,0.024999999806340833
-0.08619125932455063,0,9.950302124023438,-0.0052999998442828655,0,-0.048899997025728226,0.04200000047506539,-0.012000000373951061,-0.043999998591942806
-0.07661445438861847,0,9.959878921508789,0.004100000020116568,0,-0.03909999877214432,-0.0269999995907449,-0.012000000373951061,0.024999999806340833
-0.07661445438861847,0,9.959878921508789,0.004100000020116568,0,-0.02929999865591526,0.04200000047506539,-0.012000000373951061,-0.043999998591942806
-0.08619125932455063,0,9.959878921508789,0.012999999336898327,0,-0.048899997025728226,-0.0269999995907449,-0.012000000373951061,0.024999999806340833
-0.08619125932455063,0,9.959878921508789,-0.0064999996684491634,0,-0.048899997025728226,0.04200000047506539,-0.012000000373951061,0.024999999806340833
-0.08619125932455063,0,9.940725326538086,-0.006000000052154064,0,-0.06849999725818634,-0.0269999995907449,-0.012000000373951061,0.024999999806340833
-0.07661445438861847,0,9.931148529052734,0.003499999875202775,0,-0.05869999900460243,-0.0269999995907449,-0.012000000373951061,0.024999999806340833
-0.07661445438861847,0,9.940725326538086,0.003499999875202775,0,-0.06849999725818634,-0.0269999995907449,0.057000003026912535,-0.043999998591942806
-0.07661445438861847,0,9.940725326538086,0.0031999999191612005,0,-0.05869999900460243,0.04200000047506539,-0.012000000373951061,0.024999999806340833
-0.07661445438861847,0,9.940725326538086,0.0031999999191612005,0,-0.06849999725818634,-0.0969999987149939,-0.012000000373951061,0.024999999806340833
-0.07661445438861847,0,9.940725326538086,0.003000000026077032,0,-0.05869999900460243,0.04200000047506539,-0.08200000283325337,0.024999999806340833
-0.06703764945268631,0,9.940725326538086,-0.0066999997943639755,0,-0.05869999900460243,-0.0269999995907449,0.057000003026912535,-0.043999998591942806
-0.08619125932455063,0,9.940725326538086,-0.006199999712407589,0,-0.06849999725818634,-0.0269999995907449,-0.012000000373951061,0.024999999806340833
-0.07661445438861847,0,9.921571731567383,-0.006199999712407589,0,-0.06849999725818634,0.04200000047506539,0.057000003026912535,0.024999999806340833
-0.08619125932455063,0,9.940725326538086,-0.005699999630451202,0,-0.048899997025728226,-0.0269999995907449,-0.08200000283325337,-0.043999998591942806
-0.08619125932455063,0,9.940725326538086,0.003999999724328518,0,-0.05869999900460243,0.04200000047506539,0.057000003026912535,-0.043999998591942806
-0.08619125932455063,0,9.959878921508789,-0.0052999998442828655,0,-0.02929999865591526,-0.0269999995907449,0.057000003026912535,0.024999999806340833
-0.08619125932455063,0,9.950302124023438,-0.0052999998442828655,0,-0.05869999900460243,0.04200000047506539,-0.012000000373951061,0.024999999806340833
-0.07661445438861847,0,9.940725326538086,0.004100000020116568,0,-0.05869999900460243,-0.0269999995907449,-0.012000000373951061,0.024999999806340833
-0.07661445438861847,0,9.940725326538086,0.004100000020116568,0,-0.03909999877214432,0.04200000047506539,-0.012000000373951061,-0.043999998591942806
-0.06703764945268631,0,9.950302124023438,0.0038999998942017555,0,-0.048899997025728226,-0.0269999995907449,-0.012000000373951061,-0.043999998591942806
-0.07661445438861847,0,9.950302124023438,-0.005799999926239252,0,-0.048899997025728226,-0.0269999995907449,-0.012000000373951061,0.024999999806340833
-0.07661445438861847,0,9.959878921508789,0.003599999938160181,0,-0.048899997025728226,0.04200000047506539,-0.08200000283325337,0.024999999806340833
-0.07661445438861847,0,9.950302124023438,0.003599999938160181,0,-0.048899997025728226,-0.0269999995907449,-0.012000000373951061,0.024999999806340833
-0.05746084079146385,0,9.959878921508789,0.01249999925494194,0,-0.03909999877214432,0.04200000047506539,-0.012000000373951061,0.024999999806340833
-0.07661445438861847,0,9.959878921508789,0.01249999925494194,0,-0.03909999877214432,-0.0269999995907449,0.057000003026912535,-0.043999998591942806
-0.08619125932455063,0,9.959878921508789,0.0024999999441206455,0,-0.048899997025728226,0.04200000047506539,-0.012000000373951061,-0.043999998591942806
-0.08619125932455063,0,9.959878921508789,0.0024999999441206455,0,-0.019500000402331352,-0.0269999995907449,0.057000003026912535,0.09500000059811649
-0.07661445438861847,0,9.959878921508789,-0.0066999997943639755,0,-0.019500000402331352,-0.0969999987149939,-0.012000000373951061,0.024999999806340833
-0.07661445438861847,0,9.96945571899414,0.003000000026077032,0,-0.03909999877214432,0.04200000047506539,0.057000003026912535,-0.043999998591942806
-0.09576806426048279,0,9.96945571899414,-0.007199999876320362,0,0,-0.0969999987149939,-0.012000000373951061,0.024999999806340833
-0.08619125932455063,0,9.950302124023438,-0.007199999876320362,0,0,-0.0269999995907449,-0.012000000373951061,-0.043999998591942806
-0.05746084079146385,0,9.959878921508789,0.022599998861551285,0,0.00969999935477972,-0.0269999995907449,-0.012000000373951061,-0.043999998591942806
-0.06703764945268631,0,9.979032516479492,-0.006300000008195639,0,0.02929999865591526,-0.0269999995907449,-0.012000000373951061,-0.043999998591942806
-0.08619125932455063,0,9.959878921508789,-0.016099998727440834,0,0.00969999935477972,-0.0269999995907449,-0.012000000373951061,0.024999999806340833
-0.06703764945268631,0,9.959878921508789,0.012299999594688416,0,0,0.04200000047506539,0.057000003026912535,0.024999999806340833
-0.07661445438861847,0,9.959878921508789,0.012299999594688416,0,0,0.04200000047506539,0.057000003026912535,0.024999999806340833
-0.08619125932455063,0,9.950302124023438,-0.0066999997943639755,0,0,0.04200000047506539,-0.012000000373951061,-0.043999998591942806
-0.07661445438861847,0,9.959878921508789,-0.016499999910593033,0,0,0.04200000047506539,0.057000003026912535,-0.043999998591942806
-0.07661445438861847,0,9.950302124023438,0.00279999990016222,0,-0.009800000116229057,-0.0969999987149939,-0.012000000373951061,0.024999999806340833
-0.08619125932455063,0,9.950302124023438,-0.006899999920278788,0,0,0.04200000047506539,-0.012000000373951061,-0.043999998591942806
-0.07661445438861847,0,9.950302124023438,0.0026000000070780516,0,0,-0.0269999995907449,-0.012000000373951061,0.024999999806340833
-0.08619125932455063,0,9.950302124023438,0.0026000000070780516,0,0.00969999935477972,-0.0269999995907449,-0.012000000373951061,-0.043999998591942806
-0.08619125932455063,0,9.931148529052734,-0.015699999406933784,0,-0.019600000232458115,-0.0269999995907449,-0.012000000373951061,0.024999999806340833
-0.07661445438861847,0,9.950302124023438,0.0037999998312443495,0,0.00969999935477972,-0.0269999995907449,-0.012000000373951061,-0.043999998591942806
-0.07661445438861847,0,9.931148529052734,0.003599999938160181,0,-0.019600000232458115,0.04200000047506539,-0.012000000373951061,0.024999999806340833
-0.07661445438861847,0,9.950302124023438,0.003599999938160181,0,-0.009800000116229057,-0.0269999995907449,0.057000003026912535,0.024999999806340833
-0.07661445438861847,0,9.940725326538086,0.0032999999821186066,0,-0.009800000116229057,-0.0269999995907449,-0.012000000373951061,-0.043999998591942806
-0.07661445438861847,0,9.921571731567383,0.0032999999821186066,0,-0.03920000046491623,0.04200000047506539,0.057000003026912535,0.09500000059811649
-0.06703764945268631,0,9.921571731567383,0.012899999506771564,0,-0.029399998486042023,0.04200000047506539,0.057000003026912535,0.024999999806340833
-0.06703764945268631,0,9.931148529052734,0.012000000104308128,0,-0.019600000232458115,-0.0269999995907449,-0.08200000283325337,0.024999999806340833
-0.07661445438861847,0,9.931148529052734,0.002199999988079071,0,-0.009800000116229057,-0.0269999995907449,-0.012000000373951061,0.024999999806340833
-0.06703764945268631,0,9.931148529052734,0.002099999925121665,0,-0.019600000232458115,0.04200000047506539,-0.012000000373951061,-0.043999998591942806
-0.07661445438861847,0,9.931148529052734,0.0018999999156221747,0,-0.019600000232458115,0.04200000047506539,-0.012000000373951061,-0.043999998591942806
-0.08619125932455063,0,9.940725326538086,-0.007799999788403511,0,-0.009800000116229057,-0.0969999987149939,-0.012000000373951061,-0.043999998591942806
-0.08619125932455063,0,9.931148529052734,-0.007199999876320362,0,-0.019600000232458115,0.04200000047506539,0.057000003026912535,-0.043999998591942806
-0.09576806426048279,0,9.950302124023438,0.0024999999441206455,0,-0.019600000232458115,-0.0269999995907449,-0.012000000373951061,0.024999999806340833
-0.08619125932455063,0,9.940725326538086,-0.0066999997943639755,0,-0.009800000116229057,-0.0269999995907449,-0.012000000373951061,0.024999999806340833
-0.07661445438861847,0,9.921571731567383,0.003000000026077032,0,-0.029399998486042023,-0.0269999995907449,-0.08200000283325337,0.024999999806340833
-0.08619125932455063,0,9.931148529052734,0.003499999875202775,0,-0.029399998486042023,0.04200000047506539,-0.012000000373951061,-0.043999998591942806
-0.08619125932455063,0,9.931148529052734,0.003499999875202775,0,-0.029399998486042023,-0.0269999995907449,-0.012000000373951061,0.024999999806340833
-0.06703764945268631,0,9.931148529052734,0.012399999424815178,0,-0.019600000232458115,0.04200000047506539,-0.012000000373951061,-0.043999998591942806
-0.07661445438861847,0,9.940725326538086,0.012399999424815178,0,-0.019600000232458115,-0.0969999987149939,-0.012000000373951061,0.024999999806340833
-0.06703764945268631,0,9.90241813659668,0.0023999998811632395,0,-0.029399998486042023,-0.0969999987149939,-0.012000000373951061,0.024999999806340833
-0.06703764945268631,0,9.911994934082031,0.0023999998811632395,0,-0.03920000046491623,0.04200000047506539,-0.012000000373951061,-0.043999998591942806
-0.08619125932455063,0,9.911994934082031,-0.006799999624490738,0,-0.029399998486042023,0.04200000047506539,-0.012000000373951061,0.024999999806340833
-0.07661445438861847,0,9.931148529052734,0.002899999963119626,0,-0.019600000232458115,0.04200000047506539,-0.012000000373951061,0.024999999806340833
-0.06703764945268631,0,9.911994934082031,0.011799999512732029,0,-0.03920000046491623,-0.0269999995907449,-0.012000000373951061,0.024999999806340833
-0.08619125932455063,0,9.911994934082031,-0.007699999958276749,0,-0.03920000046491623,0.04200000047506539,0.057000003026912535,0.024999999806340833
-0.07661445438861847,0,9.90241813659668,0.0018999999156221747,0,-0.03920000046491623,-0.0269999995907449,-0.012000000373951061,0.024999999806340833
-0.06703764945268631,0,9.921571731567383,0.011699999682605267,0,-0.029399998486042023,0.04200000047506539,-0.012000000373951061,0.024999999806340833
-0.08619125932455063,0,9.921571731567383,-0.007199999876320362,0,-0.019600000232458115,-0.0269999995907449,-0.012000000373951061,0.024999999806340833
-0.07661445438861847,0,9.931148529052734,0.0024999999441206455,0,-0.019600000232458115,-0.0269999995907449,-0.012000000373951061,0.024999999806340833
-0.07661445438861847,0,9.921571731567383,0.011399999260902405,0,-0.029399998486042023,0.04200000047506539,0.057000003026912535,0.024999999806340833
-0.08619125932455063,0,9.931148529052734,-0.008100000210106373,0,-0.029399998486042023,0.04200000047506539,-0.012000000373951061,0.024999999806340833
-0.07661445438861847,0,9.911994934082031,-0.007499999832361937,0,-0.019600000232458115,0.04200000047506539,0.057000003026912535,-0.043999998591942806
-0.08619125932455063,0,9.931148529052734,0.012000000104308128,0,-0.029399998486042023,-0.0969999987149939,0.057000003026912535,0.024999999806340833
-0.06703764945268631,0,9.931148529052734,-0.00699999975040555,0,-0.029399998486042023,-0.0269999995907449,-0.012000000373951061,0.024999999806340833
-0.07661445438861847,0,9.940725326538086,0.0024999999441206455,0,0,0.04200000047506539,0.057000003026912535,0.024999999806340833
-0.06703764945268631,0,9.959878921508789,0.012299999594688416,0,0,-0.0269999995907449,-0.012000000373951061,0.024999999806340833
-0.07661445438861847,0,9.950302124023438,0.002300000051036477,0,0.009800000116229057,0.11200000126684104,-0.012000000373951061,-0.043999998591942806
-0.06703764945268631,0,9.959878921508789,0.002300000051036477,0,0.019600000232458115,-0.0269999995907449,-0.012000000373951061,-0.043999998591942806
-0.08619125932455063,0,9.950302124023438,-0.006899999920278788,0,-0.00969999935477972,0.04200000047506539,0.057000003026912535,0.024999999806340833
-0.08619125932455063,0,9.950302124023438,-0.006899999920278788,0,0.019600000232458115,-0.0269999995907449,-0.012000000373951061,0.024999999806340833
-0.07661445438861847,0,9.959878921508789,-0.01549999974668026,0,0.019600000232458115,0.04200000047506539,-0.012000000373951061,-0.043999998591942806
-0.06703764945268631,0,9.959878921508789,0.003999999724328518,0,0.019600000232458115,-0.0269999995907449,-0.012000000373951061,-0.043999998591942806
-0.07661445438861847,0,9.959878921508789,-0.0052999998442828655,0,0.019600000232458115,-0.0269999995907449,-0.012000000373951061,0.024999999806340833
-0.08619125932455063,0,9.950302124023438,-0.0052999998442828655,0,0,0.04200000047506539,-0.012000000373951061,0.024999999806340833
-0.08619125932455063,0,9.959878921508789,-0.004999999888241291,0,0.019600000232458115,-0.0969999987149939,-0.012000000373951061,0.024999999806340833
-0.08619125932455063,0,9.96945571899414,-0.004999999888241291,0,0.029399998486042023,0.04200000047506539,-0.012000000373951061,-0.043999998591942806
-0.07661445438861847,0,9.96945571899414,0.004399999976158142,0,0.029399998486042023,-0.0269999995907449,0.057000003026912535,0.024999999806340833
-0.07661445438861847,0,9.96945571899414,0.004399999976158142,0,0.019600000232458115,-0.0269999995907449,-0.012000000373951061,0.024999999806340833
-0.08619125932455063,0,9.959878921508789,0.013199999928474426,0,0.019600000232458115,0.04200000047506539,0.057000003026912535,0.024999999806340833
-0.07661445438861847,0,9.988609313964844,-0.006300000008195639,0,0.04899999871850014,0.04200000047506539,-0.012000000373951061,-0.043999998591942806
-0.07661445438861847,0,9.959878921508789,0.0030999998562037945,0,0.019600000232458115,0.04200000047506539,-0.08200000283325337,0.024999999806340833
-0.08619125932455063,0,9.96945571899414,-0.006599999964237213,0,0.029399998486042023,-0.0269999995907449,-0.08200000283325337,0.024999999806340833
-0.08619125932455063,0,9.96945571899414,0.002899999963119626,0,0.019600000232458115,-0.0269999995907449,-0.08200000283325337,0.024999999806340833
-0.07661445438861847,0,9.940725326538086,0.002899999963119626,0,0.009800000116229057,-0.0269999995907449,0.057000003026912535,0.024999999806340833
-0.08619125932455063,0,9.950302124023438,0.002699999837204814,0,0.019600000232458115,-0.0269999995907449,-0.012000000373951061,0.024999999806340833
-0.08619125932455063,0,9.979032516479492,0.002699999837204814,0,0.009800000116229057,-0.0269999995907449,-0.012000000373951061,0.024999999806340833
-0.07661445438861847,0,9.959878921508789,-0.0064999996684491634,0,0.03920000046491623,-0.0269999995907449,-0.012000000373951061,-0.043999998591942806
-0.08619125932455063,0,9.950302124023438,-0.006099999882280827,0,0.009800000116229057,0.04200000047506539,-0.012000000373951061,-0.043999998591942806
-0.07661445438861847,0,9.931148529052734,0.003599999938160181,0,-0.00969999935477972,-0.0269999995907449,-0.012000000373951061,0.024999999806340833
-0.08619125932455063,0,9.950302124023438,-0.005699999630451202,0,-0.00969999935477972,0.04200000047506539,-0.012000000373951061,0.024999999806340833
-0.08619125932455063,0,9.931148529052734,0.013799999840557575,0,0,-0.0269999995907449,-0.012000000373951061,0.024999999806340833
-0.09576806426048279,0,9.931148529052734,-0.0052999998442828655,0,-0.00969999935477972,0.11200000126684104,-0.012000000373951061,-0.043999998591942806
-0.07661445438861847,0,9.940725326538086,0.004399999976158142,0,0.019600000232458115,-0.0269999995907449,-0.012000000373951061,0.024999999806340833
-0.07661445438861847,0,9.950302124023438,0.004100000020116568,0,0.009800000116229057,0.11200000126684104,-0.08200000283325337,0.024999999806340833
-0.07661445438861847,0,9.931148529052734,0.004100000020116568,0,0,-0.0269999995907449,0.057000003026912535,0.024999999806340833
-0.06703764945268631,0,9.940725326538086,0.012999999336898327,0,0,0.04200000047506539,-0.012000000373951061,0.024999999806340833
-0.08619125932455063,0,9.950302124023438,0.0031999999191612005,0,0.019600000232458115,-0.0269999995907449,-0.012000000373951061,-0.043999998591942806
-0.07661445438861847,0,9.940725326538086,0.002899999963119626,0,0.009800000116229057,-0.0269999995907449,-0.012000000373951061,-0.043999998591942806
-0.08619125932455063,0,9.931148529052734,-0.006799999624490738,0,0,-0.0269999995907449,0.057000003026912535,-0.043999998591942806
-0.07661445438861847,0,9.940725326538086,-0.006300000008195639,0,0,-0.0269999995907449,0.057000003026912535,0.024999999806340833
-0.08619125932455063,0,9.931148529052734,-0.006300000008195639,0,0,0.04200000047506539,-0.012000000373951061,0.024999999806340833
-0.07661445438861847,0,9.940725326538086,-0.0058999997563660145,0,0,-0.0269999995907449,0.057000003026912535,0.024999999806340833
-0.09576806426048279,0,9.940725326538086,-0.0058999997563660145,0,0.009800000116229057,-0.0269999995907449,-0.012000000373951061,0.024999999806340833
-0.06703764945268631,0,9.931148529052734,0.01269999984651804,0,0,0.04200000047506539,-0.012000000373951061,-0.043999998591942806
-0.07661445438861847,0,9.921571731567383,0.002899999963119626,0,0,0.11200000126684104,0.057000003026912535,0.024999999806340833
-0.08619125932455063,0,9.911994934082031,-0.006300000008195639,0,-0.02929999865591526,0.04200000047506539,-0.012000000373951061,-0.043999998591942806
-0.08619125932455063,0,9.921571731567383,0.003399999812245369,0,-0.02929999865591526,-0.0269999995907449,0.057000003026912535,0.024999999806340833
-0.08619125932455063,0,9.911994934082031,-0.0058999997563660145,0,-0.02929999865591526,-0.0269999995907449,-0.012000000373951061,0.024999999806340833
-0.08619125932455063,0,9.940725326538086,-0.0058999997563660145,0,-0.02929999865591526,-0.0269999995907449,-0.012000000373951061,0.024999999806340833
-0.06703764945268631,0,9.931148529052734,0.013399999588727951,0,-0.019500000402331352,-0.0269999995907449,-0.012000000373951061,-0.043999998591942806
-0.07661445438861847,0,9.921571731567383,0.0032999999821186066,0,-0.02929999865591526,-0.0269999995907449,-0.012000000373951061,-0.043999998591942806
-0.07661445438861847,0,9.921571731567383,0.0032999999821186066,0,-0.02929999865591526,-0.0269999995907449,-0.012000000373951061,0.024999999806340833
-0.07661445438861847,0,9.931148529052734,-0.015199999324977398,0,0.00969999935477972,0.11200000126684104,-0.012000000373951061,-0.043999998591942806
-0.07661445438861847,0,9.931148529052734,-0.005399999674409628,0,0,-0.0269999995907449,-0.08200000283325337,-0.043999998591942806
-0.07661445438861847,0,9.921571731567383,0.003999999724328518,0,0.00969999935477972,0.11200000126684104,0.057000003026912535,-0.043999998591942806
-0.09576806426048279,0,9.911994934082031,0.013799999840557575,0,-0.009800000116229057,-0.0269999995907449,-0.012000000373951061,0.024999999806340833
-0.07661445438861847,0,9.940725326538086,-0.014399999752640724,0,0.019500000402331352,0.04200000047506539,0.057000003026912535,-0.043999998591942806
-0.07661445438861847,0,9.950302124023438,-0.004600000102072954,0,0.02929999865591526,-0.0969999987149939,-0.012000000373951061,0.024999999806340833
-0.06703764945268631,0,9.931148529052734,0.013799999840557575,0,0.00969999935477972,0.04200000047506539,0.057000003026912535,-0.043999998591942806
-0.08619125932455063,0,9.921571731567383,-0.005699999630451202,0,0.00969999935477972,-0.0969999987149939,-0.012000000373951061,0.024999999806340833
-0.07661445438861847,0,9.931148529052734,0.0037999998312443495,0,0.00969999935477972,0.04200000047506539,-0.012000000373951061,-0.043999998591942806
-0.08619125932455063,0,9.940725326538086,-0.0058999997563660145,0,0.019500000402331352,-0.0269999995907449,-0.012000000373951061,0.024999999806340833
-0.08619125932455063,0,9.940725326538086,-0.00559999980032444,0,0.02929999865591526,-0.0269999995907449,-0.08200000283325337,0.024999999806340833
-0.09576806426048279,0,9.950302124023438,-0.00559999980032444,0,0.02929999865591526,0.04200000047506539,-0.012000000373951061,-0.043999998591942806
-0.07661445438861847,0,9.940725326538086,-0.005200000014156103,0,0.02929999865591526,0.04200000047506539,-0.012000000373951061,0.024999999806340833
-0.08619125932455063,0,9.950302124023438,0.0044999998062849045,0,0.02929999865591526,0.04200000047506539,-0.012000000373951061,-0.043999998591942806
-0.06703764945268631,0,9.950302124023438,0.022499999031424522,0,0.019500000402331352,0.04200000047506539,-0.012000000373951061,0.024999999806340833
-0.08619125932455063,0,9.950302124023438,-0.006899999920278788,0,0.02929999865591526,-0.0269999995907449,-0.012000000373951061,0.024999999806340833
-0.07661445438861847,0,9.959878921508789,0.0026000000070780516,0,0.03909999877214432,0.04200000047506539,0.057000003026912535,0.024999999806340833
-0.08619125932455063,0,9.950302124023438,-0.0071000000461936,0,0.03909999877214432,-0.0269999995907449,-0.012000000373951061,-0.043999998591942806
-0.09576806426048279,0,9.96945571899414,-0.006599999964237213,0,0.048899997025728226,-0.0269999995907449,-0.012000000373951061,0.024999999806340833
-0.08619125932455063,0,9.959878921508789,-0.01640000008046627,0,0.03909999877214432,-0.0269999995907449,0.057000003026912535,0.024999999806340833
-0.07661445438861847,0,9.959878921508789,0.012000000104308128,0,0.02929999865591526,-0.0269999995907449,-0.08200000283325337,-0.043999998591942806
-0.07661445438861847,0,9.979032516479492,0.002199999988079071,0,0.048899997025728226,-0.0269999995907449,-0.012000000373951061,0.024999999806340833
-0.06703764945268631,0,9.950302124023438,0.001999999862164259,0,0.048899997025728226,-0.0269999995907449,-0.012000000373951061,-0.043999998591942806
-0.07661445438861847,0,9.950302124023438,0.011799999512732029,0,0.02929999865591526,0.04200000047506539,-0.012000000373951061,-0.043999998591942806
-0.09576806426048279,0,9.959878921508789,-0.007899999618530273,0,0.048899997025728226,-0.0269999995907449,-0.08200000283325337,0.024999999806340833
-0.07661445438861847,0,9.96945571899414,0.0016999999061226845,0,0.048899997025728226,0.04200000047506539,-0.012000000373951061,0.024999999806340833
-0.08619125932455063,0,9.959878921508789,0.0016999999061226845,0,0.03909999877214432,0.04200000047506539,-0.012000000373951061,0.024999999806340833
-0.07661445438861847,0,9.979032516479492,0.001500000013038516,0,0.05869999900460243,0.04200000047506539,-0.012000000373951061,-0.043999998591942806
-0.08619125932455063,0,9.96945571899414,0.001500000013038516,0,0.05869999900460243,-0.0269999995907449,-0.08200000283325337,0.024999999806340833
-0.06703764945268631,0,9.979032516479492,-0.007599999662488699,0,0.05869999900460243,-0.0269999995907449,-0.012000000373951061,0.024999999806340833
-0.06703764945268631,0,9.959878921508789,0.002099999925121665,0,0.048899997025728226,-0.0269999995907449,-0.08200000283325337,-0.043999998591942806
-0.07661445438861847,0,9.979032516479492,0.0018999999156221747,0,0.06849999725818634,0.04200000047506539,-0.012000000373951061,-0.043999998591942806
-0.08619125932455063,0,9.988609313964844,0.011699999682605267,0,0.05869999900460243,0.04200000047506539,-0.012000000373951061,-0.043999998591942806
-0.08619125932455063,0,9.988609313964844,-0.0072999997064471245,0,0.048899997025728226,-0.0269999995907449,-0.012000000373951061,-0.043999998591942806
-0.07661445438861847,0,9.998186111450195,0.0023999998811632395,0,0.07829999923706055,0.04200000047506539,-0.012000000373951061,0.024999999806340833
-0.07661445438861847,0,9.998186111450195,0.011299999430775642,0,0.06849999725818634,-0.0269999995907449,-0.08200000283325337,0.024999999806340833
-0.07661445438861847,0,9.998186111450195,0.001500000013038516,0,0.06849999725818634,0.04200000047506539,-0.012000000373951061,-0.043999998591942806
-0.07661445438861847,0,9.988609313964844,0.00139999995008111,0,0.07829999923706055,-0.0269999995907449,-0.012000000373951061,0.024999999806340833
-0.07661445438861847,0,9.979032516479492,-0.008299999870359898,0,0.05869999900460243,-0.0269999995907449,-0.012000000373951061,-0.043999998591942806
-0.09576806426048279,0,9.998186111450195,0.0005999999702908099,0,0.07829999923706055,-0.0269999995907449,0.057000003026912535,-0.043999998591942806
-0.09576806426048279,0,9.998186111450195,-0.008499999530613422,0,0.06849999725818634,-0.0269999995907449,0.057000003026912535,0.024999999806340833
-0.08619125932455063,0,10.017339706420898,-0.007999999448657036,0,0.09799999743700027,0.04200000047506539,-0.012000000373951061,0.024999999806340833
-0.08619125932455063,0,10.007762908935547,0.0016999999061226845,0,0.08810000121593475,-0.0269999995907449,-0.012000000373951061,0.024999999806340833
-0.08619125932455063,0,10.007762908935547,0.0016999999061226845,0,0.08810000121593475,-0.0269999995907449,-0.012000000373951061,0.024999999806340833
-0.05746084079146385,0,10.007762908935547,-0.007499999832361937,0,0.08819999545812607,-0.0269999995907449,-0.012000000373951061,0.024999999806340833
-0.06703764945268631,0,10.007762908935547,0.012000000104308128,0,0.09799999743700027,-0.0269999995907449,-0.012000000373951061,-0.043999998591942806
-0.07661445438861847,0,10.02691650390625,0.01119999960064888,0,0.08810000121593475,-0.0269999995907449,-0.012000000373951061,0.024999999806340833
-0.07661445438861847,0,10.017339706420898,0.002099999925121665,0,0,-0.0269999995907449,-0.012000000373951061,0.024999999806340833
-0.07661445438861847,0,10.017339706420898,0.002699999837204814,0,-0.00969999935477972,0.04200000047506539,-0.012000000373951061,0.024999999806340833
-0.07661445438861847,0,10.017339706420898,0.0024999999441206455,0,0,0.04200000047506539,-0.012000000373951061,0.024999999806340833
-0.07661445438861847,0,9.988609313964844,0.0024999999441206455,0,-0.029399998486042023,-0.0269999995907449,-0.012000000373951061,0.024999999806340833
-0.08619125932455063,0,10.017339706420898,0.011399999260902405,0,-0.019600000232458115,-0.0269999995907449,0.057000003026912535,0.024999999806340833
-0.07661445438861847,0,9.998186111450195,0.0015999999595806003,0,-0.029399998486042023,-0.0269999995907449,-0.012000000373951061,-0.043999998591942806
-0.07661445438861847,0,9.988609313964844,0.010699999518692493,0,-0.029399998486042023,-0.0269999995907449,-0.012000000373951061,0.024999999806340833
-0.07661445438861847,0,10.007762908935547,0.0007999999797903001,0,-0.029399998486042023,-0.0269999995907449,-0.012000000373951061,0.024999999806340833
-0.07661445438861847,0,9.988609313964844,0.00989999994635582,0,-0.03920000046491623,0.04200000047506539,-0.012000000373951061,-0.043999998591942806
-0.07661445438861847,0,9.988609313964844,0.00009999999747378752,0,-0.03920000046491623,-0.0969999987149939,-0.012000000373951061,0.024999999806340833
-0.07661445438861847,0,9.988609313964844,-0.008899999782443047,0,-0.03920000046491623,0.11200000126684104,-0.012000000373951061,-0.043999998591942806
-0.07661445438861847,0,9.988609313964844,0.0007999999797903001,0,-0.03920000046491623,0.04200000047506539,0.057000003026912535,0.024999999806340833
-0.06703764945268631,0,9.979032516479492,0.0007999999797903001,0,-0.029399998486042023,-0.0269999995907449,-0.012000000373951061,0.024999999806340833
-0.07661445438861847,0,9.979032516479492,-0.008299999870359898,0,-0.058799996972084045,0.04200000047506539,-0.012000000373951061,0.024999999806340833
-0.07661445438861847,0,9.979032516479492,-0.008299999870359898,0,-0.058799996972084045,-0.0269999995907449,-0.012000000373951061,0.024999999806340833
-0.06703764945268631,0,9.979032516479492,0.00139999995008111,0,-0.03920000046491623,0.04200000047506539,0.057000003026912535,0.024999999806340833
-0.08619125932455063,0,9.96945571899414,-0.007699999958276749,0,-0.03920000046491623,0.04200000047506539,0.057000003026912535,0.024999999806340833
-0.06703764945268631,0,9.96945571899414,0.0018999999156221747,0,-0.058799996972084045,-0.0269999995907449,-0.08200000283325337,0.024999999806340833
-0.06703764945268631,0,9.96945571899414,0.0018999999156221747,0,-0.058799996972084045,0.04200000047506539,-0.012000000373951061,-0.043999998591942806
-0.07661445438861847,0,9.979032516479492,-0.007799999788403511,0,-0.06859999895095825,-0.0269999995907449,-0.012000000373951061,0.024999999806340833
-0.08619125932455063,0,9.979032516479492,-0.01769999973475933,0,-0.04899999871850014,-0.0269999995907449,-0.012000000373951061,0.024999999806340833
-0.07661445438861847,0,9.96945571899414,-0.01769999973475933,0,-0.04899999871850014,-0.0269999995907449,-0.012000000373951061,0.024999999806340833
-0.07661445438861847,0,9.979032516479492,0.0016999999061226845,0,-0.06859999895095825,-0.0269999995907449,-0.08200000283325337,0.024999999806340833
-0.07661445438861847,0,9.950302124023438,-0.017799999564886093,0,-0.058799996972084045,0.04200000047506539,-0.012000000373951061,-0.043999998591942806
-0.07661445438861847,0,9.979032516479492,0.011399999260902405,0,-0.04899999871850014,0.04200000047506539,0.057000003026912535,0.024999999806340833
-0.07661445438861847,0,9.988609313964844,0.010599999688565731,0,-0.029399998486042023,-0.0269999995907449,-0.012000000373951061,0.024999999806340833
-0.06703764945268631,0,9.979032516479492,-0.008899999782443047,0,-0.04899999871850014,-0.0269999995907449,-0.012000000373951061,0.024999999806340833
-0.08619125932455063,0,9.96945571899414,-0.017400000244379044,0,-0.04899999871850014,-0.0269999995907449,0.057000003026912535,0.024999999806340833
-0.08619125932455063,0,9.979032516479492,-0.007599999662488699,0,-0.058799996972084045,0.04200000047506539,-0.08200000283325337,-0.043999998591942806
-0.08619125932455063,0,9.979032516479492,-0.00699999975040555,0,-0.03920000046491623,-0.0269999995907449,-0.012000000373951061,0.024999999806340833
-0.08619125932455063,0,9.988609313964844,-0.00699999975040555,0,-0.03920000046491623,0.04200000047506539,-0.012000000373951061,0.024999999806340833
-0.07661445438861847,0,9.96945571899414,0.0024999999441206455,0,-0.04899999871850014,-0.0269999995907449,0.057000003026912535,-0.043999998591942806
-0.07661445438861847,0,9.959878921508789,-0.007199999876320362,0,-0.058799996972084045,0.04200000047506539,-0.012000000373951061,-0.043999998591942806
-0.08619125932455063,0,9.96945571899414,-0.006599999964237213,0,-0.04899999871850014,0.04200000047506539,-0.012000000373951061,0.024999999806340833
-0.08619125932455063,0,9.96945571899414,-0.006599999964237213,0,-0.06859999895095825,-0.0269999995907449,-0.012000000373951061,0.024999999806340833
-0.09576806426048279,0,9.959878921508789,-0.01529999915510416,0,-0.07840000092983246,0.04200000047506539,-0.012000000373951061,-0.043999998591942806
-0.07661445438861847,0,9.96945571899414,0.00419999985024333,0,-0.06859999895095825,-0.0269999995907449,-0.08200000283325337,0.024999999806340833
-0.08619125932455063,0,9.96945571899414,0.0032999999821186066,0,-0.058799996972084045,0.04200000047506539,-0.012000000373951061,0.024999999806340833
-0.08619125932455063,0,9.96945571899414,0.0030999998562037945,0,-0.058799996972084045,-0.0269999995907449,-0.012000000373951061,0.024999999806340833
-0.08619125932455063,0,9.96945571899414,0.0030999998562037945,0,-0.058799996972084045,-0.0269999995907449,-0.012000000373951061,0.024999999806340833
-0.07661445438861847,0,9.950302124023438,0.002899999963119626,0,-0.06859999895095825,0.04200000047506539,0.057000003026912535,-0.043999998591942806
-0.07661445438861847,0,9.96945571899414,0.01269999984651804,0,-0.07840000092983246,0.04200000047506539,-0.012000000373951061,0.024999999806340833
-0.07661445438861847,0,9.96945571899414,0.01269999984651804,0,-0.07840000092983246,0.04200000047506539,-0.012000000373951061,0.024999999806340833
-0.07661445438861847,0,9.950302124023438,0.011899999342858791,0,-0.07840000092983246,-0.0269999995907449,-0.012000000373951061,0.024999999806340833
-0.09576806426048279,0,9.940725326538086,-0.007599999662488699,0,-0.07840000092983246,-0.0269999995907449,-0.012000000373951061,0.024999999806340833
-0.09576806426048279,0,9.940725326538086,0.001999999862164259,0,-0.08819999545812607,0.04200000047506539,-0.012000000373951061,0.024999999806340833
-0.07661445438861847,0,9.940725326538086,0.001999999862164259,0,-0.08819999545812607,0.04200000047506539,-0.012000000373951061,-0.043999998591942806
-0.08619125932455063,0,9.940725326538086,0.0018999999156221747,0,-0.09799999743700027,0.04200000047506539,-0.012000000373951061,0.024999999806340833
-0.08619125932455063,0,9.921571731567383,-0.007899999618530273,0,-0.019600000232458115,-0.0269999995907449,0.057000003026912535,0.024999999806340833
-0.08619125932455063,0,9.921571731567383,-0.007899999618530273,0,-0.019600000232458115,-0.0269999995907449,-0.012000000373951061,0.024999999806340833
-0.08619125932455063,0,9.921571731567383,0.0016999999061226845,0,-0.019600000232458115,-0.0269999995907449,-0.012000000373951061,0.024999999806340833
-0.05746084079146385,0,9.931148529052734,0.0016999999061226845,0,-0.019600000232458115,-0.0269999995907449,-0.012000000373951061,-0.043999998591942806
-0.07661445438861847,0,9.931148529052734,0.0015999999595806003,0,-0.009800000116229057,-0.0969999987149939,-0.012000000373951061,-0.043999998591942806
-0.08619125932455063,0,9.921571731567383,-0.007499999832361937,0,-0.019600000232458115,-0.0269999995907449,-0.08200000283325337,0.024999999806340833
-0.08619125932455063,0,9.921571731567383,-0.007499999832361937,0,-0.019600000232458115,-0.0269999995907449,-0.012000000373951061,0.024999999806340833
-0.08619125932455063,0,9.921571731567383,-0.007499999832361937,0,-0.03920000046491623,0.11200000126684104,-0.012000000373951061,-0.043999998591942806
-0.08619125932455063,0,9.931148529052734,-0.00699999975040555,0,0,0.04200000047506539,-0.012000000373951061,0.024999999806340833
-0.08619125932455063,0,9.931148529052734,0.002699999837204814,0,-0.009800000116229057,-0.0269999995907449,-0.012000000373951061,-0.043999998591942806
-0.08619125932455063,0,9.931148529052734,-0.0064999996684491634,0,-0.019600000232458115,0.04200000047506539,-0.012000000373951061,-0.043999998591942806
-0.07661445438861847,0,9.940725326538086,0.0031999999191612005,0,0,-0.0269999995907449,-0.012000000373951061,0.024999999806340833
-0.08619125932455063,0,9.950302124023438,-0.007400000002235174,0,0.00969999935477972,0.04200000047506539,-0.012000000373951061,-0.043999998591942806
