Accelerometer_Gx,Accelerometer_Gy,Accelerometer_Gz,Accelerometer_X,Accelerometer_Y,Accelerometer_Z,Gyroscope_Z,Gyroscope_X,Gyroscope_Y
-0.05746084079146385,0,9.950302124023438,-0.009599999524652958,-0.000699999975040555,-0.1670999974012375,0.06299999737754478,-0.07199999890865307,-0.6660000065803073
-0.06703764945268631,0,9.959878921508789,-0.016699999570846558,-0.0007999999797903001,-0.15719999372959137,0.06299999737754478,-0.07199999890865307,-0.6660000065803073
-0.06703764945268631,0,9.950302124023438,-0.014499999582767487,-0.0007999999797903001,-0.16699999570846558,0.06299999737754478,-0.07199999890865307,-0.6660000065803073
-0.06703764945268631,0,9.950302124023438,-0.014599999412894249,-0.0008999999845400453,-0.16699999570846558,0.06299999737754478,-0.07199999890865307,-0.6660000065803073
-0.06703764945268631,0,9.950302124023438,-0.014599999412894249,-0.0008999999845400453,-0.16699999570846558,0.06299999737754478,-0.07199999890865307,-0.6660000065803073
-0.06703764945268631,0,9.950302124023438,-0.012899999506771564,-0.0008999999845400453,-0.16699999570846558,0.06299999737754478,-0.07199999890865307,-0.6660000065803073
-0.05746084079146385,0,9.979032516479492,-0.0031999999191612005,-0.0009999999310821295,-0.13759998977184296,0.06299999737754478,-0.07199999890865307,-0.6660000065803073
-0.07661445438861847,0,9.959878921508789,-0.02029999904334545,-0.0009999999310821295,-0.15719999372959137,0.06299999737754478,-0.07199999890865307,-0.6660000065803073
-0.06703764945268631,0,9.950302124023438,-0.010599999688565731,-0.0011999999405816197,-0.16699999570846558,0.06299999737754478,-0.07199999890865307,-0.6660000065803073
-0.06703764945268631,0,9.950302124023438,-0.009499999694526196,-0.0010999999940395355,-0.16699999570846558,0.06299999737754478,-0.07199999890865307,-0.6660000065803073
-0.07661445438861847,0,9.950302124023438,-0.01939999870955944,-0.0013000000035390258,-0.16699999570846558,0.06299999737754478,-0.07199999890865307,-0.6660000065803073
-0.05746084079146385,0,9.950302124023438,0.002899999963119626,-0.00139999995008111,-0.16699999570846558,0.06299999737754478,-0.07199999890865307,-0.6660000065803073
-0.06703764945268631,0,9.96945571899414,-0.006000000052154064,-0.0011999999405816197,-0.14739999175071716,-0.006000000186975531,-0.0019999999928448997,0.0329999989439571
-0.06703764945268631,0,9.96945571899414,-0.006000000052154064,-0.0011999999405816197,-0.14739999175071716,-0.006000000186975531,-0.0019999999928448997,0.0329999989439571
-0.08619125932455063,0,9.950302124023438,-0.025299999862909317,-0.001500000013038516,-0.16699999570846558,0.06299999737754478,0.2770000026567332,0.0329999989439571
-0.07661445438861847,0,9.950302124023438,-0.013199999928474426,-0.001500000013038516,-0.16699999570846558,0.06299999737754478,0.2770000026567332,0.0329999989439571
-0.07661445438861847,0,9.950302124023438,-0.012299999594688416,-0.0015999999595806003,-0.16699999570846558,0.06299999737754478,0.2770000026567332,-0.03599999945432653
-0.06703764945268631,0,9.959878921508789,-0.00279999990016222,-0.00139999995008111,-0.15719999372959137,-0.07600000181251451,-0.35199998873554245,-0.03599999945432653
-0.07661445438861847,0,9.959878921508789,-0.012899999506771564,-0.0011999999405816197,-0.15719999372959137,0.06299999737754478,-0.28199999461387343,-0.03599999945432653
-0.07661445438861847,0,9.959878921508789,-0.012899999506771564,-0.0011999999405816197,-0.15719999372959137,-0.006000000186975531,0.06700000028140622,-0.03599999945432653
-0.07661445438861847,0,9.959878921508789,-0.012600000016391277,-0.0010999999940395355,-0.15719999372959137,0.06299999737754478,-0.1419999930303221,0.0329999989439571
-0.07661445438861847,0,9.96945571899414,-0.01209999993443489,-0.00139999995008111,-0.14739999175071716,0.13300000483942703,-0.1419999930303221,0.0329999989439571
-0.07661445438861847,0,9.96945571899414,-0.011099999770522118,-0.0013000000035390258,-0.14739999175071716,-0.006000000186975531,-0.07199999890865307,-0.03599999945432653
-0.047884032130241394,0,9.979032516479492,0.017899999395012856,-0.0015999999595806003,-0.13759998977184296,0.13300000483942703,-0.1419999930303221,0.0329999989439571
-0.07661445438861847,0,9.988609313964844,-0.010099999606609344,-0.0011999999405816197,-0.12770000100135803,-0.07600000181251451,0.06700000028140622,0.0329999989439571
-0.08619125932455063,0,9.950302124023438,-0.019999999552965164,-0.00139999995008111,-0.16699999570846558,0.06299999737754478,-0.07199999890865307,0.0329999989439571
-0.07661445438861847,0,9.959878921508789,-0.00930000003427267,-0.0009999999310821295,-0.15719999372959137,-0.07600000181251451,-0.0019999999928448997,0.0329999989439571
-0.07661445438861847,0,9.959878921508789,0.010099999606609344,-0.0013000000035390258,-0.14739999175071716,-0.006000000186975531,-0.1419999930303221,-0.03599999945432653
-0.07661445438861847,0,9.959878921508789,-0.008799999952316284,-0.0011999999405816197,-0.15719999372959137,-0.006000000186975531,-0.1419999930303221,-0.03599999945432653
-0.06703764945268631,0,9.959878921508789,0.0009999999310821295,-0.0010999999940395355,-0.15719999372959137,-0.006000000186975531,-0.0019999999928448997,0.0329999989439571
-0.08619125932455063,0,9.950302124023438,-0.016999999061226845,-0.0010999999940395355,-0.16699999570846558,0.06299999737754478,-0.0019999999928448997,0.0329999989439571
-0.07661445438861847,0,9.96945571899414,-0.006899999920278788,-0.0010999999940395355,-0.14729999005794525,0.06299999737754478,-0.07199999890865307,-0.03599999945432653
-0.07661445438861847,0,9.950302124023438,-0.006599999964237213,-0.0009999999310821295,-0.16689999401569366,-0.006000000186975531,0.06700000028140622,0.0329999989439571
-0.06703764945268631,0,9.959878921508789,0.003000000026077032,-0.0010999999940395355,-0.15709999203681946,0.06299999737754478,-0.0019999999928448997,0.0329999989439571
-0.06703764945268631,0,9.959878921508789,0.003000000026077032,-0.0010999999940395355,-0.15709999203681946,0.06299999737754478,-0.0019999999928448997,0.0329999989439571
-0.05746084079146385,0,9.950302124023438,0.012899999506771564,-0.0009999999310821295,-0.16689999401569366,-0.006000000186975531,-0.0019999999928448997,0.0329999989439571
-0.08619125932455063,0,9.96945571899414,-0.01529999915510416,-0.0005999999702908099,-0.14729999005794525,-0.07600000181251451,-0.07199999890865307,0.0329999989439571
-0.07661445438861847,0,9.979032516479492,-0.0050999997183680534,-0.0004999999655410647,-0.13750000298023224,-0.006000000186975531,-0.07199999890865307,0.0329999989439571
-0.07661445438861847,0,9.959878921508789,-0.005200000014156103,-0.0004999999655410647,-0.15709999203681946,-0.006000000186975531,-0.07199999890865307,0.0329999989439571
-0.07661445438861847,0,9.959878921508789,-0.005200000014156103,-0.0004999999655410647,-0.15709999203681946,-0.006000000186975531,-0.07199999890865307,0.0329999989439571
-0.06703764945268631,0,9.979032516479492,0.004299999680370092,-0.0004999999655410647,-0.13750000298023224,-0.006000000186975531,-0.07199999890865307,0.0329999989439571
-0.06703764945268631,0,9.96945571899414,0.004100000020116568,-0.0005999999702908099,-0.14729999005794525,0.06299999737754478,-0.0019999999928448997,0.0329999989439571
-0.06703764945268631,0,9.96945571899414,0.004100000020116568,-0.0005999999702908099,-0.14729999005794525,0.06299999737754478,-0.07199999890865307,-0.03599999945432653
-0.06703764945268631,0,9.96945571899414,0.003700000001117587,-0.0005999999702908099,-0.14729999005794525,-0.006000000186975531,-0.07199999890865307,0.0329999989439571
-0.07661445438861847,0,9.988609313964844,-0.006099999882280827,-0.0004999999655410647,-0.12770000100135803,-0.006000000186975531,-0.07199999890865307,-0.03599999945432653
-0.07661445438861847,0,9.979032516479492,-0.005699999630451202,-0.0005999999702908099,-0.13750000298023224,0.06299999737754478,-0.07199999890865307,0.10299999973573276
-0.06703764945268631,0,9.96945571899414,0.004100000020116568,-0.00029999998514540493,-0.14729999005794525,-0.07600000181251451,-0.0019999999928448997,0.0329999989439571
-0.07661445438861847,0,9.988609313964844,-0.005200000014156103,-0.0005999999702908099,-0.12770000100135803,0.13300000483942703,-0.07199999890865307,-0.03599999945432653
-0.06703764945268631,0,9.96945571899414,0.004600000102072954,-0.0004999999655410647,-0.14729999005794525,-0.006000000186975531,-0.0019999999928448997,0.0329999989439571
-0.07661445438861847,0,9.979032516479492,0.004600000102072954,-0.0004999999655410647,-0.14729999005794525,-0.006000000186975531,-0.0019999999928448997,-0.03599999945432653
-0.06703764945268631,0,9.988609313964844,0.004999999888241291,-0.0005999999702908099,-0.12770000100135803,0.06299999737754478,-0.07199999890865307,-0.03599999945432653
-0.07661445438861847,0,9.96945571899414,-0.004900000058114529,-0.0004999999655410647,0,-0.006000000186975531,0.06700000028140622,-0.03599999945432653
-0.07661445438861847,0,9.959878921508789,-0.004799999762326479,-0.0007999999797903001,-0.009800000116229057,0.13300000483942703,-0.0019999999928448997,0.0329999989439571
-0.06703764945268631,0,9.979032516479492,0.004600000102072954,-0.000699999975040555,0.00969999935477972,-0.006000000186975531,-0.0019999999928448997,-0.03599999945432653
-0.05746084079146385,0,9.979032516479492,0.014299999922513962,-0.0007999999797903001,0.00969999935477972,-0.07600000181251451,-0.0019999999928448997,0.0329999989439571
-0.08619125932455063,0,9.988609313964844,-0.01599999889731407,-0.00019999999494757503,0.019500000402331352,-0.07600000181251451,-0.07199999890865307,-0.03599999945432653
-0.047884032130241394,0,9.998186111450195,0.02159999869763851,-0.00019999999494757503,0.02929999865591526,-0.006000000186975531,-0.0019999999928448997,0.0329999989439571
-0.06703764945268631,0,9.979032516479492,0.001999999862164259,-0.00029999998514540493,0.00969999935477972,0.06299999737754478,-0.0019999999928448997,0.0329999989439571
-0.07661445438861847,0,9.979032516479492,-0.007199999876320362,-0.00019999999494757503,0.00969999935477972,-0.006000000186975531,-0.07199999890865307,-0.03599999945432653
-0.07661445438861847,0,9.988609313964844,-0.006899999920278788,-0.00009999999747378752,0.019500000402331352,-0.006000000186975531,0.06700000028140622,-0.03599999945432653
-0.07661445438861847,0,9.979032516479492,-0.006399999838322401,-0.00009999999747378752,0.00969999935477972,-0.006000000186975531,-0.0019999999928448997,0.0329999989439571
-0.07661445438861847,0,9.979032516479492,-0.006399999838322401,-0.00009999999747378752,0.00969999935477972,-0.006000000186975531,-0.0019999999928448997,0.0329999989439571
-0.05746084079146385,0,9.998186111450195,0.013399999588727951,-0.00019999999494757503,0.02929999865591526,0.06299999737754478,0.06700000028140622,-0.03599999945432653
-0.06703764945268631,0,9.988609313964844,0.0032999999821186066,-0.00029999998514540493,0.019500000402331352,-0.07600000181251451,-0.07199999890865307,-0.03599999945432653
-0.07661445438861847,0,9.988609313964844,-0.006199999712407589,-0.00019999999494757503,0.019500000402331352,0.06299999737754478,-0.07199999890865307,0.0329999989439571
-0.07661445438861847,0,9.988609313964844,-0.006300000008195639,0,0.019500000402331352,-0.07600000181251451,-0.07199999890865307,0.0329999989439571
-0.07661445438861847,0,9.988609313964844,-0.006300000008195639,0,0.019500000402331352,0.06299999737754478,-0.07199999890865307,-0.03599999945432653
-0.07661445438861847,0,9.959878921508789,-0.0058999997563660145,0,0.00969999935477972,-0.07600000181251451,-0.07199999890865307,0.0329999989439571
-0.07661445438861847,0,9.988609313964844,-0.0058999997563660145,0.00039999998989515007,0.019500000402331352,-0.07600000181251451,-0.1419999930303221,-0.03599999945432653
-0.06703764945268631,0,9.988609313964844,0.0038999998942017555,0.00019999999494757503,0.019500000402331352,0.06299999737754478,-0.0019999999928448997,0.0329999989439571
-0.07661445438861847,0,9.988609313964844,0.0038999998942017555,0.00019999999494757503,0.019500000402331352,-0.006000000186975531,-0.0019999999928448997,-0.03599999945432653
-0.047884032130241394,0,9.988609313964844,-0.0052999998442828655,0.00029999998514540493,0.019500000402331352,0.06299999737754478,-0.07199999890865307,-0.03599999945432653
-0.06703764945268631,0,9.998186111450195,0.0038999998942017555,0.00019999999494757503,0.02929999865591526,-0.006000000186975531,-0.07199999890865307,0.0329999989439571
-0.08619125932455063,0,9.988609313964844,-0.014599999412894249,0,0.019500000402331352,0.06299999737754478,-0.0019999999928448997,0.0329999989439571
-0.07661445438861847,0,9.998186111450195,-0.004900000058114529,0.00019999999494757503,0.02929999865591526,-0.07600000181251451,-0.07199999890865307,0.0329999989439571
-0.07661445438861847,0,9.988609313964844,-0.004399999976158142,0.00009999999747378752,0.019500000402331352,0.06299999737754478,-0.0019999999928448997,0.0329999989439571
-0.08619125932455063,0,9.988609313964844,-0.0142000000923872,0.00009999999747378752,0.019500000402331352,-0.006000000186975531,-0.0019999999928448997,0.0329999989439571
-0.08619125932455063,0,9.988609313964844,-0.013299999758601189,0,0.019500000402331352,0.06299999737754478,-0.07199999890865307,-0.03599999945432653
-0.07661445438861847,0,9.998186111450195,-0.0031999999191612005,0.00009999999747378752,0.02929999865591526,0.06299999737754478,-0.0019999999928448997,-0.03599999945432653
-0.07661445438861847,0,9.988609313964844,-0.0030999998562037945,0,0.019500000402331352,0.06299999737754478,-0.0019999999928448997,0.0329999989439571
-0.07661445438861847,0,9.988609313964844,-0.0030999998562037945,0,0.019500000402331352,0.06299999737754478,-0.0019999999928448997,0.0329999989439571
-0.07661445438861847,0,9.988609313964844,-0.003000000026077032,0,0.019500000402331352,-0.006000000186975531,-0.07199999890865307,0.0329999989439571
-0.09576806426048279,0,9.998186111450195,-0.022499999031424522,0,0.029399998486042023,0.06299999737754478,-0.0019999999928448997,0.0329999989439571
-0.06703764945268631,0,9.998186111450195,0.00699999975040555,-0.00009999999747378752,0.029399998486042023,0.06299999737754478,-0.0019999999928448997,0.0329999989439571
-0.06703764945268631,0,9.979032516479492,0.006599999964237213,0,0.00969999935477972,-0.006000000186975531,-0.0019999999928448997,0.0329999989439571
-0.07661445438861847,0,9.998186111450195,-0.0031999999191612005,0,0.02929999865591526,-0.006000000186975531,-0.07199999890865307,-0.03599999945432653
-0.07661445438861847,0,10.007762908935547,-0.003000000026077032,0,0.03920000046491623,-0.006000000186975531,-0.0019999999928448997,0.0329999989439571
-0.07661445438861847,0,9.998186111450195,-0.003000000026077032,0,0.02929999865591526,-0.006000000186975531,-0.07199999890865307,0.0329999989439571
-0.05746084079146385,0,9.998186111450195,0.01529999915510416,0,0.02929999865591526,0.06299999737754478,-0.0019999999928448997,-0.03599999945432653
-0.06703764945268631,0,10.017339706420898,0.005499999970197678,0,0.04899999871850014,-0.006000000186975531,-0.07199999890865307,-0.03599999945432653
-0.06703764945268631,0,9.988609313964844,0.0050999997183680534,0,0.019500000402331352,-0.006000000186975531,-0.0019999999928448997,-0.03599999945432653
-0.05746084079146385,0,9.998186111450195,0.01489999983459711,0,0.02929999865591526,-0.006000000186975531,-0.07199999890865307,0.0329999989439571
-0.07661445438861847,0,9.979032516479492,-0.004299999680370092,0,0.00969999935477972,-0.006000000186975531,-0.07199999890865307,0.0329999989439571
-0.07661445438861847,0,9.979032516479492,-0.004299999680370092,0,0.00969999935477972,-0.006000000186975531,-0.07199999890865307,0.10299999973573276
-0.07661445438861847,0,10.007762908935547,-0.003999999724328518,0,0.03909999877214432,-0.006000000186975531,-0.07199999890865307,-0.03599999945432653
-0.06703764945268631,0,9.988609313964844,0.005699999630451202,0,0.019500000402331352,-0.006000000186975531,-0.07199999890865307,0.0329999989439571
-0.05746084079146385,0,9.998186111450195,0.014399999752640724,0,0.02929999865591526,-0.006000000186975531,-0.07199999890865307,-0.03599999945432653
-0.07661445438861847,0,9.979032516479492,-0.004699999932199717,0,0,-0.006000000186975531,-0.0019999999928448997,-0.03599999945432653
-0.07661445438861847,0,9.979032516479492,-0.004699999932199717,0,0,-0.006000000186975531,-0.0019999999928448997,-0.03599999945432653
-0.06703764945268631,0,9.988609313964844,0.004999999888241291,0,0.00969999935477972,0.13300000483942703,-0.07199999890865307,-0.03599999945432653
-0.06703764945268631,0,9.998186111450195,0.004699999932199717,0,0.019500000402331352,0.06299999737754478,-0.07199999890865307,-0.03599999945432653
-0.07661445438861847,0,9.988609313964844,-0.004999999888241291,0,0.00969999935477972,-0.006000000186975531,-0.0019999999928448997,-0.03599999945432653
-0.07661445438861847,0,9.988609313964844,-0.004699999932199717,0,0.00969999935477972,0.06299999737754478,-0.0019999999928448997,-0.03599999945432653
-0.07661445438861847,0,9.998186111450195,-0.004399999976158142,0,0.019500000402331352,-0.006000000186975531,-0.0019999999928448997,0.0329999989439571
-0.07661445438861847,0,9.998186111450195,-0.004399999976158142,0,0.019500000402331352,-0.07600000181251451,-0.0019999999928448997,0.0329999989439571
-0.05746084079146385,0,9.998186111450195,0.0052999998442828655,0,0.00969999935477972,-0.006000000186975531,-0.07199999890865307,0.0329999989439571
-0.07661445438861847,0,9.96945571899414,-0.005399999674409628,0,-0.009800000116229057,-0.006000000186975531,-0.07199999890865307,0.0329999989439571
-0.06703764945268631,0,9.988609313964844,0.003999999724328518,0,0.00969999935477972,0.06299999737754478,-0.07199999890865307,-0.03599999945432653
-0.06703764945268631,0,9.979032516479492,0.003999999724328518,0,0,-0.07600000181251451,-0.0019999999928448997,0.0329999989439571
-0.07661445438861847,0,9.988609313964844,-0.0052999998442828655,0,0.00969999935477972,0.06299999737754478,-0.07199999890865307,0.0329999989439571
-0.07661445438861847,0,9.979032516479492,-0.0052999998442828655,0,0,0.06299999737754478,-0.07199999890865307,0.0329999989439571
-0.07661445438861847,0,9.96945571899414,-0.004999999888241291,0,-0.009800000116229057,-0.006000000186975531,-0.07199999890865307,-0.03599999945432653
-0.06703764945268631,0,9.988609313964844,0.004799999762326479,0,0.00969999935477972,0.06299999737754478,-0.0019999999928448997,0.0329999989439571
-0.07661445438861847,0,9.988609313964844,-0.004600000102072954,0,0.00969999935477972,-0.006000000186975531,-0.07199999890865307,0.0329999989439571
-0.07661445438861847,0,9.988609313964844,-0.004600000102072954,0,0.00969999935477972,0.06299999737754478,-0.0019999999928448997,0.10299999973573276
-0.07661445438861847,0,9.979032516479492,-0.004299999680370092,0,0,-0.006000000186975531,-0.07199999890865307,0.0329999989439571
-0.06703764945268631,0,9.959878921508789,0.005399999674409628,0,-0.019600000232458115,-0.006000000186975531,-0.07199999890865307,0.0329999989439571
-0.06703764945268631,0,9.96945571899414,0.004999999888241291,0,-0.009800000116229057,-0.006000000186975531,-0.07199999890865307,0.0329999989439571
-0.06703764945268631,0,9.96945571899414,0.004999999888241291,0,-0.009800000116229057,-0.006000000186975531,-0.07199999890865307,-0.03599999945432653
-0.07661445438861847,0,9.959878921508789,-0.004299999680370092,0,-0.019600000232458115,0.06299999737754478,-0.07199999890865307,0.0329999989439571
-0.07661445438861847,0,9.96945571899414,-0.004299999680370092,0,-0.009800000116229057,-0.07600000181251451,-0.07199999890865307,0.0329999989439571
-0.06703764945268631,0,9.979032516479492,0.004999999888241291,0,0,0.06299999737754478,-0.0019999999928448997,-0.03599999945432653
-0.07661445438861847,0,9.959878921508789,-0.004699999932199717,0,-0.019600000232458115,-0.006000000186975531,-0.07199999890865307,0.0329999989439571
-0.07661445438861847,0,9.959878921508789,-0.004399999976158142,0,-0.019600000232458115,0.13300000483942703,0.06700000028140622,-0.03599999945432653
-0.08619125932455063,0,9.940725326538086,-0.0142000000923872,0,-0.03920000046491623,-0.006000000186975531,-0.07199999890865307,-0.03599999945432653
-0.07661445438861847,0,9.950302124023438,-0.003999999724328518,0,-0.029399998486042023,-0.006000000186975531,-0.07199999890865307,-0.03599999945432653
-0.06703764945268631,0,9.940725326538086,0.0052999998442828655,0,-0.03920000046491623,-0.07600000181251451,-0.07199999890865307,0.0329999989439571
-0.08619125932455063,0,9.940725326538086,-0.0142000000923872,0,-0.03920000046491623,0.13300000483942703,-0.0019999999928448997,0.0329999989439571
-0.07661445438861847,0,9.940725326538086,-0.004100000020116568,0,-0.03920000046491623,-0.006000000186975531,-0.07199999890865307,0.0329999989439571
-0.07661445438861847,0,9.931148529052734,-0.004100000020116568,0,-0.04899999871850014,0.06299999737754478,-0.07199999890865307,-0.03599999945432653
-0.07661445438861847,0,9.940725326538086,-0.0037999998312443495,0,-0.03920000046491623,-0.07600000181251451,-0.07199999890865307,0.0329999989439571
-0.05746084079146385,0,9.921571731567383,0.015699999406933784,0,-0.058799996972084045,-0.006000000186975531,-0.07199999890865307,-0.03599999945432653
-0.06703764945268631,0,9.911994934082031,0.005499999970197678,0,-0.06859999895095825,0.06299999737754478,-0.07199999890865307,0.0329999989439571
-0.07661445438861847,0,9.921571731567383,-0.00419999985024333,0,-0.058799996972084045,-0.006000000186975531,-0.07199999890865307,-0.03599999945432653
-0.06703764945268631,0,9.911994934082031,0.005200000014156103,0,-0.06859999895095825,0.06299999737754478,-0.07199999890865307,0.0329999989439571
-0.07661445438861847,0,9.911994934082031,-0.0044999998062849045,0,-0.06859999895095825,-0.006000000186975531,-0.0019999999928448997,0.0329999989439571
-0.08619125932455063,0,9.90241813659668,-0.013299999758601189,0,-0.07840000092983246,-0.006000000186975531,-0.07199999890865307,0.0329999989439571
-0.07661445438861847,0,9.921571731567383,-0.003499999875202775,0,-0.058799996972084045,-0.07600000181251451,-0.07199999890865307,0.0329999989439571
-0.08619125932455063,0,9.921571731567383,-0.012399999424815178,0,-0.058799996972084045,-0.006000000186975531,-0.07199999890865307,0.0329999989439571
-0.07661445438861847,0,9.911994934082031,-0.0026000000070780516,0,-0.06859999895095825,-0.006000000186975531,-0.0019999999928448997,0.0329999989439571
-0.07661445438861847,0,9.911994934082031,-0.002300000051036477,0,-0.06859999895095825,-0.006000000186975531,-0.07199999890865307,-0.03599999945432653
-0.08619125932455063,0,9.911994934082031,-0.01209999993443489,0,-0.06859999895095825,0.06299999737754478,-0.07199999890865307,-0.03599999945432653
-0.06703764945268631,0,9.921571731567383,0.006899999920278788,0,-0.058799996972084045,-0.006000000186975531,-0.07199999890865307,0.0329999989439571
-0.07661445438861847,0,9.90241813659668,-0.00279999990016222,0,-0.07840000092983246,0.06299999737754478,-0.0019999999928448997,0.0329999989439571
-0.06703764945268631,0,9.911994934082031,0.006399999838322401,0,-0.06859999895095825,-0.006000000186975531,-0.0019999999928448997,0.0329999989439571
-0.08619125932455063,0,9.90241813659668,-0.013100000098347664,0,-0.07840000092983246,0.06299999737754478,-0.07199999890865307,0.0329999989439571
-0.05746084079146385,0,9.911994934082031,0.014800000004470348,0,-0.00969999935477972,-0.006000000186975531,-0.07199999890865307,0.0329999989439571
-0.05746084079146385,0,9.911994934082031,0.014800000004470348,0,-0.00969999935477972,-0.006000000186975531,-0.07199999890865307,0.0329999989439571
-0.08619125932455063,0,9.883264541625977,-0.013499999418854713,0,-0.03909999877214432,0.06299999737754478,-0.0019999999928448997,0.0329999989439571
-0.09576806426048279,0,9.883264541625977,-0.02329999953508377,0,-0.03909999877214432,0.06299999737754478,-0.07199999890865307,0.0329999989439571
-0.08619125932455063,0,9.90241813659668,-0.012600000016391277,0,-0.019500000402331352,0.06299999737754478,-0.07199999890865307,0.0329999989439571
-0.06703764945268631,0,9.892841339111328,0.006899999920278788,0,-0.02929999865591526,-0.006000000186975531,-0.0019999999928448997,0.0329999989439571
-0.07661445438861847,0,9.883264541625977,-0.0026000000070780516,0,-0.03909999877214432,0.06299999737754478,-0.0019999999928448997,0.0329999989439571
-0.07661445438861847,0,9.892841339111328,-0.0023999998811632395,0,-0.02929999865591526,-0.006000000186975531,-0.07199999890865307,0.0329999989439571
-0.06703764945268631,0,9.892841339111328,0.0072999997064471245,0,-0.02929999865591526,-0.006000000186975531,-0.0019999999928448997,0.0329999989439571
-0.07661445438861847,0,9.883264541625977,-0.002199999988079071,0,-0.03909999877214432,-0.006000000186975531,-0.07199999890865307,-0.03599999945432653
-0.08619125932455063,0,9.883264541625977,-0.002199999988079071,0,-0.03909999877214432,-0.006000000186975531,-0.1419999930303221,0.0329999989439571
-0.07661445438861847,0,9.873687744140625,-0.001999999862164259,0,-0.048899997025728226,-0.006000000186975531,-0.07199999890865307,0.0329999989439571
-0.06703764945268631,0,9.883264541625977,0.007699999958276749,0,-0.03909999877214432,0.13300000483942703,0.06700000028140622,0.0329999989439571
-0.06703764945268631,0,9.883264541625977,0.007199999876320362,0,-0.03909999877214432,-0.006000000186975531,-0.07199999890865307,0.0329999989439571
-0.06703764945268631,0,9.873687744140625,0.007199999876320362,0,-0.048899997025728226,-0.006000000186975531,-0.07199999890865307,-0.03599999945432653
-0.06703764945268631,0,9.873687744140625,0.0066999997943639755,0,-0.048899997025728226,0.06299999737754478,-0.07199999890865307,-0.03599999945432653
-0.07661445438861847,0,9.883264541625977,-0.003000000026077032,0,-0.03909999877214432,0.06299999737754478,-0.07199999890865307,-0.03599999945432653
-0.06703764945268631,0,9.892841339111328,0.006199999712407589,0,-0.02929999865591526,-0.006000000186975531,-0.0019999999928448997,0.0329999989439571
-0.07661445438861847,0,9.892841339111328,-0.003499999875202775,0,-0.02929999865591526,-0.006000000186975531,-0.07199999890865307,0.0329999989439571
-0.06703764945268631,0,9.883264541625977,0.005799999926239252,0,-0.03909999877214432,0.13300000483942703,-0.0019999999928448997,0.0329999989439571
-0.06703764945268631,0,9.883264541625977,0.005799999926239252,0,-0.03909999877214432,-0.07600000181251451,-0.1419999930303221,0.0329999989439571
-0.08619125932455063,0,9.873687744140625,-0.01269999984651804,0,-0.048899997025728226,0.06299999737754478,-0.0019999999928448997,0.0329999989439571
-0.08619125932455063,0,9.873687744140625,-0.01269999984651804,0,-0.048899997025728226,0.06299999737754478,-0.0019999999928448997,0.0329999989439571
-0.08619125932455063,0,9.873687744140625,-0.011799999512732029,0,-0.048899997025728226,-0.006000000186975531,-0.07199999890865307,-0.03599999945432653
-0.07661445438861847,0,9.883264541625977,-0.001999999862164259,0,-0.03909999877214432,0.06299999737754478,-0.0019999999928448997,0.0329999989439571
-0.08619125932455063,0,9.883264541625977,-0.010999999940395355,0,-0.03909999877214432,-0.006000000186975531,-0.07199999890865307,0.0329999989439571
-0.08619125932455063,0,9.873687744140625,-0.010999999940395355,0,-0.048899997025728226,0.13300000483942703,-0.0019999999928448997,0.0329999989439571
-0.06703764945268631,0,9.873687744140625,0.007999999448657036,0,-0.048899997025728226,-0.006000000186975531,-0.07199999890865307,0.0329999989439571
-0.07661445438861847,0,9.873687744140625,-0.0016999999061226845,0,-0.048899997025728226,0.06299999737754478,-0.0019999999928448997,-0.03599999945432653
-0.07661445438861847,0,9.864110946655273,-0.0015999999595806003,0,-0.05869999900460243,-0.006000000186975531,-0.07199999890865307,0.0329999989439571
-0.06703764945268631,0,9.854534149169922,0.007599999662488699,0,-0.06849999725818634,-0.006000000186975531,-0.07199999890865307,-0.03599999945432653
-0.06703764945268631,0,9.883264541625977,0.007599999662488699,0,-0.03909999877214432,-0.07600000181251451,-0.0019999999928448997,0.0329999989439571
-0.06703764945268631,0,9.873687744140625,0.0071000000461936,0,-0.048899997025728226,0.13300000483942703,-0.0019999999928448997,-0.03599999945432653
-0.07661445438861847,0,9.864110946655273,-0.0026000000070780516,0,-0.05869999900460243,-0.006000000186975531,-0.07199999890865307,-0.03599999945432653
-0.07661445438861847,0,9.873687744140625,-0.0023999998811632395,0,-0.048899997025728226,-0.006000000186975531,-0.0019999999928448997,-0.03599999945432653
-0.06703764945268631,0,9.883264541625977,0.0072999997064471245,0,-0.03909999877214432,0.06299999737754478,-0.0019999999928448997,0.0329999989439571
-0.06703764945268631,0,9.873687744140625,0.006799999624490738,0,-0.048899997025728226,0.06299999737754478,-0.0019999999928448997,-0.03599999945432653
-0.07661445438861847,0,9.873687744140625,-0.002899999963119626,0,-0.048899997025728226,-0.006000000186975531,-0.0019999999928448997,0.0329999989439571
-0.05746084079146385,0,9.883264541625977,0.01549999974668026,0,-0.03909999877214432,-0.006000000186975531,-0.07199999890865307,0.0329999989439571
-0.07661445438861847,0,9.854534149169922,-0.003999999724328518,0,-0.06849999725818634,-0.006000000186975531,-0.0019999999928448997,0.0329999989439571
-0.07661445438861847,0,9.892841339111328,-0.003700000001117587,0,-0.02929999865591526,0.06299999737754478,-0.07199999890865307,-0.03599999945432653
-0.07661445438861847,0,9.864110946655273,-0.003700000001117587,0,-0.05869999900460243,0.06299999737754478,-0.07199999890865307,0.0329999989439571
-0.06703764945268631,0,9.883264541625977,0.00559999980032444,0,-0.03909999877214432,-0.006000000186975531,-0.07199999890865307,0.0329999989439571
-0.06703764945268631,0,9.883264541625977,0.00559999980032444,0,-0.03909999877214432,0.06299999737754478,-0.07199999890865307,0.0329999989439571
-0.07661445438861847,0,9.873687744140625,-0.0037999998312443495,0,-0.048899997025728226,-0.006000000186975531,-0.07199999890865307,0.0329999989439571
-0.07661445438861847,0,9.873687744140625,-0.0037999998312443495,0,-0.048899997025728226,0.06299999737754478,-0.07199999890865307,0.0329999989439571
-0.06703764945268631,0,9.873687744140625,0.005499999970197678,0,-0.048899997025728226,0.06299999737754478,-0.07199999890865307,0.0329999989439571
-0.07661445438861847,0,9.873687744140625,-0.00419999985024333,0,-0.048899997025728226,-0.07600000181251451,-0.07199999890865307,0.0329999989439571
-0.07661445438861847,0,9.883264541625977,-0.00419999985024333,0,0,0.06299999737754478,-0.0019999999928448997,0.0329999989439571
-0.07661445438861847,0,9.892841339111328,-0.00419999985024333,0,0.00969999935477972,-0.07600000181251451,-0.0019999999928448997,0.0329999989439571
-0.07661445438861847,0,9.854534149169922,-0.0038999998942017555,0,-0.029399998486042023,0.06299999737754478,-0.07199999890865307,0.0329999989439571
-0.07661445438861847,0,9.883264541625977,-0.0038999998942017555,0,0,-0.006000000186975531,-0.07199999890865307,-0.03599999945432653
-0.08619125932455063,0,9.892841339111328,-0.01269999984651804,0,0.00969999935477972,0.06299999737754478,-0.07199999890865307,-0.03599999945432653
-0.07661445438861847,0,9.883264541625977,-0.002899999963119626,0,0,0.06299999737754478,-0.0019999999928448997,-0.03599999945432653
-0.06703764945268631,0,9.90241813659668,0.006300000008195639,0,0.019500000402331352,-0.07600000181251451,-0.07199999890865307,0.0329999989439571
-0.07661445438861847,0,9.873687744140625,-0.0031999999191612005,0,-0.009800000116229057,0.06299999737754478,-0.07199999890865307,0.0329999989439571
-0.06703764945268631,0,9.864110946655273,0.0064999996684491634,0,-0.019600000232458115,-0.006000000186975531,-0.07199999890865307,0.0329999989439571
-0.05746084079146385,0,9.892841339111328,0.015199999324977398,0,0.00969999935477972,0.06299999737754478,-0.0019999999928448997,0.0329999989439571
-0.07661445438861847,0,9.864110946655273,-0.004299999680370092,0,-0.019600000232458115,-0.006000000186975531,-0.1419999930303221,0.0329999989439571
-0.07661445438861847,0,9.873687744140625,-0.003999999724328518,0,-0.009800000116229057,0.06299999737754478,-0.0019999999928448997,0.0329999989439571
-0.07661445438861847,0,9.883264541625977,-0.003999999724328518,0,0,-0.006000000186975531,-0.07199999890865307,0.0329999989439571
-0.07661445438861847,0,9.883264541625977,-0.003700000001117587,0,0,0.06299999737754478,-0.07199999890865307,-0.03599999945432653
-0.07661445438861847,0,9.883264541625977,-0.003700000001117587,0,0,-0.006000000186975531,-0.0019999999928448997,0.0329999989439571
-0.07661445438861847,0,9.883264541625977,-0.003499999875202775,0,0,0.06299999737754478,-0.07199999890865307,0.0329999989439571
-0.05746084079146385,0,9.873687744140625,0.016099998727440834,0,-0.009800000116229057,-0.006000000186975531,-0.07199999890865307,0.0329999989439571
-0.09576806426048279,0,9.883264541625977,-0.02149999886751175,0,0,0.06299999737754478,-0.07199999890865307,0.0329999989439571
-0.09576806426048279,0,9.864110946655273,-0.02149999886751175,0,-0.019600000232458115,0.06299999737754478,-0.0019999999928448997,0.0329999989439571
-0.08619125932455063,0,9.883264541625977,-0.010900000110268593,0,0,0.06299999737754478,-0.07199999890865307,0.0329999989439571
-0.06703764945268631,0,9.873687744140625,0.008700000122189522,0,-0.009800000116229057,0.06299999737754478,0.06700000028140622,0.0329999989439571
-0.06703764945268631,0,9.883264541625977,0.008100000210106373,0,0,0.06299999737754478,-0.0019999999928448997,0.0329999989439571
-0.06703764945268631,0,9.873687744140625,0.008100000210106373,0,-0.009800000116229057,0.06299999737754478,-0.0019999999928448997,0.0329999989439571
-0.06703764945268631,0,9.883264541625977,0.007499999832361937,0,0,-0.07600000181251451,-0.07199999890865307,0.0329999989439571
-0.06703764945268631,0,9.873687744140625,0.007499999832361937,0,-0.009800000116229057,0.06299999737754478,-0.07199999890865307,0.0329999989439571
-0.07661445438861847,0,9.873687744140625,-0.002099999925121665,0,-0.009800000116229057,-0.006000000186975531,-0.07199999890865307,0.10299999973573276
-0.08619125932455063,0,9.873687744140625,-0.011899999342858791,0,-0.009800000116229057,-0.006000000186975531,-0.07199999890865307,-0.03599999945432653
-0.07661445438861847,0,9.883264541625977,-0.0018999999156221747,0,0,0.06299999737754478,-0.07199999890865307,0.0329999989439571
-0.07661445438861847,0,9.892841339111328,-0.0018999999156221747,0,0.00969999935477972,-0.006000000186975531,-0.1419999930303221,0.0329999989439571
-0.07661445438861847,0,9.883264541625977,-0.0017999999690800905,0,0,0.13300000483942703,-0.0019999999928448997,0.0329999989439571
-0.05746084079146385,0,9.892841339111328,0.01769999973475933,0,0.00969999935477972,0.06299999737754478,-0.07199999890865307,0.0329999989439571
-0.07661445438861847,0,9.911994934082031,-0.0016999999061226845,0,0.029399998486042023,0.06299999737754478,-0.07199999890865307,0.0329999989439571
-0.09576806426048279,0,9.911994934082031,-0.01979999989271164,0,0.029399998486042023,-0.006000000186975531,-0.1419999930303221,0.0329999989439571
-0.06703764945268631,0,9.921571731567383,0.009499999694526196,0,0.03920000046491623,-0.07600000181251451,-0.07199999890865307,0.0329999989439571
-0.06703764945268631,0,9.931148529052734,0.008799999952316284,0,0.04899999871850014,-0.006000000186975531,-0.07199999890865307,0.0329999989439571
-0.06703764945268631,0,9.921571731567383,0.008799999952316284,0,0.03920000046491623,-0.006000000186975531,-0.07199999890865307,0.0329999989439571
-0.07661445438861847,0,9.931148529052734,-0.0008999999845400453,0,0.04899999871850014,-0.006000000186975531,-0.1419999930303221,-0.03599999945432653
-0.08619125932455063,0,9.950302124023438,-0.010699999518692493,0,0.06859999895095825,-0.006000000186975531,-0.07199999890865307,0.0329999989439571
-0.07661445438861847,0,9.921571731567383,-0.0007999999797903001,0,0.03920000046491623,-0.006000000186975531,-0.0019999999928448997,0.0329999989439571
-0.07661445438861847,0,9.931148529052734,-0.0007999999797903001,0,0.04899999871850014,0.06299999737754478,-0.0019999999928448997,0.0329999989439571
-0.06703764945268631,0,9.950302124023438,0.008299999870359898,0,0.06859999895095825,-0.006000000186975531,-0.07199999890865307,0.0329999989439571
-0.07661445438861847,0,9.959878921508789,-0.001500000013038516,0,0.07840000092983246,0.06299999737754478,-0.07199999890865307,0.0329999989439571
-0.08619125932455063,0,9.959878921508789,-0.010499999858438969,0,0.07840000092983246,-0.006000000186975531,-0.07199999890865307,0.0329999989439571
-0.06703764945268631,0,9.96945571899414,0.008999999612569809,0,0.08819999545812607,-0.006000000186975531,-0.1419999930303221,0.0329999989439571
-0.06703764945268631,0,9.959878921508789,0.008299999870359898,0,0.07840000092983246,0.06299999737754478,-0.07199999890865307,-0.03599999945432653
-0.06703764945268631,0,9.959878921508789,0.008299999870359898,0,0.07840000092983246,0.06299999737754478,-0.0019999999928448997,-0.03599999945432653
-0.06703764945268631,0,9.96945571899414,0.007699999958276749,0,0.08819999545812607,0.06299999737754478,-0.0019999999928448997,0.0329999989439571
-0.047884032130241394,0,9.96945571899414,0.027300000190734863,0,0.08819999545812607,-0.006000000186975531,-0.0019999999928448997,0.0329999989439571
-0.08619125932455063,0,9.96945571899414,-0.010400000028312206,0,0,0.13300000483942703,-0.07199999890865307,-0.03599999945432653
-0.07661445438861847,0,9.96945571899414,-0.0005999999702908099,0,0,0.06299999737754478,-0.07199999890865307,0.0329999989439571
-0.06703764945268631,0,9.959878921508789,0.008499999530613422,0,-0.009800000116229057,-0.006000000186975531,-0.07199999890865307,0.0329999989439571
-0.07661445438861847,0,9.959878921508789,-0.0011999999405816197,0,-0.009800000116229057,-0.006000000186975531,-0.0019999999928448997,0.0329999989439571
-0.05746084079146385,0,9.988609313964844,0.016999999061226845,0,0.019500000402331352,-0.006000000186975531,-0.1419999930303221,0.0329999989439571
-0.06703764945268631,0,9.988609313964844,0.007199999876320362,0,0.019500000402331352,0.13300000483942703,-0.0019999999928448997,0.0329999989439571
-0.07661445438861847,0,9.979032516479492,-0.0023999998811632395,0,0.00969999935477972,-0.07600000181251451,-0.1419999930303221,0.0329999989439571
-0.07661445438861847,0,9.979032516479492,-0.002300000051036477,0,0.00969999935477972,0.06299999737754478,-0.0019999999928448997,0.0329999989439571
-0.09576806426048279,0,9.979032516479492,-0.020399998873472214,0,0.00969999935477972,0.06299999737754478,-0.07199999890865307,-0.03599999945432653
-0.07661445438861847,0,9.988609313964844,-0.0007999999797903001,0,0.019500000402331352,0.06299999737754478,0.06700000028140622,0.10299999973573276
-0.06703764945268631,0,9.988609313964844,0.008299999870359898,0,0.019500000402331352,-0.006000000186975531,-0.07199999890865307,-0.03599999945432653
-0.05746084079146385,0,9.988609313964844,0.01679999940097332,0,0.019500000402331352,0.06299999737754478,-0.0019999999928448997,0.0329999989439571
-0.08619125932455063,0,9.988609313964844,-0.01249999925494194,0,0.019500000402331352,-0.07600000181251451,-0.07199999890865307,0.0329999989439571
-0.06703764945268631,0,9.998186111450195,0.0064999996684491634,0,0.02929999865591526,-0.07600000181251451,-0.07199999890865307,-0.03599999945432653
-0.08619125932455063,0,9.979032516479492,-0.012999999336898327,0,0.00969999935477972,-0.006000000186975531,-0.07199999890865307,0.0329999989439571
-0.09576806426048279,0,9.998186111450195,-0.021299999207258224,0,0.02929999865591526,-0.006000000186975531,-0.1419999930303221,0.0329999989439571
-0.07661445438861847,0,9.998186111450195,-0.0016999999061226845,0,0.02929999865591526,-0.006000000186975531,-0.07199999890865307,0.0329999989439571
-0.07661445438861847,0,10.007762908935547,-0.0015999999595806003,0,0.03909999877214432,0.06299999737754478,-0.1419999930303221,-0.03599999945432653
-0.08619125932455063,0,9.988609313964844,-0.011399999260902405,0,0.019500000402331352,0.06299999737754478,0.06700000028140622,0.0329999989439571
-0.06703764945268631,0,9.998186111450195,0.007599999662488699,0,0.02929999865591526,0.06299999737754478,-0.0019999999928448997,0.0329999989439571
-0.07661445438861847,0,9.979032516479492,-0.002099999925121665,0,0.00969999935477972,-0.006000000186975531,-0.07199999890865307,0.0329999989439571
-0.07661445438861847,0,10.007762908935547,-0.001999999862164259,0,0.03909999877214432,-0.006000000186975531,-0.07199999890865307,0.0329999989439571
-0.06703764945268631,0,10.007762908935547,0.007699999958276749,0,0.03909999877214432,0.06299999737754478,-0.07199999890865307,0.0329999989439571
-0.06703764945268631,0,9.998186111450195,0.007199999876320362,0,0.02929999865591526,0.06299999737754478,-0.0019999999928448997,0.0329999989439571
-0.06703764945268631,0,9.979032516479492,0.007199999876320362,0,0.00969999935477972,-0.006000000186975531,-0.07199999890865307,0.0329999989439571
-0.07661445438861847,0,9.998186111450195,-0.0023999998811632395,0,0.02929999865591526,-0.07600000181251451,-0.07199999890865307,0.0329999989439571
-0.05746084079146385,0,10.017339706420898,0.017099998891353607,0,0.048899997025728226,0.06299999737754478,-0.0019999999928448997,0.0329999989439571
-0.07661445438861847,0,9.998186111450195,-0.002199999988079071,0,0.02929999865591526,0.06299999737754478,-0.0019999999928448997,0.0329999989439571
-0.09576806426048279,0,10.017339706420898,-0.021800000220537186,0,0.048899997025728226,-0.07600000181251451,-0.1419999930303221,0.0329999989439571
-0.07661445438861847,0,10.007762908935547,-0.002099999925121665,0,0.03909999877214432,0.06299999737754478,-0.0019999999928448997,0.0329999989439571
-0.07661445438861847,0,10.007762908935547,-0.002099999925121665,0,0.03909999877214432,-0.006000000186975531,-0.0019999999928448997,0.0329999989439571
-0.08619125932455063,0,10.007762908935547,-0.011099999770522118,0,0.03909999877214432,-0.006000000186975531,-0.1419999930303221,0.0329999989439571
-0.08619125932455063,0,10.007762908935547,-0.011099999770522118,0,0.03909999877214432,-0.07600000181251451,-0.07199999890865307,-0.03599999945432653
-0.08619125932455063,0,9.998186111450195,-0.010300000198185444,0,0.02929999865591526,-0.07600000181251451,-0.07199999890865307,-0.03599999945432653
-0.07661445438861847,0,9.998186111450195,-0.0004999999655410647,0,0.02929999865591526,-0.006000000186975531,-0.07199999890865307,0.0329999989439571
-0.06703764945268631,0,9.998186111450195,0.009200000204145908,0,0.02929999865591526,-0.006000000186975531,-0.0019999999928448997,-0.03599999945432653
-0.05746084079146385,0,9.998186111450195,0.01769999973475933,0,0.02929999865591526,-0.006000000186975531,-0.07199999890865307,0.0329999989439571
-0.06703764945268631,0,9.998186111450195,0.007899999618530273,0,0.02929999865591526,-0.006000000186975531,-0.07199999890865307,0.0329999989439571
-0.06703764945268631,0,9.998186111450195,0.0072999997064471245,0,0.02929999865591526,0.06299999737754478,-0.0019999999928448997,-0.03599999945432653
-0.08619125932455063,0,10.017339706420898,-0.012199999764561653,0,0.048899997025728226,0.06299999737754478,-0.07199999890865307,-0.03599999945432653
-0.07661445438861847,0,10.017339706420898,-0.002300000051036477,0,0.048899997025728226,-0.006000000186975531,-0.07199999890865307,-0.03599999945432653
-0.06703764945268631,0,9.998186111450195,0.007499999832361937,0,0.02929999865591526,0.06299999737754478,-0.07199999890865307,0.0329999989439571
-0.08619125932455063,0,9.998186111450195,-0.01119999960064888,0,0.02929999865591526,-0.006000000186975531,-0.0019999999928448997,0.0329999989439571
-0.07661445438861847,0,10.007762908935547,-0.00139999995008111,0,0.03909999877214432,-0.006000000186975531,-0.07199999890865307,0.0329999989439571
-0.06703764945268631,0,9.988609313964844,0.007699999958276749,0,0.019500000402331352,0.04200000047506539,-0.09399999820462447,-0.021000000237532696
-0.07661445438861847,0,10.007762908935547,-0.001999999862164259,0,0.03909999877214432,-0.0269999995907449,-0.024000000747902123,0.048000001495804245
-0.08619125932455063,0,10.007762908935547,-0.010999999940395355,0,0.03909999877214432,-0.0269999995907449,-0.024000000747902123,0.048000001495804245
-0.07661445438861847,0,10.017339706420898,-0.0011999999405816197,0,0.048899997025728226,0.04200000047506539,0.04500000098543482,0.048000001495804245
-0.06703764945268631,0,10.007762908935547,0.008100000210106373,0,0,-0.0269999995907449,-0.024000000747902123,0.048000001495804245
-0.07661445438861847,0,10.007762908935547,-0.0015999999595806003,0,0,0.04200000047506539,-0.024000000747902123,-0.021000000237532696
-0.07661445438861847,0,10.017339706420898,-0.001500000013038516,0,0.009800000116229057,0.04200000047506539,0.04500000098543482,0.048000001495804245
-0.06703764945268631,0,10.007762908935547,0.008299999870359898,0,0,0.04200000047506539,0.04500000098543482,0.048000001495804245
-0.06703764945268631,0,9.998186111450195,0.007699999958276749,0,-0.00969999935477972,-0.0269999995907449,0.04500000098543482,0.048000001495804245
-0.07661445438861847,0,9.988609313964844,-0.0018999999156221747,0,-0.019500000402331352,0.04200000047506539,0.04500000098543482,-0.021000000237532696
-0.07661445438861847,0,10.007762908935547,-0.0018999999156221747,0,0,-0.0269999995907449,-0.024000000747902123,0.048000001495804245
-0.07661445438861847,0,10.007762908935547,-0.0018999999156221747,0,0,-0.0269999995907449,-0.024000000747902123,0.048000001495804245
-0.06703764945268631,0,9.998186111450195,0.0072999997064471245,0,-0.00969999935477972,-0.0269999995907449,-0.024000000747902123,0.048000001495804245
-0.07661445438861847,0,9.998186111450195,-0.0023999998811632395,0,-0.00969999935477972,-0.0269999995907449,0.04500000098543482,0.048000001495804245
-0.06703764945268631,0,10.02691650390625,0.006799999624490738,0,0.019600000232458115,0.04200000047506539,0.04500000098543482,0.048000001495804245
-0.08619125932455063,0,9.988609313964844,-0.01269999984651804,0,-0.019500000402331352,0.04200000047506539,-0.024000000747902123,-0.021000000237532696
-0.08619125932455063,0,9.998186111450195,-0.002699999837204814,0,0,-0.0269999995907449,0.04500000098543482,0.048000001495804245
-0.07661445438861847,0,9.998186111450195,-0.0024999999441206455,0,-0.00969999935477972,-0.0269999995907449,0.04500000098543482,0.048000001495804245
-0.06703764945268631,0,10.007762908935547,0.007199999876320362,0,0,0.11200000126684104,0.04500000098543482,-0.021000000237532696
-0.06703764945268631,0,10.007762908935547,0.0066999997943639755,0,0,-0.0269999995907449,0.04500000098543482,0.1180000022875799
-0.07661445438861847,0,10.017339706420898,-0.003000000026077032,0,0.009800000116229057,-0.0269999995907449,-0.024000000747902123,0.048000001495804245
-0.07661445438861847,0,10.007762908935547,-0.00279999990016222,0,0,0.04200000047506539,-0.024000000747902123,0.048000001495804245
-0.07661445438861847,0,10.017339706420898,-0.00279999990016222,0,0.009800000116229057,-0.0269999995907449,-0.024000000747902123,-0.021000000237532696
-0.06703764945268631,0,10.017339706420898,0.006399999838322401,0,0.009800000116229057,0.04200000047506539,0.04500000098543482,0.048000001495804245
-0.07661445438861847,0,10.007762908935547,-0.0032999999821186066,0,0,-0.0969999987149939,-0.024000000747902123,-0.021000000237532696
-0.08619125932455063,0,10.02691650390625,-0.012199999764561653,0,0.019600000232458115,0.04200000047506539,-0.024000000747902123,0.048000001495804245
-0.05746084079146385,0,10.017339706420898,0.017099998891353607,0,0.009800000116229057,-0.0269999995907449,-0.024000000747902123,0.048000001495804245
-0.07661445438861847,0,9.998186111450195,-0.002199999988079071,0,-0.00969999935477972,0.04200000047506539,-0.024000000747902123,0.048000001495804245
-0.08619125932455063,0,10.046070098876953,-0.012000000104308128,0,0.03920000046491623,-0.0269999995907449,0.04500000098543482,0.048000001495804245
-0.05746084079146385,0,10.017339706420898,0.016099998727440834,0,0.009800000116229057,0.04200000047506539,0.04500000098543482,0.048000001495804245
-0.09576806426048279,0,10.007762908935547,-0.023000000044703484,0,0,-0.0269999995907449,0.04500000098543482,0.048000001495804245
-0.08619125932455063,0,10.055646896362305,-0.012299999594688416,0,0.04899999871850014,-0.0269999995907449,-0.024000000747902123,0.048000001495804245
-0.06703764945268631,0,9.998186111450195,0.0066999997943639755,0,-0.00969999935477972,-0.0269999995907449,-0.024000000747902123,0.048000001495804245
-0.06703764945268631,0,9.998186111450195,0.0066999997943639755,0,-0.00969999935477972,-0.0269999995907449,-0.024000000747902123,0.048000001495804245
-0.047884032130241394,0,10.007762908935547,0.0066999997943639755,0,0.029399998486042023,-0.0969999987149939,0.04500000098543482,0.1180000022875799
-0.047884032130241394,0,10.007762908935547,0.02449999935925007,0,0,-0.0969999987149939,0.04500000098543482,0.1180000022875799
-0.07661445438861847,0,10.007762908935547,-0.004799999762326479,0,0,-0.0269999995907449,-0.024000000747902123,-0.021000000237532696
-0.08619125932455063,0,10.036493301391602,-0.013599999248981476,0,0.029399998486042023,-0.0269999995907449,-0.024000000747902123,0.048000001495804245
-0.06703764945268631,0,9.998186111450195,0.0058999997563660145,0,-0.00969999935477972,0.04200000047506539,0.04500000098543482,0.048000001495804245
-0.09576806426048279,0,9.998186111450195,-0.021800000220537186,0,-0.00969999935477972,0.04200000047506539,-0.024000000747902123,0.048000001495804245
-0.07661445438861847,0,10.036493301391602,-0.002199999988079071,0,0.029399998486042023,-0.0269999995907449,-0.024000000747902123,0.048000001495804245
-0.06703764945268631,0,9.998186111450195,0.00699999975040555,0,-0.00969999935477972,-0.0269999995907449,0.04500000098543482,0.048000001495804245
-0.07661445438861847,0,10.017339706420898,-0.002699999837204814,0,0.009800000116229057,-0.0269999995907449,-0.024000000747902123,0.048000001495804245
-0.08619125932455063,0,9.998186111450195,-0.011699999682605267,0,-0.00969999935477972,-0.0269999995907449,-0.024000000747902123,0.048000001495804245
-0.07661445438861847,0,10.007762908935547,-0.0016999999061226845,0,0,0.04200000047506539,0.04500000098543482,0.048000001495804245
-0.09576806426048279,0,10.017339706420898,-0.021299999207258224,0,0.009800000116229057,0.04200000047506539,-0.024000000747902123,0.048000001495804245
-0.06703764945268631,0,9.998186111450195,0.007400000002235174,0,-0.00969999935477972,0.04200000047506539,-0.024000000747902123,0.048000001495804245
-0.06703764945268631,0,10.007762908935547,0.007400000002235174,0,0,0.04200000047506539,-0.024000000747902123,0.048000001495804245
-0.06703764945268631,0,10.017339706420898,0.006899999920278788,0,0.009800000116229057,0.04200000047506539,0.04500000098543482,0.048000001495804245
-0.07661445438861847,0,10.017339706420898,-0.00279999990016222,0,0.009800000116229057,0.04200000047506539,0.04500000098543482,-0.021000000237532696
-0.07661445438861847,0,9.998186111450195,-0.0026000000070780516,0,-0.00969999935477972,0.04200000047506539,0.04500000098543482,0.048000001495804245
-0.07661445438861847,0,9.998186111450195,-0.0026000000070780516,0,-0.00969999935477972,-0.0269999995907449,0.04500000098543482,0.048000001495804245
-0.047884032130241394,0,10.017339706420898,0.02499999850988388,0,0.00009999999747378752,-0.0269999995907449,0.04500000098543482,0.048000001495804245
-0.08619125932455063,0,10.007762908935547,-0.0142000000923872,0,-0.009599999524652958,-0.0269999995907449,0.04500000098543482,0.048000001495804245
-0.07661445438861847,0,10.02691650390625,-0.004100000020116568,0,0.00989999994635582,-0.0269999995907449,-0.024000000747902123,0.048000001495804245
-0.07661445438861847,0,10.017339706420898,-0.004100000020116568,0,0.00009999999747378752,-0.0269999995907449,-0.024000000747902123,0.048000001495804245
-0.07661445438861847,0,10.017339706420898,-0.0037999998312443495,0,0.00009999999747378752,0.04200000047506539,0.04500000098543482,-0.021000000237532696
-0.06703764945268631,0,10.017339706420898,0.0058999997563660145,0,0.00009999999747378752,-0.0269999995907449,0.04500000098543482,0.048000001495804245
-0.05746084079146385,0,10.007762908935547,0.014699999243021011,0,-0.009599999524652958,0.04200000047506539,-0.024000000747902123,-0.021000000237532696
-0.07661445438861847,0,10.007762908935547,-0.004900000058114529,0,-0.009599999524652958,-0.0269999995907449,-0.024000000747902123,0.048000001495804245
-0.08619125932455063,0,10.007762908935547,-0.013599999248981476,0,-0.009599999524652958,-0.0969999987149939,-0.024000000747902123,-0.021000000237532696
-0.06703764945268631,0,10.007762908935547,0.0058999997563660145,0,-0.009599999524652958,0.04200000047506539,0.11500000177721047,-0.021000000237532696
-0.08619125932455063,0,10.02691650390625,-0.01269999984651804,0,0.00989999994635582,-0.0269999995907449,-0.024000000747902123,0.048000001495804245
-0.08619125932455063,0,10.007762908935547,-0.01269999984651804,0,-0.009599999524652958,0.04200000047506539,-0.024000000747902123,-0.021000000237532696
-0.08619125932455063,0,9.998186111450195,-0.011799999512732029,0,-0.01939999870955944,-0.0269999995907449,-0.024000000747902123,0.048000001495804245
-0.06703764945268631,0,10.007762908935547,0.007699999958276749,0,-0.009599999524652958,-0.0269999995907449,-0.09399999820462447,0.048000001495804245
-0.07661445438861847,0,10.017339706420898,-0.0018999999156221747,0,0.00009999999747378752,0.04200000047506539,-0.024000000747902123,0.048000001495804245
-0.07661445438861847,0,9.998186111450195,-0.0018999999156221747,0,-0.01939999870955944,0.04200000047506539,0.04500000098543482,-0.021000000237532696
-0.06703764945268631,0,10.007762908935547,0.0072999997064471245,0,-0.009599999524652958,0.04200000047506539,-0.024000000747902123,0.048000001495804245
-0.06703764945268631,0,10.007762908935547,0.0072999997064471245,0,-0.009599999524652958,0.04200000047506539,0.04500000098543482,0.048000001495804245
-0.06703764945268631,0,10.007762908935547,0.006799999624490738,0,-0.009599999524652958,-0.0269999995907449,-0.024000000747902123,0.1180000022875799
-0.06703764945268631,0,9.998186111450195,0.006300000008195639,0,-0.01939999870955944,0.04200000047506539,0.04500000098543482,0.048000001495804245
-0.10534487664699554,0,10.007762908935547,-0.03280000016093254,0,-0.009599999524652958,-0.0969999987149939,-0.024000000747902123,0.1180000022875799
-0.06703764945268631,0,10.017339706420898,0.0058999997563660145,0,0.00009999999747378752,-0.0269999995907449,0.04500000098543482,-0.021000000237532696
-0.07661445438861847,0,10.007762908935547,-0.0037999998312443495,0,-0.009599999524652958,-0.0269999995907449,0.04500000098543482,-0.021000000237532696
-0.09576806426048279,0,10.007762908935547,-0.021800000220537186,0,-0.009599999524652958,-0.0269999995907449,-0.024000000747902123,-0.021000000237532696
-0.07661445438861847,0,10.007762908935547,-0.002199999988079071,0,-0.009599999524652958,-0.0269999995907449,-0.024000000747902123,0.048000001495804245
-0.06703764945268631,0,9.998186111450195,0.00699999975040555,0,-0.01939999870955944,-0.0969999987149939,-0.024000000747902123,0.048000001495804245
-0.07661445438861847,0,9.998186111450195,-0.002699999837204814,0,-0.01939999870955944,0.04200000047506539,0.04500000098543482,-0.021000000237532696
-0.06703764945268631,0,10.007762908935547,0.0064999996684491634,0,-0.009599999524652958,-0.0269999995907449,0.04500000098543482,0.048000001495804245
-0.07661445438861847,0,10.017339706420898,-0.0031999999191612005,0,0.00009999999747378752,-0.0269999995907449,-0.024000000747902123,-0.021000000237532696
-0.07661445438861847,0,9.998186111450195,-0.002899999963119626,0,-0.01939999870955944,0.04200000047506539,0.04500000098543482,0.048000001495804245
-0.06703764945268631,0,10.007762908935547,0.006799999624490738,0,-0.009599999524652958,-0.0269999995907449,-0.024000000747902123,0.048000001495804245
-0.07661445438861847,0,9.998186111450195,-0.002699999837204814,0,-0.01939999870955944,0.04200000047506539,0.04500000098543482,-0.021000000237532696
-0.06703764945268631,0,9.998186111450195,0.00699999975040555,0,-0.01939999870955944,-0.0269999995907449,-0.024000000747902123,0.048000001495804245
-0.07661445438861847,0,10.007762908935547,-0.0024999999441206455,0,-0.009599999524652958,0.04200000047506539,-0.024000000747902123,-0.021000000237532696
-0.06703764945268631,0,10.007762908935547,0.007199999876320362,0,-0.009599999524652958,-0.0269999995907449,-0.024000000747902123,0.048000001495804245
-0.06703764945268631,0,10.017339706420898,-0.002300000051036477,0,-0.029199998825788498,0.04200000047506539,0.04500000098543482,0.048000001495804245
-0.06703764945268631,0,10.017339706420898,0.007400000002235174,0,0.00009999999747378752,-0.0269999995907449,0.04500000098543482,0.048000001495804245
-0.08619125932455063,0,10.007762908935547,-0.012600000016391277,0,-0.009599999524652958,0.04200000047506539,-0.024000000747902123,0.048000001495804245
-0.06703764945268631,0,10.017339706420898,0.006399999838322401,0,0.00009999999747378752,-0.0269999995907449,0.04500000098543482,0.048000001495804245
-0.07661445438861847,0,9.998186111450195,-0.0030999998562037945,0,-0.01939999870955944,-0.0269999995907449,0.04500000098543482,0.1180000022875799
-0.10534487664699554,0,10.017339706420898,-0.03019999898970127,0,0.00009999999747378752,-0.0269999995907449,-0.024000000747902123,-0.021000000237532696
-0.06703764945268631,0,10.007762908935547,0.008899999782443047,0,-0.009599999524652958,-0.0269999995907449,-0.024000000747902123,0.048000001495804245
-0.06703764945268631,0,9.988609313964844,0.008299999870359898,0,-0.029199998825788498,0.04200000047506539,0.04500000098543482,0.048000001495804245
-0.06703764945268631,0,9.988609313964844,0.008299999870359898,0,-0.029199998825788498,-0.0269999995907449,0.04500000098543482,-0.021000000237532696
-0.07661445438861847,0,9.998186111450195,-0.0013000000035390258,0,-0.01939999870955944,0.04200000047506539,-0.024000000747902123,0.048000001495804245
-0.07661445438861847,0,9.998186111450195,-0.0013000000035390258,0,-0.01939999870955944,0.04200000047506539,0.04500000098543482,0.048000001495804245
-0.07661445438861847,0,9.998186111450195,-0.0013000000035390258,0,0,0.04200000047506539,-0.024000000747902123,0.048000001495804245
-0.06703764945268631,0,9.998186111450195,0.00839999970048666,0,0,-0.0269999995907449,-0.024000000747902123,0.048000001495804245
-0.07661445438861847,0,9.988609313964844,-0.0011999999405816197,0,-0.009800000116229057,-0.0269999995907449,-0.09399999820462447,0.048000001495804245
-0.07661445438861847,0,9.998186111450195,-0.0011999999405816197,0,0,0.04200000047506539,-0.024000000747902123,-0.021000000237532696
-0.07661445438861847,0,9.979032516479492,-0.0010999999940395355,0,-0.019600000232458115,-0.0269999995907449,0.04500000098543482,0.048000001495804245
-0.07661445438861847,0,10.017339706420898,-0.0010999999940395355,0,0.019600000232458115,0.04200000047506539,-0.024000000747902123,-0.021000000237532696
-0.07661445438861847,0,9.979032516479492,-0.0009999999310821295,0,-0.019600000232458115,-0.0969999987149939,-0.024000000747902123,0.048000001495804245
-0.08619125932455063,0,9.998186111450195,-0.010799999348819256,0,0,-0.0269999995907449,0.04500000098543482,0.048000001495804245
-0.07661445438861847,0,9.998186111450195,-0.0009999999310821295,0,0,-0.0269999995907449,0.11500000177721047,-0.021000000237532696
-0.06703764945268631,0,10.007762908935547,0.008100000210106373,0,0.00969999935477972,0.04200000047506539,0.11500000177721047,0.048000001495804245
-0.07661445438861847,0,9.988609313964844,-0.0015999999595806003,0,-0.009800000116229057,-0.0269999995907449,-0.024000000747902123,0.048000001495804245
-0.07661445438861847,0,9.988609313964844,-0.0015999999595806003,0,-0.009800000116229057,0.04200000047506539,0.04500000098543482,0.048000001495804245
-0.05746084079146385,0,9.988609313964844,0.01809999905526638,0,-0.009800000116229057,-0.0969999987149939,-0.024000000747902123,0.048000001495804245
-0.05746084079146385,0,9.988609313964844,0.01809999905526638,0,-0.009800000116229057,-0.0969999987149939,-0.024000000747902123,0.048000001495804245
-0.08619125932455063,0,9.988609313964844,-0.010499999858438969,0,-0.009800000116229057,0.04200000047506539,0.04500000098543482,0.048000001495804245
-0.06703764945268631,0,9.998186111450195,0.01889999955892563,0,-0.019600000232458115,-0.0969999987149939,-0.024000000747902123,-0.021000000237532696
-0.07661445438861847,0,9.979032516479492,0.00839999970048666,0,0,0.11200000126684104,-0.024000000747902123,0.048000001495804245
-0.07661445438861847,0,9.96945571899414,-0.0011999999405816197,0,-0.029399998486042023,-0.0269999995907449,-0.024000000747902123,0.048000001495804245
-0.08619125932455063,0,9.979032516479492,-0.010999999940395355,0,-0.019600000232458115,0.04200000047506539,-0.024000000747902123,-0.021000000237532696
-0.07661445438861847,0,9.988609313964844,-0.0010999999940395355,0,-0.009800000116229057,-0.0269999995907449,-0.024000000747902123,0.048000001495804245
-0.06703764945268631,0,9.988609313964844,0.008599999360740185,0,-0.009800000116229057,0.04200000047506539,-0.024000000747902123,0.048000001495804245
-0.06703764945268631,0,9.979032516479492,0.007999999448657036,0,-0.019600000232458115,0.04200000047506539,0.04500000098543482,0.048000001495804245
-0.07661445438861847,0,9.988609313964844,-0.0016999999061226845,0,-0.009800000116229057,0.04200000047506539,-0.024000000747902123,0.048000001495804245
-0.06703764945268631,0,9.988609313964844,0.007499999832361937,0,-0.009800000116229057,-0.0269999995907449,0.04500000098543482,0.048000001495804245
-0.08619125932455063,0,9.988609313964844,-0.012000000104308128,0,-0.009800000116229057,-0.0269999995907449,-0.024000000747902123,0.048000001495804245
-0.06703764945268631,0,9.988609313964844,0.00699999975040555,0,-0.009800000116229057,0.04200000047506539,0.11500000177721047,0.048000001495804245
-0.07661445438861847,0,9.998186111450195,-0.002699999837204814,0,0,-0.0269999995907449,-0.024000000747902123,0.048000001495804245
-0.07661445438861847,0,9.979032516479492,-0.0024999999441206455,0,-0.019600000232458115,0.04200000047506539,0.04500000098543482,0.048000001495804245
-0.05746084079146385,0,9.979032516479492,0.016999999061226845,0,-0.019600000232458115,-0.0969999987149939,-0.024000000747902123,0.048000001495804245
-0.06703764945268631,0,9.998186111450195,0.0066999997943639755,0,0,0.04200000047506539,0.04500000098543482,-0.021000000237532696
-0.06703764945268631,0,9.988609313964844,0.0066999997943639755,0,-0.009800000116229057,-0.0269999995907449,0.04500000098543482,0.048000001495804245
-0.07661445438861847,0,9.988609313964844,-0.00279999990016222,0,-0.009800000116229057,-0.0269999995907449,-0.024000000747902123,0.048000001495804245
-0.06703764945268631,0,9.988609313964844,0.006899999920278788,0,-0.009800000116229057,0.04200000047506539,0.04500000098543482,0.048000001495804245
-0.07661445438861847,0,9.988609313964844,-0.0026000000070780516,0,-0.009800000116229057,-0.0269999995907449,0.04500000098543482,0.048000001495804245
-0.07661445438861847,0,9.988609313964844,-0.0026000000070780516,0,-0.009800000116229057,0.04200000047506539,0.04500000098543482,0.048000001495804245
-0.07661445438861847,0,9.979032516479492,-0.0023999998811632395,0,-0.019600000232458115,-0.0269999995907449,0.04500000098543482,0.048000001495804245
-0.08619125932455063,0,9.988609313964844,-0.012199999764561653,0,-0.009800000116229057,-0.0269999995907449,-0.024000000747902123,0.048000001495804245
-0.07661445438861847,0,9.979032516479492,-0.002199999988079071,0,-0.019600000232458115,0.04200000047506539,0.04500000098543482,0.048000001495804245
-0.07661445438861847,0,9.988609313964844,-0.002199999988079071,0,-0.009800000116229057,-0.0969999987149939,-0.024000000747902123,0.048000001495804245
-0.07661445438861847,0,9.998186111450195,-0.002099999925121665,0,0,-0.0269999995907449,-0.024000000747902123,0.048000001495804245
-0.08619125932455063,0,9.998186111450195,0.007599999662488699,0,-0.009800000116229057,0.04200000047506539,-0.024000000747902123,-0.021000000237532696
-0.07661445438861847,0,9.979032516479492,-0.0011999999405816197,0,-0.019600000232458115,-0.0269999995907449,0.04500000098543482,0.1180000022875799
-0.07661445438861847,0,9.979032516479492,-0.0011999999405816197,0,-0.019600000232458115,0.04200000047506539,0.04500000098543482,-0.021000000237532696
-0.06703764945268631,0,9.979032516479492,0.008599999360740185,0,-0.019600000232458115,-0.0269999995907449,0.04500000098543482,0.048000001495804245
-0.08619125932455063,0,9.988609313964844,-0.010199999436736107,0,-0.009800000116229057,-0.0969999987149939,-0.024000000747902123,0.048000001495804245
-0.07661445438861847,0,9.979032516479492,-0.00039999998989515007,0,-0.019600000232458115,-0.0269999995907449,-0.024000000747902123,0.048000001495804245
-0.07661445438861847,0,9.96945571899414,-0.00029999998514540493,0,-0.029399998486042023,-0.0269999995907449,0.04500000098543482,0.048000001495804245
-0.07661445438861847,0,9.96945571899414,-0.00029999998514540493,0,-0.029399998486042023,-0.0269999995907449,0.04500000098543482,-0.021000000237532696
-0.07661445438861847,0,9.96945571899414,-0.0004999999655410647,0,0,-0.0269999995907449,-0.024000000747902123,-0.021000000237532696
-0.06703764945268631,0,9.979032516479492,0.009200000204145908,0,0.009800000116229057,0.04200000047506539,-0.09399999820462447,0.048000001495804245
-0.07661445438861847,0,9.998186111450195,-0.0004999999655410647,0,0.029399998486042023,0.04200000047506539,0.04500000098543482,-0.021000000237532696
-0.08619125932455063,0,9.998186111450195,-0.010300000198185444,0,0.029399998486042023,0.04200000047506539,0.04500000098543482,0.048000001495804245
-0.08619125932455063,0,9.988609313964844,-0.009599999524652958,0,0.019600000232458115,0.04200000047506539,-0.024000000747902123,0.048000001495804245
-0.08619125932455063,0,9.988609313964844,-0.009599999524652958,0,0.019600000232458115,-0.0269999995907449,0.04500000098543482,0.048000001495804245
-0.06703764945268631,0,9.988609313964844,0.009200000204145908,0,0.019600000232458115,-0.0269999995907449,0.04500000098543482,0.048000001495804245
-0.06703764945268631,0,9.988609313964844,0.00930000003427267,0,0.019600000232458115,-0.0269999995907449,0.04500000098543482,0.048000001495804245
-0.06703764945268631,0,9.979032516479492,0.008599999360740185,0,0.00969999935477972,-0.0969999987149939,-0.024000000747902123,0.1180000022875799
-0.08619125932455063,0,9.988609313964844,-0.010199999436736107,0,0.019600000232458115,0.04200000047506539,0.04500000098543482,0.048000001495804245
-0.08619125932455063,0,9.988609313964844,-0.010199999436736107,0,0.019600000232458115,0.04200000047506539,0.04500000098543482,0.048000001495804245
-0.05746084079146385,0,9.988609313964844,0.019199999049305916,0,0.019600000232458115,0.04200000047506539,-0.024000000747902123,0.048000001495804245
-0.07661445438861847,0,9.979032516479492,-0.00029999998514540493,0,0.009800000116229057,-0.0269999995907449,-0.024000000747902123,0.048000001495804245
-0.08619125932455063,0,9.988609313964844,-0.00029999998514540493,0,0.029399998486042023,-0.0969999987149939,-0.024000000747902123,-0.021000000237532696
-0.08619125932455063,0,9.988609313964844,-0.009399999864399433,0,0.019600000232458115,0.04200000047506539,0.04500000098543482,-0.021000000237532696
-0.07661445438861847,0,9.988609313964844,0.00029999998514540493,0,0.019600000232458115,-0.0269999995907449,-0.024000000747902123,0.048000001495804245
-0.08619125932455063,0,9.988609313964844,-0.008799999952316284,0,0.009800000116229057,0.04200000047506539,-0.024000000747902123,0.048000001495804245
-0.06703764945268631,0,9.988609313964844,-0.008799999952316284,0,0.019600000232458115,0.04200000047506539,0.04500000098543482,0.048000001495804245
-0.07661445438861847,0,10.007762908935547,0.00019999999494757503,0,0.03920000046491623,-0.0269999995907449,-0.024000000747902123,0.048000001495804245
-0.05746084079146385,0,9.998186111450195,0.018400000408291817,0,0.029399998486042023,0.11200000126684104,-0.024000000747902123,0.048000001495804245
-0.06703764945268631,0,9.998186111450195,0.008599999360740185,0,0.029399998486042023,-0.0269999995907449,-0.024000000747902123,0.048000001495804245
-0.07661445438861847,0,10.007762908935547,-0.0009999999310821295,0,0.03920000046491623,0.04200000047506539,-0.024000000747902123,0.048000001495804245
-0.08619125932455063,0,9.998186111450195,-0.010900000110268593,0,0.029399998486042023,-0.0969999987149939,0.04500000098543482,0.048000001495804245
-0.08619125932455063,0,9.998186111450195,-0.010099999606609344,0,0.029399998486042023,0.04200000047506539,-0.024000000747902123,0.048000001495804245
-0.06703764945268631,0,9.988609313964844,0.009399999864399433,0,0.019600000232458115,-0.0269999995907449,0.04500000098543482,0.048000001495804245
-0.05746084079146385,0,9.96945571899414,0.017899999395012856,0,0,-0.0269999995907449,-0.024000000747902123,-0.021000000237532696
-0.07661445438861847,0,9.979032516479492,-0.0015999999595806003,0,0.00969999935477972,-0.0269999995907449,0.04500000098543482,0.048000001495804245
-0.08619125932455063,0,9.988609313964844,-0.010699999518692493,0,0.019600000232458115,-0.0269999995907449,-0.024000000747902123,0.048000001495804245
-0.05746084079146385,0,9.998186111450195,0.018699999898672104,0,0.029399998486042023,-0.0269999995907449,0.04500000098543482,0.048000001495804245
-0.08619125932455063,0,9.988609313964844,-0.00989999994635582,0,0.019600000232458115,0.04200000047506539,-0.024000000747902123,0.048000001495804245
-0.08619125932455063,0,10.007762908935547,-0.00989999994635582,0,0.03920000046491623,0.04200000047506539,-0.024000000747902123,0.048000001495804245
-0.08619125932455063,0,9.988609313964844,-0.009200000204145908,0,0.019600000232458115,-0.0269999995907449,-0.024000000747902123,0.048000001495804245
-0.047884032130241394,0,9.998186111450195,0.029899999499320984,0,0.029399998486042023,0.04200000047506539,-0.024000000747902123,-0.021000000237532696
-0.08619125932455063,0,9.988609313964844,-0.008599999360740185,0,0.019600000232458115,0.04200000047506539,0.04500000098543482,0.048000001495804245
-0.06703764945268631,0,9.988609313964844,0.010900000110268593,0,0.019600000232458115,-0.0269999995907449,-0.024000000747902123,-0.021000000237532696
-0.10534487664699554,0,9.988609313964844,-0.02630000002682209,0,0.019600000232458115,-0.0269999995907449,-0.024000000747902123,0.048000001495804245
-0.07661445438861847,0,9.979032516479492,0.003000000026077032,0,0.009800000116229057,-0.0269999995907449,-0.024000000747902123,0.048000001495804245
-0.07661445438861847,0,9.988609313964844,0.00279999990016222,0,0.019600000232458115,0.04200000047506539,0.04500000098543482,0.048000001495804245
-0.08619125932455063,0,9.979032516479492,-0.006899999920278788,0,0.009800000116229057,-0.0969999987149939,-0.024000000747902123,0.048000001495804245
-0.07661445438861847,0,9.998186111450195,0.0026000000070780516,0,0.029399998486042023,-0.0969999987149939,-0.09399999820462447,-0.021000000237532696
-0.06703764945268631,0,9.998186111450195,0.011500000022351742,0,0.029399998486042023,-0.0969999987149939,-0.024000000747902123,-0.021000000237532696
-0.07661445438861847,0,9.96945571899414,0.0016999999061226845,0,0,0.04200000047506539,0.04500000098543482,0.048000001495804245
-0.07661445438861847,0,9.988609313964844,0.0015999999595806003,0,0.019600000232458115,-0.0269999995907449,0.04500000098543482,0.048000001495804245
-0.06703764945268631,0,9.988609313964844,0.011399999260902405,0,0.019600000232458115,0.04200000047506539,0.04500000098543482,0.048000001495804245
-0.07661445438861847,0,9.988609313964844,0.001500000013038516,0,0.019600000232458115,-0.0269999995907449,0.04500000098543482,0.048000001495804245
-0.06703764945268631,0,9.979032516479492,0.011299999430775642,0,0.009800000116229057,0.04200000047506539,-0.024000000747902123,0.048000001495804245
-0.06703764945268631,0,9.988609313964844,0.010499999858438969,0,0.019600000232458115,-0.0969999987149939,-0.024000000747902123,0.048000001495804245
-0.07661445438861847,0,9.988609313964844,0.000699999975040555,0,0.019600000232458115,-0.0969999987149939,-0.024000000747902123,-0.021000000237532696
-0.08619125932455063,0,10.007762908935547,-0.008100000210106373,0,0,-0.0269999995907449,0.04500000098543482,-0.021000000237532696
-0.07661445438861847,0,9.979032516479492,0.0015999999595806003,0,-0.029399998486042023,-0.0969999987149939,-0.024000000747902123,0.048000001495804245
-0.05746084079146385,0,10.017339706420898,0.019700000062584877,0,0.00969999935477972,0.04200000047506539,0.04500000098543482,-0.021000000237532696
-0.06703764945268631,0,9.998186111450195,0.00989999994635582,0,-0.009800000116229057,-0.0269999995907449,-0.024000000747902123,0.048000001495804245
-0.05746084079146385,0,9.998186111450195,0.018400000408291817,0,-0.009800000116229057,0.04200000047506539,-0.024000000747902123,0.048000001495804245
-0.08619125932455063,0,10.007762908935547,-0.010999999940395355,0,0,0.04200000047506539,0.04500000098543482,0.048000001495804245
-0.06703764945268631,0,9.988609313964844,0.007999999448657036,0,-0.019600000232458115,0.11200000126684104,-0.024000000747902123,-0.021000000237532696
-0.07661445438861847,0,9.988609313964844,-0.0016999999061226845,0,-0.019600000232458115,-0.0269999995907449,0.04500000098543482,-0.021000000237532696
-0.06703764945268631,0,9.998186111450195,0.007400000002235174,0,-0.009800000116229057,-0.0269999995907449,0.04500000098543482,-0.021000000237532696
-0.05746084079146385,0,9.988609313964844,0.01719999872148037,0,-0.019700000062584877,0.04200000047506539,0.04500000098543482,0.048000001495804245
-0.06703764945268631,0,9.998186111450195,0.006899999920278788,0,-0.009800000116229057,-0.0269999995907449,-0.024000000747902123,0.048000001495804245
-0.08619125932455063,0,9.988609313964844,-0.012600000016391277,0,-0.019700000062584877,0.04200000047506539,0.04500000098543482,0.048000001495804245
-0.06703764945268631,0,9.979032516479492,0.006399999838322401,0,-0.029500000178813934,-0.0969999987149939,-0.09399999820462447,0.048000001495804245
-0.08619125932455063,0,9.979032516479492,-0.013100000098347664,0,-0.029500000178813934,0.04200000047506539,-0.024000000747902123,-0.021000000237532696
-0.06703764945268631,0,9.988609313964844,0.006000000052154064,0,-0.019700000062584877,0.04200000047506539,-0.024000000747902123,0.048000001495804245
-0.07661445438861847,0,9.988609313964844,-0.003700000001117587,0,-0.019700000062584877,0.04200000047506539,0.04500000098543482,0.048000001495804245
-0.06703764945268631,0,9.96945571899414,-0.003399999812245369,0,-0.019700000062584877,-0.0269999995907449,-0.024000000747902123,0.048000001495804245
-0.06703764945268631,0,9.96945571899414,0.006300000008195639,0,-0.03929999843239784,-0.0269999995907449,-0.024000000747902123,0.048000001495804245
-0.06703764945268631,0,9.979032516479492,0.007199999876320362,0,-0.029500000178813934,-0.0269999995907449,-0.024000000747902123,0.048000001495804245
-0.06703764945268631,0,9.988609313964844,0.0066999997943639755,0,-0.019700000062584877,0.04200000047506539,-0.024000000747902123,-0.021000000237532696
-0.08619125932455063,0,9.979032516479492,-0.012799999676644802,0,-0.029500000178813934,-0.0969999987149939,-0.024000000747902123,-0.021000000237532696
-0.08619125932455063,0,9.988609313964844,-0.011899999342858791,0,-0.019700000062584877,-0.0269999995907449,-0.024000000747902123,-0.021000000237532696
-0.08619125932455063,0,9.979032516479492,-0.011899999342858791,0,-0.029500000178813934,0.04200000047506539,0.11500000177721047,0.048000001495804245
-0.07661445438861847,0,9.998186111450195,-0.0018999999156221747,0,-0.009800000116229057,-0.0269999995907449,-0.024000000747902123,-0.021000000237532696
-0.07661445438861847,0,9.979032516479492,-0.0018999999156221747,0,-0.029500000178813934,0.04200000047506539,0.04500000098543482,0.048000001495804245
-0.06703764945268631,0,9.979032516479492,0.007199999876320362,0,-0.029500000178813934,-0.0269999995907449,-0.024000000747902123,-0.021000000237532696
-0.07661445438861847,0,9.988609313964844,-0.0024999999441206455,0,-0.019700000062584877,0.04200000047506539,-0.024000000747902123,-0.021000000237532696
-0.07661445438861847,0,9.998186111450195,-0.002300000051036477,0,-0.009800000116229057,-0.0269999995907449,0.04500000098543482,0.048000001495804245
-0.06703764945268631,0,9.979032516479492,0.007400000002235174,0,-0.029500000178813934,0.04200000047506539,0.04500000098543482,0.048000001495804245
-0.07661445438861847,0,9.988609313964844,-0.002099999925121665,0,-0.019700000062584877,-0.0969999987149939,-0.024000000747902123,0.048000001495804245
-0.08619125932455063,0,9.979032516479492,-0.011899999342858791,0,-0.029500000178813934,-0.0269999995907449,-0.024000000747902123,0.048000001495804245
-0.05746084079146385,0,9.96945571899414,0.016200000420212746,0,-0.03929999843239784,-0.0269999995907449,0.04500000098543482,0.048000001495804245
-0.08619125932455063,0,9.988609313964844,-0.013100000098347664,0,-0.019700000062584877,-0.0269999995907449,0.04500000098543482,0.048000001495804245
-0.06703764945268631,0,9.988609313964844,0.006000000052154064,0,-0.019700000062584877,0.04200000047506539,-0.024000000747902123,-0.021000000237532696
-0.07661445438861847,0,9.96945571899414,-0.003700000001117587,0,-0.03929999843239784,-0.0969999987149939,-0.024000000747902123,-0.021000000237532696
-0.06703764945268631,0,9.979032516479492,-0.003499999875202775,0,-0.00989999994635582,-0.0969999987149939,-0.024000000747902123,0.048000001495804245
-0.06703764945268631,0,9.979032516479492,0.006199999712407589,0,-0.029500000178813934,-0.0969999987149939,-0.024000000747902123,0.048000001495804245
-0.07661445438861847,0,9.998186111450195,-0.0031999999191612005,0,-0.00989999994635582,-0.0269999995907449,-0.024000000747902123,0.048000001495804245
-0.06703764945268631,0,9.988609313964844,0.0064999996684491634,0,-0.019700000062584877,0.04200000047506539,0.04500000098543482,-0.021000000237532696
-0.06703764945268631,0,9.988609313964844,0.006000000052154064,0,-0.019700000062584877,0.04200000047506539,-0.024000000747902123,-0.021000000237532696
-0.08619125932455063,0,10.007762908935547,0.006000000052154064,0,-0.019700000062584877,-0.0269999995907449,-0.024000000747902123,0.048000001495804245
-0.06703764945268631,0,9.988609313964844,-0.01249999925494194,0,0,0.04200000047506539,0.04500000098543482,-0.021000000237532696
-0.06703764945268631,0,9.998186111450195,0.0064999996684491634,0,-0.00989999994635582,-0.0269999995907449,0.04500000098543482,0.048000001495804245
-0.06703764945268631,0,9.998186111450195,0.0064999996684491634,0,-0.00989999994635582,-0.0269999995907449,-0.024000000747902123,0.048000001495804245
-0.06703764945268631,0,9.998186111450195,0.006099999882280827,0,-0.00989999994635582,0.04200000047506539,0.04500000098543482,0.048000001495804245
-0.06703764945268631,0,9.998186111450195,0.006099999882280827,0,-0.00989999994635582,0.04200000047506539,0.04500000098543482,0.048000001495804245
-0.07661445438861847,0,9.998186111450195,-0.003399999812245369,0,-0.00989999994635582,0.04200000047506539,0.04500000098543482,-0.021000000237532696
-0.06703764945268631,0,9.988609313964844,0.006300000008195639,0,-0.019700000062584877,-0.0269999995907449,-0.024000000747902123,0.048000001495804245
-0.06703764945268631,0,9.988609313964844,0.005799999926239252,0,0,0.04200000047506539,-0.024000000747902123,-0.021000000237532696
-0.06703764945268631,0,9.998186111450195,0.005799999926239252,0,0.009800000116229057,0.04200000047506539,0.04500000098543482,0.048000001495804245
-0.06703764945268631,0,10.007762908935547,0.005399999674409628,0,0.019600000232458115,-0.0269999995907449,-0.024000000747902123,0.048000001495804245
-0.06703764945268631,0,9.988609313964844,0.005399999674409628,0,0,-0.0269999995907449,-0.024000000747902123,-0.021000000237532696
-0.07661445438861847,0,9.979032516479492,-0.003999999724328518,0,-0.00969999935477972,-0.0269999995907449,-0.024000000747902123,-0.021000000237532696
-0.08619125932455063,0,9.988609313964844,-0.013899999670684338,0,0,-0.0269999995907449,-0.024000000747902123,0.048000001495804245
-0.07661445438861847,0,9.979032516479492,-0.0037999998312443495,0,-0.00969999935477972,0.04200000047506539,-0.024000000747902123,-0.021000000237532696
-0.06703764945268631,0,9.96945571899414,0.006000000052154064,0,-0.019500000402331352,-0.0269999995907449,0.04500000098543482,0.048000001495804245
-0.07661445438861847,0,9.96945571899414,-0.003499999875202775,0,-0.019500000402331352,-0.0969999987149939,0.04500000098543482,0.048000001495804245
-0.08619125932455063,0,9.988609313964844,-0.013299999758601189,0,0,-0.0269999995907449,0.04500000098543482,0.048000001495804245
-0.06703764945268631,0,9.979032516479492,0.005799999926239252,0,-0.00969999935477972,-0.0269999995907449,-0.024000000747902123,0.048000001495804245
-0.07661445438861847,0,9.96945571899414,-0.0038999998942017555,0,-0.019500000402331352,0.04200000047506539,-0.024000000747902123,0.048000001495804245
-0.07661445438861847,0,9.988609313964844,-0.003599999938160181,0,0,-0.0969999987149939,-0.024000000747902123,-0.021000000237532696
-0.08619125932455063,0,9.979032516479492,-0.01249999925494194,0,-0.00969999935477972,-0.0269999995907449,-0.024000000747902123,0.048000001495804245
-0.08619125932455063,0,9.979032516479492,-0.01249999925494194,0,-0.00969999935477972,-0.0269999995907449,-0.024000000747902123,0.048000001495804245
-0.07661445438861847,0,9.988609313964844,-0.002699999837204814,0,0,-0.0269999995907449,-0.024000000747902123,0.048000001495804245
-0.06703764945268631,0,9.988609313964844,0.0064999996684491634,0,0,0.04200000047506539,0.04500000098543482,-0.021000000237532696
-0.08619125932455063,0,9.979032516479492,-0.01209999993443489,0,-0.00969999935477972,0.11200000126684104,0.04500000098543482,0.048000001495804245
-0.07661445438861847,0,9.988609313964844,-0.002300000051036477,0,0,-0.0269999995907449,-0.024000000747902123,0.048000001495804245
-0.07661445438861847,0,9.979032516479492,-0.002099999925121665,0,-0.00969999935477972,-0.0269999995907449,-0.024000000747902123,-0.021000000237532696
-0.07661445438861847,0,9.988609313964844,-0.002099999925121665,0,-0.00969999935477972,-0.0269999995907449,-0.024000000747902123,0.048000001495804245
-0.07661445438861847,0,9.96945571899414,-0.001999999862164259,0,-0.019500000402331352,-0.0269999995907449,-0.024000000747902123,-0.021000000237532696
-0.08619125932455063,0,9.979032516479492,-0.011799999512732029,0,-0.00969999935477972,0.04200000047506539,0.04500000098543482,-0.021000000237532696
-0.08619125932455063,0,9.979032516479492,-0.010900000110268593,0,-0.00969999935477972,-0.0269999995907449,-0.024000000747902123,0.048000001495804245
-0.07661445438861847,0,9.988609313964844,-0.0010999999940395355,0,0,0.04200000047506539,0.04500000098543482,0.048000001495804245
-0.07661445438861847,0,10.007762908935547,-0.0010999999940395355,0,0.019600000232458115,-0.0269999995907449,-0.024000000747902123,0.048000001495804245
-0.08619125932455063,0,9.988609313964844,-0.010900000110268593,0,0,-0.0269999995907449,-0.024000000747902123,0.048000001495804245
-0.08619125932455063,0,9.998186111450195,-0.010099999606609344,0,0.009800000116229057,0.04200000047506539,0.04500000098543482,0.048000001495804245
-0.06703764945268631,0,9.988609313964844,0.009399999864399433,0,0,-0.0269999995907449,0.04500000098543482,0.048000001495804245
-0.07661445438861847,0,9.988609313964844,-0.00029999998514540493,0,0,-0.0269999995907449,0.04500000098543482,0.048000001495804245
-0.06703764945268631,0,9.988609313964844,0.009399999864399433,0,0,-0.0269999995907449,-0.024000000747902123,0.048000001495804245
-0.05746084079146385,0,9.998186111450195,0.017899999395012856,0,0.009800000116229057,-0.0269999995907449,0.04500000098543482,0.048000001495804245
-0.07661445438861847,0,10.007762908935547,0.008100000210106373,0,0.009800000116229057,0.04200000047506539,0.04500000098543482,0.048000001495804245
-0.07661445438861847,0,9.998186111450195,-0.001500000013038516,0,0.009800000116229057,-0.0969999987149939,-0.09399999820462447,-0.021000000237532696
-0.07661445438861847,0,10.017339706420898,-0.00139999995008111,0,0.029399998486042023,0.04200000047506539,0.04500000098543482,-0.021000000237532696
-0.07661445438861847,0,10.017339706420898,-0.00139999995008111,0,0.029399998486042023,0.04200000047506539,0.04500000098543482,-0.021000000237532696
-0.08619125932455063,0,9.988609313964844,-0.01119999960064888,0,0,0.04200000047506539,-0.024000000747902123,0.048000001495804245
-0.07661445438861847,0,9.988609313964844,-0.0013000000035390258,0,0,0.04200000047506539,-0.024000000747902123,0.048000001495804245
-0.07661445438861847,0,9.979032516479492,-0.0013000000035390258,0,-0.00969999935477972,0.11200000126684104,0.04500000098543482,0.048000001495804245
-0.08619125932455063,0,9.988609313964844,-0.010999999940395355,0,0,-0.0269999995907449,-0.024000000747902123,0.048000001495804245
-0.08619125932455063,0,9.988609313964844,-0.010999999940395355,0,0,-0.0269999995907449,-0.024000000747902123,0.048000001495804245
-0.06703764945268631,0,9.988609313964844,0.008599999360740185,0,0,0.04200000047506539,-0.024000000747902123,-0.021000000237532696
-0.07661445438861847,0,9.998186111450195,-0.0010999999940395355,0,0.009800000116229057,-0.0269999995907449,0.04500000098543482,0.048000001495804245
-0.08619125932455063,0,9.988609313964844,-0.010900000110268593,0,0,-0.0269999995907449,-0.024000000747902123,-0.021000000237532696
-0.05746084079146385,0,9.998186111450195,0.01719999872148037,0,0.009800000116229057,0.046999999102312236,0.041000001416626686,0.01700000066872456
-0.06703764945268631,0,9.988609313964844,0.007400000002235174,0,0,-0.021999999295971403,-0.02800000031671026,0.01700000066872456
-0.06703764945268631,0,9.998186111450195,0.006899999920278788,0,0.009800000116229057,0.046999999102312236,-0.02800000031671026,0.01700000066872456
-0.06703764945268631,0,9.988609313964844,0.006899999920278788,0,0,-0.021999999295971403,-0.02800000031671026,0.01700000066872456
-0.07661445438861847,0,9.998186111450195,-0.0026000000070780516,0,0,0.046999999102312236,-0.02800000031671026,0.01700000066872456
-0.07661445438861847,0,9.979032516479492,-0.0026000000070780516,0,-0.019600000232458115,-0.021999999295971403,0.041000001416626686,0.01700000066872456
-0.08619125932455063,0,9.988609313964844,-0.012899999506771564,0,-0.009800000116229057,-0.021999999295971403,0.041000001416626686,0.01700000066872456
-0.08619125932455063,0,9.988609313964844,-0.012000000104308128,0,-0.009800000116229057,-0.021999999295971403,-0.02800000031671026,0.01700000066872456
-0.08619125932455063,0,9.988609313964844,-0.012000000104308128,0,-0.009800000116229057,-0.021999999295971403,-0.02800000031671026,0.01700000066872456
-0.06703764945268631,0,9.988609313964844,0.007499999832361937,0,-0.009800000116229057,0.046999999102312236,-0.02800000031671026,-0.05200000106461238
-0.06703764945268631,0,9.988609313964844,0.00699999975040555,0,-0.009800000116229057,-0.021999999295971403,-0.02800000031671026,0.01700000066872456
-0.08619125932455063,0,9.96945571899414,-0.01249999925494194,0,-0.029399998486042023,-0.021999999295971403,-0.02800000031671026,-0.05200000106461238
-0.08619125932455063,0,9.96945571899414,-0.011599999852478504,0,-0.029399998486042023,0.046999999102312236,-0.02800000031671026,0.01700000066872456
-0.06703764945268631,0,9.979032516479492,0.007400000002235174,0,-0.019600000232458115,-0.021999999295971403,0.041000001416626686,0.01700000066872456
-0.07661445438861847,0,9.979032516479492,-0.0023999998811632395,0,-0.019600000232458115,-0.021999999295971403,-0.09800000110848592,0.01700000066872456
-0.07661445438861847,0,9.979032516479492,-0.002199999988079071,0,-0.019600000232458115,0.046999999102312236,-0.02800000031671026,0.01700000066872456
-0.06703764945268631,0,9.979032516479492,0.007499999832361937,0,-0.019600000232458115,0.046999999102312236,0.041000001416626686,0.01700000066872456
-0.07661445438861847,0,9.979032516479492,-0.001999999862164259,0,-0.019600000232458115,-0.021999999295971403,-0.02800000031671026,0.01700000066872456
-0.06703764945268631,0,9.979032516479492,0.007199999876320362,0,-0.019600000232458115,0.046999999102312236,-0.02800000031671026,-0.05200000106461238
-0.06703764945268631,0,9.979032516479492,0.007199999876320362,0,-0.019600000232458115,0.046999999102312236,-0.02800000031671026,-0.05200000106461238
-0.07661445438861847,0,9.950302124023438,-0.002300000051036477,0,-0.04899999871850014,0.046999999102312236,-0.02800000031671026,-0.05200000106461238
-0.08619125932455063,0,9.96945571899414,-0.01209999993443489,0,-0.029399998486042023,0.046999999102312236,0.041000001416626686,-0.05200000106461238
-0.06703764945268631,0,9.959878921508789,0.006899999920278788,0,-0.03920000046491623,-0.021999999295971403,-0.02800000031671026,-0.05200000106461238
-0.06703764945268631,0,9.979032516479492,0.006899999920278788,0,-0.019600000232458115,0.11699999322398127,0.11099999887334903,0.01700000066872456
-0.08619125932455063,0,9.988609313964844,-0.011699999682605267,0,-0.009800000116229057,-0.09200000008774706,0.041000001416626686,0.01700000066872456
-0.09576806426048279,0,9.979032516479492,-0.02159999869763851,0,-0.019600000232458115,0.046999999102312236,-0.02800000031671026,-0.05200000106461238
-0.08619125932455063,0,9.96945571899414,-0.010900000110268593,0,-0.029399998486042023,-0.021999999295971403,0.041000001416626686,0.01700000066872456
-0.06703764945268631,0,9.988609313964844,-0.0010999999940395355,0,-0.019600000232458115,0.046999999102312236,0.041000001416626686,0.01700000066872456
-0.07661445438861847,0,9.988609313964844,-0.0016999999061226845,0,-0.009800000116229057,-0.09200000008774706,-0.09800000110848592,-0.05200000106461238
-0.07661445438861847,0,9.988609313964844,-0.0015999999595806003,0,-0.009800000116229057,0.11699999322398127,0.041000001416626686,0.01700000066872456
-0.07661445438861847,0,9.988609313964844,-0.0015999999595806003,0,-0.009800000116229057,0.11699999322398127,0.041000001416626686,0.01700000066872456
-0.06703764945268631,0,9.979032516479492,0.008100000210106373,0,-0.019600000232458115,-0.021999999295971403,-0.02800000031671026,-0.05200000106461238
-0.09576806426048279,0,9.998186111450195,-0.019700000062584877,0,0,-0.021999999295971403,-0.02800000031671026,0.01700000066872456
-0.07661445438861847,0,9.96945571899414,-0.00009999999747378752,0,-0.029399998486042023,0.11699999322398127,-0.02800000031671026,0.01700000066872456
-0.08619125932455063,0,9.96945571899414,-0.00989999994635582,0,-0.029399998486042023,-0.09200000008774706,0.041000001416626686,-0.05200000106461238
-0.09576806426048279,0,9.988609313964844,-0.018299998715519905,0,-0.00969999935477972,-0.09200000008774706,0.041000001416626686,-0.05200000106461238
-0.06703764945268631,0,9.96945571899414,0.010199999436736107,0,-0.029399998486042023,-0.021999999295971403,-0.02800000031671026,0.01700000066872456
-0.06703764945268631,0,9.979032516479492,0.010199999436736107,0,-0.019600000232458115,0.046999999102312236,-0.02800000031671026,0.01700000066872456
-0.06703764945268631,0,9.979032516479492,0.009499999694526196,0,-0.019600000232458115,-0.021999999295971403,-0.02800000031671026,0.01700000066872456
-0.07661445438861847,0,9.96945571899414,-0.00019999999494757503,0,-0.029399998486042023,-0.021999999295971403,0.041000001416626686,0.01700000066872456
-0.07661445438861847,0,9.988609313964844,-0.00009999999747378752,0,-0.009800000116229057,0.046999999102312236,-0.02800000031671026,-0.05200000106461238
-0.06703764945268631,0,9.988609313964844,0.009599999524652958,0,-0.009800000116229057,0.11699999322398127,0.041000001416626686,0.01700000066872456
-0.06703764945268631,0,9.979032516479492,0.008899999782443047,0,-0.019600000232458115,0.046999999102312236,-0.02800000031671026,0.01700000066872456
-0.07661445438861847,0,9.988609313964844,-0.0007999999797903001,0,-0.009800000116229057,-0.021999999295971403,-0.02800000031671026,-0.05200000106461238
-0.07661445438861847,0,9.979032516479492,-0.000699999975040555,0,-0.019600000232458115,0.046999999102312236,-0.02800000031671026,-0.05200000106461238
-0.07661445438861847,0,9.988609313964844,-0.000699999975040555,0,-0.009800000116229057,-0.09200000008774706,-0.02800000031671026,0.01700000066872456
-0.07661445438861847,0,9.998186111450195,-0.000699999975040555,0,0,0.046999999102312236,-0.09800000110848592,-0.05200000106461238
-0.06703764945268631,0,9.96945571899414,0.008999999612569809,0,-0.029399998486042023,-0.021999999295971403,-0.02800000031671026,0.01700000066872456
-0.07661445438861847,0,9.988609313964844,-0.0005999999702908099,0,-0.009800000116229057,0.046999999102312236,-0.02800000031671026,-0.12199999852133472
-0.05746084079146385,0,9.979032516479492,0.01889999955892563,0,-0.019600000232458115,0.046999999102312236,0.041000001416626686,0.01700000066872456
-0.05746084079146385,0,9.998186111450195,0.01809999905526638,0,0.019500000402331352,0.046999999102312236,0.041000001416626686,0.01700000066872456
-0.07661445438861847,0,9.998186111450195,-0.00139999995008111,0,0.019500000402331352,0.046999999102312236,0.041000001416626686,-0.05200000106461238
-0.06703764945268631,0,9.988609313964844,0.007799999788403511,0,0.00969999935477972,-0.021999999295971403,0.041000001416626686,0.01700000066872456
-0.06703764945268631,0,9.988609313964844,0.007799999788403511,0,0.00969999935477972,-0.021999999295971403,0.041000001416626686,0.01700000066872456
-0.07661445438861847,0,9.998186111450195,-0.0018999999156221747,0,0.019500000402331352,-0.09200000008774706,-0.02800000031671026,0.01700000066872456
-0.08619125932455063,0,9.988609313964844,-0.010900000110268593,0,0.00969999935477972,-0.021999999295971403,-0.02800000031671026,-0.05200000106461238
-0.07661445438861847,0,9.988609313964844,-0.0009999999310821295,0,0.00969999935477972,0.046999999102312236,0.041000001416626686,-0.05200000106461238
-0.05746084079146385,0,9.998186111450195,0.01850000023841858,0,0.019500000402331352,-0.021999999295971403,0.041000001416626686,0.01700000066872456
-0.09576806426048279,0,9.998186111450195,-0.019199999049305916,0,0.019500000402331352,-0.021999999295971403,-0.02800000031671026,0.01700000066872456
-0.08619125932455063,0,9.988609313964844,-0.009399999864399433,0,0.00969999935477972,-0.021999999295971403,0.041000001416626686,0.01700000066872456
-0.07661445438861847,0,9.988609313964844,0.00029999998514540493,0,0.00969999935477972,-0.021999999295971403,-0.09800000110848592,0.01700000066872456
-0.07661445438861847,0,9.988609313964844,0.00029999998514540493,0,0.00969999935477972,-0.021999999295971403,-0.09800000110848592,-0.05200000106461238
-0.06703764945268631,0,9.979032516479492,0.009399999864399433,0,0,-0.021999999295971403,0.041000001416626686,-0.05200000106461238
-0.05746084079146385,0,9.988609313964844,0.019199999049305916,0,0.00969999935477972,0.046999999102312236,-0.02800000031671026,0.01700000066872456
-0.06703764945268631,0,9.988609313964844,0.008799999952316284,0,0.00969999935477972,-0.021999999295971403,-0.02800000031671026,0.01700000066872456
-0.06703764945268631,0,10.007762908935547,0.008799999952316284,0,0.02929999865591526,0.046999999102312236,0.041000001416626686,0.01700000066872456
-0.07661445438861847,0,9.96945571899414,-0.0008999999845400453,0,-0.009800000116229057,-0.021999999295971403,0.041000001416626686,-0.05200000106461238
-0.07661445438861847,0,9.96945571899414,-0.0008999999845400453,0,-0.009800000116229057,0.046999999102312236,0.041000001416626686,0.01700000066872456
-0.06703764945268631,0,9.979032516479492,0.008200000040233135,0,0,0.046999999102312236,0.041000001416626686,0.01700000066872456
-0.07661445438861847,0,9.988609313964844,-0.001500000013038516,0,0.00969999935477972,-0.021999999295971403,0.041000001416626686,0.01700000066872456
-0.07661445438861847,0,9.959878921508789,-0.00139999995008111,0,-0.019600000232458115,0.046999999102312236,0.041000001416626686,-0.05200000106461238
-0.07661445438861847,0,9.96945571899414,-0.00139999995008111,0,-0.009800000116229057,-0.021999999295971403,-0.02800000031671026,0.01700000066872456
-0.08619125932455063,0,9.96945571899414,-0.010400000028312206,0,-0.009800000116229057,0.046999999102312236,0.041000001416626686,-0.05200000106461238
-0.07661445438861847,0,9.950302124023438,-0.0005999999702908099,0,-0.029399998486042023,-0.09200000008774706,-0.02800000031671026,-0.05200000106461238
-0.07661445438861847,0,9.940725326538086,-0.0004999999655410647,0,-0.03929999843239784,-0.021999999295971403,0.041000001416626686,0.01700000066872456
-0.07661445438861847,0,9.940725326538086,-0.0004999999655410647,0,-0.03929999843239784,-0.021999999295971403,-0.09800000110848592,0.01700000066872456
-0.08619125932455063,0,9.950302124023438,-0.010300000198185444,0,-0.029399998486042023,0.046999999102312236,-0.02800000031671026,-0.05200000106461238
-0.07661445438861847,0,9.950302124023438,-0.00039999998989515007,0,-0.029399998486042023,0.046999999102312236,0.041000001416626686,-0.05200000106461238
-0.06703764945268631,0,9.931148529052734,0.00930000003427267,0,-0.04910000041127205,-0.021999999295971403,0.041000001416626686,0.01700000066872456
-0.08619125932455063,0,9.940725326538086,-0.009499999694526196,0,-0.03920000046491623,0.046999999102312236,-0.02800000031671026,0.01700000066872456
-0.06703764945268631,0,9.931148529052734,0.00930000003427267,0,-0.04910000041127205,-0.021999999295971403,0.041000001416626686,0.08700000146050021
-0.07661445438861847,0,9.931148529052734,-0.00039999998989515007,0,-0.04910000041127205,-0.021999999295971403,0.041000001416626686,0.01700000066872456
-0.06703764945268631,0,9.940725326538086,0.008700000122189522,0,-0.03929999843239784,-0.021999999295971403,0.041000001416626686,0.01700000066872456
-0.09576806426048279,0,9.921571731567383,-0.020600000396370888,0,-0.05889999866485596,-0.021999999295971403,-0.02800000031671026,0.01700000066872456
-0.07661445438861847,0,9.931148529052734,-0.0008999999845400453,0,-0.04910000041127205,0.046999999102312236,-0.02800000031671026,0.01700000066872456
-0.07661445438861847,0,9.921571731567383,-0.0008999999845400453,0,-0.05889999866485596,-0.09200000008774706,-0.09800000110848592,0.01700000066872456
-0.06703764945268631,0,9.921571731567383,0.008200000040233135,0,-0.05889999866485596,0.046999999102312236,-0.02800000031671026,-0.05200000106461238
-0.09576806426048279,0,9.911994934082031,-0.0210999995470047,0,-0.06870000064373016,0.046999999102312236,0.041000001416626686,0.01700000066872456
-0.06703764945268631,0,9.911994934082031,0.007699999958276749,0,-0.06870000064373016,0.046999999102312236,0.041000001416626686,0.01700000066872456
-0.08619125932455063,0,9.911994934082031,-0.011799999512732029,0,-0.06870000064373016,0.046999999102312236,0.041000001416626686,0.01700000066872456
-0.06703764945268631,0,9.911994934082031,0.007199999876320362,0,-0.06870000064373016,-0.09200000008774706,-0.02800000031671026,0.01700000066872456
-0.05746084079146385,0,9.911994934082031,0.016999999061226845,0,-0.06870000064373016,0.11699999322398127,-0.02800000031671026,0.01700000066872456
-0.09576806426048279,0,9.90241813659668,-0.020600000396370888,0,-0.07849999517202377,-0.09200000008774706,-0.02800000031671026,-0.05200000106461238
-0.05746084079146385,0,9.90241813659668,0.01860000006854534,0,-0.07849999517202377,0.046999999102312236,-0.02800000031671026,0.01700000066872456
-0.06703764945268631,0,9.883264541625977,0.007499999832361937,0,0,-0.09200000008774706,-0.09800000110848592,0.01700000066872456
-0.05746084079146385,0,9.90241813659668,0.01730000041425228,0,0.019600000232458115,0.046999999102312236,0.041000001416626686,0.01700000066872456
-0.07661445438861847,0,9.883264541625977,-0.001999999862164259,0,0,-0.021999999295971403,0.041000001416626686,0.01700000066872456
-0.06703764945268631,0,9.883264541625977,0.007699999958276749,0,0,0.046999999102312236,0.11099999887334903,0.01700000066872456
-0.06703764945268631,0,9.883264541625977,-0.0018999999156221747,0,0,0.046999999102312236,-0.02800000031671026,0.01700000066872456
-0.06703764945268631,0,9.883264541625977,0.007799999788403511,0,0,0.046999999102312236,-0.02800000031671026,0.01700000066872456
-0.06703764945268631,0,9.873687744140625,0.006599999964237213,0,-0.00969999935477972,-0.021999999295971403,-0.02800000031671026,-0.05200000106461238
-0.05746084079146385,0,9.883264541625977,0.01529999915510416,0,0,-0.021999999295971403,-0.02800000031671026,-0.05200000106461238
-0.08619125932455063,0,9.90241813659668,-0.0139999995008111,0,0.019600000232458115,-0.021999999295971403,0.041000001416626686,0.01700000066872456
-0.07661445438861847,0,9.892841339111328,-0.0038999998942017555,0,0.009800000116229057,0.046999999102312236,-0.09800000110848592,0.01700000066872456
-0.08619125932455063,0,9.873687744140625,-0.013700000010430813,0,-0.00969999935477972,0.046999999102312236,0.041000001416626686,-0.05200000106461238
-0.07661445438861847,0,9.892841339111328,-0.003700000001117587,0,0.009800000116229057,-0.021999999295971403,0.041000001416626686,0.01700000066872456
-0.07661445438861847,0,9.892841339111328,-0.003700000001117587,0,0.009800000116229057,-0.021999999295971403,-0.02800000031671026,0.01700000066872456
-0.07661445438861847,0,9.883264541625977,-0.003399999812245369,0,0,0.046999999102312236,0.041000001416626686,0.01700000066872456
-0.06703764945268631,0,9.892841339111328,0.006300000008195639,0,0.009800000116229057,0.11699999322398127,0.041000001416626686,-0.05200000106461238
-0.07661445438861847,0,9.892841339111328,-0.0031999999191612005,0,0.009800000116229057,0.046999999102312236,0.041000001416626686,0.01700000066872456
-0.07661445438861847,0,9.892841339111328,-0.0031999999191612005,0,0.009800000116229057,-0.021999999295971403,0.041000001416626686,0.01700000066872456
-0.07661445438861847,0,9.90241813659668,-0.003000000026077032,0,0.019600000232458115,0.046999999102312236,0.041000001416626686,0.01700000066872456
-0.07661445438861847,0,9.921571731567383,-0.003000000026077032,0,0.03920000046491623,-0.021999999295971403,-0.02800000031671026,0.01700000066872456
-0.07661445438861847,0,9.90241813659668,-0.00279999990016222,0,0.019600000232458115,-0.021999999295971403,-0.09800000110848592,0.01700000066872456
-0.07661445438861847,0,9.911994934082031,-0.00279999990016222,0,0.029399998486042023,-0.09200000008774706,-0.09800000110848592,-0.05200000106461238
-0.06703764945268631,0,9.90241813659668,0.0064999996684491634,0,0.019600000232458115,0.046999999102312236,-0.02800000031671026,0.01700000066872456
-0.08619125932455063,0,9.90241813659668,-0.013100000098347664,0,0.019600000232458115,0.046999999102312236,-0.02800000031671026,0.01700000066872456
-0.07661445438861847,0,9.911994934082031,-0.003000000026077032,0,0.029399998486042023,-0.021999999295971403,-0.02800000031671026,0.01700000066872456
-0.07661445438861847,0,9.921571731567383,-0.003000000026077032,0,0.03920000046491623,0.046999999102312236,0.041000001416626686,0.01700000066872456
-0.08619125932455063,0,9.931148529052734,-0.012000000104308128,0,0.04899999871850014,-0.021999999295971403,0.041000001416626686,0.08700000146050021
-0.07661445438861847,0,9.921571731567383,-0.001999999862164259,0,0.03920000046491623,-0.09200000008774706,-0.09800000110848592,0.01700000066872456
-0.07661445438861847,0,9.921571731567383,-0.001999999862164259,0,0.03920000046491623,-0.09200000008774706,-0.09800000110848592,0.01700000066872456
-0.07661445438861847,0,9.940725326538086,-0.001999999862164259,0,0.058799996972084045,-0.021999999295971403,0.041000001416626686,0.01700000066872456
-0.07661445438861847,0,9.940725326538086,-0.0018999999156221747,0,0.058799996972084045,-0.09200000008774706,0.041000001416626686,0.01700000066872456
-0.07661445438861847,0,9.931148529052734,-0.0018999999156221747,0,0.04899999871850014,0.046999999102312236,-0.02800000031671026,0.01700000066872456
-0.07661445438861847,0,9.940725326538086,-0.0017999999690800905,0,0.058799996972084045,-0.021999999295971403,0.041000001416626686,0.01700000066872456
-0.06703764945268631,0,9.940725326538086,0.0072999997064471245,0,0.058799996972084045,0.046999999102312236,0.041000001416626686,-0.05200000106461238
-0.07661445438861847,0,9.921571731567383,-0.0023999998811632395,0,0.03920000046491623,-0.021999999295971403,-0.02800000031671026,0.01700000066872456
-0.06703764945268631,0,9.921571731567383,0.006799999624490738,0,0.03920000046491623,0.046999999102312236,0.041000001416626686,0.01700000066872456
-0.08619125932455063,0,9.921571731567383,-0.01269999984651804,0,0.03920000046491623,0.046999999102312236,0.11099999887334903,0.01700000066872456
-0.07661445438861847,0,9.921571731567383,-0.002699999837204814,0,0.03920000046491623,0.046999999102312236,0.041000001416626686,-0.05200000106461238
-0.07661445438861847,0,9.911994934082031,-0.002699999837204814,0,0.029399998486042023,-0.09200000008774706,-0.09800000110848592,0.01700000066872456
-0.08619125932455063,0,9.921571731567383,-0.011699999682605267,0,0.03920000046491623,-0.021999999295971403,-0.02800000031671026,-0.05200000106461238
-0.08619125932455063,0,9.892841339111328,-0.011699999682605267,0,0.009800000116229057,-0.021999999295971403,0.11099999887334903,0.01700000066872456
-0.07661445438861847,0,9.931148529052734,-0.0017999999690800905,0,0.04899999871850014,0.046999999102312236,-0.02800000031671026,0.01700000066872456
-0.08619125932455063,0,9.911994934082031,-0.011599999852478504,0,0.029399998486042023,-0.021999999295971403,-0.02800000031671026,0.01700000066872456
-0.07661445438861847,0,9.931148529052734,-0.0015999999595806003,0,0.04899999871850014,-0.021999999295971403,0.041000001416626686,0.01700000066872456
-0.07661445438861847,0,9.921571731567383,-0.0015999999595806003,0,0.03920000046491623,0.046999999102312236,-0.02800000031671026,-0.05200000106461238
-0.05746084079146385,0,9.921571731567383,0.016599999740719795,0,0.03920000046491623,0.046999999102312236,0.041000001416626686,0.01700000066872456
-0.07661445438861847,0,9.911994934082031,-0.002899999963119626,0,0.029399998486042023,0.046999999102312236,0.041000001416626686,0.01700000066872456
-0.07661445438861847,0,9.911994934082031,-0.002699999837204814,0,0.029399998486042023,0.046999999102312236,0.041000001416626686,0.01700000066872456
-0.06703764945268631,0,9.90241813659668,0.00699999975040555,0,0.019600000232458115,-0.021999999295971403,0.041000001416626686,0.01700000066872456
-0.08619125932455063,0,9.911994934082031,-0.011500000022351742,0,0,0.11699999322398127,-0.02800000031671026,0.01700000066872456
-0.07661445438861847,0,9.90241813659668,-0.0016999999061226845,0,-0.009800000116229057,-0.09200000008774706,-0.02800000031671026,-0.05200000106461238
-0.09576806426048279,0,9.911994934082031,-0.01979999989271164,0,0,0.046999999102312236,0.041000001416626686,0.01700000066872456
-0.06703764945268631,0,9.90241813659668,0.009499999694526196,0,-0.009800000116229057,0.046999999102312236,0.041000001416626686,0.01700000066872456
-0.07661445438861847,0,9.911994934082031,-0.00019999999494757503,0,0,0.11699999322398127,0.041000001416626686,-0.05200000106461238
-0.07661445438861847,0,9.892841339111328,-0.00019999999494757503,0,-0.019600000232458115,0.11699999322398127,0.041000001416626686,0.01700000066872456
-0.06703764945268631,0,9.911994934082031,0.009599999524652958,0,0,0.046999999102312236,0.11099999887334903,0.01700000066872456
-0.06703764945268631,0,9.911994934082031,0.009599999524652958,0,0,-0.021999999295971403,0.041000001416626686,0.01700000066872456
-0.07661445438861847,0,9.892841339111328,-0.00009999999747378752,0,-0.019600000232458115,-0.021999999295971403,0.041000001416626686,0.01700000066872456
-0.06703764945268631,0,9.90241813659668,0.009599999524652958,0,-0.009800000116229057,0.046999999102312236,0.041000001416626686,0.01700000066872456
-0.07661445438861847,0,9.892841339111328,-0.00009999999747378752,0,-0.019600000232458115,-0.021999999295971403,0.041000001416626686,0.01700000066872456
-0.07661445438861847,0,9.892841339111328,-0.00009999999747378752,0,-0.019600000232458115,-0.021999999295971403,-0.02800000031671026,0.01700000066872456
-0.06703764945268631,0,9.921571731567383,0.008999999612569809,0,0.00969999935477972,-0.021999999295971403,-0.02800000031671026,0.01700000066872456
-0.06703764945268631,0,9.892841339111328,-0.010599999688565731,0,-0.009800000116229057,0.11699999322398127,-0.02800000031671026,0.01700000066872456
-0.06703764945268631,0,9.911994934082031,0.008299999870359898,0,0,-0.021999999295971403,-0.09800000110848592,-0.05200000106461238
-0.06703764945268631,0,9.90241813659668,0.007799999788403511,0,-0.009800000116229057,0.046999999102312236,-0.02800000031671026,0.01700000066872456
-0.07661445438861847,0,9.892841339111328,-0.0018999999156221747,0,-0.019600000232458115,0.046999999102312236,0.11099999887334903,0.01700000066872456
-0.06703764945268631,0,9.90241813659668,0.007199999876320362,0,-0.009800000116229057,0.11699999322398127,0.041000001416626686,0.01700000066872456
-0.06703764945268631,0,9.90241813659668,0.007199999876320362,0,-0.009800000116229057,-0.09200000008774706,-0.02800000031671026,0.01700000066872456
-0.09576806426048279,0,9.911994934082031,-0.020600000396370888,0,0,-0.021999999295971403,-0.02800000031671026,0.01700000066872456
-0.09576806426048279,0,9.921571731567383,-0.020600000396370888,0,0.00969999935477972,-0.021999999295971403,-0.02800000031671026,0.01700000066872456
-0.08619125932455063,0,9.921571731567383,-0.009999999776482582,0,0.00969999935477972,0.046999999102312236,-0.02800000031671026,0.01700000066872456
-0.07661445438861847,0,9.921571731567383,-0.00019999999494757503,0,0.00969999935477972,0.046999999102312236,-0.02800000031671026,0.01700000066872456
-0.06703764945268631,0,9.931148529052734,0.008799999952316284,0,0.019500000402331352,-0.021999999295971403,-0.09800000110848592,0.01700000066872456
-0.07661445438861847,0,9.940725326538086,-0.0008999999845400453,0,0.02929999865591526,0.046999999102312236,0.041000001416626686,-0.05200000106461238
-0.07661445438861847,0,9.931148529052734,-0.0007999999797903001,0,0.019500000402331352,0.046999999102312236,0.041000001416626686,-0.05200000106461238
-0.08619125932455063,0,9.940725326538086,-0.010599999688565731,0,0.02929999865591526,0.046999999102312236,-0.02800000031671026,0.01700000066872456
-0.08619125932455063,0,9.940725326538086,-0.00989999994635582,0,0.02929999865591526,0.046999999102312236,-0.02800000031671026,0.01700000066872456
-0.05746084079146385,0,9.959878921508789,0.01939999870955944,0,0.048899997025728226,-0.021999999295971403,-0.02800000031671026,-0.05200000106461238
-0.06703764945268631,0,9.950302124023438,0.008899999782443047,0,0.03909999877214432,-0.021999999295971403,-0.02800000031671026,0.01700000066872456
-0.08619125932455063,0,9.940725326538086,-0.010599999688565731,0,0.02929999865591526,-0.09200000008774706,-0.09800000110848592,0.01700000066872456
-0.06703764945268631,0,9.931148529052734,0.008299999870359898,0,0.019500000402331352,0.046999999102312236,-0.02800000031671026,-0.05200000106461238
-0.08619125932455063,0,9.940725326538086,-0.01119999960064888,0,0.02929999865591526,0.046999999102312236,0.041000001416626686,0.01700000066872456
-0.06703764945268631,0,9.959878921508789,0.009099999442696571,0,0.048899997025728226,0.046999999102312236,0.041000001416626686,0.01700000066872456
-0.06703764945268631,0,9.959878921508789,0.009099999442696571,0,0.048899997025728226,-0.021999999295971403,-0.09800000110848592,0.01700000066872456
-0.06703764945268631,0,9.96945571899414,0.009800000116229057,0,0.05869999900460243,0.046999999102312236,0.041000001416626686,0.01700000066872456
-0.09576806426048279,0,9.959878921508789,-0.018199998885393143,0,0.048899997025728226,-0.021999999295971403,0.041000001416626686,0.01700000066872456
-0.07661445438861847,0,9.959878921508789,0.0013000000035390258,0,0.048899997025728226,-0.021999999295971403,0.041000001416626686,0.01700000066872456
-0.07661445438861847,0,9.96945571899414,0.0011999999405816197,0,0.05869999900460243,0.11699999322398127,0.041000001416626686,0.01700000066872456
-0.08619125932455063,0,9.96945571899414,-0.008499999530613422,0,0.05869999900460243,0.046999999102312236,0.041000001416626686,0.01700000066872456
-0.07661445438861847,0,9.979032516479492,0.0010999999940395355,0,0.06849999725818634,-0.021999999295971403,-0.02800000031671026,0.01700000066872456
-0.06703764945268631,0,9.96945571899414,0.010900000110268593,0,0.05869999900460243,-0.021999999295971403,-0.02800000031671026,0.01700000066872456
-0.09576806426048279,0,9.96945571899414,-0.01719999872148037,0,0.05869999900460243,-0.021999999295971403,-0.02800000031671026,0.01700000066872456
-0.08619125932455063,0,9.959878921508789,-0.007400000002235174,0,0.048899997025728226,-0.021999999295971403,0.041000001416626686,-0.05200000106461238
-0.07661445438861847,0,9.959878921508789,0.002099999925121665,0,0.048899997025728226,0.046999999102312236,-0.02800000031671026,0.01700000066872456
-0.07661445438861847,0,9.950302124023438,0.002099999925121665,0,0.03909999877214432,-0.021999999295971403,0.041000001416626686,0.01700000066872456
-0.09576806426048279,0,9.959878921508789,-0.016200000420212746,0,0.048899997025728226,0.046999999102312236,-0.02800000031671026,0.01700000066872456
-0.08619125932455063,0,9.959878921508789,-0.006399999838322401,0,0.048899997025728226,0.046999999102312236,-0.02800000031671026,-0.05200000106461238
-0.06703764945268631,0,9.959878921508789,0.01249999925494194,0,0,-0.021999999295971403,-0.02800000031671026,0.01700000066872456
-0.06703764945268631,0,9.959878921508789,0.01249999925494194,0,0,0.046999999102312236,-0.02800000031671026,0.01700000066872456
-0.06703764945268631,0,9.959878921508789,0.011699999682605267,0,0,-0.021999999295971403,-0.02800000031671026,0.01700000066872456
-0.07661445438861847,0,9.950302124023438,0.0017999999690800905,0,-0.00969999935477972,0.046999999102312236,-0.02800000031671026,0.01700000066872456
-0.06703764945268631,0,9.950302124023438,0.010799999348819256,0,-0.00969999935477972,-0.021999999295971403,0.041000001416626686,0.01700000066872456
-0.08619125932455063,0,9.950302124023438,-0.008700000122189522,0,-0.00969999935477972,-0.021999999295971403,-0.02800000031671026,-0.05200000106461238
-0.08619125932455063,0,9.931148529052734,-0.007999999448657036,0,-0.02929999865591526,0.046999999102312236,0.041000001416626686,0.01700000066872456
-0.06703764945268631,0,9.931148529052734,0.011500000022351742,0,-0.02929999865591526,0.046999999102312236,0.041000001416626686,-0.05200000106461238
-0.07661445438861847,0,9.921571731567383,0.0015999999595806003,0,-0.03909999877214432,-0.021999999295971403,-0.02800000031671026,0.01700000066872456
-0.07661445438861847,0,9.950302124023438,0.0015999999595806003,0,-0.00969999935477972,-0.021999999295971403,-0.02800000031671026,0.01700000066872456
-0.08619125932455063,0,9.940725326538086,-0.007599999662488699,0,-0.019500000402331352,0.046999999102312236,0.041000001416626686,0.01700000066872456
-0.08619125932455063,0,9.931148529052734,-0.00699999975040555,0,-0.02929999865591526,-0.021999999295971403,-0.02800000031671026,0.01700000066872456
-0.08619125932455063,0,9.911994934082031,-0.00699999975040555,0,-0.048899997025728226,0.046999999102312236,0.041000001416626686,0.01700000066872456
-0.08619125932455063,0,9.911994934082031,-0.0064999996684491634,0,-0.048899997025728226,-0.09200000008774706,-0.02800000031671026,0.01700000066872456
-0.06703764945268631,0,9.931148529052734,0.012999999336898327,0,-0.02929999865591526,-0.021999999295971403,-0.02800000031671026,0.01700000066872456
-0.07661445438861847,0,9.940725326538086,0.012999999336898327,0,-0.02929999865591526,0.11699999322398127,0.041000001416626686,0.01700000066872456
-0.08619125932455063,0,9.911994934082031,-0.0066999997943639755,0,-0.048899997025728226,0.046999999102312236,-0.02800000031671026,0.01700000066872456
-0.06703764945268631,0,9.921571731567383,0.011899999342858791,0,-0.03909999877214432,-0.09200000008774706,-0.02800000031671026,0.01700000066872456
-0.08619125932455063,0,9.90241813659668,-0.007599999662488699,0,-0.05869999900460243,0.046999999102312236,-0.02800000031671026,0.01700000066872456
-0.08619125932455063,0,9.892841339111328,-0.00699999975040555,0,-0.06849999725818634,0.046999999102312236,0.041000001416626686,0.01700000066872456
-0.07661445438861847,0,9.921571731567383,0.002699999837204814,0,-0.03909999877214432,0.046999999102312236,-0.02800000031671026,0.01700000066872456
-0.07661445438861847,0,9.921571731567383,0.0024999999441206455,0,-0.03909999877214432,0.046999999102312236,-0.02800000031671026,-0.05200000106461238
-0.07661445438861847,0,9.911994934082031,0.0024999999441206455,0,-0.048899997025728226,-0.021999999295971403,0.041000001416626686,0.01700000066872456
-0.06703764945268631,0,9.911994934082031,0.011500000022351742,0,-0.048899997025728226,0.046999999102312236,0.041000001416626686,-0.05200000106461238
-0.07661445438861847,0,9.911994934082031,0.0016999999061226845,0,-0.048899997025728226,-0.021999999295971403,0.041000001416626686,0.01700000066872456
-0.09576806426048279,0,9.911994934082031,-0.016599999740719795,0,-0.048899997025728226,0.046999999102312236,0.041000001416626686,-0.05200000106461238
-0.08619125932455063,0,9.911994934082031,-0.006799999624490738,0,-0.048899997025728226,-0.021999999295971403,-0.02800000031671026,0.01700000066872456
-0.08619125932455063,0,9.921571731567383,-0.006300000008195639,0,-0.03909999877214432,0.046999999102312236,0.041000001416626686,0.01700000066872456
-0.07661445438861847,0,9.911994934082031,0.003399999812245369,0,-0.048899997025728226,0.046999999102312236,0.041000001416626686,-0.05200000106461238
-0.08619125932455063,0,9.921571731567383,-0.005799999926239252,0,-0.03909999877214432,-0.021999999295971403,-0.02800000031671026,0.01700000066872456
-0.07661445438861847,0,9.911994934082031,0.003700000001117587,0,-0.048899997025728226,-0.09200000008774706,-0.02800000031671026,0.01700000066872456
-0.07661445438861847,0,9.911994934082031,0.003700000001117587,0,-0.048899997025728226,0.046999999102312236,-0.02800000031671026,-0.05200000106461238
-0.07661445438861847,0,9.90241813659668,0.003700000001117587,0,-0.05869999900460243,0.046999999102312236,-0.02800000031671026,-0.05200000106461238
-0.08619125932455063,0,9.931148529052734,-0.00559999980032444,0,-0.02929999865591526,-0.021999999295971403,-0.02800000031671026,0.01700000066872456
-0.06703764945268631,0,9.921571731567383,0.013899999670684338,0,-0.03909999877214432,-0.021999999295971403,-0.02800000031671026,0.01700000066872456
-0.09576806426048279,0,9.921571731567383,-0.014299999922513962,0,-0.03909999877214432,0.046999999102312236,0.041000001416626686,0.01700000066872456
-0.07661445438861847,0,9.921571731567383,0.005200000014156103,0,-0.03909999877214432,0.11699999322398127,-0.02800000031671026,0.01700000066872456
-0.06703764945268631,0,9.940725326538086,0.0139999995008111,0,-0.019500000402331352,-0.021999999295971403,-0.02800000031671026,0.01700000066872456
-0.07661445438861847,0,9.940725326538086,0.0038999998942017555,0,-0.019500000402331352,-0.021999999295971403,-0.02800000031671026,0.01700000066872456
-0.07661445438861847,0,9.921571731567383,0.0038999998942017555,0,-0.03909999877214432,-0.021999999295971403,-0.02800000031671026,0.01700000066872456
-0.07661445438861847,0,9.950302124023438,0.0038999998942017555,0,-0.03909999877214432,-0.021999999295971403,-0.02800000031671026,0.01700000066872456
-0.06703764945268631,0,9.940725326538086,0.013399999588727951,0,-0.019500000402331352,0.046999999102312236,0.041000001416626686,0.01700000066872456
-0.08619125932455063,0,9.959878921508789,-0.005699999630451202,0,0,0.046999999102312236,-0.02800000031671026,0.01700000066872456
-0.08619125932455063,0,9.959878921508789,-0.005699999630451202,0,0,0.046999999102312236,-0.02800000031671026,0.01700000066872456
-0.07661445438861847,0,9.940725326538086,0.0037999998312443495,0,-0.019500000402331352,-0.021999999295971403,-0.02800000031671026,0.08700000146050021
-0.07661445438861847,0,9.950302124023438,0.0037999998312443495,0,-0.00969999935477972,0.046999999102312236,0.11099999887334903,0.01700000066872456
-0.08619125932455063,0,9.940725326538086,-0.005499999970197678,0,-0.019500000402331352,-0.09200000008774706,-0.02800000031671026,0.01700000066872456
-0.07661445438861847,0,9.959878921508789,0.00419999985024333,0,0,-0.021999999295971403,-0.02800000031671026,0.01700000066872456
