Accelerometer_Gx,Accelerometer_Gy,Accelerometer_Gz,Accelerometer_X,Accelerometer_Y,Accelerometer_Z,Gyroscope_Z,Gyroscope_X,Gyroscope_Y
0.08375465124845505,0.2990243136882782,9.744894027709961,-0.01414913684129715,0.000829160213470459,0.023962974548339844,0.0015532810667961028,0.09496570290992097,-0.04830375148077809
0.10447309166193008,0.2772734463214874,9.744468688964844,0.008900851011276245,-0.0200192928314209,0.014771461486816406,-0.020098752107474884,-0.012825991358639769,-0.017026060775255068
0.091190405189991,0.2812665104866028,9.733854293823242,-0.0008423030376434326,-0.017654895782470703,-0.001499176025390625,-0.020098752107474884,-0.012825991358639769,-0.028330544119941854
0.08905612677335739,0.30678191781044006,9.738232612609863,-0.007155485451221466,0.007759451866149902,0.009312629699707031,-0.020098752107474884,-0.037294877255946,-0.03684209374390167
0.08905612677335739,0.30678191781044006,9.738232612609863,-0.002237878739833832,0.017792820930480957,-0.00024318695068359375,-0.020098752107474884,-0.037294877255946,-0.03684209374390167
0.08934342861175537,0.3080388009548187,9.746206283569336,0.008087307214736938,-0.002968817949295044,0.009579658508300781,-0.020098752107474884,0.03145293441652277,0.015149519661646954
0.08606363087892532,0.29014477133750916,9.7340669631958,-0.009619683027267456,-0.0017012059688568115,-0.011983871459960938,-0.033752913908138615,-0.012825991358639769,0.001280980634494735
0.08606363087892532,0.29014477133750916,9.7340669631958,-0.00005204975605010986,-0.012832880020141602,0.015645980834960938,-0.033752913908138615,-0.012825991358639769,0.001280980634494735
0.08648277819156647,0.28111058473587036,9.725958824157715,0.004617534577846527,-0.011402875185012817,-0.019026756286621094,-0.020098752107474884,0.03063549951108976,-0.02994683101378868
0.0949118509888649,0.28189587593078613,9.751348495483398,-0.0018633455038070679,-0.02343413233757019,0.011713027954101562,-0.14216896017100059,-0.03567649594862321,-0.09625881646834174
0.0949118509888649,0.28189587593078613,9.751348495483398,0.011771038174629211,0.012101203203201294,0.022500038146972656,-0.14216896017100059,-0.03567649594862321,-0.09625881646834174
0.10102037340402603,0.2928641438484192,9.728443145751953,0.0017345473170280457,-0.009272128343582153,0.008916854858398438,0.04093635192428797,0.04820913935354953,0.04866190952538063
0.1074245348572731,0.2819504737854004,9.736821174621582,0.019708409905433655,-0.009128928184509277,-0.0045032501220703125,-0.04216066333301275,0.02614720311511187,-0.01237319450638222
0.1074245348572731,0.2819504737854004,9.736821174621582,0.0028021037578582764,-0.010930955410003662,0.007171630859375,-0.04216066333301275,0.02614720311511187,-0.01237319450638222
0.09835181385278702,0.30020156502723694,9.721346855163574,-0.010844387114048004,0.010084211826324463,0.007523536682128906,-0.06541608341494423,-0.012825991358639769,0.00334456487769806
0.09109175950288773,0.28375938534736633,9.730096817016602,-0.0017390176653862,-0.011180341243743896,-0.005801200866699219,0.0011669885125069248,-0.05259534143020759,0.04866190952538063
0.09109175950288773,0.28375938534736633,9.730096817016602,-0.004020236432552338,-0.0016117095947265625,-0.0056056976318359375,0.0011669885125069248,-0.05259534143020759,0.04866190952538063
0.09447671473026276,0.2898995876312256,9.739704132080078,0.0006277263164520264,-0.0016283690929412842,0.0038499832153320312,0.04027869275262301,-0.07320340620325791,-0.07275063936648012
0.09666016697883606,0.2988243103027344,9.73088550567627,-0.0026535391807556152,0.009897172451019287,-0.005367279052734375,-0.03342901353109192,0.03303088820767422,0.11726915870617531
0.11824692785739899,0.30434590578079224,9.739660263061523,0.01136758178472519,0.0004304647445678711,-0.00289154052734375,-0.013478257749109459,-0.007901975250856012,0.07633631525796492
0.1032351702451706,0.2956084609031677,9.741259574890137,0.019713081419467926,0.004885315895080566,0.004055976867675781,-0.11463824187503781,0.032374422985092695,-0.06649261861169477
0.10228044539690018,0.29718923568725586,9.738450050354004,0.00535506010055542,0.0050220489501953125,0.013072013854980469,-0.05468787060105083,0.053133155461333285,-0.026059906427309296
0.10154495388269424,0.2948303818702698,9.739312171936035,0.0076224952936172485,0.004904896020889282,-0.0198974609375,-0.013326766287752692,-0.006967853500364209,0.13550317578874416
0.09869574010372162,0.27718061208724976,9.728129386901855,-0.011401183903217316,-0.016312628984451294,-0.01945209503173828,-0.03131037422791859,-0.007901975250856012,0.058352693977585794
0.09135594218969345,0.28504079580307007,9.75330924987793,-0.002070389688014984,-0.008253514766693115,0.018350601196289062,-0.055469527054620604,0.010990358008879009,-0.0035911186984796534
0.0917220264673233,0.2830207049846649,9.73536491394043,-0.01123831421136856,-0.001016080379486084,0.01551055908203125,0.045972629261393894,-0.006166266768239744,-0.04573389280556079
0.09239749610424042,0.3041400611400604,9.747506141662598,0.00546448677778244,0.008594214916229248,0.008126258850097656,-0.11305134347092054,0.030787524580975435,-0.007044406313942565
0.10514668375253677,0.28521186113357544,9.763632774353027,0.012715205550193787,-0.005804628133773804,0.026174545288085938,-0.013326766287752692,0.016972496484112694,-0.04573389280556079
0.09671732783317566,0.30359601974487305,9.754440307617188,0.00047370046377182007,0.013086855411529541,0.015429496765136719,0.045225270496019626,-0.06893705260219242,0.012818143978211528
0.09464499354362488,0.30340635776519775,9.746604919433594,0.0027726441621780396,-0.0012269318103790283,0.015000343322753906,0.02461906334766056,-0.007901975250856012,0.07633631525796492
0.09706737846136093,0.2893027663230896,9.735532760620117,0.0028826147317886353,-0.00645214319229126,-0.0134429931640625,-0.04807133828601254,0.07050544146046321,0.0589640359289416
0.08738943189382553,0.29051080346107483,9.772579193115234,-0.0039958953857421875,0.007925242185592651,0.02185535430908203,-0.01979841054697944,0.05636897759094666,0.015301211226202061
0.08652513474225998,0.2866678833961487,9.759264945983887,0.001081220805644989,-0.0061796605587005615,0.022661209106445312,-0.013326766287752692,-0.007901975250856012,0.08949838327327038
0.10998902469873428,0.30178704857826233,9.750814437866211,0.012985184788703918,0.012771636247634888,0.012296676635742188,0.019651114582681206,-0.03595917173175852,-0.0011877325440681939
0.09785014390945435,0.2836255133152008,9.737606048583984,0.017372682690620422,0.0029201507568359375,0.000316619873046875,-0.06199185078388032,-0.003778642075750882,0.011177884721203544
0.09574537724256516,0.3047584593296051,9.740511894226074,-0.0017820075154304504,0.003123849630355835,-0.013546943664550781,0.047708337744010156,-0.04417246086848563,-0.009463387177611339
0.1008346676826477,0.29239821434020996,9.746685028076172,0.007336743175983429,0.00011754035949707031,0.012235641479492188,-0.013326766287752692,-0.03765755429777772,0.06069656944081087
0.08725105971097946,0.29239821434020996,9.75335693359375,-0.004424437880516052,0.0001366138458251953,-0.01605224609375,0.046235298059748485,-0.006428935566594336,-0.04426085312129911
0.10284622758626938,0.2968006730079651,9.732686042785645,0.0006795227527618408,-0.00457841157913208,-0.004303932189941406,-0.013326766287752692,0.014093058150743248,-0.0017438460126821033
0.09554678946733475,0.2942628562450409,9.748783111572266,0.00036156922578811646,0.004536360502243042,0.012430191040039062,0.03279597372292942,-0.007901975250856012,-0.030821528784480048
0.09192639589309692,0.28521186113357544,9.758554458618164,-0.004320189356803894,-0.0072119832038879395,-0.008875846862792969,0.0420125936363476,-0.007901975250856012,-0.040038148697898235
0.10625870525836945,0.2992134988307953,9.735589027404785,0.0005529895424842834,0.00001239776611328125,-0.0021734237670898438,-0.05648067519626017,0.02682770906944732,-0.01100422182547068
0.10758692771196365,0.2782195508480072,9.763258934020996,0.011990919709205627,-0.018501192331314087,0.02374267578125,-0.06483168869429824,0.10005520102767879,-0.031620834340143435
0.10604319721460342,0.27767813205718994,9.745492935180664,0.00708732008934021,0.0026918649673461914,0.011445045471191406,0.00624321978821478,-0.055890404111689586,-0.03921056856030937
0.09565168619155884,0.29505792260169983,9.745015144348145,-0.0029022544622421265,0.0007750093936920166,0.020395278930664062,-0.04721000073886368,-0.035053818151081426,0.022032602777087636
0.0982784554362297,0.27187973260879517,9.7432222366333,-0.00041418522596359253,-0.020211756229400635,0.003875732421875,-0.00006798172658278317,0.03987436756511007,0.11085385016738794
0.09968569129705429,0.2735208570957184,9.738533020019531,0.006570287048816681,-0.015071272850036621,-0.012531280517578125,-0.05976592948597019,0.04583519504972052,-0.038435935729001336
0.09993495792150497,0.302596777677536,9.75124454498291,-0.007557027041912079,0.004590839147567749,0.013508796691894531,0.01980924947022287,-0.007901975250856012,-0.012597883717691839
0.10629922151565552,0.27621763944625854,9.745779991149902,0.008718661963939667,-0.016862720251083374,0.006035804748535156,-0.1227286543077708,0.0404648420879323,-0.03306558610226642
0.10004771500825882,0.30636197328567505,9.72207260131836,0.0013251081109046936,0.018548130989074707,-0.021787643432617188,0.08492329711759238,0.04519310390688643,0.06839626036846476
0.08855370432138443,0.2897087633609772,9.738701820373535,-0.012702256441116333,0.0040826499462127686,-0.007208824157714844,-0.013326766287752692,-0.040292519883628315,0.04394575728497938
0.10629922151565552,0.29563194513320923,9.757080078125,0.008634299039840698,0.0018328428268432617,0.018610000610351562,-0.02509715657924162,-0.007901975250856012,0.02707161485790421
0.09811267256736755,0.2948400676250458,9.731492042541504,-0.0012858733534812927,0.0014231503009796143,-0.012104988098144531,-0.022214883450562353,-0.06004893543938276,0.024189341729224944
0.10771377384662628,0.2877807319164276,9.750154495239258,0.0033938735723495483,-0.00790974497795105,0.016176223754882812,-0.013326766287752692,-0.007901975250856012,-0.016321123887928925
0.09606315940618515,0.2952314019203186,9.74425220489502,-0.004126682877540588,0.008610397577285767,0.004096031188964844,0.019948761420105668,-0.007901975250856012,0.015301211226202061
0.08778581768274307,0.2836889326572418,9.742565155029297,0.005289852619171143,-0.015199273824691772,-0.009983062744140625,0.06710996365900078,-0.007901975250856012,0.015301211226202061
0.10150828957557678,0.29242560267448425,9.745606422424316,0.0031612738966941833,-0.002934098243713379,0.013529777526855469,-0.04367022852107813,-0.03859359036886698,0.015301211226202061
0.09711349010467529,0.28521186113357544,9.758427619934082,-0.00169430673122406,-0.005316972732543945,0.013369560241699219,-0.013326766287752692,0.043039349827457704,0.0052074055923264796
0.09911283850669861,0.29910582304000854,9.744606018066406,0.0006709024310112,-0.005147963762283325,0.024641990661621094,-0.06389940789323116,-0.007901975250856012,-0.04573389280556079
0.09553902596235275,0.2935377061367035,9.7587251663208,-0.0017192065715789795,-0.0006206035614013672,0.0077648162841796875,0.047708337744010156,-0.007901975250856012,-0.014721058693360881
0.11439388245344162,0.303631991147995,9.737654685974121,0.017151035368442535,0.013237953186035156,-0.0070247650146484375,-0.0743618436390891,0.04365937625762148,-0.04573389280556079
0.08869832009077072,0.29762905836105347,9.743589401245117,-0.0138334259390831,0.005797833204269409,0.00027751922607421875,-0.024533052322907322,-0.007901975250856012,0.05392371650722921
0.08828161656856537,0.2815670371055603,9.753523826599121,-0.008313246071338654,-0.007798820734024048,-0.007380485534667969,-0.07698857164327469,0.053133155461333285,0.0445054059100973
0.08948834985494614,0.2861776649951935,9.738290786743164,-0.010425105690956116,-0.007762312889099121,-0.0071697235107421875,0.0830502978305949,-0.007901975250856012,0.015301211226202061
0.10198097676038742,0.30100274085998535,9.757927894592285,0.006153188645839691,0.015866190195083618,0.00001239776611328125,-0.0743618436390891,-0.05689333468198397,-0.03369016821524574
0.0999520942568779,0.28788188099861145,9.760458946228027,0.012843027710914612,-0.014942586421966553,0.020514488220214844,0.015052389569172613,0.024753992934301368,0.07633631525796492
0.09049253165721893,0.29261136054992676,9.753181457519531,-0.010432109236717224,0.006071537733078003,0.005741119384765625,-0.005550715979612179,0.053133155461333285,0.023077261534342575
0.10212650895118713,0.2820822298526764,9.769312858581543,0.015560217201709747,-0.02910897135734558,0.017228126525878906,-0.0005290194955586439,0.004895774876391342,0.07633631525796492
0.09757431596517563,0.2965594232082367,9.736600875854492,-0.0036700591444969177,0.011310994625091553,-0.016510963439941406,-0.007538674554056124,-0.01369002696391291,0.048712802438825156
0.10335364192724228,0.2892577052116394,9.726760864257812,0.00582798570394516,-0.0028173327445983887,-0.022988319396972656,-0.020335220727060132,0.04612469101686593,-0.03171697058673269
0.10283675789833069,0.31129002571105957,9.775066375732422,0.0009913668036460876,0.01135912537574768,0.010251998901367188,-0.12180348384035142,-0.007901975250856012,0.07633631525796492
0.08129123598337173,0.28455060720443726,9.75778865814209,-0.015626415610313416,0.005896151065826416,0.011368751525878906,0.047708337744010156,-0.015266493321290034,0.015301211226202061
0.09601686894893646,0.29233768582344055,9.739444732666016,-0.0005593597888946533,-0.0006915628910064697,-0.00782012939453125,-0.0192758610548338,0.05908225022841439,0.015301211226202061
0.09863163530826569,0.2975761890411377,9.7645845413208,-0.007342085242271423,0.022740602493286133,-0.009937286376953125,-0.027985779649414882,0.021416061477628288,-0.031074879443898598
0.09122614562511444,0.2862345278263092,9.74724292755127,-0.009714290499687195,-0.005828201770782471,0.008268356323242188,-0.013326766287752692,-0.01682272924531496,0.006380423881210056
0.09603247791528702,0.2878211438655853,9.748788833618164,-0.0022847503423690796,-0.003199636936187744,-0.0009222030639648438,-0.018774962728748564,0.047684949015177495,0.015301211226202061
0.10268480330705643,0.28640252351760864,9.772024154663086,0.016396358609199524,-0.000658184289932251,0.02006053924560547,-0.02849532243366841,-0.053768496456276696,0.015301211226202061
0.1094304621219635,0.2895878255367279,9.749674797058105,0.004115849733352661,-0.002878844738006592,0.002532958984375,0.047708337744010156,0.017329463914685116,0.015301211226202061
0.08473995327949524,0.2874273359775543,9.760336875915527,-0.012858547270298004,-0.0028036832809448242,0.011837005615234375,-0.06977618536443211,-0.01248763352551299,0.010715552951545082
0.10065290331840515,0.28344371914863586,9.749259948730469,-0.012613452970981598,-0.005033373832702637,-0.0001354217529296875,0.07677356742676474,-0.06893705260219242,-0.0006837259483020772
0.08569979667663574,0.289543479681015,9.759309768676758,-0.00986318290233612,0.01656430959701538,-0.0005769729614257812,-0.04990583104754276,0.01655406068606347,0.015301211226202061
0.09971078485250473,0.29779085516929626,9.755998611450195,0.002244226634502411,0.009139776229858398,0.0064239501953125,-0.009517935309478882,0.11416826616320275,0.015301211226202061
0.10175002366304398,0.27951985597610474,9.759676933288574,0.011686243116855621,-0.01914021372795105,-0.0007410049438476562,0.003471683769496989,0.06993161218868958,-0.02893544274831111
0.09269557148218155,0.29370957612991333,9.761937141418457,-0.009578630328178406,0.00025850534439086914,0.017540931701660156,0.01028466406445248,-0.007901975250856012,-0.04573389280556079
0.10523801296949387,0.3033144474029541,9.754522323608398,0.00916803628206253,0.013902872800827026,0.00305938720703125,-0.010322456888512337,-0.010906291320202977,-0.042729576736213824
0.09155911952257156,0.29134032130241394,9.763632774353027,-0.012162141501903534,-0.007522612810134888,0.012294769287109375,0.047708337744010156,-0.025500104389739313,0.015301211226202061
0.0943218469619751,0.2945205271244049,9.765412330627441,-0.002460204064846039,0.0064833760261535645,0.011623382568359375,-0.013326766287752692,-0.007901975250856012,-0.08410320750972805
0.10143838822841644,0.2872577905654907,9.747563362121582,0.004738166928291321,-0.003051459789276123,-0.005444526672363281,0.047708337744010156,0.053133155461333285,0.015301211226202061
0.09577339887619019,0.2839784622192383,9.772488594055176,0.0023650377988815308,-0.014690279960632324,0.017998695373535156,0.047708337744010156,0.053133155461333285,-0.06978474978132108
0.1075746938586235,0.2928560972213745,9.736366271972656,0.0046687498688697815,0.006594538688659668,-0.02496814727783203,0.0697894055157358,-0.06893705260219242,0.015301211226202061
0.09931180626153946,0.2732841670513153,9.754000663757324,0.0016070008277893066,-0.01688539981842041,0.0013751983642578125,-0.013326766287752692,0.05186576516905916,0.016568598183422885
0.09396674484014511,0.2854486107826233,9.748382568359375,-0.01031351089477539,0.00022140145301818848,-0.0056209564208984375,0.02836867044933228,0.03379348149654879,0.03464087852087994
0.10192221403121948,0.27948254346847534,9.749988555908203,-0.012552246451377869,-0.015656769275665283,-0.005452156066894531,-0.0743618436390891,0.0716965824290098,-0.005934620635734497
0.10862075537443161,0.2732837498188019,9.761138916015625,0.011071942746639252,-0.015300780534744263,0.008675575256347656,0.047708337744010156,-0.007901975250856012,0.01592952192877712
0.10956212878227234,0.2764146625995636,9.764541625976562,0.003760717809200287,-0.010295718908309937,-0.0008783340454101562,0.047708337744010156,-0.007901975250856012,0.03529501587625412
0.0974985882639885,0.2812124788761139,9.75645637512207,0.0032039061188697815,-0.005164802074432373,0.0009851455688476562,0.027275473326266612,-0.04876769074612988,0.035734068973838996
0.11102794110774994,0.28757962584495544,9.746906280517578,0.012443438172340393,0.00005075335502624512,-0.006251335144042969,-0.07418553938113814,-0.00825457709665131,-0.045381290959765494
0.09742802381515503,0.29642581939697266,9.739835739135742,-0.008873552083969116,0.011917918920516968,0.0009021759033203125,-0.054911666018074526,-0.04814460940713811,-0.04573389280556079
0.11097489297389984,0.2996615767478943,9.756677627563477,0.004662521183490753,0.016116082668304443,0.01731395721435547,0.04868776285860619,0.053133155461333285,-0.10481014660813158
0.11097489297389984,0.2996615767478943,9.756677627563477,0.011613234877586365,0.010929584503173828,0.00286102294921875,0.04868776285860619,0.053133155461333285,-0.10481014660813158
0.09616252034902573,0.29534855484962463,9.742805480957031,0.004292964935302734,-0.0010986328125,0.0121002197265625,0.047708337744010156,-0.04735032644175306,-0.006285521604343902
0.09083453565835953,0.2935258448123932,9.770431518554688,-0.012047141790390015,-0.0015175044536590576,0.021730422973632812,0.028858256274604675,-0.007901975250856012,0.015301211226202061
0.09445978701114655,0.2997916042804718,9.770474433898926,-0.004953727126121521,0.00963565707206726,0.01633930206298828,0.045951058136612814,-0.12645759074905397,0.015301211226202061
0.1049460768699646,0.2753007709980011,9.75732421875,0.011700116097927094,-0.028211623430252075,0.0017948150634765625,0.009037260746639235,0.030769121756834748,-0.04573389280556079
0.08163557946681976,0.2885850965976715,9.74402904510498,-0.016687333583831787,0.00054168701171875,-0.0075702667236328125,0.004734695136780772,-0.032814136423232096,0.033362672650735524
0.1097886711359024,0.28062108159065247,9.762531280517578,0.012208759784698486,-0.008728832006454468,0.009408950805664062,-0.010775810694671933,-0.06383515475624413,-0.040631988289505885
0.09889955073595047,0.29366496205329895,9.774481773376465,-0.004654482007026672,0.0006893575191497803,0.015423774719238281,-0.03665413013959409,0.006478394407117426,-0.008026165965852561
0.09446357190608978,0.29930123686790466,9.75362491607666,0.013994164764881134,-0.004067659378051758,-0.008291244506835938,-0.013326766287752692,0.11416826616320275,0.008079273354692055
0.09446357190608978,0.29930123686790466,9.75362491607666,-0.004573129117488861,0.00991213321685791,-0.0008554458618164062,-0.013326766287752692,0.11416826616320275,0.008079273354692055
0.10826675593852997,0.2841854691505432,9.74301528930664,0.004754960536956787,0.00024250149726867676,-0.010143280029296875,0.010653120753662934,-0.03188185562216503,-0.021754005764145164
0.10057491064071655,0.28521186113357544,9.750551223754883,0.013690002262592316,-0.004125773906707764,-0.0048675537109375,0.0031210762855784827,0.053133155461333285,0.05988847268463374
0.09459522366523743,0.30306974053382874,9.76967716217041,-0.0018963366746902466,0.014677375555038452,0.01623058319091797,-0.009167554609185162,0.053133155461333285,0.015301211226202061
0.09302856028079987,0.28870949149131775,9.745691299438477,-0.011471450328826904,-0.0069487690925598145,-0.019329071044921875,0.022682851460307393,-0.06893705260219242,0.07633631525796492
0.08294589072465897,0.3149496614933014,9.74805736541748,-0.009283900260925293,0.00961729884147644,-0.018532752990722656,-0.013326766287752692,-0.06382891153645591,-0.04062575173982428
0.08294589072465897,0.3149496614933014,9.74805736541748,-0.016124427318572998,0.02567395567893982,-0.004044532775878906,-0.013326766287752692,-0.06382891153645591,-0.04062575173982428
0.09129705280065536,0.301980197429657,9.759599685668945,-0.011133760213851929,0.010908335447311401,0.000728607177734375,0.047708337744010156,-0.06893705260219242,-0.020043963851769334
0.1097397580742836,0.293073445558548,9.775079727172852,-0.0016169846057891846,0.007358133792877197,-0.007008552551269531,0.003877559756797063,-0.057467510799301395,0.015301211226202061
0.1097397580742836,0.293073445558548,9.775079727172852,0.012286439538002014,0.00018927454948425293,0.02346324920654297,0.003877559756797063,-0.057467510799301395,0.015301211226202061
0.10009515285491943,0.2872799038887024,9.76058292388916,-0.0067002177238464355,-0.0021224617958068848,0.011165618896484375,0.02136235711424708,-0.007901975250856012,0.04999034129830844
0.1007404699921608,0.2984689474105835,9.754470825195312,-0.004251763224601746,0.016812890768051147,0.022805213928222656,-0.019847942758675255,-0.06893705260219242,-0.03921271633463822
0.1007404699921608,0.2984689474105835,9.754470825195312,0.0027410313487052917,0.004722565412521362,-0.0034456253051757812,-0.019847942758675255,-0.06893705260219242,-0.03921271633463822
0.09245728701353073,0.3027797043323517,9.748725891113281,-0.01132260262966156,0.013726919889450073,-0.012660026550292969,0.007045446850573934,0.02599737751288128,0.015301211226202061
0.09853741526603699,0.2929736375808716,9.742937088012695,-0.0037438571453094482,0.004261702299118042,-0.005488395690917969,-0.00599613235890428,0.045802521532484874,-0.04573389280556079
0.09853741526603699,0.2929736375808716,9.742937088012695,0.001108512282371521,-0.0004932582378387451,-0.012324333190917969,-0.00599613235890428,0.045802521532484874,-0.04573389280556079
0.10220005363225937,0.29389962553977966,9.747269630432129,-0.0014658793807029724,0.004198253154754639,-0.0023326873779296875,0.01976914878927549,0.020037223709038574,-0.012637971058425996
0.08855001628398895,0.3201064169406891,9.747298240661621,-0.00832764059305191,0.02972334623336792,-0.0045986175537109375,-0.03831878864658636,0.053133155461333285,0.05134429289913124
0.10551124066114426,0.29430830478668213,9.774989128112793,0.010969646275043488,-0.0013890862464904785,0.026177406311035156,-0.08247316018594203,0.000209341295996924,-0.0986576802904707
0.09799075126647949,0.3018288314342499,9.746045112609863,0.001155458390712738,0.005687296390533447,-0.0021114349365234375,-0.09909577289270355,-0.06893705260219242,-0.0418781376272762
0.10498649626970291,0.2828163504600525,9.754129409790039,0.010529555380344391,-0.010751903057098389,0.0026035308837890625,-0.025137150538483217,0.053133155461333285,-0.05754428372639792
0.09771373867988586,0.28690776228904724,9.744468688964844,0.0011274218559265137,-0.005363166332244873,-0.008864402770996094,-0.02223876243223095,-0.0511130603132359,0.04960032682453014
0.08731646835803986,0.2844063639640808,9.736175537109375,-0.0031946375966072083,0.007036685943603516,-0.012709617614746094,0.016421942549359338,-0.03765067074775482,-0.04573389280556079
0.09507501870393753,0.30348649621009827,9.760483741760254,-0.000784754753112793,0.013848364353179932,0.0062732696533203125,-0.0028655445012980255,-0.018363190367204067,-0.09630777505086897
0.07909824699163437,0.2815794050693512,9.76038646697998,-0.019237279891967773,-0.012066513299942017,0.005673408508300781,-0.00348706503534274,-0.017741669833159352,0.00546150997379211
0.09554500877857208,0.2947937250137329,9.739707946777344,-0.007069088518619537,0.002364933490753174,-0.02010631561279297,-0.0743618436390891,-0.007901975250856012,-0.04573389280556079
0.10150828957557678,0.27919802069664,9.760065078735352,0.004510849714279175,-0.01605123281478882,0.010873794555664062,-0.1252955781360791,-0.06893705260219242,0.06623493238297885
0.09754199534654617,0.28529036045074463,9.751988410949707,-0.0005229860544204712,-0.008522480726242065,0.001537322998046875,-0.0743618436390891,-0.018407900091819883,0.06583037707678782
0.08361314982175827,0.2853064239025116,9.738456726074219,-0.009838074445724487,-0.0012765228748321533,-0.014807701110839844,0.04650341633520454,0.022013129400835826,0.015301211226202061
0.08400873839855194,0.28241270780563354,9.74020767211914,-0.011464163661003113,-0.012745290994644165,-0.014056205749511719,-0.013326766287752692,-0.05962168843049995,0.015301211226202061
0.08776482939720154,0.29700130224227905,9.766216278076172,-0.006073206663131714,0.003522217273712158,0.016470909118652344,-0.013326766287752692,-0.007901975250856012,-0.034484404489884504
0.09103984385728836,0.2844497561454773,9.736769676208496,-0.010416403412818909,-0.01519787311553955,-0.028165817260742188,-0.016498482022724473,0.053133155461333285,-0.016802211997378476
0.09892912954092026,0.2999006509780884,9.75341796875,0.0015037432312965393,0.008536010980606079,0.0028905868530273438,-0.013326766287752692,0.0001487833980725629,0.015301211226202061
0.09621583670377731,0.301980197429657,9.74734115600586,-0.0036151185631752014,0.01027524471282959,-0.004123687744140625,0.035564761657723334,0.004241604170484115,-0.03359031671927397
0.09404408931732178,0.31094980239868164,9.76296329498291,-0.015382103621959686,0.009204357862472534,0.02152729034423828,0.015059820067937647,0.020484627780100854,0.07207439727779597
0.08295466005802155,0.28103107213974,9.759146690368652,-0.012642838060855865,-0.011988461017608643,0.006955146789550781,-0.013326766287752692,-0.007901975250856012,0.06078844348927548
0.09281078726053238,0.2984543740749359,9.751778602600098,-0.0004623532295227051,0.009543508291244507,-0.0028076171875,-0.013326766287752692,-0.007901975250856012,0.05066902464601235
0.0979289561510086,0.2923150658607483,9.751822471618652,0.004036411643028259,-0.007376730442047119,0.013978004455566406,0.04841511558076103,-0.03806612500814878,0.015301211226202061
0.0871354341506958,0.29250043630599976,9.763455390930176,-0.007734291255474091,0.002166241407394409,0.01591777801513672,-0.013326766287752692,0.0018365404842599032,0.005562695491086147
0.09829776734113693,0.2897227704524994,9.742863655090332,0.006741814315319061,0.00015094876289367676,-0.0074062347412109375,-0.013326766287752692,0.005731675971977848,0.0016675666734748123
0.10150828957557678,0.29406097531318665,9.761237144470215,0.0064434632658958435,-0.0022712349891662598,0.008846282958984375,-0.013326766287752692,0.02656452333783035,0.015301211226202061
0.11298883706331253,0.29044780135154724,9.744914054870605,0.020021751523017883,-0.0020845234394073486,-0.0077037811279296875,-0.06869302675181652,-0.11296569930203093,0.009632394338929486
0.07746684551239014,0.30752167105674744,9.747441291809082,-0.019755005836486816,0.01890474557876587,-0.005084991455078125,-0.013326766287752692,0.0068047727287702375,0.046922825968819026
0.10758250951766968,0.295264333486557,9.758199691772461,0.02028750628232956,-0.01024135947227478,0.0018014907836914062,0.10874344177577301,0.017892470938481845,-0.04573389280556079
0.10483423620462418,0.2808394134044647,9.745306015014648,0.010495364665985107,-0.012364566326141357,-0.007561683654785156,0.05304073446412655,0.053133155461333285,0.015301211226202061
0.09851071983575821,0.292395681142807,9.759438514709473,0.0057864710688591,0.0019030272960662842,0.00890350341796875,0.06298352221421477,0.00737321588945521,0.015301211226202061
0.10839936882257462,0.29353368282318115,9.745037078857422,0.021914474666118622,-0.005215495824813843,-0.00997161865234375,0.07287494347328906,-0.0330685743100283,0.015301211226202061
0.07108251750469208,0.31234779953956604,9.763275146484375,-0.02534376084804535,0.020147651433944702,0.011345863342285156,-0.01788406326909825,-0.007901975250856012,0.015301211226202061
0.10289014130830765,0.29592767357826233,9.755311965942383,0.015448696911334991,0.0034671425819396973,0.0015316009521484375,-0.029398454868843925,0.037061446869922215,0.06026461333666046
0.11302617192268372,0.29814496636390686,9.748291969299316,0.02432144433259964,0.0032919347286224365,-0.007823944091796875,0.023356685640504853,-0.007901975250856012,0.015301211226202061
0.10077479481697083,0.2859453558921814,9.741927146911621,0.004952028393745422,-0.008655935525894165,-0.009981155395507812,0.040232775738710536,0.04939537112363017,-0.041996111802910976
0.09473000466823578,0.29718923568725586,9.734478950500488,0.000321999192237854,0.0033823251724243164,-0.018692970275878906,-0.0743618436390891,-0.007901975250856012,-0.028855374788548577
0.10941240936517715,0.2807977795600891,9.752785682678223,0.01903502643108368,-0.0152205228805542,-0.006533622741699219,-0.05081618053807174,0.053133155461333285,-0.04573389280556079
0.08976230770349503,0.2884172797203064,9.760890007019043,-0.007102273404598236,-0.005322188138961792,0.009545326232910156,0.047708337744010156,-0.007901975250856012,0.07338807477489949
0.08921468257904053,0.30437564849853516,9.752348899841309,-0.009097591042518616,0.010663479566574097,-0.00009441375732421875,0.047708337744010156,0.035473808083971096,0.015301211226202061
0.11860013008117676,0.27798694372177124,9.740286827087402,0.01358816772699356,-0.003241628408432007,-0.013794898986816406,0.08597779428209905,-0.030667616074423365,0.03806685871987603
0.09148076176643372,0.3017573356628418,9.752825736999512,0.003731377422809601,0.013119429349899292,-0.0066986083984375,0.029255661226508346,0.010550711271805718,-0.0031514652912997504
0.09148076176643372,0.3017573356628418,9.752825736999512,-0.01035977154970169,0.005689352750778198,0.005135536193847656,0.029255661226508346,0.010550711271805718,-0.0031514652912997504
0.09393791854381561,0.29584819078445435,9.746002197265625,0.001660071313381195,-0.0014331638813018799,-0.004324913024902344,-0.013326766287752692,0.09708421548106869,-0.006674322118718944
0.0849548950791359,0.2872311472892761,9.760645866394043,-0.011742420494556427,-0.006127864122390747,0.009943008422851562,-0.07162351141108256,-0.00927114136485928,-0.04573389280556079
0.10249920189380646,0.28228726983070374,9.741429328918457,0.009378083050251007,-0.005394548177719116,-0.006188392639160156,0.006037633762240041,-0.06893705260219242,-0.004063188823790672
0.0967949852347374,0.2930673658847809,9.775532722473145,0.004404373466968536,-0.007744818925857544,0.018866539001464844,0.007677799637755466,-0.028906534506257558,-0.005703354699306096
0.10615518689155579,0.29936861991882324,9.737330436706543,0.008828200399875641,0.006364285945892334,-0.01425933837890625,0.04709668229764362,-0.06832540382593248,-0.045122237359194246
0.08870501816272736,0.2876895070075989,9.743683815002441,-0.010030411183834076,-0.0005463659763336182,-0.006615638732910156,0.0687515902878641,-0.04894113352834457,0.05634038951401045
0.0943218469619751,0.3019444942474365,9.744460105895996,-0.0032270029187202454,-0.0007641911506652832,-0.008515357971191406,-0.0743618436390891,-0.06870970868845148,-0.04596124338940833
0.0943218469619751,0.3019444942474365,9.744460105895996,-0.003249436616897583,0.008695453405380249,-0.005953788757324219,-0.0743618436390891,-0.06870970868845148,-0.04596124338940833
0.09671732783317566,0.27966150641441345,9.742774963378906,-0.000837571918964386,-0.014603227376937866,-0.0030384063720703125,-0.011833276056620646,-0.007901975250856012,0.05549345939714209
0.10621853172779083,0.29443061351776123,9.751615524291992,-0.005384795367717743,0.006886392831802368,0.031975746154785156,-0.012298782797026104,0.05210516863555339,0.015301211226202061
0.10621853172779083,0.29443061351776123,9.751615524291992,0.008698917925357819,0.00250852108001709,0.0008535385131835938,-0.012298782797026104,0.05210516863555339,0.015301211226202061
0.09601996839046478,0.28581857681274414,9.744378089904785,-0.00335683673620224,-0.016373783349990845,-0.01821613311767578,-0.05272854012418275,-0.04730374908728607,0.015301211226202061
0.09926053136587143,0.30813273787498474,9.751286506652832,0.005822598934173584,-0.01585814356803894,-0.0104827880859375,0.047708337744010156,-0.0060203915366497255,0.017182794940408346
0.09926053136587143,0.30813273787498474,9.751286506652832,0.0009891241788864136,0.017108529806137085,0.0014553070068359375,0.047708337744010156,-0.0060203915366497255,0.017182794940408346
0.09583459794521332,0.2921455502510071,9.753798484802246,-0.0013902857899665833,0.00272175669670105,0.006100654602050781,0.025216965034194516,-0.046445686562483386,-0.007190161483613579
0.10629922151565552,0.30566707253456116,9.747968673706055,0.007724776864051819,0.002069920301437378,0.008484840393066406,0.026250971631191146,-0.02602232037655439,0.015301211226202061
0.10122428834438324,0.2996162474155426,9.754018783569336,0.0030409619212150574,0.006490200757980347,0.0035943984985351562,0.10874344177577301,0.11336423817205853,0.015301211226202061
0.09033480286598206,0.2960453927516937,9.75610637664795,-0.01791161298751831,0.008448511362075806,0.001171112060546875,0.03313676280991603,0.015329799303138268,-0.02250212492167312
0.10666979104280472,0.28170475363731384,9.758100509643555,0.010643959045410156,-0.01733177900314331,0.003238677978515625,0.0038712231555162895,0.053133155461333285,-0.011337900578809604
0.10680269449949265,0.28521186113357544,9.759406089782715,0.006042405962944031,-0.007783651351928711,-0.001739501953125,-0.0004992975004985103,-0.007901975250856012,-0.021630075183306455
0.10680269449949265,0.28521186113357544,9.759406089782715,0.010521598160266876,-0.0076475441455841064,0.014614105224609375,-0.0004992975004985103,-0.007901975250856012,-0.021630075183306455
0.10726045817136765,0.3037373721599579,9.75182056427002,0.012547455728054047,0.011217713356018066,0.007220268249511719,-0.013326766287752692,-0.007901975250856012,-0.02947067878323152
0.0855795219540596,0.2952974736690521,9.759222030639648,-0.013498581945896149,0.0013962090015411377,0.00986480712890625,-0.013326766287752692,-0.06465873949997279,0.015301211226202061
0.11446218937635422,0.296304315328598,9.748908996582031,0.017141759395599365,0.008365631103515625,0.007260322570800781,-0.013326766287752692,0.028252227063164798,-0.009579700496699897
0.09543436765670776,0.3162393569946289,9.742743492126465,0.00003287196159362793,0.02684268355369568,-0.011318206787109375,-0.04456837171650836,0.007718837468681739,0.04509470982920925
0.08254016190767288,0.27338331937789917,9.758254051208496,-0.013851270079612732,0.007689416408538818,0.00063323974609375,0.08879634788232017,-0.0029151967749128445,0.010314439420365506
0.08388637751340866,0.2933206558227539,9.748406410217285,-0.02459859848022461,-0.01543426513671875,-0.013562202453613281,-0.023148418231672355,0.053133155461333285,-0.05555555141958706
0.10208800435066223,0.29487037658691406,9.756523132324219,-0.005190327763557434,0.01073428988456726,0.0054416656494140625,0.0014440113802891216,-0.007901975250856012,-0.030963121807625588
0.10174351185560226,0.28328678011894226,9.749259948730469,0.004034601151943207,-0.010488927364349365,-0.0018548965454101562,-0.007333542095330956,0.047139924598804936,0.015301211226202061
0.10668566823005676,0.2951510548591614,9.747057914733887,0.014075450599193573,-0.0008022487163543701,-0.0018339157104492188,-0.027354854265048176,-0.08296515391970112,0.0012731099086933533
0.10668566823005676,0.2951510548591614,9.747057914733887,0.014075450599193573,-0.0008022487163543701,-0.0018339157104492188,-0.027354854265048176,-0.08296515391970112,0.0012731099086933533
0.07910288125276566,0.30223843455314636,9.7482271194458,-0.005160346627235413,0.01098737120628357,-0.011099815368652344,-0.019906252830671597,-0.021060934996480596,-0.10018951029440473
0.09671732783317566,0.29185688495635986,9.750589370727539,0.0001499578356742859,-0.008241415023803711,-0.0014333724975585938,0.047708337744010156,-0.007901975250856012,-0.01187176257176808
0.09827708452939987,0.2934380769729614,9.735091209411621,0.00011133402585983276,-0.0011799633502960205,-0.01772022247314453,-0.0000796277327261838,-0.007901975250856012,0.07633631525796492
0.1060093492269516,0.29718923568725586,9.759207725524902,0.0070781409740448,0.0034328103065490723,-0.005580902099609375,-0.005940970577228494,-0.007901975250856012,0.022687006936726258
0.09911283850669861,0.301980197429657,9.749459266662598,0.0019404813647270203,0.008047997951507568,-0.0034036636352539062,-0.04130639609887192,0.025153502304840918,-0.01775424965422834
0.09896419942378998,0.2986562252044678,9.732491493225098,0.00900229811668396,0.002889096736907959,-0.017319679260253906,0.035248918769463136,0.053133155461333285,-0.09430958453288323
0.0849115252494812,0.3022978901863098,9.753270149230957,-0.02609141916036606,0.009817004203796387,-0.016839981079101562,-0.06626706895663229,0.00019281277181402206,0.007206423203532027
0.10445760935544968,0.28351327776908875,9.740804672241211,0.019110679626464844,-0.0020582079887390137,-0.00725555419921875,-0.042021404847181185,-0.007901975250856012,-0.013393440673439653
0.10153396427631378,0.301980197429657,9.746220588684082,0.006974667310714722,0.007961690425872803,-0.00679779052734375,-0.044171366971001366,-0.007901975250856012,0.00020597289215819702
0.0943218469619751,0.2976219952106476,9.739230155944824,-0.0025456473231315613,0.007660657167434692,0.009696006774902344,-0.00781365636921525,-0.007901975250856012,0.06531010876110326
0.0859019011259079,0.2851402461528778,9.748743057250977,-0.00931711494922638,-0.006663978099822998,-0.022855758666992188,0.01627885542233286,0.02170366313449607,0.015301211226202061
0.09629246592521667,0.2756299376487732,9.756328582763672,0.00044514238834381104,-0.017770111560821533,0.00278472900390625,-0.013326766287752692,-0.058111803077317226,0.015301211226202061
0.09230963885784149,0.29575222730636597,9.75385856628418,-0.0019100308418273926,-0.017254143953323364,0.028324127197265625,0.03794348175788606,0.04336829614015588,0.015301211226202061
0.1134856641292572,0.2828364372253418,9.74087142944336,0.01706310361623764,-0.014883667230606079,-0.007378578186035156,0.04745290601132887,0.053133155461333285,0.015301211226202061
0.0855623260140419,0.2959735691547394,9.746828079223633,-0.009418830275535583,0.002019554376602173,-0.004584312438964844,-0.013326766287752692,-0.007901975250856012,0.015301211226202061
0.08548447489738464,0.2920665144920349,9.754876136779785,-0.01848684251308441,0.00897267460823059,0.009515762329101562,-0.0638455534524512,0.04261685526953547,-0.03521759594881629
0.08854228258132935,0.3007591962814331,9.75400447845459,0.0031972452998161316,0.006617993116378784,0.0021333694458007812,-0.013326766287752692,-0.03901150589860052,0.046410748544053186
0.09614928811788559,0.3224825859069824,9.749423027038574,-0.0010809525847434998,0.03428336977958679,-0.0027761459350585938,-0.05573709171122792,0.0014104073831811878,0.015301211226202061
0.0965384915471077,0.27633774280548096,9.761680603027344,0.010681115090847015,-0.00401073694229126,0.013605117797851562,0.0974477096109603,0.053133155461333285,0.015301211226202061
0.09418163448572159,0.30015143752098083,9.743341445922852,-0.0035912245512008667,-0.003488779067993164,-0.005702972412109375,-0.013326766287752692,-0.06893705260219242,0.07990919788496915
0.08377748727798462,0.31536921858787537,9.74239444732666,-0.010737717151641846,0.026440411806106567,-0.0076541900634765625,-0.013326766287752692,-0.0607627569087152,-0.0010473935009655882
0.10252003371715546,0.2933894395828247,9.7675142288208,-0.01743399351835251,-0.01619461178779602,-0.005114555358886719,-0.013326766287752692,-0.007901975250856012,-0.05783596748851185
0.0871354341506958,0.288027286529541,9.742419242858887,-0.008025459945201874,-0.015782862901687622,-0.0032835006713867188,-0.04164242272973803,0.020413701201449166,-0.04573389280556079
0.09401977062225342,0.2972103953361511,9.764237403869629,-0.0004237145185470581,0.0009436309337615967,0.013451576232910156,-0.021023615749990145,0.053133155461333285,0.015301211226202061
0.08059563487768173,0.2856307327747345,9.732542991638184,-0.0026534944772720337,0.01967257261276245,0.017731666564941406,-0.0743618436390891,0.005016540491642968,-0.03281538373316842
0.0841330736875534,0.28497546911239624,9.747337341308594,-0.00457763671875,-0.01066964864730835,0.00168609619140625,0.020201798584513486,-0.06893705260219242,0.07633631525796492
0.10336431860923767,0.3030270040035248,9.738155364990234,0.009743258357048035,0.010789990425109863,-0.016778945922851562,-0.02019919057282845,-0.055192190691827674,-0.03886146185037842
0.08426173031330109,0.2849726974964142,9.760519981384277,0.0049021318554878235,-0.0010308921337127686,0.03259086608886719,-0.0743618436390891,0.10043258898964182,0.0626006447545106
0.08849309384822845,0.29886677861213684,9.755088806152344,-0.00400126725435257,0.008744686841964722,0.0036268234252929688,-0.013326766287752692,-0.007901975250856012,0.04989375815457623
0.09740431606769562,0.2955862581729889,9.721430778503418,0.003340288996696472,0.0038468539714813232,-0.02924346923828125,-0.013326766287752692,0.053133155461333285,0.07050169286054764
0.10025115311145782,0.27494189143180847,9.739228248596191,0.01032169908285141,-0.012540280818939209,-0.01911640167236328,-0.013326766287752692,-0.039933534745805965,-0.031232133877367563
0.08851007372140884,0.29954400658607483,9.753029823303223,-0.00430838018655777,0.00012871623039245605,0.0048923492431640625,-0.048351936330938414,-0.04292715196414834,-0.04573389280556079
0.08851007372140884,0.29954400658607483,9.753029823303223,-0.006528452038764954,0.016449153423309326,0.0024271011352539062,0.004158304544068388,0.0008405668351611395,-0.0980264614214131
0.1006438359618187,0.2943280041217804,9.738545417785645,-0.0058288127183914185,-0.0005287826061248779,0.014136314392089844,0.010404912746441728,0.053133155461333285,-0.04573389280556079
0.08901957422494888,0.2889423668384552,9.754013061523438,0.0011997222900390625,-0.0028502345085144043,-0.00443267822265625,-0.013326766287752692,0.026113554094784306,0.042320799252537816
0.07106900215148926,0.28457117080688477,9.746513366699219,-0.021964415907859802,-0.009671211242675781,-0.0024404525756835938,0.05217951030879009,-0.05999470747263256,0.015301211226202061
0.10820082575082779,0.3032396733760834,9.742074012756348,-0.011951185762882233,0.01370665431022644,-0.007025718688964844,0.06375365272356015,0.008143346398800592,0.015301211226202061
0.09527992457151413,0.29096099734306335,9.758841514587402,0.01103481650352478,-0.003070056438446045,0.009656906127929688,-0.11098259656520004,0.053133155461333285,-0.02131952835969566
0.09527992457151413,0.29096099734306335,9.758841514587402,-0.010144814848899841,-0.0005323886871337891,0.0093841552734375,-0.11098259656520004,0.053133155461333285,-0.02131952835969566
0.09874333441257477,0.28572824597358704,9.739531517028809,-0.019221477210521698,0.005974441766738892,0.0016269683837890625,-0.013326766287752692,0.06345733990745796,-0.0016024264123084603
0.10887379199266434,0.2887222468852997,9.750733375549316,0.020723871886730194,-0.012422800064086914,0.0019865036010742188,0.010174714027071144,0.02963166514134953,0.015301211226202061
0.09466253221035004,0.310312956571579,9.75827407836914,0.001253180205821991,0.017796218395233154,0.00893402099609375,0.0448148921867569,-0.007901975250856012,0.012407758998842187
0.10320857167243958,0.288612425327301,9.763867378234863,0.008194386959075928,-0.008295059204101562,-0.0029592514038085938,-0.013326766287752692,-0.051223910815009766,-0.0024119372310871983
0.10203924030065536,0.29718923568725586,9.739056587219238,0.00289713591337204,0.003415018320083618,-0.012751579284667969,0.12457908862410212,-0.007901975250856012,-0.007298524035621418
0.07713014632463455,0.2923276424407959,9.741862297058105,-0.016403846442699432,-0.001486659049987793,-0.007521629333496094,-0.011528919091945176,-0.06534135821057738,-0.04213820508405237
0.08320825546979904,0.2783200144767761,9.729880332946777,-0.02983751893043518,-0.0038521289825439453,-0.0142974853515625,-0.03733984377966635,0.010609038019068585,-0.008711879605924818
0.10050667077302933,0.28481122851371765,9.747265815734863,0.019907183945178986,-0.003048539161682129,-0.0063381195068359375,-0.013326766287752692,-0.007901975250856012,-0.0236874962480009
0.10050667077302933,0.28481122851371765,9.747265815734863,-0.015593715012073517,-0.016915172338485718,0.0078105926513671875,-0.013326766287752692,-0.007901975250856012,-0.0236874962480009
0.09116861969232559,0.28724077343940735,9.73288345336914,-0.0027000680565834045,0.008374303579330444,0.0005292892456054688,0.005980671051779193,-0.007901975250856012,0.015301211226202061
0.09201345592737198,0.29017698764801025,9.732666015625,-0.002545975148677826,-0.007861077785491943,-0.019812583923339844,0.047708337744010156,0.0320484648801564,0.05525162801184133
0.09201345592737198,0.29017698764801025,9.732666015625,0.004497706890106201,0.006251990795135498,-0.0052852630615234375,0.047708337744010156,0.0320484648801564,0.05525162801184133
0.10624277591705322,0.2955545485019684,9.755657196044922,0.022562719881534576,0.007991015911102295,0.006519317626953125,-0.013326766287752692,-0.007901975250856012,-0.005523461923998241
0.09751494973897934,0.28839436173439026,9.762042999267578,0.003160126507282257,-0.015434235334396362,0.020069122314453125,0.006995754556319447,0.03281062461210123,-0.005021309617870077
0.09911283850669861,0.29009202122688293,9.751644134521484,0.00539049506187439,0.01519078016281128,0.0008831024169921875,0.10845933525476957,-0.007901975250856012,0.015017104705198622
0.0943218469619751,0.28287190198898315,9.757318496704102,0.0003056526184082031,-0.0062361061573028564,0.014748573303222656,-0.05354485445170506,-0.06893705260219242,0.0361182004135861
0.11689823120832443,0.29718923568725586,9.75867748260498,0.028009437024593353,0.003656357526779175,0.0048847198486328125,0.047708337744010156,-0.06893705260219242,-0.004347722231617238
0.11689823120832443,0.29718923568725586,9.75867748260498,0.00848783552646637,0.0034749209880828857,0.01872730255126953,0.047708337744010156,-0.06893705260219242,-0.004347722231617238
0.09600194543600082,0.2967231571674347,9.764348030090332,-0.0006360858678817749,-0.0037889480590820312,0.015440940856933594,0.047708337744010156,0.010325488451967192,-0.027506439107897504
0.08769023418426514,0.29295310378074646,9.734332084655762,-0.009899936616420746,-0.0038941800594329834,-0.013286590576171875,-0.013326766287752692,0.053133155461333285,-0.003491600707838452
0.09199763834476471,0.3042331635951996,9.743969917297363,-0.0002187862992286682,0.005551069974899292,-0.022235870361328125,-0.013326766287752692,-0.006086679056153228,-0.10495370064262086
0.10503805428743362,0.2961798906326294,9.73753547668457,0.01613905280828476,0.012146592140197754,-0.0074977874755859375,0.06377551733303212,-0.007901975250856012,0.015301211226202061
0.10444745421409607,0.2842218279838562,9.738113403320312,0.001512669026851654,-0.01160934567451477,-0.016201019287109375,0.029803070205994455,-0.007901975250856012,0.015301211226202061
0.10020957887172699,0.31503695249557495,9.737940788269043,0.0031271353363990784,0.021645724773406982,-0.011178016662597656,-0.07156742915469441,0.05033874097693859,-0.10118016786853426
0.10778213292360306,0.2999269962310791,9.755534172058105,0.010114394128322601,0.00932091474533081,0.005435943603515625,0.00992527872023345,0.015350079762290048,0.05308427024997877
0.09124869108200073,0.2896403968334198,9.760921478271484,-0.004403963685035706,-0.007051795721054077,0.01438140869140625,-0.11812980256223658,0.01859885190388934,-0.04573389280556079
0.10987146943807602,0.3060940206050873,9.733710289001465,-0.006722651422023773,0.00025346875190734863,0.004662513732910156,-0.016777065695453723,-0.011352274658557043,-0.04573389280556079
0.10137169063091278,0.3072092533111572,9.761305809020996,0.018556147813796997,0.016160666942596436,0.0049915313720703125,0.01073917846916245,-0.03196791333766454,0.015301211226202061
0.10215285420417786,0.295438289642334,9.742439270019531,0.004286631941795349,-0.0007891058921813965,-0.01190948486328125,-0.02974984942534257,0.036710058983530185,-0.001121871911387817
0.10390377044677734,0.2904956638813019,9.736366271972656,0.006485700607299805,0.0016843676567077637,0.007049560546875,-0.0743618436390891,-0.007901975250856012,0.011115439183108172
0.08669368922710419,0.29274657368659973,9.74642276763916,-0.007867559790611267,-0.01204591989517212,0.0002536773681640625,-0.049471820550556045,0.06438816662528375,-0.11802401467138073
0.08403915166854858,0.29714393615722656,9.738638877868652,-0.007128782570362091,0.004603296518325806,-0.018268585205078125,0.01776782999128903,-0.02344926672027026,0.03084850936572292
0.07676422595977783,0.29220089316368103,9.752642631530762,-0.028009258210659027,-0.0050192177295684814,0.014849662780761719,-0.003271567230943549,-0.012929574779260582,0.07633631525796492
0.07871470600366592,0.278485506772995,9.744009017944336,-0.02443811297416687,-0.0024340450763702393,-0.01824665069580078,0.022121848803547374,-0.007901975250856012,0.04088770016666485
0.10390377044677734,0.27989721298217773,9.731847763061523,0.009194612503051758,-0.011024683713912964,-0.017892837524414062,0.01642424373614025,0.038257643779280204,-0.030858387793614318
0.11040177941322327,0.3011629581451416,9.767606735229492,0.00892534852027893,-0.022543221712112427,-0.010403633117675781,0.053555286498445195,-0.007901975250856012,0.07048936650352987
0.09241470694541931,0.29049113392829895,9.741755485534668,0.01287291944026947,0.012665629386901855,-0.0037517547607421875,-0.08246070042679204,-0.007901975250856012,-0.04573389280556079
0.09172333031892776,0.27822843194007874,9.76253604888916,-0.0057119205594062805,-0.012630343437194824,0.015207290649414062,-0.013326766287752692,0.006063443739772623,0.001335795570626732
0.09911283850669861,0.2964556813240051,9.765246391296387,0.003852933645248413,-0.02157387137413025,0.010125160217285156,-0.06771809728907653,-0.0012582222307368411,-0.10012525048731108
0.09569548070430756,0.2937237024307251,9.755375862121582,0.010708436369895935,-0.00006732344627380371,0.0047130584716796875,0.054217327930153804,0.019361091677113508,0.015301211226202061
0.09654050320386887,0.30077439546585083,9.749597549438477,0.003729484975337982,0.011362671852111816,0.0020656585693359375,-0.013326766287752692,0.04002492187648794,-0.04573389280556079
0.10597510635852814,0.2876073122024536,9.7337007522583,0.013038702309131622,-0.005167543888092041,-0.016417503356933594,0.04000899366190006,-0.06123770852008232,0.007601867144091965
0.09439101070165634,0.29746732115745544,9.743532180786133,0.01499464362859726,-0.016849786043167114,-0.008968353271484375,0.07601390898479915,-0.007901975250856012,0.0197251594361737
0.10342797636985779,0.30534371733665466,9.74781608581543,0.008098281919956207,0.013196378946304321,-0.0016841888427734375,-0.00120383418142797,0.053133155461333285,-0.008944652986447381
0.0932585671544075,0.2954598069190979,9.766092300415039,0.005637846887111664,0.005762159824371338,0.0030221939086914062,-0.004841069997018432,0.053133155461333285,-0.0016701946954796804
0.11422586441040039,0.29958468675613403,9.744730949401855,0.026616305112838745,0.005520045757293701,-0.00923919677734375,0.047708337744010156,-0.007901975250856012,0.01197032006705725
0.0892786905169487,0.2825641632080078,9.756571769714355,-0.011673331260681152,-0.015697836875915527,0.009637832641601562,-0.0743618436390891,-0.01946634595944046,-0.034169515426869725
0.09442223608493805,0.31013593077659607,9.746864318847656,-0.004819788038730621,0.01736423373222351,-0.0022182464599609375,-0.0743618436390891,-0.016986593754435765,0.015301211226202061
0.10753127187490463,0.29616299271583557,9.739815711975098,0.009273812174797058,-0.004056185483932495,-0.01380157470703125,-0.013326766287752692,0.023489424097123835,-0.01609017811661787
0.10796025395393372,0.29703450202941895,9.748834609985352,0.015764854848384857,0.004997938871383667,0.0006723403930664062,0.09791393672287978,-0.007901975250856012,-0.024074882699774338
0.08033250272274017,0.2711280584335327,9.730768203735352,-0.014966189861297607,-0.009192347526550293,-0.0016727447509765625,-0.003555100122778414,0.0433614826262524,0.025072877391176338
0.09553589671850204,0.2923874258995056,9.74204158782959,-0.00469478964805603,0.001225113868713379,0.0012598037719726562,-0.0743618436390891,-0.007901975250856012,-0.04601038873492069
0.07741895318031311,0.29807740449905396,9.740055084228516,-0.020850777626037598,0.00598299503326416,-0.0077381134033203125,0.0381071928545548,0.04353201057187793,-0.036132747916105434
0.10131160169839859,0.29196619987487793,9.751890182495117,-0.006311856210231781,-0.0034765303134918213,-0.005194664001464844,-0.013326766287752692,0.04212538847419867,0.06532855827599023
0.09070103615522385,0.2900579571723938,9.736001968383789,-0.006185494363307953,-0.0008764564990997314,-0.014555931091308594,-0.0743618436390891,0.023318872806125164,-0.014513058088792836
0.09301085025072098,0.2806474268436432,9.757622718811035,-0.003606744110584259,-0.009873241186141968,0.013990402221679688,-0.022537129641169436,0.0013084014427739562,0.015301211226202061
0.09911283850669861,0.28598690032958984,9.741181373596191,0.0035675615072250366,-0.02344915270805359,-0.009692192077636719,-0.02469593632635626,0.053133155461333285,0.015301211226202061
0.10174233466386795,0.304726779460907,9.739678382873535,0.010331772267818451,0.01921728253364563,-0.006962776184082031,-0.013326766287752692,-0.06893705260219242,0.012319326725389034
0.10564111173152924,0.29023975133895874,9.760157585144043,0.00989573448896408,-0.0047928690910339355,0.012052536010742188,0.03932418715632695,-0.007901975250856012,0.015301211226202061
0.09959232062101364,0.3182670772075653,9.756927490234375,0.004949145019054413,0.013994097709655762,0.021033287048339844,0.035491423835531645,-0.05672013869371391,0.0641194013494864
0.10112524777650833,0.29296237230300903,9.753305435180664,0.013929784297943115,-0.008174389600753784,0.010955810546875,-0.041537875478711885,0.020309160620529624,0.015301211226202061
0.10092344135046005,0.3046848773956299,9.752251625061035,0.006830081343650818,0.012924492359161377,0.0036878585815429688,-0.005733090034579453,-0.00030829232757616145,0.061148962751618435
0.08371829986572266,0.29188740253448486,9.743254661560059,-0.016558632254600525,-0.0038169026374816895,0.008245468139648438,-0.0003112538549115967,0.053133155461333285,-0.04573389280556079
0.10539816319942474,0.2777763307094574,9.732817649841309,0.021553106606006622,-0.017399370670318604,-0.02203845977783203,-0.10805241873083812,-0.007901975250856012,0.07633631525796492
0.081793412566185,0.29239821434020996,9.740995407104492,-0.016144677996635437,-0.0002308189868927002,-0.0073108673095703125,0.05442185340917734,-0.007901975250856012,0.015301211226202061
0.1040903627872467,0.29608479142189026,9.766402244567871,0.0005924254655838013,-0.000405043363571167,0.004542350769042969,0.014813332948222166,0.039063099173239246,0.015301211226202061
0.09527462720870972,0.2994985282421112,9.75563907623291,0.005030147731304169,0.013505548238754272,0.017746925354003906,-0.013326766287752692,-0.034373553988110636,-0.011170374181159173
0.0950654149055481,0.30009230971336365,9.741366386413574,0.00046069175004959106,0.008402258157730103,-0.0058612823486328125,0.09671785320533419,0.04712035784106057,0.07032352097274551
0.09452934563159943,0.27552616596221924,9.734888076782227,-0.01586853712797165,-0.010440289974212646,-0.012685775756835938,-0.013326766287752692,-0.05433904403559755,0.015301211226202061
0.08916275203227997,0.2817119061946869,9.753036499023438,-0.008655674755573273,-0.016552269458770752,0.0066375732421875,-0.03915408609752454,-0.007901975250856012,-0.010526108583569787
0.10171288996934891,0.30157098174095154,9.732756614685059,0.005638353526592255,0.00982743501663208,-0.016956329345703125,-0.06393566659277042,-0.013115063774015353,0.020514299749361403
0.09673888236284256,0.28465065360069275,9.736160278320312,0.007692575454711914,0.004818737506866455,0.0137939453125,0.047708337744010156,-0.023298035393071338,0.030697284708630607
0.09246901422739029,0.2904394865036011,9.748929023742676,-0.006569385528564453,0.00039571523666381836,-0.004687309265136719,-0.024454305044253836,-0.019029507337250545,-0.020780116838036548
0.08165618777275085,0.27922049164772034,9.772019386291504,-0.015651285648345947,-0.01352342963218689,0.025392532348632812,-0.013326766287752692,-0.007901975250856012,0.06763669530799174
0.10742376744747162,0.2842337191104889,9.740607261657715,0.012383922934532166,-0.010864496231079102,-0.012807846069335938,-0.013326766287752692,-0.05274543550422928,-0.04573389280556079
0.10446817427873611,0.29715365171432495,9.744010925292969,0.019015930593013763,0.0010021030902862549,-0.0008058547973632812,0.023475400197973492,-0.007901975250856012,-0.04573389280556079
0.0860191136598587,0.2856382429599762,9.751371383666992,-0.011442869901657104,-0.0063218772411346436,0.004088401794433594,-0.016948113909394942,0.04951179783453112,-0.09952628825382592
0.0786050409078598,0.28893646597862244,9.741671562194824,0.009821534156799316,0.000964045524597168,-0.0006866455078125,0.013841791899640743,-0.007901975250856012,0.05940303566567359
0.09396859258413315,0.28668445348739624,9.757545471191406,-0.010567918419837952,-0.003570258617401123,0.013516426086425781,-0.050847930245541725,0.02961922539251938,-0.022219979412013414
0.10046545416116714,0.2803260385990143,9.744184494018555,0.005741246044635773,-0.010354578495025635,-0.0032672882080078125,0.047708337744010156,0.0507176363829958,0.012885698817971185
0.08860950171947479,0.27970683574676514,9.74400806427002,-0.02004741132259369,-0.012475669384002686,-0.010160446166992188,-0.03797517143439654,-0.007901975250856012,-0.002892131546250829
0.10059396922588348,0.2932942509651184,9.76063346862793,-0.0007562041282653809,0.0024573802947998047,0.011086463928222656,-0.11256709373093722,0.007473430906237297,-0.0839391362273023
0.10303699970245361,0.2994980216026306,9.753876686096191,0.00812656432390213,0.009386450052261353,0.005687713623046875,-0.008909808349509739,0.053133155461333285,0.013092738927187196
0.09323474764823914,0.27892133593559265,9.744277954101562,-0.015297695994377136,0.006614744663238525,0.00087738037109375,0.02411559036042335,0.09544707783395481,-0.04573389280556079
0.09655805677175522,0.29000282287597656,9.731106758117676,0.0038267746567726135,0.00012153387069702148,-0.019944190979003906,-0.052663840090052746,-0.02959998546999897,0.015301211226202061
0.0987325981259346,0.3088708519935608,9.737832069396973,0.003584243357181549,0.018790453672409058,-0.009794235229492188,-0.013326766287752692,-0.06786057743640138,0.016377699732206315
0.09388384968042374,0.282600075006485,9.758625030517578,-0.01749267429113388,0.0019892454147338867,0.020752906799316406,-0.013326766287752692,-0.04951051383900844,-0.006880801938979603
0.10365524142980576,0.28925949335098267,9.762889862060547,0.015301346778869629,-0.002346336841583252,0.0130157470703125,-0.013326766287752692,-0.04999923255042136,0.05739848186598063
0.0871354341506958,0.2852591574192047,9.735289573669434,-0.00847402960062027,-0.004731088876724243,-0.013439178466796875,0.047708337744010156,-0.007901975250856012,0.01469876719706578
0.0967969298362732,0.28195157647132874,9.769169807434082,-0.008249498903751373,-0.000021666288375854492,0.026528358459472656,-0.03434779403637764,-0.007901975250856012,-0.04573389280556079
0.11267674714326859,0.2780302166938782,9.747663497924805,0.02692360430955887,-0.01585713028907776,-0.0026197433471679688,-0.013326766287752692,0.09380272313148746,0.055970772226249625
0.09908413141965866,0.2995368242263794,9.739716529846191,0.003065347671508789,0.010287821292877197,-0.009530067443847656,-0.013326766287752692,-0.007658142833571846,0.13688375445515943
0.10629922151565552,0.301157146692276,9.736459732055664,0.009761057794094086,0.011997073888778687,-0.011206626892089844,0.02673750254763555,0.032162306924745455,0.03627205309268328
0.09595383703708649,0.27247095108032227,9.754156112670898,0.00016032904386520386,-0.01636233925819397,0.007739067077636719,0.02825515857502048,-0.007901975250856012,0.03475439039519174
0.10137168318033218,0.29198840260505676,9.744559288024902,0.004742652177810669,0.003275245428085327,-0.004136085510253906,-0.013326766287752692,-0.06777686759842906,0.016461396229965418
0.10835883766412735,0.30129364132881165,9.74428653717041,0.0022681429982185364,0.014750152826309204,0.012284278869628906,0.0869720537137987,0.03136175405914574,0.015301211226202061
0.10230513662099838,0.28980356454849243,9.759175300598145,0.013673961162567139,-0.0023838281631469727,0.005337715148925781,0.005326333593206682,0.09551515294203015,0.015301211226202061
0.08698336035013199,0.27159932255744934,9.747624397277832,-0.009520165622234344,-0.018904417753219604,-0.0023889541625976562,0.047708337744010156,-0.005964642785592141,0.07439898279270105
0.10379640012979507,0.28432697057724,9.741082191467285,0.018680699169635773,-0.006612032651901245,0.0023317337036132812,-0.03587295393370033,-0.04639086495624478,-0.007244976419745576
0.08685903996229172,0.2949473261833191,9.751931190490723,-0.012325115501880646,0.0008164048194885254,0.004982948303222656,-0.03836663999141612,-0.050939450778355926,-0.0277362909817243
0.10109826922416687,0.2953062653541565,9.758329391479492,0.004431247711181641,0.004719913005828857,0.009570121765136719,0.10613166815061005,-0.007901975250856012,0.015301211226202061
0.09393922984600067,0.28064265847206116,9.744086265563965,-0.007353521883487701,0.0023851990699768066,-0.009329795837402344,-0.03692140131151051,-0.007901975250856012,0.0388958595901731
0.09883594512939453,0.31312689185142517,9.721899032592773,-0.002329617738723755,0.009974122047424316,-0.004817962646484375,0.04418085186260269,0.053133155461333285,0.07986380113937237
0.09883594512939453,0.31312689185142517,9.721899032592773,0.0024773702025413513,0.023592859506607056,-0.027971267700195312,0.04418085186260269,0.053133155461333285,0.07986380113937237
0.09576968103647232,0.28326377272605896,9.749259948730469,-0.002269245684146881,-0.0026564300060272217,0.000751495361328125,-0.05021656463413867,0.02898785978111633,0.026701957549503715
0.10071006417274475,0.2860108017921448,9.750218391418457,0.007284402847290039,0.0022790729999542236,0.005367279052734375,0.10874344177577301,0.053133155461333285,-0.04573389280556079
0.09192639589309692,0.28402242064476013,9.773061752319336,-0.004361875355243683,-0.004339307546615601,0.026426315307617188,-0.0046678473283219175,-0.0035725157711406245,0.010971751746486675
0.0938839390873909,0.29000282287597656,9.754024505615234,0.00040328502655029297,0.0004614889621734619,0.03500652313232422,-0.049423302195065154,0.028194590671936203,0.015301211226202061
0.09743714332580566,0.3013678789138794,9.727862358093262,-0.0039721205830574036,0.012424439191818237,-0.02838134765625,-0.1041946958711032,0.03753200955113907,-0.030132753565473187
0.102491095662117,0.27759554982185364,9.753657341003418,0.00485345721244812,-0.013969182968139648,0.0050067901611328125,0.09872692933730964,-0.06392880305306735,-0.040725636586329106
0.09620150923728943,0.29819899797439575,9.73399543762207,-0.01382235437631607,0.009729593992233276,-0.025409698486328125,-0.013326766287752692,0.01782630014584404,-0.01042705750039138
0.10044551640748978,0.2887600362300873,9.760841369628906,0.007224120199680328,-0.0022390782833099365,0.017380714416503906,-0.08904749740655699,0.006783675181558567,-0.04573389280556079
0.10249995440244675,0.27510616183280945,9.737984657287598,0.007496044039726257,-0.015879124402999878,-0.010949134826660156,-0.08032321140233507,0.10820689839995677,-0.04573389280556079
0.10973523557186127,0.300625205039978,9.745606422424316,0.014365024864673615,0.012226969003677368,0.007993698120117188,0.10073072274484891,0.01860922725472328,-0.011209981274217315
0.09411802887916565,0.2844600975513458,9.752547264099121,-0.005117259919643402,-0.007165104150772095,0.0010919570922851562,0.047708337744010156,-0.04101637319330422,0.015301211226202061
0.0951121374964714,0.3049270808696747,9.733784675598145,-0.002692699432373047,0.01626741886138916,-0.01798534393310547,-0.006614731386253228,-0.0011899336792499363,-0.039021857904061326
0.1119125634431839,0.29107537865638733,9.751333236694336,0.010723449289798737,-0.0004949569702148438,0.010622978210449219,-0.013326766287752692,-0.03523128967768937,-0.012028109870737904
0.09174303710460663,0.30607202649116516,9.763116836547852,-0.00345776230096817,0.01837390661239624,0.014978408813476562,-0.1222557170686003,0.053133155461333285,-0.032592635522882704
0.08654921501874924,0.2947937250137329,9.757033348083496,-0.009759381413459778,0.004025548696517944,0.0072269439697265625,-0.0743618436390891,0.053133155461333285,0.015301211226202061
0.10150828957557678,0.29496774077415466,9.753877639770508,0.004468381404876709,0.0015066266059875488,0.0070285797119140625,0.047708337744010156,-0.007901975250856012,0.04360175320660611
0.10246344655752182,0.30054745078086853,9.777527809143066,0.00429747998714447,0.010556221008300781,0.027733802795410156,-0.025495148500527087,0.040964759908345666,0.015301211226202061
0.10629922151565552,0.2761550545692444,9.754900932312012,0.008667506277561188,-0.017735451459884644,0.0006589889526367188,0.03117150927837709,0.04486473455841014,-0.03746547523769095
0.0951964259147644,0.30136415362358093,9.741199493408203,0.003957517445087433,-0.0010190606117248535,-0.01566028594970703,0.047708337744010156,0.08200392485594084,-0.016863123410953237
0.09704429656267166,0.28851479291915894,9.746283531188965,-0.0028456151485443115,-0.0040319859981536865,-0.005806922912597656,0.03614733543926443,0.0036590337239963233,-0.04573389280556079
0.10257739573717117,0.28832003474235535,9.747933387756348,0.003982968628406525,-0.0037960410118103027,-0.0034236907958984375,-0.06528184084928439,0.0011780342090553046,0.006221208436397356
0.08920808881521225,0.2947937250137329,9.748223304748535,0.0038614943623542786,0.0034188032150268555,-0.007989883422851562,-0.01168174457462421,-0.007901975250856012,-0.014393836603221735
0.09995774179697037,0.29014673829078674,9.75574016571045,0.0020448118448257446,0.0030749738216400146,0.003772735595703125,0.03694452657113203,0.04236933761834854,-0.034970081632682656
0.10189470648765564,0.28652507066726685,9.763632774353027,0.004104979336261749,-0.0010968446731567383,0.012625694274902344,0.03786272677714256,-0.007901975250856012,0.015301211226202061
0.08353078365325928,0.28158894181251526,9.74927806854248,-0.007667623460292816,0.0057402849197387695,-0.011008262634277344,0.07816770641992087,-0.038477697266494935,0.015301211226202061
0.100285105407238,0.2988031804561615,9.755274772644043,0.0021646320819854736,0.008440166711807251,0.005387306213378906,0.037752056368247196,-0.049024496520773106,0.015301211226202061
0.10234858840703964,0.3046703338623047,9.759136199951172,0.004255086183547974,0.01513710618019104,0.009940147399902344,-0.013326766287752692,0.0028031823395352966,-0.03502873855022279
0.08719808608293533,0.28514915704727173,9.731451034545898,-0.011981546878814697,-0.003532320261001587,-0.024895668029785156,-0.043045946562896314,-0.007901975250856012,-0.01601469919020394
0.0841490775346756,0.2936120629310608,9.737003326416016,-0.004424557089805603,0.017659157514572144,0.005908966064453125,0.047708337744010156,0.0035931897665824747,-0.04573389280556079
0.0841490775346756,0.2936120629310608,9.737003326416016,-0.013628289103507996,-0.0015427172183990479,-0.017541885375976562,0.047708337744010156,0.0035931897665824747,-0.04573389280556079
0.10113484412431717,0.30375319719314575,9.744608879089355,0.012189142405986786,0.024037271738052368,0.01622295379638672,0.015604927860642843,-0.06893705260219242,-0.016802198657165254
0.09595394134521484,0.29316163063049316,9.775068283081055,-0.0021369606256484985,0.002330273389816284,0.0274200439453125,0.03107447923750192,-0.007901975250856012,0.015301211226202061
0.0852559432387352,0.2904684245586395,9.74496841430664,-0.016240037977695465,0.00033861398696899414,-0.008439064025878906,-0.025619265844350914,0.04084064256452184,-0.03344138657885595
0.10737836360931396,0.2946355938911438,9.748576164245605,0.014569796621799469,0.007241576910018921,-0.017518997192382812,0.047708337744010156,0.053133155461333285,0.015301211226202061
0.09956393390893936,0.26686131954193115,9.726119041442871,0.0001643747091293335,-0.025555819272994995,-0.02438640594482422,-0.013326766287752692,0.04277177183063716,0.02566259485689818
0.10027765482664108,0.2934812605381012,9.748964309692383,-0.0003255978226661682,0.008365243673324585,0.004764556884765625,-0.013326766287752692,-0.007901975250856012,-0.019815379298198692
0.09647560864686966,0.2945519983768463,9.742074012756348,-0.0026563331484794617,0.001167386770248413,-0.007012367248535156,0.014111210845886011,-0.007901975250856012,-0.07317186326909288
0.09933152049779892,0.29958468675613403,9.76352596282959,-0.0047424063086509705,0.00812557339668274,-0.0020418167114257812,0.0005389045935566505,-0.007901975250856012,0.07633631525796492
0.09933152049779892,0.29958468675613403,9.76352596282959,0.004688158631324768,0.007923245429992676,0.018975257873535156,0.0005389045935566505,-0.007901975250856012,0.07633631525796492
0.0935918390750885,0.29166823625564575,9.753944396972656,-0.00011684000492095947,0.0031698644161224365,0.011457443237304688,-0.021271743715932018,-0.03444701854232794,0.07633631525796492
0.09285629540681839,0.28497937321662903,9.753890037536621,-0.004705965518951416,-0.006076544523239136,0.006625175476074219,-0.06251521402903255,-0.0019786537757211257,0.06448968564790836
0.08695553243160248,0.2882736623287201,9.735553741455078,-0.013951726257801056,-0.0012778639793395996,-0.011651039123535156,0.09405754788446712,0.006783921975503187,0.04696454081556635
0.08915732800960541,0.3095402121543884,9.761720657348633,-0.0039241015911102295,0.014555543661117554,-0.0002765655517578125,-0.013326766287752692,0.017856235584315736,-0.010456992938863076
0.10629922151565552,0.3037695288658142,9.726922035217285,0.01023978739976883,0.011745423078536987,-0.023555755615234375,0.03741288144706053,0.053133155461333285,0.1270759496525649
0.09557067602872849,0.28824877738952637,9.744468688964844,-0.004116371273994446,-0.006992459297180176,-0.0041637420654296875,-0.11992131315676333,0.053133155461333285,-0.07581768111840012
0.10098463296890259,0.2794478237628937,9.747462272644043,0.0005174651741981506,-0.013525426387786865,0.010168075561523438,0.011465739842122557,0.02834063599124481,-0.02094138667568554
0.08968603610992432,0.2876073122024536,9.747329711914062,-0.006497599184513092,-0.003710448741912842,-0.00176239013671875,-0.07831486898208687,-0.007901975250856012,0.015301211226202061
0.09543218463659286,0.29637181758880615,9.766321182250977,0.0006556585431098938,0.008377283811569214,0.02142333984375,-0.046071520262013624,-0.052564682285168564,-0.02936151581843032
0.09526997059583664,0.30053281784057617,9.754151344299316,-0.001705363392829895,0.007964491844177246,0.013846397399902344,0.060428264402369695,-0.007901975250856012,0.015301211226202061
0.10362493991851807,0.3040968179702759,9.762657165527344,0.007713012397289276,0.012165486812591553,0.013731956481933594,-0.013326766287752692,0.053133155461333285,0.015301211226202061
0.09393473714590073,0.29785868525505066,9.750316619873047,-0.004147671163082123,0.004582494497299194,0.001789093017578125,0.03065132100397186,0.009155048159288897,-0.07265496335724704
0.10150828957557678,0.2851106822490692,9.749698638916016,0.005272418260574341,-0.00018131732940673828,-0.009905815124511719,-0.013326766287752692,0.01530819149277083,-0.022523736067093864
0.10619691759347916,0.2835325002670288,9.776471138000488,0.009816788136959076,-0.009027719497680664,0.02718830108642578,0.047708337744010156,0.053133155461333285,-0.04573389280556079
0.10051640123128891,0.304665744304657,9.73360538482666,0.0024368464946746826,0.014144957065582275,-0.019904136657714844,0.047708337744010156,0.009979049784680774,-0.08888797513684016
0.09407515078783035,0.28785401582717896,9.742074012756348,0.000029355287551879883,-0.007186979055404663,-0.0077075958251953125,-0.013326766287752692,-0.030342208253282505,-0.023293653133027684
0.10396858304738998,0.26682576537132263,9.74233341217041,0.006981112062931061,-0.025473445653915405,-0.0072879791259765625,-0.07271048532467984,-0.06563434931358712,0.015301211226202061
0.09639064222574234,0.29644519090652466,9.754959106445312,-0.005042649805545807,0.005467116832733154,0.006823539733886719,-0.013326766287752692,0.011055748399043285,0.05737860494827884
0.10587731748819351,0.29211926460266113,9.766729354858398,0.011287413537502289,0.010293006896972656,0.0035963058471679688,-0.038469066148539864,0.017240341285197688,0.015301211226202061
0.07944319397211075,0.2876073122024536,9.757155418395996,-0.0169842392206192,-0.003945201635360718,0.008153915405273438,-0.004735255425736125,-0.007901975250856012,-0.04143813737455251
0.08092301338911057,0.2843431234359741,9.738151550292969,-0.01123298704624176,-0.008548438549041748,-0.010272026062011719,0.025574349346430145,-0.007901975250856012,0.056885764110980105
0.09801174700260162,0.28692519664764404,9.754663467407227,-0.018371179699897766,0.003806561231613159,-0.007968902587890625,-0.0743618436390891,-0.04799898096949271,-0.04573389280556079
0.09433196485042572,0.313947468996048,9.766058921813965,-0.0016734227538108826,0.022354722023010254,0.015542030334472656,-0.013068980007437602,-0.06867926632187732,0.01504342494588697
0.09033036231994629,0.30517512559890747,9.754053115844727,-0.00855942815542221,0.009394556283950806,-0.006459236145019531,0.047708337744010156,0.032781983174312135,0.03563399069424244
0.08231019973754883,0.30283576250076294,9.72934341430664,-0.015322372317314148,0.013712525367736816,-0.01792144775390625,0.027654382072537037,-0.02795592425222252,0.015301211226202061
0.10849861800670624,0.2663094997406006,9.753767013549805,0.013141408562660217,-0.026160836219787598,0.004275321960449219,-0.07380663730497433,-0.008457181584970778,0.07578110892385015
0.098366379737854,0.30092135071754456,9.757192611694336,0.001047767698764801,0.01692020893096924,0.008691787719726562,-0.09338025191893837,0.013106399305527221,-0.06475226773487701
0.09187307208776474,0.28744733333587646,9.765708923339844,-0.005623847246170044,-0.011006176471710205,0.001354217529296875,-0.013326766287752692,0.053133155461333285,-0.04573389280556079
0.09585513174533844,0.2983403205871582,9.739006996154785,-0.0006455257534980774,-0.003669559955596924,-0.0084228515625,0.08677539229046993,-0.04696901645710256,-0.006666838259101021
0.09585513174533844,0.2983403205871582,9.739006996154785,0.00158623605966568,0.012554824352264404,-0.01284027099609375,0.08677539229046993,-0.04696901645710256,-0.006666838259101021
0.08684982359409332,0.2826240658760071,9.747343063354492,-0.014579810202121735,-0.006405264139175415,0.0014867782592773438,0.008651741924716972,0.07021122972794358,-0.04573389280556079
0.10604465007781982,0.2970364987850189,9.730351448059082,0.011298313736915588,0.005525648593902588,-0.01922321319580078,0.10614893705662681,-0.009199224275375806,-0.044436643781040994
0.08979906886816025,0.2930179834365845,9.746596336364746,-0.007864885032176971,0.003235548734664917,0.0001354217529296875,-0.051739243251801945,-0.06893705260219242,0.053713701530464536
0.09948593378067017,0.29617804288864136,9.761502265930176,0.0016584768891334534,0.0030657947063446045,0.018766403198242188,0.051094437375577034,-0.004515875619289134,-0.04573389280556079
0.09046115726232529,0.2860092222690582,9.767094612121582,-0.00560007244348526,-0.006804853677749634,0.018392562866210938,0.051094437375577034,-0.004515875619289134,-0.04573389280556079
0.1123211458325386,0.28428396582603455,9.759230613708496,0.024800188839435577,-0.006226062774658203,0.005864143371582031,-0.03696863900653202,0.02949125939718081,-0.008340674832790492
0.08094120025634766,0.2933904230594635,9.753908157348633,0.0004426911473274231,0.017350047826766968,0.001277923583984375,0.04409679517908658,-0.01151351781577959,-0.04212235024063721
0.08094120025634766,0.2933904230594635,9.753908157348633,-0.015883013606071472,0.0004855990409851074,0.0035734176635742188,0.03607911358884364,-0.007901975250856012,0.015301211226202061
0.09055713564157486,0.27996447682380676,9.756446838378906,0.0036559700965881348,-0.008463829755783081,0.005644798278808594,0.03607911358884364,-0.007901975250856012,0.015301211226202061
0.09383451193571091,0.3080431818962097,9.751505851745605,-0.0032437890768051147,0.015083014965057373,0.003154754638671875,-0.013326766287752692,0.081756637323432,-0.0009045998586300091
0.08355417847633362,0.2804448902606964,9.726688385009766,-0.0126003697514534,-0.013776719570159912,-0.024707794189453125,-0.013326766287752692,-0.007901975250856012,0.010897913666299134
0.09813131392002106,0.28030428290367126,9.747063636779785,0.004075460135936737,-0.005861729383468628,0.009118080139160156,-0.013326766287752692,0.017106345513482467,0.015301211226202061
0.09494849294424057,0.31449535489082336,9.76781940460205,-0.0030384361743927,0.029156267642974854,0.01818370819091797,0.047708337744010156,0.00749822369251165,-0.00009898438211229417
0.0907696932554245,0.2926046848297119,9.750704765319824,-0.005450285971164703,0.00016668438911437988,-0.0013751983642578125,0.047708337744010156,-0.0026413221974512006,0.010040564842903861
0.09146882593631744,0.2882532775402069,9.73912239074707,-0.01245289295911789,-0.006585568189620972,-0.0006608963012695312,-0.0743618436390891,0.027301736871048768,0.015301211226202061
0.08875726908445358,0.27897346019744873,9.748885154724121,-0.009791888296604156,-0.018227487802505493,0.00402069091796875,-0.013326766287752692,-0.06893705260219242,0.07040308200440558
0.10367090255022049,0.30151447653770447,9.745467185974121,0.008693285286426544,0.010116487741470337,-0.0026035308837890625,-0.013326766287752692,-0.06893705260219242,0.07040308200440558
0.09088488668203354,0.284795343875885,9.737177848815918,-0.002962663769721985,-0.0016932487487792969,-0.00426483154296875,0.08220680948873799,0.026596516504191644,-0.011235421060832968
0.099654421210289,0.2992722690105438,9.747177124023438,0.003988161683082581,0.010021835565567017,-0.004146575927734375,-0.027126029587639527,-0.06893705260219242,0.04873778865819124
0.099858358502388,0.2998332381248474,9.759259223937988,0.010467730462551117,-0.015680551528930664,-0.011232376098632812,-0.047010337767559814,0.025781622909377553,-0.04573389280556079
0.099858358502388,0.2998332381248474,9.759259223937988,0.010362282395362854,0.010357856750488281,0.02418231964111328,-0.047010337767559814,0.025781622909377553,-0.04573389280556079
0.07774282246828079,0.2900545597076416,9.745054244995117,0.016908742487430573,-0.017858535051345825,-0.0002307891845703125,-0.005862423401773347,0.038204459684214674,0.022765554112181407
0.09469811618328094,0.29573434591293335,9.76823616027832,-0.006240382790565491,-0.00803685188293457,0.02087116241455078,-0.013326766287752692,-0.036022837899363766,0.07633631525796492
0.09469811618328094,0.29573434591293335,9.76823616027832,0.003231845796108246,0.015499144792556763,0.01563262939453125,-0.013326766287752692,-0.036022837899363766,0.07633631525796492
0.09048229455947876,0.289510041475296,9.756423950195312,-0.003858618438243866,0.0011173486709594727,0.010539054870605469,0.011202950981848961,-0.020166827215550225,0.02756606986100289
0.08887661248445511,0.2925037741661072,9.755897521972656,-0.005910858511924744,0.003621429204940796,0.0082855224609375,0.003343737784478254,-0.016237220616864872,0.023636456592210923
0.091284841299057,0.2949173152446747,9.761507987976074,0.0064947158098220825,0.005957275629043579,-0.006730079650878906,-0.04226969289568172,0.053133155461333285,-0.04573389280556079
0.09085080772638321,0.29707497358322144,9.746505737304688,-0.009701617062091827,-0.008118599653244019,-0.006092071533203125,0.11787852630597416,0.053133155461333285,0.06720123072776375
0.09085080772638321,0.29707497358322144,9.746505737304688,-0.0023609623312950134,0.008230328559875488,-0.0035886764526367188,0.11787852630597416,0.053133155461333285,0.06720123072776375
0.07972676306962967,0.2829274833202362,9.753939628601074,-0.023351609706878662,-0.0030427873134613037,-0.0013914108276367188,-0.0729464336759494,-0.06893705260219242,-0.014508615797789684
0.08682522922754288,0.28167200088500977,9.732287406921387,-0.008644968271255493,-0.009921789169311523,-0.022315025329589844,-0.0027004860430937913,0.04250686854656777,0.06571003501330601
0.09671732783317566,0.29161855578422546,9.754050254821777,0.0032207444310188293,0.002019047737121582,0.003814697265625,-0.0033939103264087576,0.04320029282988274,0.06640345929662098
0.10149149596691132,0.2840162217617035,9.769611358642578,0.017319925129413605,-0.006967425346374512,0.02429962158203125,-0.0742548017681903,0.0532402106724453,-0.015055737962691506
0.08944913744926453,0.2799535393714905,9.755675315856934,-0.006363175809383392,-0.011409372091293335,0.004990577697753906,-0.0035014991460496814,0.053133155461333285,0.015301211226202061
0.10939905047416687,0.2860574424266815,9.767436981201172,0.017065010964870453,-0.0043798089027404785,0.01882648468017578,0.09797103283547286,0.053133155461333285,-0.08522417228661673
0.086932472884655,0.2849412262439728,9.763565063476562,0.0005456730723381042,0.005182385444641113,0.013402938842773438,0.08081134981447281,-0.03928133172134909,-0.016078158584504235
0.10008823126554489,0.3047773241996765,9.755025863647461,0.0005456730723381042,0.005182385444641113,0.013402938842773438,-0.061935661805786385,0.004524213252553309,-0.009551152440403358
0.0935322493314743,0.28968164324760437,9.750544548034668,-0.0020431578159332275,0.00007289648056030273,-0.0034847259521484375,-0.013326766287752692,0.053133155461333285,-0.053917106431577363
0.09963622689247131,0.29906129837036133,9.767160415649414,-0.004738122224807739,0.018744707107543945,0.014883041381835938,-0.013326766287752692,-0.007901975250856012,-0.013549307724733459
0.07948127388954163,0.2893602252006531,9.742074012756348,-0.016262046992778778,-0.0003860592842102051,-0.011149406433105469,-0.021513094853556763,0.0002843599850546715,-0.04573389280556079
0.09003236144781113,0.2965759038925171,9.740180015563965,-0.001745663583278656,-0.004909723997116089,-0.010844230651855469,-0.0743618436390891,0.10139126340256997,0.002524208465569283
0.10281135141849518,0.290213406085968,9.736150741577148,0.01022588461637497,0.0021013617515563965,-0.0032052993774414062,-0.013326766287752692,-0.007901975250856012,0.020668259150164365
0.0964251160621643,0.2777332365512848,9.748090744018555,0.0028204768896102905,-0.011916190385818481,-0.0022525787353515625,0.040263011331979744,0.053133155461333285,0.015301211226202061
0.10559530556201935,0.2887822389602661,9.745314598083496,0.0005005747079849243,-0.013891816139221191,-0.011507034301757812,0.03454648984222286,-0.04261335679861782,0.015301211226202061
0.10329584032297134,0.285722553730011,9.755121231079102,0.02324865758419037,0.00023442506790161133,0.0029087066650390625,0.07497266532212922,0.01936236233242297,0.015301211226202061
0.10329584032297134,0.285722553730011,9.755121231079102,-0.009914889931678772,-0.009268045425415039,0.005162239074707031,0.10874344177577301,-0.007901975250856012,-0.03914915688873876
0.09522899985313416,0.30437564849853516,9.766416549682617,-0.003118760883808136,0.013422995805740356,0.019422531127929688,0.01472264617873438,-0.007901975250856012,-0.031709186572317256
0.10318245738744736,0.27554386854171753,9.764586448669434,0.011031761765480042,-0.007888942956924438,0.018880844116210938,-0.0397979248082908,0.02666197026036873,0.007208450915941875
0.10318245738744736,0.27554386854171753,9.764586448669434,0.003721684217453003,-0.023847758769989014,0.0043792724609375,-0.0397979248082908,0.02666197026036873,0.007208450915941875
0.1044989600777626,0.29236888885498047,9.751669883728027,0.009947344660758972,0.01693364977836609,-0.007048606872558594,0.032543103311186886,-0.023067203013572672,0.07633631525796492
0.09791500121355057,0.2917994260787964,9.737682342529297,-0.004530750215053558,0.004823416471481323,-0.011576652526855469,-0.013326766287752692,-0.007901975250856012,-0.08133800142218442
0.09791500121355057,0.2917994260787964,9.737682342529297,0.00955791026353836,-0.0022761523723602295,-0.015913009643554688,-0.013326766287752692,-0.007901975250856012,-0.08133800142218442
0.09554271399974823,0.29239821434020996,9.749214172363281,0.0020875707268714905,0.003074556589126587,-0.007869720458984375,0.016601708592641578,0.007651349329988195,0.015301211226202061
0.0920160710811615,0.301980197429657,9.737900733947754,-0.009369991719722748,0.011966168880462646,0.006282806396484375,0.08387242849108228,0.0892972395382988,0.05146530197327418
0.09326381981372833,0.3062695562839508,9.722687721252441,-0.004549376666545868,0.015710681676864624,-0.027757644653320312,0.08387242849108228,0.0892972395382988,0.05146530197327418
0.10232130438089371,0.2873082160949707,9.751655578613281,0.014188595116138458,0.008210629224777222,0.003292083740234375,0.047708337744010156,-0.007901975250856012,0.0033158967594825186
0.0957721695303917,0.2789705693721771,9.74730396270752,-0.00026025623083114624,-0.012904226779937744,-0.0038700103759765625,-0.0004556483228338975,-0.007901975250856012,-0.04573389280556079
0.0957721695303917,0.2789705693721771,9.74730396270752,-0.002592816948890686,-0.010094374418258667,0.0032215118408203125,-0.0004556483228338975,-0.007901975250856012,-0.04573389280556079
0.09806450456380844,0.3016509413719177,9.7550687789917,-0.006504461169242859,0.015601664781570435,0.0034933090209960938,0.030159300589786324,0.11416826616320275,0.04123824094951724
0.09575377404689789,0.2830795347690582,9.750486373901367,0.007769830524921417,-0.003743797540664673,-0.0014858245849609375,0.009746119656652842,0.030060259511767832,-0.007771674718203473
0.09575377404689789,0.2830795347690582,9.750486373901367,-0.01341722160577774,-0.0153636634349823,0.007874488830566406,0.009746119656652842,0.030060259511767832,-0.007771674718203473
0.10460444539785385,0.29777610301971436,9.744762420654297,0.010031364858150482,-0.0025689005851745605,-0.008738517761230469,0.012002510001563578,-0.007901975250856012,0.015301211226202061
0.09005261957645416,0.31156212091445923,9.773214340209961,-0.011438228189945221,0.020316481590270996,0.024155616760253906,0.02514787606991425,0.014658496428399812,-0.04573389280556079
0.10429489612579346,0.2832857072353363,9.740382194519043,0.007606931030750275,-0.008700698614120483,-0.009775161743164062,-0.009340497133404,0.04914688297193129,0.013308076649027716
0.12420531362295151,0.3005189001560211,9.751248359680176,0.018928274512290955,0.005333513021469116,0.011463165283203125,0.02390607564165453,-0.06893705260219242,-0.003315203068394939
0.08985300362110138,0.296176016330719,9.772201538085938,-0.01293247938156128,0.007283985614776611,0.02519989013671875,0.03009883607335452,-0.025511450241085205,-0.02402109496006049
0.08985300362110138,0.296176016330719,9.772201538085938,0.0014877691864967346,-0.0024141669273376465,0.015188217163085938,0.03009883607335452,-0.025511450241085205,-0.02402109496006049
0.10883831977844238,0.28198593854904175,9.763728141784668,-0.0029217973351478577,-0.007674664258956909,0.0025854110717773438,-0.05442330749241861,-0.007901975250856012,-0.04573389280556079
0.10471321642398834,0.29796576499938965,9.750845909118652,0.0060517191886901855,0.006989330053329468,-0.000278472900390625,-0.013326766287752692,0.053133155461333285,-0.02510945625583293
0.10471321642398834,0.29796576499938965,9.750845909118652,0.008299343287944794,0.0021595358848571777,-0.00260162353515625,-0.013326766287752692,0.053133155461333285,-0.02510945625583293
0.10310867428779602,0.301980197429657,9.751663208007812,-0.0008456483483314514,0.009552150964736938,-0.014362335205078125,0.08842018054986701,-0.007901975250856012,-0.005022043329597325
0.09034834802150726,0.2907065749168396,9.745229721069336,-0.00563899427652359,-0.009857714176177979,-0.009492874145507812,0.0276046030668966,0.01292567943699956,-0.04573389280556079
0.09034834802150726,0.2907065749168396,9.745229721069336,-0.010252334177494049,0.01372683048248291,0.00008678436279296875,0.0276046030668966,0.01292567943699956,-0.04573389280556079
0.0963064655661583,0.28549158573150635,9.763588905334473,-0.018709346652030945,-0.023663192987442017,0.0005979537963867188,-0.056764208088095035,0.035535509905179306,-0.002296424324792002
0.0992344543337822,0.27814701199531555,9.741193771362305,0.004856593906879425,-0.011225283145904541,-0.01153564453125,0.0059851266829955676,-0.04962516630155077,-0.0040106817445461984
0.10135552287101746,0.2802680730819702,9.767914772033691,-0.0022759735584259033,-0.01798015832901001,-0.0065555572509765625,-0.07176687868258672,-0.007901975250856012,-0.04573389280556079
0.09671732783317566,0.30044496059417725,9.74760627746582,0.000060439109802246094,0.011000901460647583,0.014108657836914062,0.003869915814620467,-0.025098624002696114,-0.06293056823782733
0.08996336162090302,0.3086564540863037,9.753030776977539,-0.0024929866194725037,0.019519895315170288,0.007134437561035156,0.10874344177577301,-0.05042852728203385,0.015301211226202061
0.10076773911714554,0.2904142439365387,9.739678382873535,0.005092442035675049,-0.0025051534175872803,-0.011363029479980469,0.04980485230355367,0.05103664090178977,0.015301211226202061
0.11053487658500671,0.2879429757595062,9.740510940551758,0.00493408739566803,-0.01162680983543396,0.0029211044311523438,0.0023017604100810745,-0.04623376393522787,-0.0003273021314184821
0.08844832330942154,0.28822457790374756,9.759614944458008,-0.0049574002623558044,0.00017380714416503906,0.0033483505249023438,-0.005462897355967269,0.09644451223640145,-0.04573389280556079
0.09138113260269165,0.2734525203704834,9.757209777832031,-0.016374006867408752,-0.013580739498138428,0.021880149841308594,0.09762910983036231,0.11138967317169016,-0.04573389280556079
0.10650160163640976,0.2944360673427582,9.75848388671875,0.0031074881553649902,-0.001419663429260254,0.0025110244750976562,0.10874344177577301,0.015481000614857441,-0.008081754634351474
0.10511621087789536,0.2769574820995331,9.740342140197754,0.014129631221294403,-0.015662312507629395,-0.01178741455078125,-0.013326766287752692,-0.05202449036103592,-0.0016113643551676567
0.08277971297502518,0.2916727662086487,9.762327194213867,-0.007234171032905579,-0.01054808497428894,-0.009131431579589844,0.04401151786606059,-0.007901975250856012,0.011604384678145882
0.10583528131246567,0.29811710119247437,9.747404098510742,0.004973560571670532,0.015270322561264038,-0.02085590362548828,0.09692186508614865,-0.007901975250856012,0.015301211226202061
0.10263733565807343,0.27929186820983887,9.759970664978027,0.0067103952169418335,-0.013377487659454346,0.009795188903808594,0.0028072877901545766,-0.03666894444637788,-0.02959983872765352
0.11020858585834503,0.29835039377212524,9.756446838378906,0.0019535645842552185,-0.00842699408531189,0.0048675537109375,0.047708337744010156,0.053133155461333285,0.015301211226202061
0.09924285858869553,0.2980433404445648,9.760809898376465,0.008583985269069672,0.0007409155368804932,0.011591911315917969,0.011750046466324339,0.028056326031989726,0.06214096768728345
0.10385314375162125,0.2864011228084564,9.749846458435059,0.013160251080989838,-0.004170209169387817,-0.000560760498046875,-0.028693024393628547,-0.007901975250856012,-0.00006506021988701599
0.08890587091445923,0.29156485199928284,9.75540542602539,-0.015163451433181763,-0.008589625358581543,-0.0075359344482421875,-0.0743618436390891,0.04782483115597722,-0.04573389280556079
0.09743847697973251,0.29174137115478516,9.759434700012207,-0.005035653710365295,-0.0036794841289520264,0.020498275756835938,0.047708337744010156,0.053133155461333285,0.015301211226202061
0.08724488317966461,0.2784874439239502,9.75426959991455,-0.007276415824890137,-0.015472173690795898,0.006053924560546875,0.047708337744010156,-0.0224634116229009,0.015301211226202061
0.0821070745587349,0.30487215518951416,9.748310089111328,-0.016505181789398193,-0.0034766197204589844,-0.0127410888671875,-0.0622659254645403,-0.013949934338130408,-0.1496602236072633
0.08787307143211365,0.28883427381515503,9.74999713897705,-0.0040334537625312805,-0.013184159994125366,0.0016727447509765625,0.07431820780163771,-0.04232718921467148,-0.07234376953329495
0.09748753160238266,0.2872939705848694,9.753965377807617,0.0033468008041381836,-0.0014913380146026611,0.006438255310058594,0.047708337744010156,0.03932927311261809,0.015301211226202061
0.09830661863088608,0.29929280281066895,9.735157012939453,-0.0037468671798706055,-0.013173550367355347,-0.014698028564453125,-0.06066728767278708,0.04628587414312897,0.015301211226202061
0.08568915724754333,0.29551687836647034,9.758728981018066,0.0057493820786476135,-0.0037407875061035156,-0.004515647888183594,0.081296700122047,-0.014043575964847017,0.009159577161677998
0.09360852092504501,0.29616981744766235,9.765008926391602,-0.005652017891407013,0.0052360594272613525,0.013787269592285156,-0.026313663963231135,-0.05595015492671397,-0.10676899683732365
0.10660106688737869,0.29239821434020996,9.734020233154297,0.013128705322742462,0.0005543231964111328,0.008742332458496094,-0.02101746591169449,0.045442449167284876,-0.0534245990996092
0.09244630485773087,0.28000301122665405,9.750544548034668,-0.010639801621437073,-0.022924751043319702,-0.0025377273559570312,0.07601807113132462,0.053133155461333285,0.015301211226202061
0.10103274881839752,0.3015401065349579,9.742091178894043,0.006026819348335266,0.014958560466766357,-0.007122039794921875,-0.013326766287752692,0.041016623322302145,0.06421978645398707
0.09705064445734024,0.27629655599594116,9.740740776062012,0.0035166293382644653,-0.011052906513214111,-0.0185699462890625,0.03921570454240011,-0.007901975250856012,0.015301211226202061
0.10493257641792297,0.28886139392852783,9.749147415161133,0.012575849890708923,-0.0035879015922546387,0.0008296966552734375,0.10874344177577301,-0.06893705260219242,0.015301211226202061
0.09024866670370102,0.3071146309375763,9.751110076904297,-0.008900970220565796,0.019578367471694946,0.005579948425292969,0.03637646694157721,0.053133155461333285,-0.04573389280556079
0.11405088752508163,0.2855779230594635,9.747995376586914,0.007739335298538208,-0.004233509302139282,-0.02252483367919922,-0.06503498020359867,-0.10199155298727078,-0.04573389280556079
0.0931001678109169,0.2923503816127777,9.753715515136719,-0.0025451108813285828,0.003292679786682129,0.01997852325439453,-0.043234003548696456,0.023225898190069687,-0.015826642204403805
0.10662513971328735,0.2908306419849396,9.761061668395996,0.011810876429080963,-0.00137406587600708,0.015128135681152344,-0.023873111974781286,0.053133155461333285,-0.04573389280556079
0.1009429320693016,0.29901933670043945,9.752071380615234,-0.00007149577140808105,0.0034445226192474365,-0.013243675231933594,-0.0743618436390891,0.053133155461333285,-0.0995665690276518
0.09192639589309692,0.2873648703098297,9.733675003051758,-0.004880890250205994,-0.0013980865478515625,-0.003658294677734375,-0.013326766287752692,-0.035330534193959505,-0.04573389280556079
0.0958520844578743,0.2932634949684143,9.732873916625977,-0.002416364848613739,0.003296792507171631,-0.016778945922851562,0.08924881456430046,-0.05918974566656275,0.025048531502044946
0.09996543824672699,0.28718101978302,9.756547927856445,0.006949633359909058,-0.006087154150009155,-0.013983726501464844,-0.06350000190934409,0.04227130706148167,-0.02401019600585756
0.10551165044307709,0.2873835861682892,9.73997688293457,0.020752020180225372,-0.010336846113204956,0.00003814697265625,0.016240815804328387,0.021665620181438288,-0.047633832653161484
0.08176781982183456,0.3016290068626404,9.739678382873535,-0.019292332231998444,0.010847687721252441,-0.008762359619140625,-0.0743618436390891,-0.06893705260219242,-0.036785744683249064
0.08113819360733032,0.3131329417228699,9.751290321350098,0.009075574576854706,0.00834113359451294,-0.00852203369140625,-0.0743618436390891,-0.019622779969796233,0.015301211226202061
0.08742068707942963,0.30183979868888855,9.73798942565918,-0.023111887276172638,0.007573872804641724,-0.01776409149169922,0.015402396743496099,0.024403982424924576,-0.013427951805046728
0.09560085088014603,0.2710014581680298,9.743509292602539,-0.0017506852746009827,-0.023403048515319824,-0.003265380859375,0.03956131611646672,-0.007901975250856012,-0.0009928320288848222
0.09818358719348907,0.29142072796821594,9.746816635131836,0.007605910301208496,-0.004101067781448364,-0.010162353515625,-0.06190879461635591,-0.007901975250856012,-0.0581869551685072
0.09282476454973221,0.29569211602211,9.754050254821777,-0.006513521075248718,0.0009959638118743896,0.0063610076904296875,-0.023496117549108318,0.02515792792057754,0.015301211226202061
0.09642183035612106,0.2825208604335785,9.751981735229492,0.0006087496876716614,-0.008822113275527954,0.0060214996337890625,0.025121242334215168,-0.007901975250856012,0.007772181646305935
0.09808608889579773,0.2954776883125305,9.742928504943848,0.0028404295444488525,0.008168160915374756,-0.003173828125,0.008467206755207624,-0.055856680052662644,0.050175556818692145
0.09564860910177231,0.2913295328617096,9.756152153015137,0.0005200803279876709,0.0007740259170532227,0.015550613403320312,0.027053212033763523,0.08036323204200312,-0.011928872024574379
0.09564860910177231,0.2913295328617096,9.756152153015137,-0.001631714403629303,-0.0014537572860717773,-0.0011892318725585938,0.027053212033763523,0.08036323204200312,-0.011928872024574379
0.09725990891456604,0.3121046721935272,9.756670951843262,0.003741152584552765,0.02153816819190979,0.000942230224609375,-0.013326766287752692,-0.007901975250856012,0.0014768950058830306
0.09577396512031555,0.29239821434020996,9.753421783447266,-0.00564102828502655,-0.0005946755409240723,0.00063323974609375,0.047708337744010156,0.053133155461333285,0.04181272389173878
0.09785258769989014,0.28304341435432434,9.754504203796387,0.0015436038374900818,-0.009832173585891724,0.004992485046386719,-0.06279158322636683,0.108383129286735,-0.09519873642460137
0.10869473218917847,0.288830041885376,9.749795913696289,0.013232797384262085,-0.0073089599609375,0.00951385498046875,0.0016140724184518609,0.053133155461333285,-0.030793054099356235
0.09551586955785751,0.29959216713905334,9.753653526306152,0.005598336458206177,-0.004768103361129761,0.002330780029296875,0.047708337744010156,0.01754518183260248,-0.04573389280556079
0.10292799025774002,0.3131769597530365,9.746668815612793,0.00808582454919815,0.02037981152534485,-0.00258636474609375,-0.06441699482605798,-0.007901975250856012,-0.04076146839904523
0.09014459699392319,0.3025938868522644,9.742687225341797,-0.0037973225116729736,0.010419100522994995,-0.004840850830078125,0.047708337744010156,-0.007901975250856012,0.015301211226202061
0.0871354341506958,0.2929205596446991,9.763704299926758,-0.008105553686618805,-0.0041159093379974365,0.009463310241699219,0.011453880392567594,0.053133155461333285,-0.04573389280556079
0.08920279890298843,0.28570398688316345,9.742402076721191,-0.005255512893199921,-0.008798658847808838,-0.007679939270019531,-0.009147064041675123,-0.007901975250856012,-0.04155419055948322
0.08473995327949524,0.28011178970336914,9.741599082946777,-0.009781233966350555,-0.0016462504863739014,-0.0028066635131835938,0.047708337744010156,-0.007901975250856012,-0.07414177681166113
0.09809926897287369,0.2875381112098694,9.764876365661621,0.00005501508712768555,-0.010578393936157227,0.00220489501953125,0.07176983353981553,-0.007901975250856012,-0.05864600524571288
0.09809926897287369,0.2875381112098694,9.764876365661621,0.00935535877943039,0.0011796057224273682,0.03475475311279297,0.07176983353981553,-0.007901975250856012,-0.05864600524571288
0.10046421736478806,0.28373822569847107,9.737650871276855,0.009101979434490204,0.010175853967666626,-0.017538070678710938,0.06492448321747521,-0.007901975250856012,-0.011301601858630689
0.09031052887439728,0.2828163504600525,9.73704719543457,-0.01690998673439026,-0.010823488235473633,-0.016763687133789062,0.039092054106039074,0.01531516842428629,0.015301211226202061
0.09031052887439728,0.2828163504600525,9.73704719543457,0.016252242028713226,-0.010399281978607178,-0.004657745361328125,0.039092054106039074,0.01531516842428629,0.015301211226202061
0.09372293949127197,0.29408594965934753,9.744796752929688,-0.019047878682613373,-0.0004070103168487549,0.017850875854492188,-0.013326766287752692,-0.025935182103783837,-0.0027319956267257643
0.09344331920146942,0.3081299364566803,9.735766410827637,-0.00011184066534042358,0.008809208869934082,-0.01482391357421875,0.02532385349264125,-0.007901975250856012,-0.029467757276535753
0.08925154060125351,0.2992354929447174,9.753840446472168,-0.004616059362888336,0.005484789609909058,0.00455474853515625,0.047708337744010156,0.05135376445051935,-0.04573389280556079
0.08991961181163788,0.2942543923854828,9.751849174499512,-0.013814374804496765,-0.0063919126987457275,-0.0025548934936523438,0.047708337744010156,-0.05024273813248157,-0.003393109913615397
0.08868004381656647,0.2908536493778229,9.74191665649414,-0.004151500761508942,-0.004026889801025391,-0.00493621826171875,0.008352280818294226,0.053133155461333285,-0.024054845699513872
0.0871354341506958,0.2875690460205078,9.756599426269531,-0.006012752652168274,-0.006053030490875244,0.007167816162109375,-0.13442225833194998,0.053133155461333285,-0.04573389280556079
0.09689366072416306,0.30310195684432983,9.762775421142578,0.008465446531772614,0.017673075199127197,0.011170387268066406,0.008515831832404296,0.053133155461333285,-0.00429504172960087
0.09292212873697281,0.28672993183135986,9.762173652648926,-0.008086137473583221,-0.003755927085876465,0.006201744079589844,-0.013326766287752692,-0.007901975250856012,-0.0055463937505280305
0.08476682007312775,0.29477760195732117,9.742109298706055,0.015417046844959259,-0.01294603943824768,0.022330284118652344,-0.013326766287752692,0.05306469348707448,0.015232749251943262
0.11023948341608047,0.2843611538410187,9.73237419128418,0.01062995195388794,-0.014807432889938354,-0.031622886657714844,-0.0340044036078126,-0.007901975250856012,0.03597886188647519
0.10649175196886063,0.31324461102485657,9.752496719360352,0.018985144793987274,0.022947877645492554,0.00446319580078125,0.008108288318451387,-0.029336989836420423,-0.1480040761563071
0.08482249826192856,0.26888370513916016,9.77767562866211,-0.002409413456916809,0.013116002082824707,-0.0003223419189453125,-0.0743618436390891,-0.007200913695471061,0.013899074775218935
0.08797179907560349,0.2957437336444855,9.751882553100586,-0.0044396668672561646,0.009018421173095703,0.010556221008300781,-0.03463698317861892,0.03182292523025383,0.015301211226202061
0.10417123138904572,0.28645217418670654,9.755206108093262,0.014573901891708374,-0.012134283781051636,0.010363578796386719,0.005882487082460259,0.011307291459570162,-0.04573389280556079
0.1036839485168457,0.3066062331199646,9.74675464630127,0.0002858489751815796,0.006754457950592041,-0.008553504943847656,-0.07156141271853098,-0.006501759790576952,0.013900995765923001
0.10322578251361847,0.2908615469932556,9.745327949523926,0.011631816625595093,-0.0007560253143310547,-0.0035572052001953125,0.008553557955398038,0.03125281787796933,-0.04573389280556079
0.09613078087568283,0.3057515621185303,9.747513771057129,0.01130230724811554,0.01792261004447937,0.003688812255859375,0.047708337744010156,0.034627078070301076,-0.027227815414528584
0.09354691952466965,0.27623265981674194,9.741729736328125,-0.00008020550012588501,-0.017632484436035156,-0.007569313049316406,0.047708337744010156,-0.007901975250856012,-0.043540048050344594
0.09371950477361679,0.2998858690261841,9.737582206726074,0.013780578970909119,-0.0009191036224365234,-0.007355690002441406,0.00955249980193885,-0.06893705260219242,0.015301211226202061
0.09398697316646576,0.27939915657043457,9.72292709350586,-0.002752959728240967,-0.01502138376235962,-0.03005218505859375,-0.004359221495415189,-0.007901975250856012,-0.04573389280556079
0.10591352730989456,0.27601563930511475,9.748488426208496,0.00429951399564743,-0.010228574275970459,-0.012905120849609375,-0.0034993913923604975,-0.007901975250856012,0.06978473644110786
0.09088664501905441,0.3104102313518524,9.751859664916992,0.0015075504779815674,-0.0022387802600860596,-0.010265350341796875,-0.09825646003758534,-0.045042456214016,0.039195814284485084
0.08647077530622482,0.28280389308929443,9.751441955566406,-0.014845810830593109,-0.016751736402511597,0.005946159362792969,-0.041127757303606995,-0.052320009434451364,0.015301211226202061
0.12188629060983658,0.2974845767021179,9.76020336151123,0.02722030133008957,0.004257649183273315,0.012871742248535156,0.047708337744010156,-0.007901975250856012,-0.09924416275448604
0.09193012863397598,0.29958468675613403,9.754050254821777,-0.017695263028144836,0.006489664316177368,0.005524635314941406,0.023303865066249648,0.053133155461333285,-0.009103268121665061
0.08639122545719147,0.2870956361293793,9.72553825378418,-0.00565696507692337,-0.007995039224624634,-0.027378082275390625,0.047708337744010156,-0.023901273164894366,-0.0006980933579429048
0.10180465877056122,0.28798896074295044,9.748497009277344,0.00882718712091446,-0.005579113960266113,0.0015573501586914062,0.047708337744010156,-0.012764136124979503,0.01043905035207857
0.0871354341506958,0.29840153455734253,9.751655578613281,-0.007734432816505432,0.013229697942733765,0.0038423538208007812,0.0222150301929078,0.027639837905071008,-0.020240585254458432
0.09605315327644348,0.30743536353111267,9.74089527130127,-0.002474568784236908,0.017494797706604004,-0.00568389892578125,-0.013326766287752692,0.03811216208398025,-0.06075487951280721
0.10650788992643356,0.27511245012283325,9.741656303405762,0.013889022171497345,0.0007264912128448486,-0.01018524169921875,0.042391615774430416,-0.007901975250856012,-0.05105061477514053
0.09463396668434143,0.2964807152748108,9.746467590332031,0.006184682250022888,0.008199483156204224,0.011204719543457031,0.02170378653146838,0.027128590908578283,-0.04573389280556079
0.08924859017133713,0.30057045817375183,9.7488374710083,-0.0009457096457481384,0.012510210275650024,0.004193305969238281,0.06207089821733132,-0.10124703568731296,0.0009386440827742914
0.08991672098636627,0.2932864725589752,9.72252368927002,-0.0027665123343467712,0.000636667013168335,-0.025979995727539062,0.054108972048252574,-0.06253641829795,0.008900576921959643
0.10311689972877502,0.30064547061920166,9.740738868713379,0.00428328663110733,0.007425785064697266,-0.004291534423828125,0.10874344177577301,0.026105183110987074,-0.01870592712532119
0.09940490126609802,0.31051042675971985,9.741255760192871,0.00636175274848938,0.0162447988986969,-0.006318092346191406,-0.026724982757526064,0.03973492898639999,-0.032335669665680807
0.0855887308716774,0.28564560413360596,9.736302375793457,-0.00314456969499588,0.01125916838645935,0.0008401870727539062,-0.020535510688385467,0.09975076402172398,-0.09235150136595148
0.09911283850669861,0.3052407503128052,9.75252914428711,0.0045894235372543335,-0.0003142356872558594,0.010428428649902344,0.053218926362248516,0.08089541316809554,-0.07900673913056139
0.09921150654554367,0.29349464178085327,9.746864318847656,0.0020889416337013245,-0.005830049514770508,0.0007448196411132812,0.083323512067502,-0.020611936769938208,-0.04573389280556079
0.10451408475637436,0.2879582643508911,9.748954772949219,0.01356363296508789,0.010655790567398071,0.0007238388061523438,-0.013326766287752692,0.0375827824026646,0.007526028031921023
0.09722375869750977,0.3059954345226288,9.751148223876953,-0.005509540438652039,0.003913909196853638,0.012254714965820312,-0.10272884656176853,0.053133155461333285,-0.017366916563307792
0.0986703485250473,0.2948242723941803,9.753044128417969,0.006125941872596741,0.0012888014316558838,0.0026483535766601562,-0.0743618436390891,-0.007901975250856012,-0.04573389280556079
0.10155254602432251,0.2872714400291443,9.729291915893555,0.008381858468055725,-0.007531404495239258,-0.02363872528076172,-0.0743618436390891,-0.060378825572166436,0.0067429841961760845
0.09172894060611725,0.2892493009567261,9.744073867797852,-0.008210442960262299,0.004628956317901611,-0.011533737182617188,0.047708337744010156,-0.0053865779961203095,0.012785847321999416
0.10737843811511993,0.29435494542121887,9.748417854309082,0.013068459928035736,-0.00023734569549560547,-0.0018968582153320312,0.02534948004224202,0.03077429442451184,-0.04573389280556079
0.08528592437505722,0.2863149046897888,9.75183391571045,-0.013090111315250397,-0.009233802556991577,0.0022754669189453125,-0.0743618436390891,0.034396439123894146,-0.04573389280556079
0.10377585142850876,0.29235562682151794,9.735979080200195,0.015206925570964813,0.00036075711250305176,-0.004775047302246094,-0.013326766287752692,-0.038962734079058405,-0.04682033978073578
0.09356771409511566,0.30595046281814575,9.743715286254883,-0.004081331193447113,0.012154191732406616,-0.004189491271972656,-0.002871841081939131,-0.0480272021905653,-0.13643932525164582
0.11151006817817688,0.2939787209033966,9.737653732299805,0.016914963722229004,-0.002511262893676758,-0.011199951171875,0.047708337744010156,0.002165413425785356,0.015301211226202061
0.0991462990641594,0.3079409897327423,9.755265235900879,-0.004805289208889008,0.018270879983901978,0.005070686340332031,0.017048579055174953,-0.007901975250856012,0.015585624572109623
0.10793708264827728,0.2905040979385376,9.749136924743652,0.01151854544878006,-0.003378540277481079,0.000278472900390625,0.08943915939666829,-0.05928491474769336,-0.05538603066005984
0.09014590084552765,0.2941787540912628,9.749444961547852,-0.009967982769012451,0.0018311142921447754,-0.00012683868408203125,-0.013326766287752692,-0.007901975250856012,0.043462881586958
0.10035130381584167,0.29859063029289246,9.73984146118164,0.004170536994934082,0.008687198162078857,-0.00244903564453125,0.10666753784565854,-0.03945746255652814,-0.04573389280556079
0.09397374093532562,0.3009771406650543,9.727742195129395,-0.003001369535923004,0.0034213662147521973,-0.020673751831054688,0.09100425322227308,-0.007901975250856012,-0.04573389280556079
0.0783834233880043,0.29175424575805664,9.734334945678711,-0.021421991288661957,-0.008729606866836548,-0.013005256652832031,0.035968243076749944,-0.007901975250856012,-0.09502890217006342
0.08137119561433792,0.286334753036499,9.756970405578613,-0.018199682235717773,-0.00814145803451538,0.02225208282470703,-0.009513919905298854,-0.007901975250856012,-0.04954673251790801
0.08225395530462265,0.2840593457221985,9.726237297058105,-0.010718129575252533,-0.012551844120025635,-0.020287513732910156,-0.02124444963967841,-0.007901975250856012,-0.04573389280556079
0.09035038203001022,0.3038325011730194,9.743926048278809,-0.02906276285648346,-0.0027649402618408203,-0.0127410888671875,0.02275059973315878,-0.05645819026687334,0.002822335550669761
0.09102489799261093,0.30567213892936707,9.761323928833008,-0.007369399070739746,0.008306294679641724,-0.001605987548828125,-0.013326766287752692,0.02009942578824263,-0.04573389280556079
0.10486984997987747,0.29450783133506775,9.749259948730469,0.011452876031398773,-0.0012178122997283936,0.0030956268310546875,-0.006042876466036555,-0.01518586507257215,0.022585101047918197
0.09806682169437408,0.29052579402923584,9.743642807006836,0.004238881170749664,-0.005697369575500488,-0.004061698913574219,-0.047710258734714225,0.07419087546642722,-0.019082294560972695
0.07438260316848755,0.2977292239665985,9.746882438659668,-0.0075343698263168335,0.0061269402503967285,0.010024070739746094,-0.013326766287752692,-0.007901975250856012,-0.04573389280556079
0.09973116964101791,0.30651721358299255,9.725845336914062,0.0076039135456085205,0.010548591613769531,-0.024872779846191406,0.10227489911612053,-0.007901975250856012,0.008832661896442974
0.11051031947135925,0.29885345697402954,9.76713752746582,0.02401961386203766,0.0004620552062988281,0.019388198852539062,0.09460909900015886,0.03899880601561253,0.0011668684505879206
0.0976777896285057,0.30544301867485046,9.745133399963379,0.01655721664428711,0.0004706084728240967,0.002544403076171875,-0.013326766287752692,0.061593018429161824,-0.04573389280556079
0.11649521440267563,0.30716249346733093,9.753774642944336,0.02345360815525055,0.011615127325057983,0.009649276733398438,-0.00197927409563598,-0.007901975250856012,0.015301211226202061
0.09911283850669861,0.27129092812538147,9.744016647338867,0.0039264485239982605,-0.030613601207733154,0.0029191970825195312,0.06255121926452056,-0.05409417108168201,0.015301211226202061
0.09780792891979218,0.28722232580184937,9.727936744689941,-0.010173223912715912,-0.011108368635177612,-0.0227813720703125,-0.013326766287752692,-0.007901975250856012,0.025111257184617992
0.1143512949347496,0.28242385387420654,9.757311820983887,0.019696608185768127,-0.017573833465576172,0.013075828552246094,-0.008454240067955178,-0.0640645263823949,-0.04086137325586989
0.0931616798043251,0.3171209394931793,9.737900733947754,-0.004282832145690918,0.014553070068359375,-0.008083343505859375,-0.042887518190663755,-0.05319989654808636,0.015301211226202061
0.10767240822315216,0.2981046438217163,9.736313819885254,0.016785763204097748,0.004854410886764526,-0.007860183715820312,0.01135957842529646,-0.007901975250856012,0.0036388099607507383
0.09607737511396408,0.28345629572868347,9.744468688964844,-0.00007858872413635254,-0.013938814401626587,-0.00037288665771484375,0.04363195544934226,-0.011978357545523914,0.015301211226202061
0.09761502593755722,0.2941448390483856,9.761935234069824,0.004719719290733337,-0.0018474459648132324,0.022940635681152344,0.03117539128042489,-0.02443491504433467,-0.029200953012082132
0.09881468117237091,0.30407753586769104,9.760189056396484,0.009336873888969421,0.014527857303619385,0.010657310485839844,0.010510887400282708,0.053133155461333285,-0.04573389280556079
0.12373635172843933,0.29946136474609375,9.74459171295166,0.02815602719783783,0.002446115016937256,-0.001827239990234375,0.044565803725462996,0.053133155461333285,-0.10676899683732365
0.09704452753067017,0.2988952696323395,9.748570442199707,0.001984119415283203,0.002518385648727417,0.00286102294921875,-0.05679549088810222,0.009664397510450699,-0.10676899683732365
0.09132204949855804,0.30500176548957825,9.766341209411621,-0.007397584617137909,0.016342222690582275,0.02374553680419922,0.047708337744010156,0.014916799641977282,-0.022915124582834106
0.11910449713468552,0.29987862706184387,9.742269515991211,0.02333247661590576,0.0020638108253479004,-0.005179405212402344,-0.018319461148260118,0.05063680803107957,-0.10177630197681621
0.08571361750364304,0.30340197682380676,9.75865650177002,-0.009543180465698242,0.004326552152633667,0.015928268432617188,-0.04955344931526563,-0.007901975250856012,0.015301211226202061
0.1079474687576294,0.2964419424533844,9.754578590393066,0.006915859878063202,-0.00518384575843811,-0.0031423568725585938,0.047708337744010156,-0.01742163811794723,0.015301211226202061
0.09173476696014404,0.2894279360771179,9.746672630310059,-0.005292333662509918,-0.007542788982391357,-0.0012865066528320312,-0.013326766287752692,-0.003019417190715041,-0.04573389280556079
0.08456937968730927,0.2894316613674164,9.744468688964844,-0.007378756999969482,-0.01429760456085205,-0.003582000732421875,-0.013326766287752692,-0.03114388836689953,-0.003595374226497689
0.09291050583124161,0.2874681055545807,9.728545188903809,-0.006906233727931976,-0.006742149591445923,-0.019689559936523438,-0.034854241891163505,-0.029429450854266827,0.015301211226202061
0.10150828957557678,0.3016958236694336,9.742074012756348,0.0048364996910095215,0.005708664655685425,-0.004708290100097656,-0.0743618436390891,0.053133155461333285,-0.04573389280556079
0.09662985056638718,0.2893208861351013,9.7518310546875,0.004792548716068268,-0.012958914041519165,-0.004582405090332031,-0.032928862256947154,-0.029732847323590262,-0.0043008980832056265
0.09507856518030167,0.3081591725349426,9.739740371704102,0.00004188716411590576,0.020141422748565674,-0.009379386901855469,-0.013326766287752692,0.07401051578365657,-0.005576142426014609
0.10625281184911728,0.29480215907096863,9.754050254821777,0.009764701128005981,-0.0013357996940612793,0.007241249084472656,0.04792334196052011,0.05302565335307831,-0.10666150139917527
0.08472272753715515,0.29321974515914917,9.75086784362793,-0.008714497089385986,-0.0065042972564697266,0.002201080322265625,0.12923476967796496,-0.007901975250856012,-0.0051901166759898846
0.09676826000213623,0.29260188341140747,9.730877876281738,0.0032596364617347717,0.005343407392501831,-0.016492843627929688,-0.013326766287752692,0.053133155461333285,0.015301211226202061
0.09903207421302795,0.2921828627586365,9.777494430541992,0.0034473538398742676,-0.0033435821533203125,0.030918121337890625,-0.0736759298958185,0.053133155461333285,0.015301211226202061
0.09911283850669861,0.2892794907093048,9.757780075073242,0.002939097583293915,-0.007877260446548462,0.016097068786621094,0.026405204506365174,-0.0902401858398374,-0.027305055249087908
0.09697132557630539,0.29460322856903076,9.734888076782227,0.009678833186626434,-0.007890105247497559,-0.011953353881835938,-0.013326766287752692,-0.007901975250856012,0.013683310166555291
0.09697132557630539,0.29460322856903076,9.734888076782227,0.00008037686347961426,-0.0006617903709411621,-0.011622428894042969,-0.013326766287752692,-0.007901975250856012,0.013683310166555291
0.08704070001840591,0.30677109956741333,9.743589401245117,-0.025655247271060944,0.011023640632629395,-0.004313468933105469,-0.051947884186604676,-0.030315934703340434,0.015301211226202061
0.0837501585483551,0.27732259035110474,9.722622871398926,-0.013246022164821625,-0.017484545707702637,-0.025104522705078125,0.047708337744010156,0.017316670650204563,0.07633631525796492
0.10558775812387466,0.28254956007003784,9.757685661315918,0.010507985949516296,-0.01195719838142395,0.013345718383789062,0.047708337744010156,-0.01016793052864741,0.07633631525796492
0.09821608662605286,0.30437564849853516,9.748658180236816,0.0007883906364440918,0.009255528450012207,0.005991935729980469,0.047708337744010156,-0.030750171983951927,-0.04573389280556079
0.08924442529678345,0.29414281249046326,9.75953197479248,-0.013213254511356354,-0.00538259744644165,0.012784004211425781,0.047708337744010156,0.0707138222611081,-0.028153226005785976
0.0926370769739151,0.2816053032875061,9.763514518737793,-0.0035437941551208496,-0.014949202537536621,0.016679763793945312,0.047708337744010156,0.05615110522859383,-0.10073309730280254
0.10869473218917847,0.29401662945747375,9.747943878173828,0.012574128806591034,0.004018515348434448,0.004714012145996094,0.09499855985508843,0.015743145809843043,-0.008343903164390381
0.11540109664201736,0.28042083978652954,9.757043838500977,0.02375754714012146,-0.014703303575515747,0.01622772216796875,-0.013326766287752692,-0.03536162356087496,-0.028946181619955366
