Accelerometer_Gx,Accelerometer_Gy,Accelerometer_Gz,Accelerometer_X,Accelerometer_Y,Accelerometer_Z,Gyroscope_Z,Gyroscope_X,Gyroscope_Y
0.09192639589309692,0.27802544832229614,9.738800048828125,-0.003461182117462158,0.005175590515136719,0.047901153564453125,-0.06104844424498553,-0.21932966058548753,0.19986688980319073
0.08473995327949524,0.28441348671913147,9.750457763671875,-0.008313074707984924,0.008149832487106323,0.04471302032470703,0.040148132085812624,0.03392760733534293,-0.002260525811009767
0.10271614044904709,0.27693891525268555,9.738531112670898,0.009361982345581055,0.011212378740310669,0.03010845184326172,-0.11218197511541164,0.044098649468724535,0.06894561034897477
0.09747500717639923,0.2884874641895294,9.742953300476074,0.00118950754404068,0.011870115995407104,0.02474212646484375,-0.01123444722526771,-0.007283949852675639,-0.0017420184034705958
0.09954268485307693,0.2823864817619324,9.740784645080566,0.0028494447469711304,0.0039303600788116455,0.01893901824951172,0.040148132085812624,0.044098649468724535,-0.053124597714550935
0.0981198251247406,0.27818918228149414,9.730423927307129,0.006976909935474396,0.003445148468017578,0.015169143676757812,0.04223481490821102,0.012537742701430687,-0.021563707622523617
0.0981198251247406,0.27818918228149414,9.730423927307129,-0.004544153809547424,-0.005632728338241577,-0.0036897659301757812,0.04223481490821102,0.012537742701430687,-0.021563707622523617
0.10583699494600296,0.2683591842651367,9.732660293579102,0.007048860192298889,-0.0007281005382537842,-0.011189460754394531,-0.032664392529807504,-0.016936481243464762,-0.003866927606858586
0.10502786189317703,0.2742113173007965,9.73263931274414,0.006120361387729645,-0.006537795066833496,0.009004592895507812,-0.053280678209256305,0.015457258370374373,0.04030422592073122
0.10724340379238129,0.2784624993801117,9.736776351928711,0.007571205496788025,-0.001526862382888794,0.008304595947265625,-0.07390300700529498,-0.024955523535456412,-0.11415970174631379
0.11158428341150284,0.29338639974594116,9.741654396057129,0.013898953795433044,0.019062727689743042,0.02154254913330078,0.027559339723432046,-0.07797155859480116,-0.06571339007693151
0.08957456797361374,0.28147000074386597,9.74732780456543,-0.021703608334064484,0.01284724473953247,0.010878562927246094,0.012303752026451554,0.010907908821056227,0.0411012369597203
0.09403787553310394,0.2772100865840912,9.755311012268066,-0.004882790148258209,-0.005623161792755127,0.025343894958496094,0.025677129019204294,-0.016936481243464762,0.015146011185569389
0.09192639589309692,0.28245630860328674,9.731901168823242,-0.007018029689788818,0.02693203091621399,0.015127182006835938,-0.0342663120140135,-0.016936481243464762,0.06894561034897477
0.10174866020679474,0.2862396538257599,9.751075744628906,-0.0042494237422943115,-0.0038289427757263184,0.005488395690917969,-0.020886971945950225,0.010096370289867642,0.007910506317211916
0.11058734357357025,0.29264965653419495,9.725808143615723,0.011696934700012207,0.011866927146911621,-0.007531166076660156,-0.014480654710874943,-0.01053015733828287,0.007910506317211916
0.09710337221622467,0.2764020264148712,9.744810104370117,-0.005088984966278076,-0.009869009256362915,0.015981674194335938,-0.006712701912160598,-0.00276220120451522,0.007910506317211916
0.10017194598913193,0.3005869388580322,9.746196746826172,-0.007181078195571899,0.025183558464050293,0.00852203369140625,0.040148132085812624,0.044098649468724535,0.09520696733615977
0.09866867959499359,0.2861001491546631,9.749482154846191,-0.00021298229694366455,0.0030723512172698975,0.014715194702148438,0.03448977392570663,0.044098649468724535,0.06328725218886877
0.0943218469619751,0.2911762595176697,9.7426118850708,-0.004788406193256378,0.012327373027801514,0.01661968231201172,0.02519866893175961,-0.001987014754358441,-0.03817513456049792
0.10550764203071594,0.2960018217563629,9.745468139648438,0.0024045780301094055,0.0068916380405426025,0.009053230285644531,0.07570810460698903,-0.016936481243464762,0.06894561034897477
0.10256663709878922,0.29441168904304504,9.755109786987305,0.004284106194972992,0.010653942823410034,0.0201416015625,0.03528110203386286,-0.012069451191514993,0.0030434762652621467
0.081802599132061,0.2775595188140869,9.748566627502441,-0.012061841785907745,0.005733877420425415,0.0032777786254882812,0.024405246410127427,0.044098649468724535,-0.007832372688366673
0.09870745986700058,0.27481916546821594,9.734076499938965,-0.006411708891391754,-0.022102445363998413,-0.015857696533203125,0.003795424063985015,0.044098649468724535,0.08061592236086713
0.10182791948318481,0.2935152053833008,9.746864318847656,0.0028475970029830933,0.010675936937332153,0.009726524353027344,0.040148132085812624,-0.025080414611647155,-0.04905263103045974
0.10106328874826431,0.2651579976081848,9.752099990844727,0.007195711135864258,-0.008318424224853516,0.009461402893066406,0.040148132085812624,0.03887182386099913,0.05238013377544599
0.09244965761899948,0.285322368144989,9.743422508239746,-0.004514284431934357,0.006572365760803223,0.001758575439453125,-0.034220008133917575,-0.040787501825149286,0.06894561034897477
0.09355119615793228,0.29603326320648193,9.718632698059082,-0.004196718335151672,0.01339372992515564,-0.019552230834960938,0.040148132085812624,0.04082602836093639,0.06567298924118663
0.10053037106990814,0.2756299376487732,9.727700233459473,-0.018082208931446075,-0.008005112409591675,-0.009692192077636719,-0.003551778409685967,0.026763454264933623,-0.035789404178286674
0.0884319543838501,0.28391528129577637,9.732881546020508,-0.020047739148139954,0.01103028655052185,-0.013819694519042969,0.06324608429086358,0.044098649468724535,-0.03002664550949998
0.10429445654153824,0.27391812205314636,9.760553359985352,0.005934767425060272,-0.009886205196380615,0.02349090576171875,-0.020886971945950225,-0.016936481243464762,0.007910506317211916
0.10170456022024155,0.30178388953208923,9.736053466796875,0.015057206153869629,0.006725788116455078,0.006534576416015625,-0.10665109603286159,0.06882766952387304,-0.03497155572624376
0.10303124040365219,0.2825942933559418,9.751655578613281,0.005616866052150726,0.0016108155250549316,0.013474464416503906,-0.037459185327156454,0.02186720080839292,-0.008661720404207537
0.1204896941781044,0.26592639088630676,9.728004455566406,0.021617405116558075,-0.01704496145248413,-0.010550498962402344,0.03859886642319655,-0.016936481243464762,0.007910506317211916
0.10121374577283859,0.2840477228164673,9.753703117370605,-0.0026242658495903015,0.009608805179595947,0.019979476928710938,0.023781604782180304,0.027732117162512254,0.05257908971544906
0.09020870178937912,0.28140386939048767,9.740412712097168,-0.016452349722385406,-0.0023691654205322266,0.010109901428222656,0.040148132085812624,0.044098649468724535,-0.017136424359246307
0.09664639085531235,0.29232728481292725,9.742216110229492,-0.0018344372510910034,0.009417712688446045,0.0031461715698242188,-0.08101835657315576,0.10513375350048738,-0.05131721893639581
0.09354852885007858,0.28598517179489136,9.740301132202148,-0.006270475685596466,0.004534035921096802,0.012371063232421875,0.0617754525150886,0.06380254460502127,0.02761440145350866
0.09441010653972626,0.28679412603378296,9.754095077514648,-0.008278407156467438,0.004323363304138184,0.01214599609375,-0.08192204929728662,-0.037656300317734794,0.007910506317211916
0.08717497438192368,0.2923586666584015,9.754006385803223,-0.010696373879909515,0.008874773979187012,0.013613700866699219,0.03981232556846469,-0.016824543514313246,0.007910506317211916
0.09278275072574615,0.27561259269714355,9.74123477935791,0.010633870959281921,-0.012095123529434204,-0.010060310363769531,-0.10241453779802895,0.003556003922224251,0.007910506317211916
0.10556257516145706,0.28442880511283875,9.735026359558105,0.010642126202583313,0.0026150643825531006,0.0016756057739257812,-0.06197074656656204,0.003014838162526356,0.007910506317211916
0.09911283850669861,0.2899295687675476,9.744224548339844,0.0011483877897262573,0.007059603929519653,0.0044956207275390625,0.09993899443029601,0.044098649468724535,-0.0525024768709112
0.09588423371315002,0.28844040632247925,9.753947257995605,-0.003569871187210083,0.006999403238296509,0.00902557373046875,-0.12173047285338368,-0.016936481243464762,0.04771890319288252
0.09706738591194153,0.2835700213909149,9.749394416809082,-0.008051753044128418,0.00016120076179504395,0.010652542114257812,-0.085349723703362,0.005693683044719653,-0.03392210783244188
0.09946031123399734,0.2922244668006897,9.730443954467773,0.0009008273482322693,0.009273409843444824,-0.010692596435546875,0.040148132085812624,-0.018412035557918913,0.06747006270462723
0.09952251613140106,0.2832734286785126,9.756036758422852,0.010163098573684692,-0.007251918315887451,0.0059051513671875,-0.020886971945950225,-0.016936481243464762,-0.06998995561121897
0.08450900763273239,0.2806517779827118,9.74305534362793,-0.015570245683193207,-0.00002473592758178711,-0.00412750244140625,-0.045154313901888184,0.044098649468724535,-0.053124597714550935
0.09876368939876556,0.2802462577819824,9.73336410522461,0.0013352110981941223,-0.002189040184020996,-0.009076118469238281,-0.018662958298530936,-0.07352353129996259,0.005686492669792627
0.09701302647590637,0.29599010944366455,9.7298002243042,0.015344478189945221,0.01876583695411682,-0.02745532989501953,0.040148132085812624,0.044098649468724535,0.046066130815871666
0.099774070084095,0.2711966037750244,9.745845794677734,0.006040230393409729,-0.01473855972290039,0.0036153793334960938,0.022611161154448705,0.044098649468724535,0.007910506317211916
0.08498307317495346,0.2757515013217926,9.744711875915527,-0.012491777539253235,-0.007134467363357544,0.0032854080200195312,-0.020886971945950225,-0.013839203898275542,0.007910506317211916
0.09322277456521988,0.26930779218673706,9.763908386230469,0.008683092892169952,-0.004369288682937622,0.040452003479003906,-0.06891735577736913,-0.040951666489067604,0.03192570490302798
0.08458729088306427,0.2916349172592163,9.745384216308594,-0.013952203094959259,-0.0015343725681304932,0.015611648559570312,-0.07803242998773627,-0.016936481243464762,0.004020887007661549
0.08458729088306427,0.2916349172592163,9.745384216308594,-0.011263884603977203,0.010287642478942871,0.0012006759643554688,-0.07803242998773627,-0.016936481243464762,0.004020887007661549
0.0943218469619751,0.26700809597969055,9.744954109191895,-0.0016637146472930908,-0.013353914022445679,0.0058269500732421875,0.040148132085812624,-0.016936481243464762,0.007910506317211916
0.09027008712291718,0.27169036865234375,9.716574668884277,-0.00861840695142746,-0.014915406703948975,-0.03155994415283203,-0.00491325389076636,-0.016936481243464762,0.0529718922937909
0.10354001075029373,0.28539374470710754,9.750200271606445,0.007776737213134766,0.003921151161193848,0.009179115295410156,-0.016252821996228798,-0.016936481243464762,0.007910506317211916
0.11514049768447876,0.2802574038505554,9.758428573608398,0.007734611630439758,-0.0077977776527404785,0.01823711395263672,-0.09246288547625425,0.03355782662997013,0.007910506317211916
0.09790869057178497,0.2846161723136902,9.745064735412598,-0.0003507286310195923,0.00431707501411438,0.0010557174682617188,-0.06674451518787204,-0.09314909270421576,0.007910506317211916
0.08841735124588013,0.26754358410835266,9.738137245178223,-0.010029502213001251,-0.014417678117752075,-0.006053924560546875,-0.020886971945950225,-0.027823942852703926,0.007910506317211916
0.08748051524162292,0.28727227449417114,9.756111145019531,-0.006633259356021881,0.011769264936447144,0.01723480224609375,-0.05580092463149845,0.14004771952624884,-0.07924574239065894
0.08570050448179245,0.28592926263809204,9.743192672729492,-0.013464286923408508,0.006819278001785278,-0.0018758773803710938,-0.006635301995042602,-0.0026848046224505298,0.007910506317211916
0.09457172453403473,0.2632560729980469,9.761883735656738,-0.0013266727328300476,-0.019008398056030273,0.019056320190429688,-0.014520275144146307,0.044098649468724535,0.007910506317211916
0.11090070009231567,0.3034205138683319,9.743703842163086,0.02189221978187561,0.03275611996650696,0.0023488998413085938,-0.07458239738429968,0.017250926744389886,-0.053124597714550935
0.08048096299171448,0.29000282287597656,9.746864318847656,-0.015906192362308502,0.008389264345169067,0.0022869110107421875,0.07407432869360726,0.03054419242168712,0.02146496336424933
0.09927454590797424,0.29846781492233276,9.74474811553955,0.005903132259845734,0.0175173282623291,-0.00017642974853515625,-0.12872866866872287,0.036984383793188094,0.01502476198758844
0.11068371683359146,0.276262491941452,9.738458633422852,0.021832063794136047,-0.010771840810775757,0.017037391662597656,-0.048524451968334124,-0.016936481243464762,-0.053124597714550935
0.09406641125679016,0.3009709119796753,9.741945266723633,0.002669781446456909,0.01983734965324402,0.0002593994140625,-0.00802904745190866,0.018382803815694713,-0.04026667322050937
0.11487871408462524,0.280464768409729,9.719947814941406,0.023773953318595886,-0.004439204931259155,-0.025046348571777344,-0.013117938589964842,-0.13123762927057864,0.007910506317211916
0.10741343349218369,0.2686105966567993,9.730096817016602,0.008961938321590424,-0.010888248682022095,-0.012352943420410156,0.0075019089264144155,0.044098649468724535,0.03629938718957656
0.08953088521957397,0.27226972579956055,9.754386901855469,-0.007567085325717926,-0.028238922357559204,0.013355255126953125,0.03158654332205454,-0.025498070007222855,0.007910506317211916
0.08953088521957397,0.27226972579956055,9.754386901855469,-0.00738535076379776,-0.004231512546539307,0.010656356811523438,0.03158654332205454,-0.025498070007222855,0.007910506317211916
0.10182932764291763,0.2795976996421814,9.751153945922852,-0.0025478601455688477,-0.008839249610900879,-0.008267402648925781,-0.023613578126534026,-0.016936481243464762,0.01063712583800894
0.11323903501033783,0.29606184363365173,9.74964714050293,0.018003933131694794,0.019307315349578857,0.009970664978027344,-0.009667012192242344,-0.06675159884109329,0.019130466070919797
0.10352753102779388,0.2884978652000427,9.758365631103516,0.005606658756732941,0.009521484375,0.01938629150390625,-0.06274946817322283,-0.06838526803276927,-0.08540081672000487
0.08122939616441727,0.2984035015106201,9.733441352844238,-0.02241779863834381,0.016276508569717407,0.007201194763183594,0.040990633251891055,0.013159830194537366,-0.052282096548472504
0.0939723327755928,0.27370330691337585,9.738510131835938,-0.005266591906547546,-0.010526955127716064,-0.006190299987792969,0.02972229521493112,-0.02736231811434627,0.007910506317211916
0.10390377044677734,0.2856117784976959,9.746464729309082,0.006188668310642242,0.0034367740154266357,0.0032758712768554688,0.08080395933634744,-0.027126116299025473,0.007910506317211916
0.1003674641251564,0.2744663655757904,9.742095947265625,0.008415482938289642,-0.0036097168922424316,0.0008535385131835938,-0.020886971945950225,0.044098649468724535,0.038718154609833765
0.10756131261587143,0.29718923568725586,9.733625411987305,0.010649144649505615,0.015583306550979614,-0.010713577270507812,-0.07229581813686602,-0.016936481243464762,-0.001715738183421914
0.09365209192037582,0.28147685527801514,9.753426551818848,-0.006098940968513489,-0.003833264112472534,0.012968063354492188,-0.020886971945950225,-0.016936481243464762,0.046960805555863995
0.10522768646478653,0.28290048241615295,9.746780395507812,0.010448656976222992,0.0033948421478271484,0.000957489013671875,-0.052476129949796405,0.044098649468724535,-0.053124597714550935
0.11073832213878632,0.2913765013217926,9.771595001220703,0.000880807638168335,0.014631867408752441,0.000621795654296875,-0.009220208430775085,0.044098649468724535,-0.02979105734398743
0.11073832213878632,0.2913765013217926,9.771595001220703,0.014905594289302826,0.00727236270904541,0.03320789337158203,-0.009220208430775085,0.044098649468724535,-0.02979105734398743
0.08628945052623749,0.285915344953537,9.749541282653809,-0.006396129727363586,0.01399075984954834,0.008996009826660156,0.040148132085812624,0.015373568542721884,0.007910506317211916
0.08583221584558487,0.2751368582248688,9.750387191772461,-0.014993049204349518,-0.009448051452636719,0.0064334869384765625,-0.012808245540000297,0.044098649468724535,-0.00016822008873800936
0.10869473218917847,0.2857048511505127,9.736367225646973,0.01077723503112793,0.0023976266384124756,-0.0099639892578125,-0.05680041342678139,-0.004375656638105532,0.04382397447846953
0.1023457944393158,0.28630489110946655,9.753631591796875,-0.0063348934054374695,0.004564374685287476,0.013484001159667969,0.01229791568316663,-0.04478669097600415,-0.025274381311904938
0.10475852340459824,0.29239821434020996,9.755876541137695,0.005356147885322571,0.00913017988204956,0.010781288146972656,0.026788955750035433,0.017380293462116836,0.05558642734309096
0.10734786093235016,0.2811713218688965,9.761011123657227,0.007141299545764923,-0.0053751468658447266,0.017307281494140625,0.026788955750035433,0.017380293462116836,0.05558642734309096
0.11269444227218628,0.27671390771865845,9.736741065979004,0.01643560826778412,0.0017946958541870117,-0.013452529907226562,0.0061782396096071,0.051003330389372735,-0.02605938615899361
0.08738803118467331,0.2829384207725525,9.729085922241211,-0.012274116277694702,0.0020828545093536377,-0.015298843383789062,0.04658429137786704,-0.0040641593243026216,0.007910506317211916
0.08953088521957397,0.26181715726852417,9.73886775970459,-0.009098321199417114,-0.02086588740348816,-0.00022792816162109375,0.007654414243976106,0.0583693425636877,0.0546749172540116
0.09467482566833496,0.2766587436199188,9.736929893493652,0.002991683781147003,-0.003738313913345337,-0.014125823974609375,-0.012277371754803701,-0.016936481243464762,-0.018302252273202858
0.09467482566833496,0.2766587436199188,9.736929893493652,0.002991683781147003,-0.003738313913345337,-0.014125823974609375,-0.012277371754803701,-0.016936481243464762,-0.018302252273202858
0.09427334368228912,0.28638532757759094,9.772041320800781,0.0028307586908340454,0.007916510105133057,0.023529052734375,-0.0059373020185922555,-0.016936481243464762,0.022860176244569885
0.09427334368228912,0.28638532757759094,9.772041320800781,-0.006592079997062683,0.0030735433101654053,0.02753162384033203,-0.020886971945950225,0.018636431284537635,0.033372717831292205
0.09614359587430954,0.2976722717285156,9.734786033630371,-0.0018441975116729736,0.01710742712020874,-0.012952804565429688,-0.13808445368648006,-0.02180920756646062,0.05920015770298306
0.08419840782880783,0.28096237778663635,9.757682800292969,-0.008906535804271698,-0.006522178649902344,0.015351295471191406,0.008656290937425907,-0.03268239514755151,-0.007835414256981444
0.08419840782880783,0.28096237778663635,9.757682800292969,-0.015674427151679993,0.0005793571472167969,0.0102691650390625,0.008656290937425907,-0.03268239514755151,-0.007835414256981444
0.09340547770261765,0.2876073122024536,9.751956939697266,0.0012424513697624207,0.005142629146575928,-0.01856708526611328,-0.020886971945950225,-0.016936481243464762,-0.053124597714550935
0.08925166726112366,0.2762744724750519,9.759669303894043,0.003478139638900757,-0.004091233015060425,0.02145671844482422,-0.03730914794904096,-0.016936481243464762,0.06894561034897477
0.08925166726112366,0.2762744724750519,9.759669303894043,-0.012952432036399841,-0.006270766258239746,0.009215354919433594,0.016184980341884855,0.044098649468724535,0.03187365139103308
0.10672526061534882,0.29163476824760437,9.744380950927734,0.012998580932617188,-0.006667584180831909,0.004504203796386719,0.016184980341884855,0.044098649468724535,0.03187365139103308
0.09401825070381165,0.27802544832229614,9.739611625671387,-0.010702110826969147,-0.004687398672103882,0.004128456115722656,0.057340838804645425,0.0002562321454746483,-0.018739184276885337
0.09401825070381165,0.27802544832229614,9.739611625671387,-0.0011145547032356262,-0.004624456167221069,-0.012286186218261719,0.057340838804645425,0.0002562321454746483,-0.018739184276885337
0.09740719944238663,0.2771119773387909,9.735921859741211,0.00833255797624588,-0.006433665752410889,0.0025463104248046875,-0.09640804009345065,-0.016936481243464762,0.031185069605117945
0.0914086177945137,0.2902616560459137,9.754568099975586,0.0031341910362243652,0.0026494860649108887,-0.0024433135986328125,0.040148132085812624,-0.016936481243464762,0.007910506317211916
0.0914086177945137,0.2902616560459137,9.754568099975586,-0.010954953730106354,0.009496182203292847,0.011600494384765625,0.040148132085812624,-0.016936481243464762,0.007910506317211916
0.09759289771318436,0.29152268171310425,9.74161148071289,0.001171700656414032,0.00642162561416626,-0.014324188232421875,0.09529277825771466,0.044098649468724535,0.04663709194180242
0.0934205874800682,0.2850576639175415,9.73862361907959,-0.0018685385584831238,0.00688779354095459,-0.0002803802490234375,0.04407638465285588,0.006027408488804856,0.026946123472118447
0.0934205874800682,0.2850576639175415,9.73862361907959,-0.006401747465133667,-0.00045803189277648926,-0.011912345886230469,0.04407638465285588,0.006027408488804856,0.026946123472118447
0.10823658108711243,0.291301965713501,9.753464698791504,0.021780744194984436,-0.0032835006713867188,0.013970375061035156,0.021971091053917854,0.044098649468724535,0.007910506317211916
0.1098448857665062,0.2893047332763672,9.738056182861328,-0.011331282556056976,-0.0005165636539459229,-0.0071697235107421875,0.040148132085812624,-0.016936481243464762,0.049240594634767314
0.1098448857665062,0.2893047332763672,9.738056182861328,0.021557196974754333,0.008748114109039307,-0.009297370910644531,0.040148132085812624,-0.016936481243464762,0.049240594634767314
0.11339782178401947,0.2979145050048828,9.751567840576172,0.00418640673160553,0.005447953939437866,-0.004641532897949219,0.0608663303241761,0.0037817270000586275,-0.012807698591258168
0.09512650221586227,0.292379766702652,9.74443244934082,-0.0026612356305122375,0.0027907490730285645,-0.010920524597167969,-0.020886971945950225,0.044098649468724535,0.007910506317211916
0.09512650221586227,0.292379766702652,9.74443244934082,-0.004843525588512421,0.009734809398651123,0.0033540725708007812,-0.020886971945950225,0.044098649468724535,0.007910506317211916
0.09421956539154053,0.2756810784339905,9.737793922424316,-0.009541787207126617,-0.006744325160980225,0.014878273010253906,-0.020886971945950225,0.044098649468724535,0.006607434289620421
0.08953088521957397,0.27221041917800903,9.7330322265625,-0.009108759462833405,-0.022643595933914185,-0.02488231658935547,0.040148132085812624,-0.056805462697486174,0.02907660888463352
0.08953088521957397,0.27221041917800903,9.7330322265625,-0.008985407650470734,-0.005778402090072632,-0.0055561065673828125,0.040148132085812624,-0.056805462697486174,0.02907660888463352
0.08960527181625366,0.29666849970817566,9.752399444580078,-0.006346993148326874,-0.002925693988800049,0.030127525329589844,-0.024677700254880856,0.04220328197920591,0.0060151421627466
0.10804412513971329,0.29000282287597656,9.74816608428955,0.012837409973144531,0.006065994501113892,-0.003482818603515625,0.040148132085812624,0.044098649468724535,0.03013978385784154
0.10804412513971329,0.29000282287597656,9.74816608428955,0.007895119488239288,0.00583156943321228,0.0059299468994140625,0.040148132085812624,0.044098649468724535,0.03013978385784154
0.1085159033536911,0.2645466923713684,9.76576042175293,0.005510754883289337,0.0031286776065826416,0.012647628784179688,-0.08420022421039,0.046376817711721294,0.007910506317211916
0.110789954662323,0.28940442204475403,9.743570327758789,0.007551871240139008,0.008428990840911865,-0.004548072814941406,-0.05902716181791133,0.044098649468724535,0.007910506317211916
0.110789954662323,0.28940442204475403,9.743570327758789,0.014401674270629883,0.0036730170249938965,-0.00209808349609375,-0.05902716181791133,0.044098649468724535,0.007910506317211916
0.1134856641292572,0.28305667638778687,9.737883567810059,0.014428272843360901,0.0036707818508148193,0.0020895004272460938,-0.07886024357905652,-0.016936481243464762,0.06894561034897477
0.09564293175935745,0.28789788484573364,9.757128715515137,0.0018270760774612427,-0.010305732488632202,-0.000030517578125,-0.034574631022016106,-0.04061018371099341,0.05525792459248244
0.09564293175935745,0.28789788484573364,9.757128715515137,-0.007567882537841797,0.013405948877334595,0.016269683837890625,-0.034574631022016106,-0.04061018371099341,0.05525792459248244
0.10405517369508743,0.292219877243042,9.742527961730957,0.007062293589115143,-0.028793662786483765,0.0015316009521484375,-0.020886971945950225,-0.013078845095115773,0.007910506317211916
0.10147526115179062,0.2823636829853058,9.745418548583984,-0.018830202519893646,0.01600131392478943,-0.007676124572753906,-0.05745189607972424,0.044098649468724535,0.020005277233423557
0.10147526115179062,0.2823636829853058,9.745418548583984,0.016696743667125702,-0.012253403663635254,0.0018482208251953125,-0.05745189607972424,0.044098649468724535,0.020005277233423557
0.10463228821754456,0.28484758734703064,9.729521751403809,0.013397157192230225,-0.0023846328258514404,0.0036163330078125,-0.08656260254935494,-0.021577027825426462,-0.057765150966619244
0.10406876355409622,0.2806690037250519,9.739265441894531,0.010539807379245758,-0.011634379625320435,-0.005251884460449219,0.004367772572090927,-0.016936481243464762,0.007910506317211916
0.10406876355409622,0.2806690037250519,9.739265441894531,-0.0014260932803153992,0.005026131868362427,-0.009764671325683594,0.004367772572090927,-0.016936481243464762,0.007910506317211916
0.0947483703494072,0.25928807258605957,9.724189758300781,-0.0009513571858406067,-0.018835455179214478,-0.009610176086425781,0.045581827715035446,-0.016936481243464762,-0.042257199785998685
0.08610290288925171,0.28042083978652954,9.74653434753418,-0.014793984591960907,-0.0013018250465393066,0.0029468536376953125,-0.047195099720693946,0.017790495013554366,0.016329328119060876
0.08610290288925171,0.28042083978652954,9.74653434753418,-0.011984296143054962,-0.0012298822402954102,-0.0017948150634765625,-0.047195099720693946,0.017790495013554366,0.016329328119060876
0.10150828957557678,0.2753676772117615,9.72425651550293,0.0026602745056152344,-0.008146315813064575,-0.0297088623046875,0.03346615268470386,-0.010254495172249387,-0.04644261831344217
0.11215102672576904,0.27323442697525024,9.749533653259277,0.014111779630184174,-0.007898777723312378,0.0019388198852539062,0.040148132085812624,-0.050942438986117805,-0.04614776625068786
0.11215102672576904,0.27323442697525024,9.749533653259277,0.011262260377407074,-0.007745265960693359,0.0065460205078125,0.040148132085812624,-0.050942438986117805,-0.04614776625068786
0.09904439747333527,0.2921244502067566,9.742552757263184,-0.018744848668575287,0.008461534976959229,-0.01606464385986328,-0.013911614575648256,-0.016936481243464762,0.0619702529786728
0.07663328945636749,0.27316686511039734,9.75953197479248,-0.011372290551662445,0.0058762431144714355,0.007645606994628906,-0.0760603462670273,-0.016936481243464762,0.007910506317211916
0.07663328945636749,0.27316686511039734,9.75953197479248,-0.0297163724899292,-0.01987054944038391,0.021406173706054688,-0.0760603462670273,-0.016936481243464762,0.007910506317211916
0.09310390800237656,0.277416467666626,9.752223014831543,-0.012680061161518097,-0.007199138402938843,-0.0046749114990234375,-0.020886971945950225,0.03634057176284828,0.00015243861649557756
0.09962352365255356,0.27772003412246704,9.760269165039062,0.013514913618564606,0.002654343843460083,0.011487007141113281,-0.0780320964824057,0.011636094364976196,0.03648306858543965
0.09962352365255356,0.27772003412246704,9.760269165039062,-0.007849417626857758,-0.006700396537780762,0.01815319061279297,-0.0780320964824057,0.011636094364976196,0.03648306858543965
0.08881378173828125,0.29757067561149597,9.750648498535156,0.0017498359084129333,0.0047044456005096436,-0.0021266937255859375,-0.13440455586900346,0.09658113603012154,0.007910506317211916
0.09317620098590851,0.2835453748703003,9.739365577697754,-0.004868730902671814,0.013740867376327515,0.00011348724365234375,-0.01823309660785648,-0.048780950918073225,0.007910506317211916
0.09317620098590851,0.2835453748703003,9.739365577697754,-0.002534344792366028,-0.007667750120162964,-0.013860702514648438,-0.01823309660785648,-0.048780950918073225,0.007910506317211916
0.10169346630573273,0.2887133061885834,9.749812126159668,0.018148891627788544,0.013328492641448975,-0.005726814270019531,-0.020886971945950225,-0.07797155859480116,0.007910506317211916
0.10169346630573273,0.2887133061885834,9.749812126159668,0.00121258944272995,0.0060062408447265625,0.006076812744140625,0.040148132085812624,0.014091860866606513,0.007910506317211916
0.09082887321710587,0.293816477060318,9.742354393005371,-0.0007496103644371033,0.024371802806854248,0.013443946838378906,0.040148132085812624,0.014091860866606513,0.007910506317211916
0.08072290569543839,0.28147730231285095,9.754314422607422,0.008392535150051117,0.007122218608856201,0.010247230529785156,0.03341862817509806,0.03736913888790336,-0.005548514844430436
0.08072290569543839,0.28147730231285095,9.754314422607422,-0.019715093076229095,-0.0024578869342803955,0.007633209228515625,-0.051119003378226606,0.013866594691075013,-0.022321538455277685
0.09790387749671936,0.2900700271129608,9.736141204833984,0.0018570944666862488,-0.000276416540145874,-0.01575469970703125,-0.051119003378226606,0.013866594691075013,-0.022321538455277685
0.09695671498775482,0.28717610239982605,9.729186058044434,-0.010193020105361938,0.002519667148590088,0.000888824462890625,0.040148132085812624,-0.005949174808360443,0.007910506317211916
0.11249960213899612,0.2733191251754761,9.749598503112793,0.020467333495616913,-0.0070296525955200195,0.013066291809082031,-0.020886971945950225,0.046255811972631664,-0.023685628618149726
0.11249960213899612,0.2733191251754761,9.749598503112793,0.008225619792938232,-0.011457502841949463,-0.00592803955078125,-0.020886971945950225,0.046255811972631664,-0.023685628618149726
0.08953088521957397,0.2900868058204651,9.73829174041748,-0.007602095603942871,-0.0018683969974517822,-0.012203216552734375,-0.020886971945950225,0.10513375350048738,-0.0038681682466882956
0.08953088521957397,0.2900868058204651,9.73829174041748,0.002369023859500885,-0.006576567888259888,0.018540382385253906,-0.08192204929728662,0.015456784792804969,0.04030375901326842
0.09798870235681534,0.27338168025016785,9.754639625549316,-0.000054210424423217773,-0.010915815830230713,-0.0006103515625,-0.08192204929728662,0.015456784792804969,0.04030375901326842
0.097032830119133,0.28118041157722473,9.752917289733887,0.000020012259483337402,-0.0036921799182891846,0.006394386291503906,0.040148132085812624,0.03605997705297571,0.01594917206285413
0.09150545299053192,0.2848636209964752,9.770746231079102,-0.0070945098996162415,-0.0018358230590820312,0.026746749877929688,-0.020886971945950225,0.016354544457105047,0.007910506317211916
0.09845970571041107,0.28346988558769226,9.743379592895508,0.009574390947818756,0.007713824510574341,-0.018518447875976562,-0.020886971945950225,0.016354544457105047,0.007910506317211916
0.09829020500183105,0.2775011360645294,9.740952491760254,0.00676090270280838,-0.006550252437591553,0.0072078704833984375,0.026789556059630452,0.017381500751413488,-0.053124597714550935
0.09829020500183105,0.2775011360645294,9.740952491760254,-0.00033804774284362793,-0.004106789827346802,-0.009293556213378906,0.026789556059630452,0.017381500751413488,-0.053124597714550935
0.09380152076482773,0.2881491780281067,9.744468688964844,-0.009657680988311768,0.00045365095138549805,-0.0019941329956054688,-0.027790692371246394,0.01703295433043789,0.007910506317211916
0.10665013641119003,0.28115132451057434,9.747594833374023,-0.004946038126945496,-0.0063225626945495605,-0.0038299560546875,-0.08192204929728662,-0.0027952115621347447,-0.03898333803838083
0.10665013641119003,0.28115132451057434,9.747594833374023,0.0137973353266716,0.0009747743606567383,0.0032587051391601562,-0.08192204929728662,-0.0027952115621347447,-0.03898333803838083
0.09528452903032303,0.28727495670318604,9.745867729187012,-0.019555196166038513,0.00781095027923584,0.007996559143066406,0.005396303011559645,-0.016936481243464762,-0.0005580477995311981
0.08464483171701431,0.27924689650535583,9.7487211227417,0.0019701942801475525,-0.006650447845458984,-0.0061588287353515625,-0.020886971945950225,-0.0019806448025446108,0.022866339423078762
0.08464483171701431,0.27924689650535583,9.7487211227417,-0.01674453169107437,-0.0017731189727783203,0.005656242370605469,-0.020886971945950225,-0.0019806448025446108,0.022866339423078762
0.10468818992376328,0.29061222076416016,9.744119644165039,0.002070210874080658,0.012270420789718628,0.01756763458251953,-0.05640103412332076,0.01857761761949214,0.007910506317211916
0.11032035946846008,0.3010583519935608,9.750495910644531,-0.002338215708732605,-0.011102169752120972,0.0070934295654296875,-0.08192204929728662,-0.06222872627996886,-0.021638919744673094
0.11341919749975204,0.28191137313842773,9.76071834564209,0.02034538984298706,-0.004542052745819092,0.016149520874023438,-0.08192204929728662,-0.06222872627996886,-0.021638919744673094
0.11341919749975204,0.28191137313842773,9.76071834564209,0.008208051323890686,0.004732698202133179,0.008718490600585938,0.0649009510813504,0.007816351092286233,0.007910506317211916
0.09866560250520706,0.284115195274353,9.74122142791748,0.005117438733577728,0.005022019147872925,-0.013883590698242188,0.040148132085812624,0.027551800835434577,-0.03657775741889424
0.11125867068767548,0.2783133387565613,9.737162590026855,0.00042165815830230713,-0.011559605598449707,-0.013443946838378906,0.040148132085812624,-0.016936481243464762,-0.029319427445712764
0.11125867068767548,0.2783133387565613,9.737162590026855,0.030657708644866943,0.007326573133468628,-0.0014238357543945312,0.040148132085812624,-0.016936481243464762,-0.029319427445712764
0.10937771946191788,0.2790548801422119,9.735580444335938,0.011421017348766327,-0.007205605506896973,-0.02023601531982422,-0.06451996793192384,0.00046562013221785166,0.06894561034897477
0.10937771946191788,0.2790548801422119,9.735580444335938,0.008743435144424438,-0.002210646867752075,-0.005703926086425781,-0.06451996793192384,0.00046562013221785166,0.06894561034897477
0.09288202226161957,0.2699342966079712,9.745373725891113,0.006326824426651001,-0.013707667589187622,0.0014753341674804688,0.0631986331524305,-0.07797155859480116,0.022844608215739016
0.10132265836000443,0.2876073122024536,9.748286247253418,-0.009756982326507568,0.005253106355667114,0.006182670593261719,0.040148132085812624,0.044098649468724535,0.007910506317211916
0.10132265836000443,0.2876073122024536,9.748286247253418,0.00688934326171875,0.005040794610977173,0.0013532638549804688,0.040148132085812624,0.044098649468724535,0.007910506317211916
0.10565546900033951,0.29718923568725586,9.761417388916016,0.008950628340244293,0.013890236616134644,0.0030231475830078125,-0.020886971945950225,0.005379487672792455,0.007910506317211916
0.09159824997186661,0.2940499186515808,9.7471923828125,0.0012539774179458618,0.009219855070114136,-0.008787155151367188,-0.06297047548568299,0.044098649468724535,-0.015221436751130428
0.09159824997186661,0.2940499186515808,9.7471923828125,-0.012678705155849457,0.011427849531173706,0.005425453186035156,-0.06297047548568299,0.044098649468724535,-0.015221436751130428
0.08855999261140823,0.2833993136882782,9.749972343444824,-0.016926050186157227,-0.007567018270492554,0.000469207763671875,-0.020886971945950225,-0.056528239726505634,-0.010237946637746652
0.09911283850669861,0.28984859585762024,9.752775192260742,-0.0003103390336036682,-0.00025731325149536133,0.0032339096069335938,-0.004646262863327619,-0.13900666262656403,-0.008330202765410688
0.09911283850669861,0.28984859585762024,9.752775192260742,-0.000532589852809906,0.00910031795501709,0.007802009582519531,-0.004646262863327619,-0.13900666262656403,-0.008330202765410688
0.10548219829797745,0.2803652584552765,9.736298561096191,0.003905653953552246,-0.007476389408111572,-0.024969100952148438,0.019330682661072407,-0.016936481243464762,-0.012906949777634916
0.10470805317163467,0.28042083978652954,9.743664741516113,0.0059951916337013245,-0.0023759305477142334,-0.0038051605224609375,-0.0003941899605170054,-0.016936481243464762,0.06894561034897477
0.10470805317163467,0.28042083978652954,9.743664741516113,0.003468349575996399,-0.002274125814437866,-0.0013723373413085938,-0.0003941899605170054,-0.016936481243464762,0.06894561034897477
0.07063262164592743,0.2827366888523102,9.744362831115723,-0.00599236786365509,-0.006151080131530762,-0.010296821594238281,-0.021563574220391388,0.044098649468724535,-0.052447995440109765
0.08963090926408768,0.30158016085624695,9.737813949584961,-0.004870906472206116,0.0009450018405914307,-0.019309043884277344,0.040148132085812624,0.00425792925641537,0.047751213189307855
0.10503973811864853,0.2795386016368866,9.75064754486084,-0.011753715574741364,0.02880081534385681,-0.00014019012451171875,-0.0016097902100073802,-0.03621365630930099,-0.03384741597860809
0.10436119139194489,0.287492960691452,9.76117992401123,0.023411057889461517,0.00014778971672058105,0.013777732849121094,0.040148132085812624,0.041184966808012466,0.007910506317211916
0.09518824517726898,0.27282705903053284,9.74100399017334,-0.0029299110174179077,-0.018448710441589355,-0.010334968566894531,-0.02607754218918968,-0.016936481243464762,-0.031049372956216834
0.09518824517726898,0.27282705903053284,9.74100399017334,-0.005202993750572205,-0.004030078649520874,-0.0007314682006835938,0.06466756405101959,0.02584080509781333,0.08720345305235933
0.12223493307828903,0.29212066531181335,9.760774612426758,0.0016496777534484863,0.003116816282272339,0.0037107467651367188,-0.07956470021870664,0.041741300390144544,-0.10473031877220706
0.09641722589731216,0.27353349328041077,9.755846977233887,0.003359884023666382,-0.003970921039581299,0.012491226196289062,-0.08192204929728662,-0.016936481243464762,-0.07600927326070427
0.09641722589731216,0.27353349328041077,9.755846977233887,-0.008403658866882324,-0.010712534189224243,0.0074825286865234375,-0.08192204929728662,-0.016936481243464762,-0.07600927326070427
0.10677970200777054,0.2879676818847656,9.721355438232422,0.01483442634344101,0.013265937566757202,-0.009037971496582031,-0.020886971945950225,-0.07491099351640076,0.06588504527057437
0.09562970697879791,0.2896791398525238,9.733094215393066,0.00014951080083847046,0.022017449140548706,0.0035562515258789062,0.077593743746015,-0.016936481243464762,0.007910506317211916
0.09562970697879791,0.2896791398525238,9.733094215393066,-0.009198777377605438,-0.0020507872104644775,-0.022154808044433594,0.077593743746015,-0.016936481243464762,0.007910506317211916
0.08774090558290482,0.28909459710121155,9.760783195495605,-0.0036377236247062683,-0.006560325622558594,0.00875091552734375,-0.020886971945950225,-0.013079705538868636,0.011767282021808042
0.10868162661790848,0.29429370164871216,9.730596542358398,0.001424938440322876,0.0004653334617614746,-0.0035676956176757812,0.015667380068844824,-0.016936481243464762,-0.016570239029649273
0.10868162661790848,0.29429370164871216,9.730596542358398,0.013001583516597748,0.019017547369003296,-0.022098541259765625,0.015667380068844824,-0.016936481243464762,-0.016570239029649273
0.10408395528793335,0.30406832695007324,9.744829177856445,0.0056093111634254456,-0.01145133376121521,0.0037517547607421875,-0.025477979646109497,0.10054274580032811,0.003319498617052642
0.08192802965641022,0.28719088435173035,9.742074012756348,-0.015345990657806396,0.006802469491958618,-0.0033130645751953125,0.004325230632123797,-0.06337005489234196,-0.11415970174631379
0.08192802965641022,0.28719088435173035,9.742074012756348,-0.019802585244178772,0.001988321542739868,-0.0032205581665039062,0.004325230632123797,-0.06337005489234196,-0.11415970174631379
0.08122027665376663,0.27929672598838806,9.746864318847656,-0.0053460001945495605,0.008870035409927368,0.0016107559204101562,-0.0765234651092659,-0.011537890385337429,0.007910506317211916
0.0933074802160263,0.28590238094329834,9.737974166870117,0.002366892993450165,0.006509184837341309,-0.0031375885009765625,0.040148132085812624,0.00927345255680011,0.007910506317211916
0.0933074802160263,0.28590238094329834,9.737974166870117,-0.011701099574565887,-0.0007252693176269531,-0.010034561157226562,0.040148132085812624,0.00927345255680011,0.007910506317211916
0.10150828957557678,0.2777404189109802,9.749950408935547,0.0030233412981033325,-0.02846682071685791,-0.009943008422851562,-0.020886971945950225,-0.016936481243464762,0.007910506317211916
0.08386102318763733,0.26201531291007996,9.749259948730469,-0.006513968110084534,-0.015804678201675415,0.004117012023925781,-0.04767209238468413,0.017313502349564178,0.007910506317211916
0.08386102318763733,0.26201531291007996,9.749259948730469,-0.02023395150899887,-0.02231776714324951,0.004000663757324219,-0.04767209238468413,0.017313502349564178,0.007910506317211916
0.08531569689512253,0.28933456540107727,9.755870819091797,-0.008374534547328949,0.020470112562179565,0.006564140319824219,-0.020886971945950225,-0.024271317339478318,0.05427593815694765
0.09827318787574768,0.2954358458518982,9.742740631103516,-0.017059892416000366,0.01980641484260559,-0.010230064392089844,-0.020886971945950225,0.044098649468724535,-0.02543863935731581
0.09827318787574768,0.2954358458518982,9.742740631103516,0.01609417051076889,0.007645070552825928,0.004024505615234375,-0.020886971945950225,0.044098649468724535,-0.02543863935731581
0.09850006550550461,0.26788631081581116,9.771321296691895,-0.002921000123023987,-0.0019683241844177246,-0.0034961700439453125,0.04795455805946119,-0.016936481243464762,0.05333275840167765
0.10422946512699127,0.28681662678718567,9.742562294006348,0.001702621579170227,-0.0013982057571411133,-0.011198997497558594,-0.08192204929728662,-0.016936481243464762,0.0973886524870235
0.10422946512699127,0.28681662678718567,9.742562294006348,0.01093968003988266,0.010422289371490479,0.0030813217163085938,-0.08192204929728662,-0.016936481243464762,0.0973886524870235
0.10459547489881516,0.2930644750595093,9.722589492797852,0.010705888271331787,0.0006982386112213135,-0.010606765747070312,0.040148132085812624,-0.008124456656877277,0.01672251756358618
0.09593865275382996,0.2993052899837494,9.75327205657959,-0.01299554854631424,0.02369728684425354,-0.0026540756225585938,-0.018514174900458372,0.07580260000735188,0.007910506317211916
0.09593865275382996,0.2993052899837494,9.75327205657959,0.00849924236536026,0.00899919867515564,0.01837921142578125,-0.018514174900458372,0.07580260000735188,0.007910506317211916
0.10983424633741379,0.28722748160362244,9.762493133544922,0.017326995730400085,0.0016582608222961426,0.011219024658203125,0.020792143040256793,-0.016936481243464762,0.007910506317211916
0.09548449516296387,0.2672247290611267,9.748068809509277,0.002541936933994293,-0.012501031160354614,0.001094818115234375,-0.020886971945950225,-0.016936481243464762,0.007910506317211916
0.09153223037719727,0.28521186113357544,9.745268821716309,-0.00920184701681137,-0.01910582184791565,0.0033922195434570312,-0.010688405617636926,-0.05757441926806796,0.06894561034897477
0.09554833173751831,0.29117172956466675,9.749259948730469,0.0028880909085273743,0.0022884011268615723,0.0033369064331054688,-0.010470319811872535,0.044098649468724535,0.018327158451289606
0.09182993322610855,0.2743839919567108,9.74453353881836,-0.01322929561138153,-0.011938154697418213,0.00315093994140625,0.039328842890741664,0.044098649468724535,-0.08405180099807445
0.09182993322610855,0.2743839919567108,9.74453353881836,0.0011872351169586182,-0.004787743091583252,-0.00624847412109375,0.039328842890741664,0.044098649468724535,-0.08405180099807445
0.10673081129789352,0.2718961536884308,9.746670722961426,0.010097801685333252,0.004534333944320679,-0.011018753051757812,-0.020886971945950225,-0.005939990071556626,-0.053124597714550935
0.08225888758897781,0.28016409277915955,9.735784530639648,-0.018492430448532104,-0.008900225162506104,-0.017798423767089844,-0.08410280063322476,-0.04854438224688881,0.007910506317211916
0.08225888758897781,0.28016409277915955,9.735784530639648,-0.013349346816539764,0.005355417728424072,-0.0010023117065429688,-0.08410280063322476,-0.04854438224688881,0.007910506317211916
0.10630552470684052,0.2832878828048706,9.759803771972656,-0.0011528581380844116,0.011624336242675781,0.00804901123046875,-0.008711906286351264,-0.004761415583865803,-0.053124597714550935
0.08361824601888657,0.27756914496421814,9.761237144470215,-0.013102196156978607,-0.011748731136322021,0.01439666748046875,-0.08192204929728662,-0.016936481243464762,-0.11803479356366466
0.08361824601888657,0.27756914496421814,9.761237144470215,-0.01509276032447815,0.0026862025260925293,0.013993263244628906,-0.08192204929728662,-0.016936481243464762,-0.11803479356366466
0.1062280610203743,0.26478156447410583,9.778498649597168,-0.0005398988723754883,0.00490918755531311,0.03159332275390625,-0.0334567611745951,0.044098649468724535,0.05637580778011667
0.10432329773902893,0.2811383306980133,9.748796463012695,0.010853283107280731,-0.017804265022277832,0.0066356658935546875,-0.0487322924903435,-0.016936481243464762,-0.053124597714550935
0.10432329773902893,0.2811383306980133,9.748796463012695,0.0012105181813240051,0.0200883150100708,-0.009855270385742188,-0.0487322924903435,-0.016936481243464762,-0.053124597714550935
0.0954371765255928,0.2907578647136688,9.729801177978516,-0.014975428581237793,0.01915109157562256,-0.012357711791992188,-0.06854305607476714,0.057477649361350636,-0.005468486905307572
0.09914182871580124,0.28842511773109436,9.744468688964844,0.011058613657951355,0.011668235063552856,-0.004441261291503906,-0.04793155953186528,-0.04398106215927321,-0.08711511416039873
0.09914182871580124,0.28842511773109436,9.744468688964844,-0.010335773229598999,-0.0024945437908172607,-0.004321098327636719,-0.04793155953186528,-0.04398106215927321,-0.08711511416039873
0.0943218469619751,0.2750765085220337,9.756073951721191,-0.002996407449245453,-0.009410947561264038,-0.0020761489868164062,-0.006785872981687004,-0.0028353789441482374,0.007910506317211916
0.09086650609970093,0.2896882891654968,9.751301765441895,-0.012102559208869934,0.012069165706634521,0.00004100799560546875,-0.04690362940199159,0.018081965332256724,-0.018106164479042668
0.09086650609970093,0.2896882891654968,9.751301765441895,0.002181731164455414,0.00022426247596740723,0.004693031311035156,-0.04690362940199159,0.018081965332256724,-0.018106164479042668
0.09526754170656204,0.2904755771160126,9.738724708557129,-0.016586273908615112,0.00034627318382263184,-0.0048198699951171875,-0.06967513324927031,0.056345572186847465,0.020157422365228238
0.10743420571088791,0.29000282287597656,9.74799919128418,0.009562335908412933,0.007113128900527954,-0.0020360946655273438,-0.017688095536857063,0.044098649468724535,-0.021007620834336153
0.10514044761657715,0.2815796136856079,9.763632774353027,0.009017348289489746,-0.002317577600479126,0.01430511474609375,-0.07208044039438584,-0.016936481243464762,0.002989701865761519
0.0937059298157692,0.2805573344230652,9.744057655334473,-0.002682298421859741,-0.007268369197845459,-0.012097358703613281,-0.0051935851314277815,0.028405252649042173,-0.053124597714550935
0.09664352238178253,0.2818433940410614,9.732867240905762,0.004252396523952484,0.00005519390106201172,-0.009434700012207031,-0.057131917725365015,-0.053181427022879556,-0.0283344528024161
0.09664352238178253,0.2818433940410614,9.732867240905762,-0.00753890722990036,-0.002240508794784546,-0.025476455688476562,-0.057131917725365015,-0.053181427022879556,-0.0283344528024161
0.09842436015605927,0.2863077223300934,9.745972633361816,0.018084831535816193,0.00017845630645751953,0.007748603820800781,-0.0043306200782657605,0.044098649468724535,-0.03656824584686647
0.09911283850669861,0.2841685116291046,9.748429298400879,0.0013823434710502625,-0.0023232996463775635,0.005383491516113281,0.016276300771500718,-0.05409974062070248,0.007910506317211916
0.11044879257678986,0.29201337695121765,9.748147010803223,0.012895151972770691,0.009258478879928589,-0.0015115737915039062,-0.017618366242342108,-0.013667868869750037,0.01117911202082003
0.10254328697919846,0.28692707419395447,9.755382537841797,0.0009621083736419678,0.0019491314888000488,0.021821022033691406,-0.0035548466587271834,0.0003956540489181947,0.06894561034897477
0.10247929394245148,0.28255733847618103,9.744468688964844,-0.003936901688575745,-0.005139559507369995,-0.004413604736328125,-0.0670749255889714,0.006157508918259054,0.007910506317211916
0.11033163219690323,0.2828163504600525,9.755783081054688,0.011942990124225616,-0.00015786290168762207,0.0074634552001953125,-0.07709002396483318,-0.07797155859480116,-0.050708585048324206
0.08856390416622162,0.2962663173675537,9.74808406829834,-0.0071499645709991455,-0.0002199113368988037,-0.009042739868164062,0.040148132085812624,0.05053916767544946,0.007910506317211916
0.09833383560180664,0.2860921323299408,9.753806114196777,-0.008713267743587494,0.0014717280864715576,0.0074329376220703125,0.01771883805822873,0.06652794349630843,-0.053124597714550935
0.09833383560180664,0.2860921323299408,9.753806114196777,0.014995090663433075,0.0037935078144073486,0.00023651123046875,0.01771883805822873,0.06652794349630843,-0.053124597714550935
0.09523260593414307,0.2833903133869171,9.75263500213623,-0.005906485021114349,0.00559040904045105,0.020669937133789062,-0.044092099424032194,-0.016936481243464762,-0.03420961610781711
0.11236830055713654,0.2898660898208618,9.733335494995117,0.019962839782238007,0.007933497428894043,-0.01701641082763672,0.018642340998995283,0.0010870739651964532,-0.11067744585783781
0.09449668228626251,0.28521186113357544,9.730481147766113,-0.004017747938632965,0.0007737874984741211,-0.0184783935546875,-0.020886971945950225,0.04320769998327463,-0.05223365156415434
0.10954305529594421,0.2835899293422699,9.756446838378906,0.012122400104999542,-0.0015279650688171387,0.00743865966796875,-0.020886971945950225,-0.016936481243464762,0.04923553869395592
0.07841039448976517,0.2979147434234619,9.762776374816895,-0.02307271957397461,0.01728096604347229,0.016542434692382812,-0.019771209852218394,0.044098649468724535,-0.053124597714550935
0.07841039448976517,0.2979147434234619,9.762776374816895,-0.013040348887443542,0.004987567663192749,0.006771087646484375,-0.019771209852218394,0.044098649468724535,-0.053124597714550935
0.10545877367258072,0.26931995153427124,9.742109298706055,-0.0033620819449424744,0.004918158054351807,0.001674652099609375,-0.08192204929728662,0.044098649468724535,0.08944346161543261
0.10557927191257477,0.2699171006679535,9.745189666748047,0.012711308896541595,-0.022289663553237915,-0.009678840637207031,-0.020886971945950225,-0.016936481243464762,0.007910506317211916
0.08957444131374359,0.28048616647720337,9.74695110321045,-0.008447609841823578,-0.0029788315296173096,-0.0026197433471679688,-0.08136718980871566,0.043543789980153555,0.007910506317211916
0.0902537852525711,0.28833019733428955,9.75967788696289,-0.010570414364337921,0.0016952455043792725,0.0114288330078125,0.00042151071719705646,0.02279015846794399,-0.03181611505140365
0.11184055358171463,0.29418784379959106,9.734281539916992,0.01321379840373993,0.013185322284698486,-0.012424468994140625,0.017349761049103424,-0.016936481243464762,0.007910506317211916
0.08310120552778244,0.2759209871292114,9.765096664428711,0.015147209167480469,0.0033356547355651855,-0.02138996124267578,-0.01792053541204906,-0.016936481243464762,0.007910506317211916
0.10741458088159561,0.2769516706466675,9.765161514282227,-0.0012003332376480103,-0.012656331062316895,0.013676643371582031,-0.04298510185038767,-0.05587342869036372,0.007910506317211916
0.10174646973609924,0.29000282287597656,9.743273735046387,0.005247771739959717,0.006578594446182251,-0.010430335998535156,-0.06359989342595553,0.0013856946381861708,-0.053124597714550935
0.08984920382499695,0.29916027188301086,9.747076988220215,-0.008876323699951172,0.015601754188537598,-0.0031976699829101562,-0.020886971945950225,-0.0725644766909576,0.005206965365290131
0.11313343048095703,0.2934550642967224,9.7616605758667,0.016657575964927673,0.0005485415458679199,0.02026844024658203,0.002449876797492503,-0.016936481243464762,-0.029787748971108207
0.10523868352174759,0.3012414276599884,9.733505249023438,0.009079456329345703,0.021628588438034058,-0.015231132507324219,-0.04669897719094243,-0.06036002921173568,0.007910506317211916
0.08077390491962433,0.2989954650402069,9.746039390563965,-0.0028459280729293823,0.002329885959625244,-0.019464492797851562,-0.017884370094002372,0.041096050951829985,0.007910506317211916
0.09792904555797577,0.3038402199745178,9.751260757446289,-0.013738282024860382,0.020477592945098877,-0.0025501251220703125,0.0028093021623512016,-0.030579010378198317,-0.029428323606249508
0.1178533211350441,0.27365779876708984,9.753582954406738,0.01655663549900055,-0.010723382234573364,0.009038925170898438,-0.020886971945950225,-0.016936481243464762,0.007910506317211916
0.10734294354915619,0.2751826345920563,9.748663902282715,0.00619080662727356,-0.00977414846420288,-0.0002593994140625,-0.07812301003551826,0.040299606871902864,-0.10656162322277705
0.09303033351898193,0.2939188480377197,9.75815486907959,-0.000999361276626587,0.0068356990814208984,-0.0049114227294921875,-0.020886971945950225,-0.016936481243464762,0.030201295581011322
0.09835334867238998,0.2835758328437805,9.755218505859375,-0.0005409866571426392,-0.0029526352882385254,-0.0028963088989257812,0.02079709225936241,0.10513375350048738,0.049594563852417936
0.11228741705417633,0.28521186113357544,9.739850044250488,0.01377597451210022,-0.0003503859043121338,-0.0127716064453125,-0.07756055996562358,0.04846014547049419,-0.048763101712781275
0.11603819578886032,0.2787557542324066,9.747123718261719,0.022778920829296112,0.004353046417236328,-0.012418746948242188,-0.05670787236765565,0.008277712361432743,0.033124696587056114
0.11708297580480576,0.2828001081943512,9.746275901794434,0.01724465936422348,-0.0068465471267700195,-0.0005521774291992188,0.009526899932764524,0.013684777590009786,-0.03791766177519356
0.10911916941404343,0.27535662055015564,9.735099792480469,0.006956025958061218,-0.011470407247543335,-0.014173507690429688,-0.17695626087221267,-0.022343683209227336,0.06353840838321219
0.09946618974208832,0.29447945952415466,9.755425453186035,-0.004809156060218811,0.002957850694656372,0.004845619201660156,-0.011883035051941247,0.009079115665625397,0.007910506317211916
0.10290883481502533,0.27689531445503235,9.75784683227539,0.004578582942485809,-0.006769776344299316,0.011500358581542969,-0.06752458415606832,-0.03133395305478968,0.10118575741787457
0.09837781637907028,0.28398680686950684,9.75546646118164,-0.0024255216121673584,0.0006846785545349121,0.006603240966796875,0.03390549259687303,-0.023179120732404357,0.007910506317211916
0.09355568140745163,0.28549954295158386,9.746576309204102,-0.01160413771867752,-0.0016274750232696533,-0.0005693435668945312,-0.020886971945950225,0.044098649468724535,0.03476264798717658
0.08181492239236832,0.29399317502975464,9.75112533569336,-0.022663697600364685,0.012374579906463623,-0.0027418136596679688,-0.007314732394686976,0.030526409917461285,0.021482745868475164
0.10301398485898972,0.2828163504600525,9.76183032989502,-0.00343409925699234,-0.002008199691772461,0.01596832275390625,0.040148132085812624,-0.016936481243464762,0.015467510324236005
0.09636042267084122,0.2957237660884857,9.750762939453125,0.0011614039540290833,0.014373928308486938,0.012894630432128906,-0.020886971945950225,0.015854589951105322,0.007910506317211916
0.09810958057641983,0.28598979115486145,9.745973587036133,-0.001027122139930725,0.0045320987701416016,-0.00579833984375,-0.008105873739858082,-0.07797155859480116,-0.053124597714550935
0.10058600455522537,0.2666628658771515,9.766271591186523,0.0012315213680267334,-0.018416643142700195,0.017615318298339844,-0.06625592987859134,-0.07797155859480116,0.053279490930279484
0.09081009030342102,0.28088557720184326,9.737585067749023,-0.0077889785170555115,-0.012991458177566528,-0.02483081817626953,-0.14295718000947594,0.015656254331017107,0.06894561034897477
0.1014644205570221,0.28187572956085205,9.740104675292969,-0.0006142705678939819,-0.0009511113166809082,-0.012497901916503906,-0.03287031206111281,-0.016936481243464762,0.007910506317211916
0.09051500260829926,0.29448559880256653,9.749597549438477,0.011019006371498108,-0.0054465532302856445,0.001819610595703125,-0.18677046897715407,0.035487735266575574,0.06033470281693242
0.10265520960092545,0.2972908318042755,9.765084266662598,0.0042131394147872925,0.011103987693786621,0.008756637573242188,-0.08192204929728662,0.012286283017236452,0.06894561034897477
0.1054200530052185,0.29171663522720337,9.73532772064209,0.006215669214725494,0.010534346103668213,-0.015337944030761719,-0.020886971945950225,-0.06677116893389096,-0.0032898833436982903
0.1055329442024231,0.29211175441741943,9.729232788085938,0.0013596415519714355,-0.006027013063430786,-0.012584686279296875,-0.020886971945950225,-0.06820939066164144,-0.0018516749561610349
0.08709980547428131,0.2804505228996277,9.739689826965332,0.0011045262217521667,-0.015195250511169434,-0.013971328735351562,-0.08177083798040753,0.044098649468724535,-0.053124597714550935
0.0939132496714592,0.2883684039115906,9.750020980834961,-0.00502360612154007,0.006019175052642822,0.0028333663940429688,-0.031297861107915714,0.044098649468724535,0.058534707846796055
0.09791160374879837,0.27643075585365295,9.748059272766113,-0.007140226662158966,-0.0033278465270996094,-0.006565093994140625,-0.031089180152473313,0.044098649468724535,-0.042922382837921234
0.09429789334535599,0.2756538987159729,9.73355770111084,-0.006895072758197784,-0.005075961351394653,-0.027368545532226562,-0.05232052970276705,0.04348796785792325,-0.022912376498910234
0.10428057610988617,0.2859654724597931,9.753296852111816,0.005135685205459595,0.002188265323638916,0.0060253143310546875,0.040148132085812624,-0.016936481243464762,0.04014304946457479
0.0945175364613533,0.2723301947116852,9.747296333312988,0.007299363613128662,0.006716877222061157,0.0012025833129882812,-0.009883537193059682,-0.016936481243464762,-0.06412803913754808
0.0965457335114479,0.27233701944351196,9.743228912353516,-0.006736323237419128,-0.0022169649600982666,-0.005789756774902344,-0.08192204929728662,-0.016936481243464762,0.00572421879278637
0.0973825454711914,0.285930871963501,9.741754531860352,0.0005012825131416321,0.0008552372455596924,-0.007872581481933594,-0.020886971945950225,0.0963164328492505,0.060128289697737876
0.09872068464756012,0.2850668430328369,9.763705253601074,-0.011084601283073425,0.021826714277267456,0.006317138671875,-0.11928176999465477,-0.054296155250086624,-0.09048429840159924
0.11073151230812073,0.2810311019420624,9.781675338745117,0.023922577500343323,0.007668107748031616,0.03358650207519531,-0.08192204929728662,-0.045510557625893275,-0.024550514662015813
0.09444387257099152,0.2786548137664795,9.748001098632812,-0.007101267576217651,-0.0037141740322113037,-0.000797271728515625,-0.020886971945950225,-0.016936481243464762,-0.098123804957299
0.10348561406135559,0.27901411056518555,9.737776756286621,0.011699028313159943,0.001081615686416626,-0.010091781616210938,-0.06932688698309222,-0.06537639628060675,0.007910506317211916
0.0947796180844307,0.2747493386268616,9.7435884475708,0.004391208291053772,-0.01010197401046753,-0.009410858154296875,-0.05409797971255709,-0.05014748901007163,-0.053124597714550935
0.100941002368927,0.2718471884727478,9.7313871383667,0.0018105953931808472,-0.012014329433441162,-0.0207977294921875,-0.06746802165200416,-0.07074455144226655,0.01513751346974654
0.09671732783317566,0.293439656496048,9.756967544555664,-0.0026735439896583557,0.011128246784210205,0.0074481964111328125,-0.007619689668957467,0.07859917560628865,0.02117778859420467
0.10921967029571533,0.28416192531585693,9.756987571716309,0.013778969645500183,-0.005550861358642578,0.0025844573974609375,0.012974457926648295,0.044098649468724535,0.001222750603777732
0.08499836921691895,0.3024970293045044,9.753533363342285,-0.014624975621700287,0.019822388887405396,0.00444793701171875,0.02697977415997266,-0.02352065687133144,0.007910506317211916
0.0981757715344429,0.3012509346008301,9.760300636291504,0.0022594332695007324,0.01654675602912903,0.013643264770507812,-0.08192204929728662,-0.03108817963648161,0.007910506317211916
0.11006062477827072,0.2814711034297943,9.75163459777832,0.00901302695274353,0.009532839059829712,-0.007941246032714844,-0.047120141062595704,0.044098649468724535,-0.053124597714550935
0.0943218469619751,0.2939085066318512,9.722063064575195,-0.005340658128261566,0.011530578136444092,-0.028677940368652344,0.034509437399996866,-0.06669416922316965,0.007910506317211916
0.09793741255998611,0.27436524629592896,9.740898132324219,-0.005119554698467255,0.0019293725490570068,-0.011580467224121094,-0.06694760659397414,0.044098649468724535,0.007910506317211916
0.0871354341506958,0.27823179960250854,9.753050804138184,-0.011913008987903595,-0.0091647207736969,0.005218505859375,-0.056456315966915555,-0.016936481243464762,-0.04302098702395668
0.09690778702497482,0.3008374273777008,9.757888793945312,-0.0017926394939422607,0.01902782917022705,0.009652137756347656,-0.020886971945950225,0.10028099080657928,0.012763262341013416
0.09555891901254654,0.2964920401573181,9.764634132385254,-0.003947429358959198,0.01621544361114502,0.021085739135742188,-0.06616232160240779,0.044098649468724535,0.023670247352303973
0.1058897152543068,0.2765980660915375,9.746455192565918,0.0007916539907455444,-0.007590770721435547,-0.009774208068847656,0.06481530691246079,0.007730703588343314,0.007910506317211916
0.11524363607168198,0.29000282287597656,9.741914749145508,0.01674150675535202,0.0066058337688446045,-0.0073604583740234375,-0.024947959634559154,0.04003765177495569,0.007910506317211916
0.09931453317403793,0.28825661540031433,9.762378692626953,-0.002500399947166443,0.004182219505310059,0.02104663848876953,-0.08192204929728662,0.027554875754582406,-0.03658082566793546
0.10119650512933731,0.2770881652832031,9.760299682617188,-0.00982828438282013,-0.007364183664321899,0.008505821228027344,-0.020886971945950225,-0.05409038913123338,0.007910506317211916
0.08803099393844604,0.287735253572464,9.737282752990723,-0.011811427772045135,0.0046211183071136475,-0.0126953125,0.02279472915849941,0.044098649468724535,-0.053124597714550935
0.10218936949968338,0.29000282287597656,9.74756908416748,0.0025057196617126465,0.006597578525543213,0.0019731521606445312,0.02279472915849941,0.044098649468724535,-0.053124597714550935
0.09639505296945572,0.2783477008342743,9.748554229736328,0.00008168816566467285,-0.007728010416030884,0.011239051818847656,0.05501850111566837,-0.06310120957526526,-0.053124597714550935
0.08953088521957397,0.28482410311698914,9.741976737976074,-0.009294658899307251,0.001985877752304077,-0.0071048736572265625,-0.08192204929728662,-0.016936481243464762,0.010380446795391332
0.10973874479532242,0.2857338786125183,9.743045806884766,0.019001588225364685,0.0070629119873046875,-0.004328727722167969,-0.08192204929728662,-0.05984325603191546,0.026038815550204236
0.09625847637653351,0.2947937250137329,9.752988815307617,-0.011713452637195587,0.011470645666122437,0.014466285705566406,-0.08192204929728662,0.044098649468724535,-0.053124597714550935
0.09625847637653351,0.2947937250137329,9.752988815307617,-0.011713452637195587,0.011470645666122437,0.014466285705566406,-0.08192204929728662,0.044098649468724535,-0.053124597714550935
0.09647215157747269,0.29050078988075256,9.741496086120605,-0.01765347272157669,-0.007361620664596558,-0.014149665832519531,-0.03982220399635608,0.0019987641471543175,0.007910506317211916
0.10700824111700058,0.2904432713985443,9.739544868469238,0.010662011802196503,0.013588696718215942,-0.00665283203125,-0.06043675544808593,0.044098649468724535,-0.053124597714550935
0.10601907968521118,0.2873271703720093,9.711247444152832,0.007920540869235992,0.004114627838134766,-0.036373138427734375,-0.021779192086709583,-0.016936481243464762,0.06716117006745605
0.10010724514722824,0.2716864347457886,9.748706817626953,0.007950879633426666,-0.009502142667770386,0.009285926818847656,0.0007062575684351857,-0.016936481243464762,-0.011810437611583416
0.09735766798257828,0.29800209403038025,9.74040412902832,0.007600367069244385,0.014085978269577026,-0.0026178359985351562,-0.0001756239070765974,-0.07797155859480116,0.007910506317211916
0.09991828352212906,0.28994014859199524,9.736456871032715,0.00316021591424942,-0.007782310247421265,-0.01586627960205078,0.01962574816723828,0.023576258880043575,-0.01207982987740224
0.09991828352212906,0.28994014859199524,9.736456871032715,0.0008192062377929688,0.013326853513717651,-0.0061092376708984375,0.01962574816723828,0.023576258880043575,-0.01207982987740224
0.08462979644536972,0.2898651361465454,9.749067306518555,-0.022478342056274414,-0.005212545394897461,-0.012835502624511719,0.038043119810446266,-0.017638149778551347,0.007910506317211916
0.08462979644536972,0.2898651361465454,9.749067306518555,-0.01256665587425232,0.006510525941848755,0.0038251876831054688,0.038043119810446266,-0.017638149778551347,0.007910506317211916
0.09204325824975967,0.2955142855644226,9.746377944946289,-0.007501579821109772,0.013145536184310913,-0.0059604644775390625,-0.020886971945950225,0.022760818336487354,0.029248324109235873
0.08608701080083847,0.2831162214279175,9.742522239685059,-0.01430850476026535,0.003600597381591797,-0.008128166198730469,-0.04377888455777686,-0.016936481243464762,-0.011161076052542965
0.10133727639913559,0.2779114246368408,9.728327751159668,-0.002291865646839142,-0.010540485382080078,0.008400917053222656,0.09973080706274284,0.0426462204138919,0.006458077262379283
0.08906962722539902,0.3000459671020508,9.750789642333984,0.000010706484317779541,0.008411049842834473,0.003997802734375,-0.020886971945950225,-0.05590813992516914,-0.03106116570470568
0.08906962722539902,0.3000459671020508,9.750789642333984,-0.009032659232616425,0.012453436851501465,0.013025283813476562,-0.1003109996162237,0.02570970081731412,0.007910506317211916
0.09449643641710281,0.27358362078666687,9.75174331665039,-0.001930631697177887,-0.010763555765151978,0.005444526672363281,-0.08414626304790426,-0.016936481243464762,0.007910506317211916
0.09971389919519424,0.29840025305747986,9.751053810119629,0.005136676132678986,0.02453446388244629,0.0027532577514648438,0.017288229315613808,0.005923431531893973,0.030770415757517346
0.09971389919519424,0.29840025305747986,9.751053810119629,0.005136676132678986,0.02453446388244629,0.0027532577514648438,0.017288229315613808,0.005923431531893973,0.030770415757517346
0.08641903102397919,0.27826425433158875,9.736440658569336,-0.023041032254695892,-0.0021737515926361084,0.01890850067138672,-0.07583756470620853,-0.13292217803548592,0.004868257351566256
0.1001327782869339,0.288146048784256,9.73581600189209,0.024057693779468536,0.0007730424404144287,-0.009241104125976562,-0.14295718000947594,-0.040590993814272586,-0.029470078473636502
0.1001327782869339,0.288146048784256,9.73581600189209,-0.009241193532943726,0.005645632743835449,-0.011319160461425781,-0.14295718000947594,-0.040590993814272586,-0.029470078473636502
0.10195892304182053,0.2709970474243164,9.720964431762695,0.011491775512695312,0.024031609296798706,-0.018270492553710938,0.040148132085812624,-0.020763721715985874,0.004083265844690807
0.10869473218917847,0.286648154258728,9.74734115600586,0.011101357638835907,0.0005969107151031494,-0.0007762908935546875,-0.045326175868835986,0.044098649468724535,-0.02868538045145195
0.10869473218917847,0.286648154258728,9.74734115600586,0.010868683457374573,0.0029430091381073,0.0039014816284179688,-0.045326175868835986,0.044098649468724535,-0.02868538045145195
0.09145959466695786,0.28320208191871643,9.73824691772461,0.015074901282787323,0.002911597490310669,0.002849578857421875,0.09135478733501885,0.044098649468724535,-0.04821036998821932
0.10010431706905365,0.28182485699653625,9.737940788269043,0.0033973008394241333,-0.0044362545013427734,-0.020264625549316406,0.02963804509832328,0.044098649468724535,0.007910506317211916
0.10010431706905365,0.28182485699653625,9.737940788269043,0.0010467544198036194,-0.0019492805004119873,0.0012559890747070312,0.02963804509832328,0.044098649468724535,0.007910506317211916
0.09805832803249359,0.28894832730293274,9.750600814819336,-0.01093350350856781,-0.0063371360301971436,-0.005669593811035156,-0.07654842464820555,-0.016936481243464762,0.0025368816681308297
0.09430216252803802,0.2704910933971405,9.749608039855957,0.0056866854429244995,-0.010803371667861938,0.0012979507446289062,-0.020886971945950225,-0.025799205310405048,-0.0009522377600482035
0.09430216252803802,0.2704910933971405,9.749608039855957,-0.010900914669036865,-0.015127331018447876,0.00592041015625,-0.020886971945950225,-0.025799205310405048,-0.0009522377600482035
0.09076081961393356,0.2806668281555176,9.73660945892334,0.0034985095262527466,-0.0006747543811798096,0.005524635314941406,-0.027154524283083174,-0.004401359893932333,-0.053124597714550935
0.10524460673332214,0.2876073122024536,9.743700981140137,0.005906008183956146,0.004051089286804199,-0.005969047546386719,0.040148132085812624,-0.016936481243464762,0.007910506317211916
0.10524460673332214,0.2876073122024536,9.743700981140137,0.008042402565479279,0.0038721561431884766,0.0011854171752929688,0.040148132085812624,-0.016936481243464762,0.007910506317211916
0.10887715220451355,0.2998613119125366,9.765380859375,-0.00555042177438736,0.01785716414451599,-0.0034656524658203125,-0.013838563568040854,-0.009888072865555392,-0.10006289833070826
0.10367769747972488,0.28521186113357544,9.73050308227539,0.008269339799880981,0.0007045865058898926,-0.006319999694824219,0.012510485310763443,0.044098649468724535,-0.1083998912646493
0.10367769747972488,0.28521186113357544,9.73050308227539,0.003457479178905487,0.0006175637245178223,-0.022446632385253906,0.012510485310763443,0.044098649468724535,-0.1083998912646493
0.10177673399448395,0.2800978124141693,9.70729923248291,-0.023784153163433075,-0.006696909666061401,-0.014619827270507812,0.040148132085812624,0.044098649468724535,-0.00032019179777079305
0.09739819914102554,0.2994370460510254,9.745059967041016,0.009364642202854156,0.01686379313468933,-0.008450508117675781,-0.053285814191347036,0.044098649468724535,-0.020725742128940898
0.09739819914102554,0.2994370460510254,9.745059967041016,-0.007125794887542725,0.011872529983520508,0.010409355163574219,-0.053285814191347036,0.044098649468724535,-0.020725742128940898
0.10629922151565552,0.286272794008255,9.74415111541748,0.00911702960729599,-0.020572692155838013,-0.015131950378417969,-0.1170376526459089,-0.016936481243464762,0.06894561034897477
0.12276966869831085,0.28012290596961975,9.738530158996582,0.03174687922000885,0.0032971203327178955,-0.005507469177246094,-0.023417463651947388,-0.04618876739602777,0.03969331085619854
0.12276966869831085,0.28012290596961975,9.738530158996582,0.016860000789165497,-0.010631173849105835,-0.00302886962890625,-0.023417463651947388,-0.04618876739602777,0.03969331085619854
0.0934218242764473,0.2662695646286011,9.760642051696777,0.002561718225479126,-0.0029595792293548584,0.0024347305297851562,0.030622486133091036,0.05362429542144612,-0.04359895176182934
0.0916624441742897,0.2947937250137329,9.734698295593262,0.009715043008327484,0.011294186115264893,0.004122734069824219,0.10022252732213087,0.014061438510352188,-0.08412250412815467
0.0916624441742897,0.2947937250137329,9.734698295593262,-0.023081369698047638,0.010912001132965088,-0.01927947998046875,0.10022252732213087,0.014061438510352188,-0.08412250412815467
0.09820909053087234,0.28513291478157043,9.757683753967285,-0.014757320284843445,-0.009574532508850098,0.02071666717529297,-0.020886971945950225,-0.1284990035578812,-0.002597152751470903
0.09820909053087234,0.28513291478157043,9.757683753967285,0.00405333936214447,0.004699826240539551,0.013155937194824219,-0.020886971945950225,-0.1284990035578812,-0.002597152751470903
0.10287170857191086,0.28408509492874146,9.75522518157959,-0.0036728158593177795,-0.002573341131210327,0.012502670288085938,0.010233637748875726,-0.07797155859480116,0.03903111601203787
0.10500279068946838,0.29066964983940125,9.739875793457031,0.0012654662132263184,0.000024378299713134766,0.007610321044921875,0.040148132085812624,-0.016936481243464762,-0.053124597714550935
0.08225766569375992,0.27597716450691223,9.740025520324707,0.008191563189029694,0.009271949529647827,-0.006572723388671875,0.037936284712852424,-0.016936481243464762,-0.021501115342082797
0.08225766569375992,0.27597716450691223,9.740025520324707,-0.012559205293655396,-0.016794979572296143,-0.013517379760742188,0.037936284712852424,-0.016936481243464762,-0.021501115342082797
0.09578432142734528,0.2895362973213196,9.742603302001953,-0.005424246191978455,0.004142552614212036,-0.00836944580078125,-0.058149509189991136,-0.02882275129711251,-0.04123832099079658
0.09578432142734528,0.2895362973213196,9.742603302001953,-0.0006412342190742493,0.0064913928508758545,0.0011739730834960938,-0.058149509189991136,-0.02882275129711251,-0.04123832099079658
0.09513068199157715,0.29351818561553955,9.745744705200195,0.004288040101528168,0.010995149612426758,0.0010366439819335938,-0.08588569345000965,0.011599275376481595,0.04040986706924163
0.10497935116291046,0.2807793617248535,9.744827270507812,0.013249695301055908,-0.0009350776672363281,0.0036945343017578125,-0.011751954116815181,-0.06883654076566613,0.007910506317211916
0.0943218469619751,0.28196993470191956,9.748167991638184,-0.003633849322795868,-0.010064393281936646,0.0058841705322265625,-0.020886971945950225,0.044098649468724535,0.007910506317211916
0.0943218469619751,0.28196993470191956,9.748167991638184,-0.0034601986408233643,0.008881419897079468,0.0033893585205078125,-0.020886971945950225,0.044098649468724535,0.007910506317211916
0.10123922675848007,0.2836131453514099,9.726101875305176,-0.005970589816570282,-0.005732983350753784,-0.022744178771972656,-0.03446512121167112,-0.003358325307637256,0.05536746108325387
0.10629922151565552,0.271127313375473,9.741308212280273,0.008051760494709015,-0.010202407836914062,0.0015935897827148438,-0.04773081600329038,0.044098649468724535,-0.026280740316997557
0.10629922151565552,0.271127313375473,9.741308212280273,0.007900819182395935,-0.014440983533859253,-0.0054416656494140625,-0.04773081600329038,0.044098649468724535,-0.026280740316997557
0.0899200588464737,0.28170251846313477,9.73934268951416,0.0008547753095626831,-0.005169183015823364,0.011476516723632812,0.011768095774814625,-0.002746453082805845,-0.006279518508393696
0.10117258876562119,0.2920398414134979,9.755416870117188,0.0011734962463378906,0.013486146926879883,0.013698577880859375,0.013907479109549224,0.044098649468724535,0.042704957372711363
0.10117258876562119,0.2920398414134979,9.755416870117188,0.005871467292308807,0.001501619815826416,0.010986328125,0.013907479109549224,0.044098649468724535,0.042704957372711363
0.0936671569943428,0.28768178820610046,9.73909854888916,0.0016819685697555542,-0.002551823854446411,-0.005276679992675781,0.010579249322942338,0.044098649468724535,-0.023555708281574033
0.0936671569943428,0.28768178820610046,9.73909854888916,-0.005275927484035492,0.006767451763153076,-0.00279998779296875,0.010579249322942338,0.044098649468724535,-0.023555708281574033
0.10543935000896454,0.28899702429771423,9.730334281921387,-0.0031951218843460083,0.004036962985992432,-0.004588127136230469,0.014521315680777675,0.018471823058529666,-0.02749778130951598
0.08790779858827591,0.2725391983985901,9.740914344787598,0.006180688738822937,-0.019280433654785156,0.0025186538696289062,-0.005136942586084278,-0.016936481243464762,-0.00783952304265403
0.08790779858827591,0.2725391983985901,9.740914344787598,-0.014980010688304901,-0.0070653557777404785,-0.0022096633911132812,-0.005136942586084278,-0.016936481243464762,-0.00783952304265403
0.08473995327949524,0.2803795039653778,9.750144004821777,-0.011956989765167236,-0.008998841047286987,-0.004942893981933594,-0.09370739396779817,-0.016936481243464762,0.06894561034897477
0.11369142681360245,0.29914015531539917,9.743167877197266,0.022990956902503967,0.021392732858657837,-0.0019559860229492188,-0.009559756877931987,0.027529347589054152,-0.03655530584004047
0.11369142681360245,0.29914015531539917,9.743167877197266,0.013112246990203857,0.013744324445724487,0.0027561187744140625,-0.009559756877931987,0.027529347589054152,-0.03655530584004047
0.10577667504549026,0.27791669964790344,9.75958251953125,0.010205812752246857,0.0020611584186553955,-0.0004367828369140625,-0.020886971945950225,-0.016936481243464762,-0.029264465767235317
0.10427064448595047,0.27140000462532043,9.72603988647461,0.00011511147022247314,0.013038277626037598,-0.02550506591796875,-0.0036579531667252857,-0.034165493352583086,-0.053124597714550935
0.10427064448595047,0.27140000462532043,9.72603988647461,0.0070731863379478455,-0.02222427725791931,-0.010824203491210938,-0.0036579531667252857,-0.034165493352583086,-0.053124597714550935
0.11067710816860199,0.2779428958892822,9.74331283569336,-0.005403362214565277,0.025508642196655273,0.008145332336425781,0.05488041656860039,-0.016936481243464762,-0.006821784835682462
0.10584655404090881,0.27439919114112854,9.74641227722168,-0.0005169510841369629,-0.0010163486003875732,-0.0012273788452148438,-0.020886971945950225,-0.035078924432366515,0.007910506317211916
0.10584655404090881,0.27439919114112854,9.74641227722168,0.008784696459770203,-0.012598037719726562,0.008121490478515625,-0.020886971945950225,-0.035078924432366515,0.007910506317211916
0.10432261228561401,0.27695992588996887,9.745115280151367,-0.00319787859916687,0.004463225603103638,0.0007505416870117188,-0.020886971945950225,0.044098649468724535,0.007910506317211916
0.11884830892086029,0.27802544832229614,9.737818717956543,0.01361587643623352,-0.00489380955696106,-0.015870094299316406,-0.021810581608422554,0.10513375350048738,-0.037634922626045446
0.11884830892086029,0.27802544832229614,9.737818717956543,0.02040129154920578,-0.004825294017791748,0.000873565673828125,-0.021810581608422554,0.10513375350048738,-0.037634922626045446
0.11302212625741959,0.29646795988082886,9.75249195098877,-0.006448134779930115,0.016015052795410156,0.012208938598632812,-0.020886971945950225,0.0014400259915888455,-0.053124597714550935
0.09796954691410065,0.27907463908195496,9.747725486755371,0.014848455786705017,-0.01756313443183899,0.0024194717407226562,-0.1038642721297906,0.044098649468724535,-0.011635947622630746
0.09796954691410065,0.27907463908195496,9.747725486755371,-0.011109650135040283,0.0017933249473571777,0.007002830505371094,-0.1038642721297906,0.044098649468724535,-0.011635947622630746
0.09128478914499283,0.2853294610977173,9.73067855834961,0.003346167504787445,0.011009126901626587,-0.028049468994140625,0.040148132085812624,-0.07797155859480116,0.007910506317211916
0.08795427531003952,0.2867731750011444,9.742907524108887,-0.006596781313419342,-0.007869124412536621,0.011853218078613281,-0.020886971945950225,-0.07797155859480116,-0.053124597714550935
0.08795427531003952,0.2867731750011444,9.742907524108887,-0.015856057405471802,0.008685678243637085,-0.0047779083251953125,-0.020886971945950225,-0.07797155859480116,-0.053124597714550935
0.09669096767902374,0.3090611696243286,9.749286651611328,-0.005947239696979523,0.01572251319885254,0.009772300720214844,-0.08192204929728662,0.044098649468724535,-0.052452944659215385
0.10306846350431442,0.2883321940898895,9.747809410095215,0.0014498904347419739,0.000692516565322876,0.011626243591308594,0.040148132085812624,0.044098649468724535,-0.053124597714550935
0.10306846350431442,0.2883321940898895,9.747809410095215,0.003814220428466797,0.005263715982437134,0.0019884109497070312,0.040148132085812624,0.044098649468724535,-0.053124597714550935
0.10407658666372299,0.2828163504600525,9.751482963562012,0.010895967483520508,-0.001977592706680298,0.0022678375244140625,-0.0804543323581008,-0.016936481243464762,0.06747789340978894
0.100644551217556,0.2756299376487732,9.755778312683105,-0.0013085901737213135,-0.008790254592895508,0.015923500061035156,0.0011206846324109984,-0.11699900604820279,-0.09215204516795256
0.100644551217556,0.2756299376487732,9.755778312683105,0.0008317902684211731,-0.008513420820236206,0.010824203491210938,0.0011206846324109984,-0.11699900604820279,-0.09215204516795256
0.07835038006305695,0.2946166396141052,9.751301765441895,-0.0017958655953407288,0.005965232849121094,-0.000705718994140625,-0.020886971945950225,-0.016936481243464762,0.010166469775299527
0.09642200917005539,0.28672122955322266,9.755844116210938,-0.007958836853504181,-0.010723918676376343,0.015372276306152344,-0.05906858317996775,0.06695212225615002,0.06894561034897477
0.09642200917005539,0.28672122955322266,9.755844116210938,-0.0006811991333961487,0.01067131757736206,0.010282516479492188,-0.05906858317996775,0.06695212225615002,0.06894561034897477
0.10809739679098129,0.27586886286735535,9.735127449035645,-0.003383524715900421,-0.0038913190364837646,-0.0037317276000976562,-0.014799085600500342,0.0990458671550375,0.06894561034897477
0.10028234124183655,0.2798823118209839,9.74407958984375,0.012918703258037567,-0.0013525187969207764,-0.00339508056640625,0.06380411875018155,-0.05431557860053885,0.007910506317211916
0.10028234124183655,0.2798823118209839,9.74407958984375,-0.008530184626579285,-0.006039172410964966,0.003688812255859375,0.06380411875018155,-0.05431557860053885,0.007910506317211916
0.12094022333621979,0.26650387048721313,9.7163667678833,-0.009840436279773712,-0.010625660419464111,0.01778888702392578,0.040148132085812624,-0.07797155859480116,-0.04925284762061235
0.10781411081552505,0.27900299429893494,9.737528800964355,0.012927591800689697,-0.0029941201210021973,-0.021478652954101562,0.004021260533631784,0.019190406983982607,0.03281873879679392
0.10781411081552505,0.27900299429893494,9.737528800964355,0.0033254697918891907,-0.005205035209655762,0.0070629119873046875,0.004021260533631784,0.019190406983982607,0.03281873879679392
0.10594448447227478,0.2761620283126831,9.74411392211914,0.000657297670841217,-0.0005562901496887207,-0.0025653839111328125,-0.011848510580120947,-0.016936481243464762,0.007910506317211916
0.08879853039979935,0.2876073122024536,9.730353355407715,-0.022749505937099457,0.004393637180328369,-0.021188735961914062,-0.020886971945950225,-0.027530204697753708,-0.01731016729625851
0.09853728860616684,0.27858221530914307,9.730652809143066,0.0011138543486595154,-0.009650886058807373,-0.01582622528076172,-0.06678225465107901,-0.016936481243464762,0.007910506317211916
0.08953088521957397,0.27080610394477844,9.74250316619873,-0.010590247809886932,0.011612415313720703,0.005572319030761719,-0.020886971945950225,0.038626070453010905,-0.04765202203389061
0.11211393773555756,0.2937699854373932,9.72669792175293,0.01332438737154007,0.009224146604537964,-0.024875640869140625,0.06623225100012109,0.01801452388430946,0.042861491434666305
0.11211393773555756,0.2937699854373932,9.72669792175293,0.010695114731788635,0.011231571435928345,-0.0055522918701171875,0.06623225100012109,0.01801452388430946,0.042861491434666305
0.10384086519479752,0.27157649397850037,9.757795333862305,-0.017894119024276733,-0.004743099212646484,-0.012952804565429688,-0.020886971945950225,-0.016936481243464762,0.001646782621273875
0.09564629197120667,0.28123852610588074,9.741313934326172,-0.005768671631813049,0.0028682053089141846,0.007805824279785156,-0.08192204929728662,0.0376417794956419,0.007910506317211916
0.09564629197120667,0.28123852610588074,9.741313934326172,-0.003307938575744629,-0.004062354564666748,-0.0063877105712890625,-0.08192204929728662,0.0376417794956419,0.007910506317211916
0.09487517178058624,0.27618324756622314,9.737931251525879,-0.0010090693831443787,-0.0014436841011047363,0.019059181213378906,-0.020886971945950225,-0.009887332483721534,0.0008613642275752994
0.10697203129529953,0.28367769718170166,9.741023063659668,-0.0007735118269920349,0.005818098783493042,-0.01620960235595703,0.0458621189350572,0.0107240906880076,-0.04741061753541297
0.10697203129529953,0.28367769718170166,9.741023063659668,0.013193123042583466,-0.001497894525527954,0.012192726135253906,0.0458621189350572,0.0107240906880076,-0.04741061753541297
0.10132663697004318,0.2702599763870239,9.752779006958008,-0.0009828880429267883,0.009582459926605225,-0.0041904449462890625,0.09655486248017947,0.03947027249627522,0.01253887995460792
0.10531900078058243,0.2945733070373535,9.761237144470215,0.0038064122200012207,-0.001958996057510376,0.0188751220703125,-0.08192204929728662,0.044098649468724535,-0.053124597714550935
0.10531900078058243,0.2945733070373535,9.761237144470215,0.006105236709117889,0.021519720554351807,0.01834583282470703,-0.08192204929728662,0.044098649468724535,-0.053124597714550935
0.10015837103128433,0.2988876700401306,9.721211433410645,0.006562352180480957,0.01154133677482605,-0.01687908172607422,-0.0031272261238741387,-0.008056601662320109,-0.044244724803512894
0.09445571154356003,0.27569687366485596,9.739811897277832,-0.010060422122478485,-0.010113120079040527,-0.0065097808837890625,0.041853344841001845,-0.015231241807849098,0.007910506317211916
0.09445571154356003,0.27569687366485596,9.739811897277832,-0.0003924816846847534,-0.0053417980670928955,0.0029888153076171875,0.041853344841001845,-0.015231241807849098,0.007910506317211916
0.11385218799114227,0.28354939818382263,9.748697280883789,0.016291655600070953,0.0034576356410980225,0.017063140869140625,-0.01154824906090484,-0.016936481243464762,0.07828434657423337
0.10276675969362259,0.28898727893829346,9.743291854858398,-0.0007935836911201477,-0.005950748920440674,0.00014972686767578125,0.009114767385463012,0.044098649468724535,-0.053124597714550935
0.10276675969362259,0.28898727893829346,9.743291854858398,0.006291002035140991,0.015208721160888672,0.002471923828125,0.009114767385463012,0.044098649468724535,-0.053124597714550935
0.09552647918462753,0.29397690296173096,9.754439353942871,0.0011341944336891174,-0.006100952625274658,0.0023393630981445312,0.040148132085812624,0.023636593329396455,-0.053124597714550935
0.10506345331668854,0.2923475205898285,9.744418144226074,0.0013112127780914307,0.003101825714111328,-0.0027723312377929688,-0.1121163679467825,0.04345212937510051,0.038104798286281334
0.10506345331668854,0.2923475205898285,9.744418144226074,0.008432529866695404,0.012569576501846313,0.006611824035644531,-0.1121163679467825,0.04345212937510051,0.038104798286281334
0.0901966392993927,0.2902360260486603,9.756446838378906,-0.01709970086812973,-0.004455596208572388,0.013955116271972656,0.051166327784634064,0.03308044709979648,0.029946897714854794
0.08941973745822906,0.2768832743167877,9.75062370300293,-0.011721715331077576,-0.006995111703872681,0.0108642578125,-0.018054244369179993,-0.04603766280085446,-0.021190688580391005
0.08941973745822906,0.2768832743167877,9.75062370300293,-0.00686490535736084,-0.008994907140731812,0.0035734176635742188,-0.018054244369179993,-0.04603766280085446,-0.021190688580391005
0.09362844377756119,0.3029842972755432,9.745009422302246,0.020820222795009613,0.011874854564666748,-0.005805015563964844,0.040148132085812624,-0.016936481243464762,-0.04130763673870163
0.09177713096141815,0.29419681429862976,9.748662948608398,-0.009642980992794037,-0.0006452202796936035,-0.0034170150756835938,0.0363457644408452,0.044098649468724535,0.036526877845662935
0.09177713096141815,0.29419681429862976,9.748662948608398,-0.004647530615329742,0.017837703227996826,0.015313148498535156,0.0363457644408452,0.044098649468724535,0.036526877845662935
0.09523215144872665,0.2871122658252716,9.734807968139648,-0.009531654417514801,-0.0008940994739532471,-0.01780414581298828,0.027534400194812243,-0.016936481243464762,0.007910506317211916
0.11894209682941437,0.28933730721473694,9.725091934204102,-0.0023085400462150574,0.0013931989669799805,-0.0056629180908203125,-0.026311716292100624,-0.016936481243464762,0.03571568616001814
0.11894209682941437,0.28933730721473694,9.725091934204102,0.025253280997276306,-0.003468334674835205,-0.0142822265625,-0.026311716292100624,-0.016936481243464762,0.03571568616001814
0.10232441127300262,0.28334280848503113,9.768187522888184,-0.003680706024169922,-0.0012407004833221436,0.01645374298095703,-0.05509473376412938,-0.016936481243464762,0.007910506317211916
0.09353554993867874,0.28042083978652954,9.738892555236816,-0.0037292614579200745,-0.005396783351898193,-0.0010833740234375,-0.11593407016684938,0.010086631934215086,0.007910506317211916
0.09353554993867874,0.28042083978652954,9.738892555236816,-0.010539792478084564,-0.005110949277877808,-0.008044242858886719,-0.11593407016684938,0.010086631934215086,0.007910506317211916
0.12165714800357819,0.2866223156452179,9.754334449768066,0.03168012201786041,-0.008906722068786621,-0.0035305023193359375,-0.006531528476383365,-0.06361612846544754,0.007910506317211916
0.09192639589309692,0.26741743087768555,9.748916625976562,-0.009511895477771759,-0.01562511920928955,0.0031290054321289062,-0.08192204929728662,0.0004571757772478945,-0.02698168848057012
0.09192639589309692,0.26741743087768555,9.748916625976562,-0.009074293076992035,-0.017384469509124756,0.007694244384765625,-0.08192204929728662,0.0004571757772478945,-0.02698168848057012
0.09129484742879868,0.2798328697681427,9.748541831970215,-0.0033907145261764526,-0.005750000476837158,0.023054122924804688,-0.03586847162205751,-0.001954971562197561,0.0228920059933192
0.09672224521636963,0.28820741176605225,9.762240409851074,-0.014711715281009674,0.0015556812286376953,0.0038690567016601562,-0.07177042717930394,-0.016936481243464762,0.03335224060399539
0.09672224521636963,0.28820741176605225,9.762240409851074,0.0136127769947052,0.008737385272979736,0.034030914306640625,-0.07177042717930394,-0.016936481243464762,0.03335224060399539
0.10985083132982254,0.2964862585067749,9.73835563659668,0.005728267133235931,0.004356682300567627,-0.018369674682617188,0.09906172199845266,-0.0011473183681100813,-0.021546285304054794
0.0952896699309349,0.28480014204978943,9.74824333190918,-0.006409920752048492,-0.005952119827270508,0.007880210876464844,0.07652390533630225,-0.016936481243464762,-0.053124597714550935
0.0952896699309349,0.28480014204978943,9.74824333190918,-0.003928452730178833,0.010448276996612549,-0.00630950927734375,0.07652390533630225,-0.016936481243464762,-0.053124597714550935
0.09298848360776901,0.26584210991859436,9.734203338623047,0.008142605423927307,-0.024572640657424927,0.0056743621826171875,0.040148132085812624,0.027528455462294887,-0.053124597714550935
0.09298848360776901,0.26584210991859436,9.734203338623047,-0.012968339025974274,-0.014641791582107544,-0.017772674560546875,0.040148132085812624,0.027528455462294887,-0.053124597714550935
0.11254926770925522,0.2915708124637604,9.754355430603027,0.01056169718503952,-0.0005709528923034668,0.019942283630371094,-0.007569703890012081,0.08127482884246842,0.007910506317211916
0.09969203919172287,0.288265198469162,9.74191665649414,0.0007714182138442993,-0.0007962286472320557,0.010249137878417969,-0.15971907788249545,0.02934090518900128,-0.03836686010493429
0.08306854963302612,0.28376370668411255,9.743837356567383,-0.020125627517700195,0.006283283233642578,-0.0061054229736328125,0.06664280940226232,-0.016936481243464762,0.007910506317211916
0.08306854963302612,0.28376370668411255,9.743837356567383,-0.012608245015144348,-0.008032530546188354,0.0033855438232421875,0.06664280940226232,-0.016936481243464762,0.007910506317211916
0.09335186332464218,0.2869535982608795,9.749715805053711,-0.0029769688844680786,-0.014741569757461548,0.010899543762207031,-0.0027268863250614773,0.025938562180309134,0.0326254524474105
0.09671732783317566,0.2858599126338959,9.73142147064209,-0.0026451274752616882,0.0039543211460113525,-0.01971435546875,0.017887018126327075,0.005324639386127402,0.030171613606590857
0.09671732783317566,0.2858599126338959,9.73142147064209,-0.002501867711544037,-0.0007776319980621338,-0.0028657913208007812,0.017887018126327075,0.005324639386127402,0.030171613606590857
0.10516393929719925,0.2937067449092865,9.754791259765625,-0.007008716464042664,0.018322139978408813,0.010481834411621094,0.021273464603437743,0.0019381929090167337,-0.03424993023217605
0.10249413549900055,0.2811257243156433,9.734746932983398,-0.00020579248666763306,-0.0010215342044830322,-0.00865936279296875,-0.020886971945950225,-0.016936481243464762,-0.053124597714550935
0.09675290435552597,0.29236263036727905,9.734745979309082,-0.002734348177909851,0.008547097444534302,-0.010321617126464844,-0.020886971945950225,0.044098649468724535,0.008817013826332768
0.09262373298406601,0.28675827383995056,9.751261711120605,-0.0002596452832221985,0.0060166120529174805,-0.01935291290283203,-0.06222126243067077,0.0027643189633643206,0.027611293183827778
0.07999371737241745,0.2876073122024536,9.755677223205566,-0.021101512014865875,0.0035521388053894043,0.008618354797363281,0.060873020441107276,-0.05724667690961313,-0.07384948606984558
0.07999371737241745,0.2876073122024536,9.755677223205566,-0.013551108539104462,0.0032837986946105957,0.013042449951171875,0.060873020441107276,-0.05724667690961313,-0.07384948606984558
0.1102852076292038,0.27482491731643677,9.738049507141113,0.009808450937271118,-0.011812567710876465,-0.014965057373046875,0.0201347573429629,-0.016936481243464762,0.007910506317211916
0.10869473218917847,0.2893683612346649,9.732590675354004,0.009049147367477417,0.012026697397232056,-0.007479667663574219,0.020221101873046706,-0.03811750483937593,-0.012016517225447394
0.09922020882368088,0.2921834886074066,9.744227409362793,0.008873477578163147,-0.01156306266784668,-0.021246910095214844,-0.0812381232457862,0.044098649468724535,-0.053124597714550935
0.09152671694755554,0.2861553430557251,9.761636734008789,0.008691258728504181,0.007148027420043945,0.0002956390380859375,0.021650779194228056,-0.016936481243464762,0.04767673477888563
0.09953530132770538,0.2798575460910797,9.743858337402344,0.006639935076236725,-0.013774454593658447,0.0018911361694335938,-0.04362424480609955,0.044098649468724535,-0.011238395928381625
0.08006487041711807,0.26919668912887573,9.725595474243164,-0.01442921906709671,0.014487922191619873,-0.007475852966308594,0.09970694809139408,0.044098649468724535,0.06599303429661196
0.0875924751162529,0.2911217510700226,9.747526168823242,-0.018029682338237762,-0.004222482442855835,0.00024509429931640625,-0.020886971945950225,0.044098649468724535,-0.008954564764871834
0.1089191660284996,0.2828047573566437,9.746156692504883,0.019942715764045715,0.004939407110214233,-0.004557609558105469,-0.020886971945950225,-0.016936481243464762,-0.028769850681577967
0.09405113011598587,0.293710857629776,9.754321098327637,-0.010909989476203918,-0.01845449209213257,0.01652812957763672,-0.07962279684729141,0.04179940035378263,0.0033120014172214954
0.10360158979892731,0.29778623580932617,9.749561309814453,0.001275867223739624,0.009795337915420532,0.008826255798339844,-0.036099203949957,0.005974958105466579,0.09185702635253297
0.10360158979892731,0.29778623580932617,9.749561309814453,0.008195780217647552,0.014318108558654785,0.001590728759765625,-0.036099203949957,0.005974958105466579,0.09185702635253297
0.10593291372060776,0.2753857374191284,9.752463340759277,0.0011343732476234436,-0.014448165893554688,-0.02146148681640625,-0.017775860799649084,-0.013825370097163623,-0.053124597714550935
0.11734629422426224,0.2753516435623169,9.74739933013916,0.017228640615940094,0.004913032054901123,-0.0001697540283203125,0.01644319350902307,0.0067684706735380165,0.0452406651020786
0.10104969888925552,0.2690996527671814,9.757529258728027,0.006851233541965485,-0.015498250722885132,0.013678550720214844,-0.15967646924146223,-0.016936481243464762,-0.1308790043185133
0.0983491912484169,0.2842954695224762,9.742837905883789,-0.011990174651145935,-0.012403547763824463,0.008630752563476562,-0.1468486269282378,-0.016936481243464762,-0.060907491552074686
0.1062978059053421,0.2708375155925751,9.76746654510498,0.00003583729267120361,-0.018733471632003784,0.02710247039794922,0.027918818449143634,0.044098649468724535,0.007910506317211916
0.1062978059053421,0.2708375155925751,9.76746654510498,0.011752106249332428,-0.006735682487487793,0.017038345336914062,0.027918818449143634,0.044098649468724535,0.007910506317211916
0.1090579554438591,0.29203498363494873,9.75129222869873,0.014190949499607086,0.004669815301895142,0.00019073486328125,0.030893359162577575,-0.012309088111740626,0.012537892778829442
0.09374495595693588,0.2832302451133728,9.750163078308105,-0.009802646934986115,-0.0027321577072143555,0.021012306213378906,-0.020886971945950225,-0.016936481243464762,0.007910506317211916
0.1081208661198616,0.2785992920398712,9.734313011169434,0.011548839509487152,-0.007504701614379883,-0.009571075439453125,0.11631462642945281,0.02896725248674059,-0.037993207402673604
0.09475197643041611,0.28106603026390076,9.734027862548828,-0.0004450976848602295,0.004079610109329224,-0.020941734313964844,-0.004448053975265023,-0.016936481243464762,0.11902143573361415
0.11041730642318726,0.29654327034950256,9.751009941101074,0.006734736263751984,-0.0004360079765319824,-0.008414268493652344,-0.011971520686247291,0.00912336515288503,-0.027064757988307753
0.10517163574695587,0.29000014066696167,9.739818572998047,0.006222590804100037,0.015211671590805054,-0.0039424896240234375,0.007843298322996049,0.044098649468724535,-0.0387594625800778
0.10795960575342178,0.2825164198875427,9.741093635559082,0.0014646202325820923,-0.02497047185897827,-0.01314544677734375,-0.008400038781631423,-0.010693014661305364,0.007910506317211916
0.08961645513772964,0.2795311510562897,9.753965377807617,-0.003526657819747925,0.0014750957489013672,0.001285552978515625,-0.08192204929728662,-0.016936481243464762,0.03276050876607692
0.09938091784715652,0.29812008142471313,9.749659538269043,0.00858008861541748,0.011229604482650757,0.005542755126953125,-0.04802071217683246,0.000014200656975544089,0.007910506317211916
0.09224051982164383,0.28328266739845276,9.748739242553711,-0.024190671741962433,0.022495955228805542,-0.0015974044799804688,-0.0686643719738142,0.044098649468724535,0.062316765017131945
0.0862199142575264,0.2634236514568329,9.745384216308594,-0.002480648458003998,-0.017441540956497192,-0.010958671569824219,-0.0877536701467288,-0.04453822950473171,0.007910506317211916
0.08884864300489426,0.29718923568725586,9.766422271728516,-0.015857063233852386,0.014184951782226562,0.02172088623046875,-0.008139090870782557,-0.016936481243464762,0.007910506317211916
0.09053011238574982,0.2846679985523224,9.744234085083008,0.014831148087978363,0.01372450590133667,0.01180267333984375,-0.013023863406318493,-0.016936481243464762,0.007910506317211916
0.09783031046390533,0.2829858958721161,9.736169815063477,0.0009026080369949341,-0.002772301435470581,-0.011685371398925781,-0.016567170780608056,0.007101412380096387,0.04058795891576442
0.09334497153759003,0.2813665568828583,9.743492126464844,-0.0061281099915504456,-0.0026764273643493652,-0.004124641418457031,-0.06987395578714115,0.044098649468724535,0.06894561034897477
0.0908869281411171,0.27904248237609863,9.753372192382812,0.0010988414287567139,0.002091705799102783,0.0029745101928710938,0.08390779339633561,-0.008298753212738217,0.016548227677831852
0.09244993329048157,0.28260695934295654,9.73957347869873,-0.01729200780391693,0.004372924566268921,-0.004300117492675781,-0.020886971945950225,0.044098649468724535,0.037094090371678115
0.09272578358650208,0.2891158163547516,9.742694854736328,-0.0005428120493888855,0.006687432527542114,-0.0016078948974609375,0.02884794428978354,0.044098649468724535,-0.04182440991852185
0.0892198234796524,0.27717655897140503,9.740914344787598,-0.021415457129478455,0.0018785595893859863,-0.0108795166015625,0.030296484672461765,0.044098649468724535,0.007910506317211916
0.11346247047185898,0.2947937250137329,9.752836227416992,0.002637304365634918,0.011218398809432983,-0.0034885406494140625,0.040148132085812624,-0.047404714491061935,0.03837875290502231
0.09115895628929138,0.2844443917274475,9.738551139831543,-0.00775638222694397,-0.001170337200164795,-0.010861396789550781,0.019407182113797872,-0.016936481243464762,-0.0024599753389020727
0.11107417941093445,0.2764497399330139,9.742491722106934,0.0017493441700935364,0.008312851190567017,0.010396957397460938,-0.08192204929728662,-0.06773103729590253,-0.053124597714550935
0.11461827158927917,0.27794724702835083,9.732414245605469,0.010533593595027924,-0.012420475482940674,-0.020000457763671875,-0.020886971945950225,0.07428423027855954,-0.053124597714550935
0.1140022873878479,0.2820647954940796,9.742074012756348,0.01687048375606537,-0.00041800737380981445,-0.002994537353515625,-0.011312447451980729,0.034524118304648424,-0.0854361282644053
0.10194146633148193,0.285874605178833,9.777395248413086,0.0023353472352027893,0.004162013530731201,0.03909587860107422,0.09014621737789684,0.033061627393992585,0.06894561034897477
0.10026878863573074,0.2827327847480774,9.748187065124512,-0.00018809735774993896,-0.0029056668281555176,0.005404472351074219,-0.050340081668367474,-0.01906531246954022,0.03736362937984239
0.08753844350576401,0.2954401969909668,9.736233711242676,-0.014075696468353271,0.013796836137771606,-0.008683204650878906,-0.13404423670985885,0.03518570283405416,-0.0010024369824051527
0.09040670096874237,0.28135550022125244,9.743593215942383,0.004921272397041321,0.0019038617610931396,-0.015432357788085938,-0.08192204929728662,0.03219156201234279,-0.053124597714550935
0.09879080206155777,0.29000282287597656,9.751182556152344,-0.004067584872245789,0.006754368543624878,0.015229225158691406,-0.020886971945950225,0.015632225271949754,0.040479196157359905
0.08891300857067108,0.2822744846343994,9.747249603271484,-0.00881166011095047,-0.0027637481689453125,-0.0013303756713867188,-0.08192204929728662,-0.016936481243464762,-0.10628812217128565
0.10563823580741882,0.2928938567638397,9.756528854370117,0.012707695364952087,0.008809864521026611,0.0074710845947265625,-0.03351537807149556,-0.016936481243464762,-0.004717899808333417
0.08255826681852341,0.28933951258659363,9.763846397399902,-0.017516598105430603,-0.0012824535369873047,0.013731002807617188,0.06794205945876552,0.010857459469701354,0.1076340429637484
0.11827665567398071,0.2853527069091797,9.744187355041504,0.020204536616802216,0.0032434165477752686,-0.0029478073120117188,0.09400250616471033,-0.016936481243464762,0.0007297763643467725
0.10893476009368896,0.2703118622303009,9.745810508728027,0.01961781084537506,-0.015545696020126343,-0.005191802978515625,0.1353577541244037,-0.06454127225244047,-0.053124597714550935
0.09436041116714478,0.2777506709098816,9.746079444885254,0.0046430304646492004,-0.00810176134109497,0.0019617080688476562,0.040148132085812624,-0.023936491327802244,-0.053124597714550935
0.09436041116714478,0.2777506709098816,9.746079444885254,-0.016370728611946106,-0.0032863616943359375,-0.005078315734863281,0.040148132085812624,-0.023936491327802244,-0.053124597714550935
0.11403574049472809,0.27083897590637207,9.727540969848633,0.01679026335477829,-0.012575119733810425,-0.03469562530517578,-0.08192204929728662,0.10513375350048738,0.06894561034897477
0.10973047465085983,0.29725298285484314,9.743369102478027,0.009285546839237213,0.00711667537689209,0.0062007904052734375,-0.11656714332554494,0.10513375350048738,0.016165577001752463
0.10254872590303421,0.2953825294971466,9.747405052185059,0.004299089312553406,0.013426810503005981,-0.0006160736083984375,-0.020886971945950225,0.038344391850813994,0.007910506317211916
0.10763642191886902,0.2762148678302765,9.755694389343262,-0.009822443127632141,-0.005542844533920288,0.029677391052246094,-0.020886971945950225,-0.016936481243464762,0.05404215092022017
0.08513334393501282,0.2756299376487732,9.736709594726562,-0.012116804718971252,-0.007433891296386719,-0.017820358276367188,-0.04639268589534967,0.02861657830175597,-0.01759522097240076
0.08694580942392349,0.2964307367801666,9.751276016235352,-0.011576630175113678,0.014201104640960693,0.005858421325683594,-0.0674273473418882,-0.07797155859480116,0.0030789345520080332
0.09717323631048203,0.2805026173591614,9.73975944519043,-0.013710729777812958,0.0043222010135650635,0.0010442733764648438,0.010671376835458175,-0.03271564562900904,-0.053124597714550935
0.10334643721580505,0.27710631489753723,9.754510879516602,0.012152604758739471,-0.009561896324157715,0.010560989379882812,-0.04555022474991091,-0.04159973404742545,0.03257377246138583
0.10334643721580505,0.27710631489753723,9.754510879516602,-0.0069490596652030945,0.0001564621925354004,0.005606651306152344,-0.04555022474991091,-0.04159973404742545,0.03257377246138583
0.10824386775493622,0.27802544832229614,9.74356746673584,0.01452966034412384,-0.00445026159286499,0.008023262023925781,0.012145136891233874,-0.00042042015476610224,0.02442655740075066
0.10217517614364624,0.2892017960548401,9.748726844787598,0.00941910594701767,-0.004240125417709351,0.0009851455688476562,0.040148132085812624,0.0576726632683464,-0.029394052598480443
0.10106238722801208,0.2939019203186035,9.760345458984375,0.002309836447238922,0.011590301990509033,0.014773368835449219,-0.08192204929728662,-0.016936481243464762,0.06326492067193401
0.09534863382577896,0.2773410975933075,9.747206687927246,-0.0022659748792648315,-0.004765421152114868,0.0028352737426757812,0.0052745869061159014,-0.016936481243464762,-0.053124597714550935
0.1042306199669838,0.2960280179977417,9.728935241699219,0.002527587115764618,0.009375244379043579,-0.020534515380859375,-0.06712900681337616,0.044098649468724535,0.007910506317211916
0.10419907420873642,0.280322402715683,9.734395980834961,0.004670381546020508,-0.0028786659240722656,-0.010358810424804688,0.04516423902052586,0.04159059600136792,-0.053124597714550935
0.11277518421411514,0.2662304639816284,9.746500015258789,0.011501960456371307,-0.005397409200668335,-0.02170848846435547,0.033421102784650866,0.025995950110066456,-0.053124597714550935
0.09648451209068298,0.28024327754974365,9.729220390319824,-0.0006912127137184143,-0.009340465068817139,-0.014437675476074219,0.01782550640315729,0.044098649468724535,0.007910506317211916
0.09877695143222809,0.27124205231666565,9.753714561462402,-0.00041703134775161743,-0.011808991432189941,0.009709358215332031,0.09775995064165037,-0.015224838505502212,0.009622149055174467
0.09044225513935089,0.28521186113357544,9.73546028137207,-0.011980362236499786,0.002528458833694458,-0.0022058486938476562,-0.020886971945950225,0.044098649468724535,0.026817924023048483
0.10178757458925247,0.2761884927749634,9.748554229736328,-0.0019942820072174072,-0.016274213790893555,0.0028295516967773438,0.018617101315577967,0.044098649468724535,0.007910506317211916
0.09668019413948059,0.2876444458961487,9.742036819458008,-0.0022280365228652954,0.004767805337905884,-0.0021123886108398438,0.040148132085812624,-0.01788262919617681,-0.054070745667262984
0.1024448499083519,0.2867536246776581,9.755924224853516,-0.004618853330612183,0.006895869970321655,-0.004380226135253906,-0.0012456023890281848,-0.07797155859480116,-0.03137223279663216
0.103798046708107,0.2779196500778198,9.750022888183594,0.009028762578964233,-0.0002708137035369873,0.006857872009277344,-0.00009296794594886497,-0.05717755459479981,-0.012883497682789442
0.11819741129875183,0.26605790853500366,9.74687385559082,-0.005221202969551086,-0.014304399490356445,0.0020112991333007812,-0.02076077352886366,0.04397245438669128,-0.05299839929746437
0.08631502091884613,0.2899370789527893,9.74528980255127,-0.019510529935359955,-0.011160731315612793,0.0065593719482421875,0.040148132085812624,-0.016936481243464762,0.007910506317211916
0.10799334943294525,0.29334941506385803,9.750127792358398,0.013952597975730896,0.019020825624465942,0.008784294128417969,-0.08192204929728662,0.044098649468724535,-0.0331331009213864
0.10620200634002686,0.2803722321987152,9.749187469482422,0.006898872554302216,-0.002103149890899658,0.0039615631103515625,-0.02150621130353386,0.10451450747279714,0.007910506317211916
0.10857806354761124,0.2960018217563629,9.755609512329102,0.01118188351392746,0.021472305059432983,0.01059722900390625,-0.06058616583617996,-0.03529977833237461,0.029246403118531807
0.09940975904464722,0.29006221890449524,9.758782386779785,0.01077774167060852,0.009038448333740234,0.0107269287109375,0.040148132085812624,-0.016936481243464762,-0.053124597714550935
0.09940975904464722,0.29006221890449524,9.758782386779785,-0.0011918246746063232,0.006391078233718872,0.012759208679199219,0.040148132085812624,-0.016936481243464762,-0.053124597714550935
0.10876693576574326,0.2699744403362274,9.728492736816406,0.017637185752391815,-0.011935263872146606,-0.027210235595703125,-0.03786734249091761,-0.016936481243464762,0.06894561034897477
0.0864112600684166,0.29691097140312195,9.744023323059082,-0.013261526823043823,0.018607109785079956,-0.005490303039550781,0.058599601314017785,-0.05952009603670262,0.03204267189256445
0.10313967615365982,0.2622121572494507,9.760951042175293,0.003979191184043884,-0.02178102731704712,0.015387535095214844,0.0425817004726404,0.10026661672683183,0.06407847357531922
0.10422293096780777,0.27594906091690063,9.73190689086914,0.008602224290370941,-0.002409607172012329,-0.010662078857421875,-0.005963248733310371,0.044098649468724535,-0.015145184092349582
0.08682139217853546,0.28350359201431274,9.750948905944824,-0.01948481798171997,0.00021758675575256348,0.011010169982910156,-0.003376581389432495,0.02658824557199358,0.11247032382421988
0.10162997245788574,0.278390496969223,9.74410343170166,0.0018371641635894775,-0.0046468377113342285,-0.0007181167602539062,0.040148132085812624,-0.016936481243464762,0.011010851911442352
0.10862093418836594,0.2885507643222809,9.730892181396484,0.015734128654003143,0.0070590972900390625,0.0016326904296875,0.07714523910736185,0.020060645788404295,-0.053124597714550935
0.09995137155056,0.28593015670776367,9.747440338134766,-0.003387860953807831,0.008935689926147461,-0.0047283172607421875,-0.0373671645363464,-0.016936481243464762,-0.036644391783941535
0.11318135261535645,0.26395687460899353,9.732531547546387,0.012720882892608643,-0.01858675479888916,-0.014568328857421875,-0.08192204929728662,-0.016936481243464762,0.007910506317211916
0.08771954476833344,0.28223228454589844,9.749129295349121,-0.0018398091197013855,-0.01104786992073059,-0.009504318237304688,-0.057173565871046224,-0.1027200553612548,0.10523221761428399
0.11580606549978256,0.27684643864631653,9.763558387756348,0.019676052033901215,-0.0060301125049591064,0.022966384887695312,-0.0664241232869029,0.0286007134531809,0.053447684338591046
0.09708802402019501,0.27600061893463135,9.751470565795898,-0.004229642450809479,-0.005760788917541504,0.005921363830566406,-0.020886971945950225,-0.016936481243464762,0.007910506317211916
0.09169084578752518,0.29777270555496216,9.744705200195312,0.0006213858723640442,0.020051300525665283,-0.010546684265136719,-0.05662148114682557,0.008364106917316132,-0.053124597714550935
0.10365241765975952,0.28521186113357544,9.74854564666748,0.001087196171283722,0.003007560968399048,0.0035457611083984375,-0.039097230108769476,0.025888369628058797,-0.0713348692175834
0.1017909049987793,0.2760067582130432,9.751466751098633,0.0007831379771232605,-0.006308048963546753,0.005741119384765625,-0.023287223150254353,-0.016936481243464762,0.0031100039086036577
0.09167034178972244,0.286323606967926,9.741774559020996,0.0015437975525856018,-0.0016478300094604492,-0.010881423950195312,-0.05685566858994973,0.044098649468724535,-0.08909330102865706
0.09167034178972244,0.286323606967926,9.741774559020996,0.0015437975525856018,-0.0016478300094604492,-0.010881423950195312,-0.05685566858994973,0.044098649468724535,-0.08909330102865706
0.1017565205693245,0.26109564304351807,9.74826717376709,0.0036980658769607544,-0.0017511844635009766,-0.005496025085449219,-0.014562176753878747,-0.010611686051393288,0.014235301509283392
0.10073721408843994,0.281963050365448,9.738338470458984,0.003670796751976013,-0.00585860013961792,-0.0076351165771484375,-0.020886971945950225,0.009957405288726974,0.015157857294911129
0.08897768706083298,0.27691903710365295,9.745758056640625,-0.015476591885089874,-0.012621879577636719,-0.006762504577636719,-0.06782686004748106,0.03705105150876844,-0.053124597714550935
0.08897768706083298,0.27691903710365295,9.745758056640625,-0.010313205420970917,-0.0028205513954162598,0.0027360916137695312,-0.06782686004748106,0.03705105150876844,-0.053124597714550935
0.08693923056125641,0.2756299376487732,9.755778312683105,-0.0022269636392593384,-0.004961162805557251,0.0044612884521484375,0.006795144429876767,0.044098649468724535,-0.019771610058615077
0.10003954917192459,0.271456778049469,9.743541717529297,0.007126480340957642,-0.0048132240772247314,-0.0070476531982421875,0.03227741295453736,0.03622792366734265,0.11423926277797386
0.10003954917192459,0.271456778049469,9.743541717529297,0.000008665025234222412,-0.009401768445968628,0.0001354217529296875,0.03227741295453736,0.03622792366734265,0.11423926277797386
0.10772155225276947,0.26717087626457214,9.734737396240234,0.011872909963130951,-0.013410031795501709,-0.011328697204589844,-0.02470140581377756,0.10513375350048738,-0.053124597714550935
0.10356283187866211,0.27871614694595337,9.7420654296875,0.002463601529598236,-0.010243207216262817,0.012576103210449219,-0.12558325983422622,-0.016936481243464762,-0.035750690879514456
0.10356283187866211,0.27871614694595337,9.7420654296875,0.004698663949966431,0.0019210577011108398,-0.004082679748535156,-0.12558325983422622,-0.016936481243464762,-0.035750690879514456
0.10889198631048203,0.2751367688179016,9.759038925170898,0.013697989284992218,-0.014807909727096558,0.019044876098632812,0.037635016007538005,-0.016936481243464762,0.039684613037177345
0.10967700928449631,0.27305474877357483,9.73603630065918,0.015618078410625458,-0.007072180509567261,-0.011769294738769531,-0.181409784334899,-0.0056452213851349575,-0.0033807435359579714
0.09249290823936462,0.2828163504600525,9.755715370178223,-0.0051460862159729,0.004903584718704224,0.011638641357421875,-0.08192204929728662,0.044098649468724535,-0.001409513588895268
0.09174954891204834,0.2765977382659912,9.734922409057617,0.004486925899982452,0.01421937346458435,-0.011980056762695312,-0.05095394492002237,0.0741656424531165,0.0388786240346894
0.11027214676141739,0.28280171751976013,9.766817092895508,-0.004803933203220367,-0.006656348705291748,0.014355659484863281,0.040148132085812624,0.003533058755481239,-0.0023242653497877377
0.11027214676141739,0.28280171751976013,9.766817092895508,-0.004803933203220367,-0.006656348705291748,0.014355659484863281,0.040148132085812624,0.003533058755481239,-0.0023242653497877377
0.1074330061674118,0.2863968014717102,9.737436294555664,0.0019736140966415405,0.0072640180587768555,0.00632476806640625,-0.08127012641730742,0.044098649468724535,0.007910506317211916
0.09065920114517212,0.28610289096832275,9.757575035095215,-0.010060414671897888,0.009395629167556763,0.011404037475585938,-0.020886971945950225,-0.016936481243464762,-0.0016723691502349776
0.08690372854471207,0.29176443815231323,9.744006156921387,-0.0028197020292282104,-0.00014734268188476562,0.018073081970214844,-0.020886971945950225,0.03307232290994387,-0.053124597714550935
0.10754092037677765,0.2880467176437378,9.748281478881836,0.009452082216739655,0.020434796810150146,0.008409500122070312,-0.10908088246924073,0.044098649468724535,-0.023726623093383026
0.09987105429172516,0.2984990179538727,9.744468688964844,-0.009738937020301819,0.026744365692138672,-0.0010929107666015625,-0.020886971945950225,-0.016936481243464762,-0.04478148162274069
0.0789778083562851,0.26941463351249695,9.737282752990723,0.0021507367491722107,0.016719520092010498,-0.0010633468627929688,-0.020886971945950225,0.011656771695471352,-0.02453135811582804
0.0789778083562851,0.26941463351249695,9.737282752990723,-0.02302142232656479,-0.006575435400009155,-0.007800102233886719,-0.020886971945950225,0.011656771695471352,-0.02453135811582804
0.10489431023597717,0.29710832238197327,9.720019340515137,0.010139048099517822,0.007827997207641602,-0.026458740234375,-0.06930290127971783,0.03147949144599582,0.007910506317211916
0.09932596981525421,0.2932509183883667,9.740317344665527,0.0027742385864257812,0.02121424674987793,0.0028676986694335938,-0.020886971945950225,0.010865470267741574,-0.058555825404327556
0.09932596981525421,0.2932509183883667,9.740317344665527,-0.0018879696726799011,0.002028226852416992,-0.011187553405761719,-0.020886971945950225,0.010865470267741574,-0.058555825404327556
0.08924203366041183,0.28439632058143616,9.746337890625,-0.0024199560284614563,0.00883665680885315,0.00029754638671875,-0.007468291589093259,-0.016936481243464762,-0.053124597714550935
0.10685043781995773,0.27802544832229614,9.754877090454102,-0.011694014072418213,0.0016380846500396729,0.0026178359985351562,0.01314151741683593,0.01007014343067185,0.041939002350104684
0.10685043781995773,0.27802544832229614,9.754877090454102,0.0023155659437179565,-0.003008902072906494,0.002086639404296875,0.01314151741683593,0.01007014343067185,0.041939002350104684
0.08953088521957397,0.27618733048439026,9.749259948730469,-0.00915798544883728,-0.0028801262378692627,0.004048347473144531,0.05435010307235915,-0.002734500251758323,0.08314757466541468
0.10153166949748993,0.26330363750457764,9.74344539642334,0.010017655789852142,-0.018988996744155884,-0.00083160400390625,-0.020886971945950225,0.018025803034589238,0.03398333941113399
0.10153166949748993,0.26330363750457764,9.74344539642334,-0.006594531238079071,-0.013767868280410767,-0.0031375885009765625,-0.020886971945950225,0.018025803034589238,0.03398333941113399
0.10088024288415909,0.27374571561813354,9.740267753601074,0.007554955780506134,0.010150134563446045,-0.0032262802124023438,0.025137303950935278,-0.016936481243464762,-0.007100315147558821
0.10088024288415909,0.27374571561813354,9.740267753601074,0.0003298819065093994,-0.011158734560012817,-0.005463600158691406,0.025137303950935278,-0.016936481243464762,-0.007100315147558821
0.0943218469619751,0.284614235162735,9.756649017333984,-0.004275649785995483,0.0006493031978607178,0.0011730194091796875,-0.020886971945950225,-0.016936481243464762,0.04352520706313436
0.10551293939352036,0.28752401471138,9.736662864685059,-0.008687913417816162,0.0005464255809783936,-0.010789871215820312,0.040148132085812624,-0.016936481243464762,0.053156187339462244
0.10551293939352036,0.28752401471138,9.736662864685059,0.012482531368732452,0.009781688451766968,-0.008160591125488281,0.040148132085812624,-0.016936481243464762,0.053156187339462244
0.09814595431089401,0.2866838276386261,9.73534870147705,-0.002011626958847046,0.01193949580192566,-0.0123748779296875,-0.045522196961930064,-0.04157169958933799,0.04431038533299493
0.09976515918970108,0.27236828207969666,9.726823806762695,0.002745397388935089,-0.01620808243751526,-0.0076885223388671875,-0.020886971945950225,0.044098649468724535,-0.008710412182470324
0.09976515918970108,0.27236828207969666,9.726823806762695,0.0004129558801651001,-0.004078418016433716,-0.021450042724609375,-0.020886971945950225,0.044098649468724535,-0.008710412182470324
0.11213253438472748,0.2904187738895416,9.756446838378906,0.006966531276702881,0.014521539211273193,0.011422157287597656,-0.020886971945950225,0.02022057493462441,0.021189487961200962
0.1200198233127594,0.2612570524215698,9.72704792022705,0.006528779864311218,-0.018838733434677124,-0.030676841735839844,0.005475677280234598,-0.016936481243464762,0.007910506317211916
0.1200198233127594,0.2612570524215698,9.72704792022705,0.02495051920413971,-0.018381863832473755,-0.011191368103027344,0.005475677280234598,-0.016936481243464762,0.007910506317211916
0.11102914810180664,0.2759522497653961,9.736376762390137,-0.0018909424543380737,0.0008001029491424561,-0.008374214172363281,0.040148132085812624,-0.016936481243464762,-0.053124597714550935
0.09405948221683502,0.27750059962272644,9.768686294555664,-0.0021329596638679504,0.006833761930465698,0.020295143127441406,0.040148132085812624,-0.07797155859480116,0.03271260406039427
