Accelerometer_Gx,Accelerometer_Gy,Accelerometer_Gz,Accelerometer_X,Accelerometer_Y,Accelerometer_Z,Gyroscope_Z,Gyroscope_X,Gyroscope_Y
0.08830341696739197,0.28925657272338867,9.744468688964844,-0.020759254693984985,-0.008470386266708374,0.008792877197265625,0.10547629015540616,-0.045600687441479014,-0.029388209585088906
0.09608925133943558,0.300173819065094,9.754717826843262,-0.0016239657998085022,0.005462914705276489,0.021721839904785156,0.014419709946767124,-0.08087150750600049,0.011386805800483953
0.09933259338140488,0.27804726362228394,9.735547065734863,0.0025252029299736023,-0.017657816410064697,-0.0023889541625976562,-0.07762899525945594,-0.025435661154713848,0.001975298712095621
0.10929153114557266,0.29952895641326904,9.733526229858398,-0.0021784603595733643,-0.003184020519256592,-0.0022602081298828125,0.04444118612364332,-0.019836426819610776,0.031050333451568865
0.10077057033777237,0.2876073122024536,9.74870777130127,0.0012718364596366882,-0.005902409553527832,0.011755943298339844,-0.07762899525945594,-0.03391582792706731,-0.003623935623007449
0.09987577795982361,0.28974848985671997,9.736159324645996,0.0005916506052017212,-0.0031492114067077637,-0.0029058456420898438,0.08603694478752841,-0.08087150750600049,-0.003623935623007449
0.1012447252869606,0.2947937250137329,9.729293823242188,0.0005821734666824341,0.001764535903930664,-0.00460052490234375,-0.08434481878151065,0.07507415099422077,0.030251508143581494
0.11400412768125534,0.28029608726501465,9.754497528076172,0.014450490474700928,-0.016703903675079346,0.023214340209960938,-0.0033839185067049697,0.04119870389257852,-0.0646590396547703
0.10956605523824692,0.29929426312446594,9.727991104125977,0.008748777210712433,0.006874591112136841,-0.009672164916992188,-0.0628285622974201,-0.012436203668486249,-0.011024152104025365
0.11559493839740753,0.2787167429924011,9.72619915008545,0.0037919357419013977,-0.007113218307495117,-0.0070285797119140625,-0.011432842876315425,-0.019836426819610776,-0.03156095679309343
0.09100291877985,0.2986033260822296,9.726286888122559,-0.011121377348899841,0.0075976550579071045,-0.010977745056152344,-0.016593917908119534,-0.019836426819610776,-0.003623935623007449
0.09047908335924149,0.28647610545158386,9.73425579071045,-0.0038444921374320984,0.002746284008026123,-0.005993843078613281,0.03638806625697433,-0.019836426819610776,-0.10958790395319518
0.11812085658311844,0.29180288314819336,9.737722396850586,0.008159764111042023,0.00514569878578186,-0.01275634765625,-0.016593917908119534,-0.019836426819610776,-0.003623935623007449
0.09192639589309692,0.28459957242012024,9.742663383483887,-0.009023420512676239,-0.011326253414154053,0.0035276412963867188,0.07505608167541064,0.010778492077529692,0.011586175287096923
0.11465655267238617,0.29718923568725586,9.764053344726562,0.016814880073070526,0.005307495594024658,0.028626441955566406,-0.06924375077428847,-0.08087150750600049,0.004761308862160022
0.10159048438072205,0.29132378101348877,9.740259170532227,-0.002215258777141571,-0.004128247499465942,0.020842552185058594,0.014970620732224188,0.00963415524707488,0.02794059634722966
0.10869473218917847,0.30351555347442627,9.743608474731445,0.0070250630378723145,0.012163221836090088,0.0066986083984375,-0.005636693653832359,-0.008879192560163686,-0.014581159877294624
0.09054504334926605,0.27941837906837463,9.761860847473145,-0.014283433556556702,-0.01636621356010437,0.027421951293945312,-0.006941193084238681,-0.010183695325623313,-0.013276660446888302
0.10277508199214935,0.28641724586486816,9.73604679107666,-0.009163334965705872,-0.006668567657470703,0.0033731460571289062,0.04444118612364332,0.010485657722025312,0.0574111684087554
0.0943218469619751,0.29639503359794617,9.742060661315918,-0.00698205828666687,0.005132436752319336,0.0011882781982421875,0.024206130387565687,0.00039863892162676957,-0.003623935623007449
0.10226806253194809,0.28246545791625977,9.744118690490723,-0.006618805229663849,0.0004602968692779541,0.015122413635253906,-0.027013064662069864,0.10223380458928806,-0.10485584350852588
0.09196734428405762,0.2949986159801483,9.733628273010254,-0.00627579540014267,0.014582037925720215,-0.008668899536132812,0.045485284591942905,-0.018792301670884744,-0.003623935623007449
0.09192639589309692,0.2772895097732544,9.748891830444336,-0.008190199732780457,-0.013362914323806763,0.0102386474609375,-0.0682537201901804,0.04119870389257852,-0.0646590396547703
0.09192639589309692,0.2810523211956024,9.739047050476074,-0.007603608071804047,-0.007689416408538818,-0.0019083023071289062,-0.06639252032177838,0.04119870389257852,-0.01486042390089823
0.09879980981349945,0.29000282287597656,9.724472999572754,-0.007317930459976196,-0.0003624856472015381,-0.006518363952636719,-0.07762899525945594,0.04119870389257852,-0.06731740397461347
0.11039010435342789,0.29651108384132385,9.73866081237793,0.009129278361797333,0.006898611783981323,0.0012693405151367188,-0.06898960637218317,0.04119870389257852,0.04877176618126941
0.11489511281251907,0.2866213023662567,9.732491493225098,0.020588815212249756,0.002076476812362671,-0.005755424499511719,0.03247063927296128,0.04119870389257852,0.045440621558073366
0.11109021306037903,0.28826096653938293,9.7417631149292,0.010471194982528687,-0.009531140327453613,-0.000782012939453125,-0.016593917908119534,0.04119870389257852,-0.003623935623007449
0.10274975001811981,0.2914671301841736,9.742694854736328,0.0005145296454429626,0.0023380815982818604,0.0036554336547851562,-0.06972110362403566,-0.07296361587058021,0.004283956012412822
0.10919834673404694,0.2965629994869232,9.744972229003906,0.009780220687389374,-0.004685074090957642,0.008210182189941406,-0.016593917908119534,-0.019836426819610776,0.009207855393330881
0.08650999516248703,0.29735681414604187,9.741615295410156,-0.009386837482452393,-0.0023324191570281982,-0.0014944076538085938,-0.022426619314832745,0.007764781163020653,0.02397725901941076
0.09459661692380905,0.2839154303073883,9.743370056152344,-0.006088219583034515,-0.007487893104553223,0.005314826965332031,-0.030595965789204344,0.02719665601149371,0.003377088317534957
0.09485521912574768,0.29239821434020996,9.73116397857666,-0.0037269890308380127,0.002266526222229004,-0.004153251647949219,-0.04377385529739192,-0.033426388844140356,0.009966033071628742
0.09911283850669861,0.28597667813301086,9.733834266662598,-0.0010894611477851868,-0.007120311260223389,-0.0037984848022460938,-0.0434346536957788,0.014357944759546111,-0.03781829052689781
0.10106154531240463,0.28521186113357544,9.726725578308105,-0.0011954084038734436,-0.004341781139373779,-0.010519981384277344,-0.07142252775866964,-0.0684585725044279,-0.009830403123793742
0.11095593869686127,0.2778911292552948,9.73093032836914,0.017540745437145233,-0.004194796085357666,-0.019544601440429688,0.030037717886474805,0.13446198548692712,-0.01802740386017596
0.12306761741638184,0.2879481911659241,9.756103515625,0.02172400802373886,-0.012964338064193726,0.016002655029296875,-0.051473959771655704,-0.019836426819610776,0.005101070752728488
0.09519058465957642,0.3030725419521332,9.762981414794922,-0.007275693118572235,0.014970988035202026,0.024309158325195312,-0.01106019736015305,0.10223380458928806,0.0574111684087554
0.10210444033145905,0.28100621700286865,9.752847671508789,0.00018580257892608643,-0.011224836111068726,0.011527061462402344,0.04444118612364332,0.10223380458928806,-0.03427989235107419
0.09796225279569626,0.28703203797340393,9.727861404418945,0.0025810301303863525,0.0009602904319763184,-0.016747474670410156,-0.11343316705378012,0.04119870389257852,-0.03942810741733163
0.09468407928943634,0.27319347858428955,9.731224060058594,-0.006558246910572052,-0.01737627387046814,-0.0068416595458984375,-0.02120863116717551,-0.07625679424694451,0.052796455149699426
0.08673746883869171,0.2878369390964508,9.735170364379883,-0.001750849187374115,0.01351115107536316,-0.02295684814453125,-0.07762899525945594,0.02520857904265741,-0.003623935623007449
0.09144458174705505,0.3014983832836151,9.745423316955566,-0.0058261677622795105,0.01587092876434326,0.01018524169921875,-0.05319200581196514,0.004600582638199853,-0.003623935623007449
0.11812672764062881,0.301380455493927,9.764082908630371,0.018010340631008148,0.012617319822311401,0.023865699768066406,0.15887110722899572,-0.019836426819610776,-0.003623935623007449
0.11588117480278015,0.2889252007007599,9.734352111816406,0.015148445963859558,0.002877354621887207,0.03019237518310547,0.00019586101053540472,0.024408921638870276,-0.003623935623007449
0.08915827423334122,0.2814784646034241,9.744220733642578,-0.02523946762084961,-0.004083573818206787,-0.005039215087890625,-0.04037499575187754,0.003944674369520372,-0.003623935623007449
0.09824343025684357,0.28042083978652954,9.74005126953125,-0.0013997405767440796,-0.00820884108543396,-0.00075531005859375,0.04444118612364332,0.04119870389257852,-0.0646590396547703
0.0806383565068245,0.2889513373374939,9.741745948791504,-0.01946186274290085,0.00383913516998291,-0.0009069442749023438,0.000970874037920289,-0.002271621533357732,-0.0646590396547703
0.08995368331670761,0.2789413630962372,9.76025104522705,-0.0166250541806221,-0.014972686767578125,0.015423774719238281,0.02020644097871498,0.004398328330477479,0.02061080285181428
0.10517828911542892,0.2906753718852997,9.754877090454102,0.007087893784046173,0.001814514398574829,0.014317512512207031,-0.02230602378729971,-0.019836426819610776,-0.058946927105483514
0.09089260548353195,0.2886161506175995,9.731104850769043,-0.004786364734172821,0.008879512548446655,-0.0023870468139648438,-0.12131627257303265,0.06753811113227612,-0.003623935623007449
0.09105883538722992,0.306978315114975,9.749881744384766,-0.006487056612968445,0.016069859266281128,0.0003833770751953125,-0.03341982212418149,0.08540788703301289,0.0963416725326678
0.1019345298409462,0.2855772078037262,9.74422550201416,0.0035774782299995422,-0.0036793053150177,0.002105712890625,-0.016593917908119534,0.039647247099940615,-0.0020724821654228534
0.10015437006950378,0.29134729504585266,9.754656791687012,0.019744999706745148,0.010424941778182983,-0.007267951965332031,-0.016593917908119534,-0.019836426819610776,0.0574111684087554
0.10701382905244827,0.2944161295890808,9.746024131774902,0.009991772472858429,0.01256135106086731,0.0039958953857421875,0.004820192563324936,-0.019836426819610776,0.01779017484843702
0.0892474576830864,0.29942724108695984,9.756163597106934,-0.009023994207382202,0.010083228349685669,0.013158798217773438,-0.016593917908119534,0.04039631674766069,-0.004426322767925275
0.08087575435638428,0.29083332419395447,9.73650074005127,-0.029763519763946533,-0.0018150508403778076,-0.008167266845703125,-0.057692473484982076,0.0623607343599139,-0.0646590396547703
0.10946284234523773,0.28596171736717224,9.747705459594727,0.015835583209991455,0.0030654966831207275,-0.0008087158203125,-0.0571292630229337,0.020698946643156493,-0.024123681199742907
0.09911628812551498,0.2780185639858246,9.754056930541992,0.0012533888220787048,-0.010504305362701416,0.010424613952636719,-0.016593917908119534,-0.019836426819610776,0.05723550448103914
0.0952158197760582,0.2837512493133545,9.750802040100098,0.008172646164894104,0.010876476764678955,0.00081634521484375,-0.07762899525945594,-0.019836426819610776,-0.003623935623007449
0.09918450564146042,0.2811238169670105,9.746792793273926,0.003559581935405731,-0.009881407022476196,0.000507354736328125,-0.05606618143121824,0.0214625637933959,-0.04492291456332756
0.0943218469619751,0.2852484881877899,9.737502098083496,-0.0034956857562065125,-0.002360135316848755,-0.0067081451416015625,-0.018460894088846984,-0.019836426819610776,0.05647768698849829
0.08783984184265137,0.29070717096328735,9.759686470031738,-0.012645862996578217,0.00006178021430969238,-0.008852005004882812,-0.016593917908119534,0.0017069703282813068,-0.003623935623007449
0.11101469397544861,0.280830055475235,9.740421295166016,0.022683031857013702,-0.011761665344238281,-0.004741668701171875,0.04444118612364332,-0.061943505851161325,0.038483153413703015
0.09418991208076477,0.29239821434020996,9.744402885437012,-0.0034044459462165833,0.004587918519973755,0.0001163482666015625,0.04444118612364332,-0.019836426819610776,0.05573032822312402
0.09846579283475876,0.28022825717926025,9.74557113647461,0.0037453994154930115,0.004487931728363037,0.007098197937011719,-0.016593917908119534,-0.03632195549529602,-0.04238425864683811
0.08571094274520874,0.29045629501342773,9.752690315246582,-0.010461010038852692,-0.000048488378524780273,0.016289710998535156,0.0691814252981121,-0.019836426819610776,-0.0646590396547703
0.09843388944864273,0.26271194219589233,9.750879287719727,0.0017263516783714294,-0.025971978902816772,0.0068607330322265625,0.041969878273608575,-0.07840019298585914,-0.0646590396547703
0.10145649313926697,0.28068795800209045,9.758255958557129,-0.007670111954212189,-0.0136796236038208,0.01598834991455078,0.006459211180503211,-0.019836426819610776,0.07234001426327276
0.0980958417057991,0.28383326530456543,9.733509063720703,0.0038099586963653564,-0.0061106085777282715,-0.015038490295410156,-0.06023968047814726,-0.03722573493081284,-0.08204836110618559
0.10765981674194336,0.2946643531322479,9.753403663635254,0.010650083422660828,0.007927566766738892,0.008751869201660156,-0.016593917908119534,-0.08087150750600049,0.047522855419362
0.10652081668376923,0.2828163504600525,9.751235008239746,0.02662114053964615,-0.003908872604370117,0.0015211105346679688,-0.05371969128620152,-0.019836426819610776,0.020285381690460194
0.10430622845888138,0.29613763093948364,9.762333869934082,0.0003239288926124573,0.015189439058303833,0.01753997802734375,-0.04454801455113055,-0.036376910503666864,-0.03157805894644491
0.10486182570457458,0.27147766947746277,9.734248161315918,0.004384890198707581,-0.015482157468795776,-0.013562202453613281,0.04444118612364332,0.03306183083224423,-0.056522169929489316
0.10498950630426407,0.30289196968078613,9.755476951599121,-0.005485929548740387,0.019644349813461304,0.009885787963867188,-0.02821001529347493,0.04119870389257852,-0.028333425605997952
0.10212506353855133,0.263724148273468,9.750279426574707,0.001626528799533844,-0.02502456307411194,0.009607315063476562,-0.07762899525945594,-0.019836426819610776,-0.09426432118941867
0.09729428589344025,0.3038863241672516,9.743507385253906,-0.003151439130306244,0.02049100399017334,-0.001922607421875,-0.021494045029074774,0.03629856676646336,0.052511027947586934
0.09129110723733902,0.2916094958782196,9.73570442199707,-0.028711974620819092,0.010531336069107056,0.00046253204345703125,0.04444118612364332,-0.019836426819610776,-0.029117029730698244
0.1020454689860344,0.28345227241516113,9.738455772399902,-0.00012543797492980957,-0.001475691795349121,-0.008359909057617188,-0.016593917908119534,0.04119870389257852,-0.0185682427846499
0.09587676078081131,0.2910654544830322,9.75946044921875,-0.005066134035587311,0.005840122699737549,0.015254974365234375,-0.016593917908119534,-0.01417670795775607,0.04609173068504599
0.09805148094892502,0.2879711985588074,9.748259544372559,-0.011846698820590973,0.008136570453643799,0.010169029235839844,-0.008095561755036949,0.00643196713004919,-0.01212227843587681
0.09901075065135956,0.2861802577972412,9.754764556884766,0.0066586509346961975,-0.0036777853965759277,0.010004043579101562,-0.016593917908119534,-0.11333655722962147,-0.09712408937839127
0.09448346495628357,0.2821582853794098,9.753554344177246,-0.0021412447094917297,-0.006140291690826416,0.007317543029785156,-0.016593917908119534,0.034874569041061565,-0.058334904803253346
0.10443107783794403,0.2892073094844818,9.74605941772461,-0.00024646520614624023,0.0057656168937683105,-0.007056236267089844,-0.016593917908119534,-0.04693744350745778,0.003209108352634956
0.08861176669597626,0.28208020329475403,9.731389999389648,-0.01424599438905716,-0.006112962961196899,-0.02083110809326172,0.04444118612364332,-0.019836426819610776,0.010469079172042825
0.09702806919813156,0.27864691615104675,9.774057388305664,-0.0022410154342651367,-0.008541792631149292,0.02851390838623047,0.1015175618712557,0.03723997227337475,0.0574111684087554
0.09088977426290512,0.2783476412296295,9.746611595153809,-0.009198315441608429,-0.010707229375839233,0.01142120361328125,0.04444118612364332,-0.019836426819610776,0.030999067012154102
0.0844021737575531,0.289845734834671,9.73918342590332,-0.018042907118797302,0.008435636758804321,-0.00725555419921875,-0.06502189345442723,0.04119870389257852,-0.016231050768249385
0.1098015233874321,0.2646190822124481,9.764235496520996,0.0034901797771453857,-0.01506158709526062,-0.009385108947753906,-0.016593917908119534,0.04119870389257852,-0.0646590396547703
0.08613407611846924,0.28847768902778625,9.755661010742188,-0.01545308530330658,0.009401410818099976,0.022886276245117188,-0.07762899525945594,0.04119870389257852,-0.003623935623007449
0.08747545629739761,0.2711789608001709,9.748001098632812,-0.01223534345626831,-0.01625591516494751,-0.005545616149902344,-0.004977473677220347,0.10223380458928806,-0.015240379853906635
0.09706366807222366,0.2992095351219177,9.744526863098145,-0.00017395615577697754,0.01680666208267212,-0.008411407470703125,-0.007769620325367181,-0.00218782498399946,-0.012448233205759801
0.09201221913099289,0.2949654757976532,9.757772445678711,-0.002268373966217041,0.014034003019332886,0.012616157531738281,-0.04601769250166011,0.009587371119302938,0.027987380475001603
0.08340631425380707,0.31399470567703247,9.754520416259766,-0.016312934458255768,0.032201945781707764,0.009940147399902344,0.04444118612364332,-0.05884900327032242,-0.014635187740846482
0.10515627264976501,0.29038378596305847,9.740931510925293,0.00971820205450058,0.0030556023120880127,-0.006255149841308594,0.04444118612364332,-0.010129173874182216,-0.0133311818983294
0.09308863431215286,0.28640249371528625,9.761265754699707,0.0024317577481269836,0.0005669593811035156,0.007894515991210938,-0.016955691150505423,-0.019836426819610776,-0.0646590396547703
0.09306102991104126,0.2736546993255615,9.737576484680176,-0.002100542187690735,-0.013220459222793579,-0.009103775024414062,-0.016593917908119534,-0.009128154289431973,0.046702899213629905
0.10834592580795288,0.2947193682193756,9.736185073852539,0.014541231095790863,0.010781139135360718,-0.010613441467285156,-0.016593917908119534,-0.012844167399155672,-0.003623935623007449
0.09832171350717545,0.2862740457057953,9.7250337600708,-0.009181812405586243,0.0035213232040405273,-0.014977455139160156,-0.016593917908119534,-0.019836426819610776,-0.0646590396547703
0.09321235865354538,0.29019612073898315,9.747780799865723,-0.002239234745502472,0.0012491345405578613,0.0025310516357421875,-0.016593917908119534,0.03177570754555215,0.047988175396782344
0.0871354341506958,0.2907116711139679,9.733821868896484,-0.00897090882062912,0.0007810890674591064,-0.013653755187988281,-0.016593917908119534,-0.019836426819610776,-0.053359452168336236
0.09900161623954773,0.29239821434020996,9.751069068908691,0.0006624981760978699,0.0053434669971466064,0.017004013061523438,0.015340191329238735,0.012097695757960715,-0.003623935623007449
0.10663312673568726,0.2882751226425171,9.741013526916504,0.009748034179210663,0.0004470646381378174,-0.006506919860839844,-0.025101518828965434,-0.011328819228658263,-0.003623935623007449
0.10099753737449646,0.29047396779060364,9.747335433959961,0.0021933242678642273,0.0027754902839660645,0.00057220458984375,-0.028599149313180538,-0.00783118874444316,0.04540593700369439
0.1055106520652771,0.27802544832229614,9.746075630187988,0.013750337064266205,-0.009022057056427002,0.005217552185058594,0.04444118612364332,0.008596283323296981,-0.12569414368653314
0.1055106520652771,0.27802544832229614,9.746075630187988,0.0017981380224227905,-0.008847206830978394,-0.006569862365722656,0.04444118612364332,0.008596283323296981,-0.12569414368653314
0.09810776263475418,0.2980770766735077,9.749645233154297,-0.0027699097990989685,0.005014747381210327,-0.0034875869750976562,-0.05202064170952118,-0.019836426819610776,-0.03905067276462232
0.10629922151565552,0.29370996356010437,9.747264862060547,0.00873730331659317,0.0072279274463653564,-0.005892753601074219,-0.0834376175813022,-0.02564499578060416,-0.0646590396547703
0.1009487584233284,0.2871702015399933,9.747143745422363,0.003735646605491638,-0.002364903688430786,0.0009593963623046875,-0.02372212744152698,0.026942288160816927,0.0574111684087554
0.09858373552560806,0.2851827144622803,9.739928245544434,0.0011656656861305237,-0.007293820381164551,-0.008473396301269531,0.017479221148322933,-0.03331740597221766,0.009857043529599437
0.10822233557701111,0.28241831064224243,9.722512245178223,0.015175506472587585,-0.016379445791244507,-0.033858299255371094,0.010227314487808175,0.014377464826544199,-0.003623935623007449
0.11133404821157455,0.29621386528015137,9.741342544555664,0.012274183332920074,0.009380340576171875,-0.0024366378784179688,-0.02280676203082627,-0.01362357602679743,-0.009836779745714183
0.1079939752817154,0.2857767641544342,9.729394912719727,0.007017120718955994,-0.0024691522121429443,-0.016086578369140625,0.01565377305135769,0.04119870389257852,-0.018017638824096956
0.09668249636888504,0.2958154082298279,9.755106925964355,-0.009516045451164246,0.006842434406280518,0.016968727111816406,0.04444118612364332,-0.019836426819610776,0.03137999680072776
0.09453456103801727,0.29484936594963074,9.764327049255371,-0.004753008484840393,0.008788824081420898,0.02108287811279297,-0.07220914677155826,0.03035899691162325,-0.009043784110905126
0.11112386733293533,0.2888471186161041,9.752265930175781,-0.0024229437112808228,-0.017047256231307983,0.0018663406372070312,-0.06247740786475947,-0.03498801421430724,-0.0646590396547703
0.09168712794780731,0.28339821100234985,9.754462242126465,-0.014513984322547913,-0.006989598274230957,0.010872840881347656,-0.14912517433532801,0.005450607684535874,-0.003623935623007449
0.09168712794780731,0.28339821100234985,9.754462242126465,0.0022602155804634094,0.00032004714012145996,0.005908012390136719,-0.14912517433532801,0.005450607684535874,-0.003623935623007449
0.09911283850669861,0.2882293164730072,9.75031852722168,-0.0004194602370262146,-0.00004690885543823242,0.008336067199707031,0.0737796767340513,-0.035684726860181606,0.0574111684087554
0.11397483944892883,0.2986295819282532,9.75118637084961,0.031983666121959686,0.016117334365844727,0.02224254608154297,-0.016593917908119534,-0.05643774639010958,-0.04022527853887939
0.10180909931659698,0.29613640904426575,9.72754955291748,0.0008905231952667236,0.008608072996139526,-0.017966270446777344,0.04444118612364332,0.04119870389257852,-0.0646590396547703
0.10804054886102676,0.2908686697483063,9.742718696594238,0.007738828659057617,0.006113022565841675,0.004048347473144531,0.04444118612364332,-0.0031685474343313936,-0.0646590396547703
0.09924904257059097,0.2950548827648163,9.742868423461914,-0.009122505784034729,0.017674028873443604,0.006480216979980469,-0.002998573107554602,-0.08087150750600049,0.009971395837344259
0.09228551387786865,0.29287704825401306,9.730096817016602,-0.008797630667686462,0.003235846757888794,-0.014661788940429688,-0.010493931989276681,0.04119870389257852,-0.06160904669534887
0.09740565717220306,0.2985658645629883,9.731802940368652,-0.0039221420884132385,0.007316172122955322,-0.011525154113769531,0.01848177819264709,-0.045795808070180556,0.039873323693425396
0.09162589907646179,0.3037774860858917,9.751655578613281,-0.006177850067615509,0.01179930567741394,0.007426261901855469,-0.016593917908119534,-0.019836426819610776,0.0345141598354777
0.1016937866806984,0.28530460596084595,9.751469612121582,0.0012770295143127441,-0.005325973033905029,0.007021903991699219,0.039714815279913496,-0.019836426819610776,-0.003623935623007449
0.10629922151565552,0.2926453948020935,9.738468170166016,0.005775243043899536,0.004368245601654053,-0.009540557861328125,-0.0348398878217359,0.022952723973802235,-0.04641306974115393
0.11216054856777191,0.29978859424591064,9.757262229919434,0.008015409111976624,0.006500989198684692,0.0023698806762695312,0.06651778492393935,-0.0029544970430668634,-0.020505842054178224
0.09957385808229446,0.28994518518447876,9.73973560333252,-0.0024675652384757996,-0.0013799667358398438,-0.005507469177246094,0.10253968233827092,-0.19853680384382333,-0.005092239531575073
0.10182036459445953,0.28102484345436096,9.750301361083984,0.01620282232761383,-0.003644227981567383,-0.0030260086059570312,0.025335512838997876,-0.019836426819610776,-0.0227296155777595
0.09264914691448212,0.29178905487060547,9.743291854858398,-0.007489986717700958,-0.003231137990951538,0.006134986877441406,0.004715712013364897,-0.08087150750600049,-0.022039779811801437
0.08476665616035461,0.30181995034217834,9.746997833251953,-0.01642889529466629,0.010450541973114014,0.0017938613891601562,0.04444118612364332,-0.019836426819610776,-0.0646590396547703
0.09359060227870941,0.29083487391471863,9.755613327026367,-0.004013478755950928,0.0010072886943817139,0.008358001708984375,-0.037795492102500244,-0.019836426819610776,0.017577651911586487
0.09912002831697464,0.2947865426540375,9.730125427246094,0.0031653419137001038,-0.001745462417602539,0.00376129150390625,-0.07753736133482934,-0.019836426819610776,-0.003623935623007449
0.09912002831697464,0.2947865426540375,9.730125427246094,-0.0016131401062011719,0.0030894875526428223,-0.014977455139160156,-0.07753736133482934,-0.019836426819610776,-0.003623935623007449
0.09509243816137314,0.2891484498977661,9.749176025390625,-0.008584834635257721,-0.00861462950706482,-0.0052471160888671875,0.023740596966733783,-0.019836426819610776,-0.024324518109810372
0.0974181592464447,0.2950134873390198,9.76764965057373,-0.00587831437587738,0.010388195514678955,0.022594451904296875,-0.1189411810108665,0.0214757689369597,-0.003623935623007449
0.09210024774074554,0.2756994664669037,9.756586074829102,-0.008306644856929779,-0.015166699886322021,0.009777069091796875,0.0426693390034068,-0.07998558394588223,-0.06377311609465204
0.10509762912988663,0.28521186113357544,9.743267059326172,-0.0015764012932777405,-0.005123317241668701,-0.009329795837402344,-0.05584496067534652,-0.019836426819610776,0.013843072560110121
0.10444904863834381,0.28850793838500977,9.737828254699707,0.0007605701684951782,-0.00961044430732727,-0.011399269104003906,0.002138196055757781,-0.001104302850573546,0.03867905444487809
0.10876040160655975,0.29046252369880676,9.74213981628418,0.007587768137454987,-0.000525742769241333,-0.004047393798828125,-0.014920681644025081,0.04119870389257852,-0.12234768449855747
0.10413835197687149,0.2710735499858856,9.735825538635254,0.007350333034992218,-0.014459431171417236,0.0077075958251953125,-0.05529164865150937,-0.019836426819610776,-0.0482986421791138
0.12529325485229492,0.2806903123855591,9.738969802856445,0.028034664690494537,-0.0064338743686676025,-0.005911827087402344,0.06249795846322901,-0.019836426819610776,0.03935440273927632
0.09740545600652695,0.29630449414253235,9.744174003601074,-0.005717962980270386,0.007842570543289185,-0.0008573532104492188,0.046945917877907486,-0.019836426819610776,-0.003623935623007449
0.09185615926980972,0.28604865074157715,9.74000358581543,-0.002687424421310425,0.0033913254737854004,-0.007798194885253906,-0.016593917908119534,-0.019836426819610776,-0.003623935623007449
0.07719562202692032,0.27970513701438904,9.754408836364746,-0.025934912264347076,-0.012977927923202515,0.011049270629882812,-0.03389942946996333,-0.03714193838145457,-0.020929460525064465
0.10726860165596008,0.2877369523048401,9.744728088378906,0.007838159799575806,-0.0006565451622009277,-0.0010175704956054688,-0.13536076901259203,0.03459201665489857,-0.006927279241847425
0.09745283424854279,0.2828163504600525,9.74644660949707,-0.01374555379152298,-0.005094975233078003,0.0037584304809570312,-0.016593917908119534,-0.019836426819610776,-0.003623935623007449
0.0953674241900444,0.30567264556884766,9.729897499084473,-0.011070534586906433,0.016035467386245728,-0.0126495361328125,-0.016593917908119534,-0.03635982836063522,0.04088776686773096
0.10438630729913712,0.2912895977497101,9.734084129333496,0.002562098205089569,0.0011081993579864502,-0.009365081787109375,-0.016593917908119534,-0.13780836463362345,-0.003623935623007449
0.10761114954948425,0.28717005252838135,9.739240646362305,0.01200886070728302,-0.003557145595550537,-0.006722450256347656,-0.016593917908119534,0.05234080015675891,-0.03971254744366564
0.09194380044937134,0.2798372507095337,9.743284225463867,-0.013978712260723114,-0.012846767902374268,-0.00420379638671875,0.05975545074848377,0.010792109100176745,0.07272543970370247
0.10849730670452118,0.2858041226863861,9.747456550598145,0.007356554269790649,-0.0032193362712860107,0.0026216506958007812,-0.1185435892959777,-0.00977615514672371,0.006436332714826312
0.10792514681816101,0.27864596247673035,9.743314743041992,0.0023996084928512573,-0.012343883514404297,-0.0069675445556640625,0.02862975843241998,0.06681421780196055,0.006180133919884721
0.09538903832435608,0.28217828273773193,9.747398376464844,-0.011676333844661713,-0.007516711950302124,0.000217437744140625,0.09055012568374657,-0.019836426819610776,0.0424850039370958
0.1134856641292572,0.28543490171432495,9.747756958007812,0.011740684509277344,-0.002583116292953491,0.002208709716796875,-0.06626357382076795,0.09086837648049345,0.051728451019304796
0.08374717831611633,0.2838881313800812,9.752396583557129,-0.023616723716259003,-0.011965841054916382,-0.0030851364135742188,-0.00816214275923135,-0.1156049404262194,-0.029925606734551396
0.09722230583429337,0.2766399085521698,9.75052261352539,0.0001226961612701416,-0.0015539228916168213,0.015460968017578125,-0.016593917908119534,-0.019836426819610776,0.1120130346551596
0.09722230583429337,0.2766399085521698,9.75052261352539,-0.004577264189720154,-0.010796934366226196,0.0033864974975585938,-0.016593917908119534,-0.019836426819610776,0.1120130346551596
0.08625834435224533,0.28067395091056824,9.752473831176758,-0.001254647970199585,-0.0033253133296966553,0.0030078887939453125,0.010699678097810092,0.013905097881488977,0.0574111684087554
0.12365731596946716,0.2712046802043915,9.744245529174805,0.02912193536758423,-0.012621402740478516,-0.006389617919921875,0.031511918169286855,0.04119870389257852,0.0574111684087554
0.10122111439704895,0.27630236744880676,9.754911422729492,0.00035092979669570923,-0.0070587992668151855,0.0073528289794921875,0.03712405249057626,-0.06623724023986637,0.0036931980100596094
0.10192282497882843,0.2756299376487732,9.746392250061035,-0.0043464601039886475,-0.00906410813331604,-0.009157180786132812,-0.04447082807742411,-0.019836426819610776,0.0016573347299330158
0.09224244952201843,0.2680773437023163,9.764448165893555,-0.00676322728395462,0.011638760566711426,0.007126808166503906,0.09742340374246858,-0.0037306473236289814,-0.003623935623007449
0.09224244952201843,0.2680773437023163,9.764448165893555,-0.00893700122833252,-0.021464616060256958,0.018579483032226562,0.09742340374246858,-0.0037306473236289814,-0.003623935623007449
0.09403035789728165,0.2826705873012543,9.74417781829834,-0.011029064655303955,-0.004513561725616455,-0.0076045989990234375,-0.020307526444409845,-0.019836426819610776,-0.06837266153127383
0.10184894502162933,0.27255311608314514,9.751315116882324,0.003419645130634308,-0.01617509126663208,0.00173187255859375,-0.025273620919751244,-0.019836426819610776,-0.055979329973031976
0.10184894502162933,0.27255311608314514,9.751315116882324,0.0009659528732299805,-0.011041492223739624,0.004012107849121094,-0.025273620919751244,-0.019836426819610776,-0.055979329973031976
0.10496246814727783,0.288573294878006,9.740644454956055,0.00789322704076767,0.010151922702789307,-0.0007543563842773438,0.012742718412650489,-0.019836426819610776,-0.003623935623007449
0.11478614807128906,0.2915312349796295,9.7649564743042,0.012144006788730621,0.00754430890083313,0.020574569702148438,0.055486302372748125,-0.06982639792700229,0.03532093591054578
0.1146206259727478,0.3037445545196533,9.749259948730469,0.01142866164445877,0.020987987518310547,0.001338958740234375,0.054080524043555206,0.08295512874946429,-0.0646590396547703
0.09800513088703156,0.29477372765541077,9.752842903137207,-0.014435634016990662,0.011216908693313599,0.005954742431640625,0.014688441872031424,0.010426207061798434,-0.0646590396547703
0.10749463737010956,0.2916008532047272,9.734086990356445,0.008902505040168762,0.003499060869216919,-0.010599136352539062,0.02408284013696167,-0.08087150750600049,-0.0646590396547703
0.08357246965169907,0.2817094922065735,9.747910499572754,-0.019009120762348175,-0.008444547653198242,0.0067958831787109375,-0.02702364345115545,0.020339257809086644,-0.014053661166043365
0.0930166244506836,0.2960682809352875,9.74589729309082,0.00043629109859466553,0.0030719637870788574,-0.019453048706054688,-0.01581135432005061,-0.04996269037135113,-0.034532769432923334
0.09041156619787216,0.2865328788757324,9.733372688293457,-0.006377510726451874,0.005977153778076172,-0.009664535522460938,-0.03903305034295516,0.04119870389257852,0.007595637264516973
0.09041156619787216,0.2865328788757324,9.733372688293457,-0.010789759457111359,-0.001148134469985962,-0.014056205749511719,-0.03903305034295516,0.04119870389257852,0.007595637264516973
0.0976564884185791,0.29417309165000916,9.759987831115723,-0.008089624345302582,-0.005848973989486694,0.011954307556152344,0.015241413720431392,0.04119870389257852,-0.006259494848346451
0.10633669793605804,0.2910134196281433,9.737619400024414,0.008363649249076843,0.003167390823364258,-0.009730339050292969,-0.060462995647494945,-0.002670417202489868,-0.012206935428987944
0.1000819057226181,0.2788393199443817,9.735601425170898,0.0016067922115325928,-0.011221617460250854,-0.011591911315917969,-0.007508072104923294,0.05028454636072145,-0.0646590396547703
0.10265356302261353,0.2817760407924652,9.76113224029541,0.003861367702484131,-0.008554518222808838,0.01667499542236328,-0.048448252670406165,-0.05169076825200403,-0.0646590396547703
0.08678261935710907,0.2917875051498413,9.746253967285156,-0.010417871177196503,0.005845606327056885,-0.000415802001953125,-0.048448252670406165,-0.05169076825200403,-0.0646590396547703
0.09635116904973984,0.2989591658115387,9.753425598144531,0.004733733832836151,0.015230238437652588,0.009044647216796875,-0.11300612014809565,-0.007007420572782682,0.10561728286895669
0.10783921182155609,0.2947937250137329,9.747321128845215,0.004314050078392029,0.0076583027839660645,-0.005297660827636719,-0.016593917908119534,0.0077746495857521315,0.023987130777195543
0.10445328056812286,0.298957884311676,9.747138977050781,0.0040573179721832275,0.014562159776687622,-0.00049591064453125,-0.056627190758084874,-0.07387091045228121,0.06441176546247468
0.09752856940031052,0.27935194969177246,9.754843711853027,-0.00568341463804245,-0.006725311279296875,0.008791923522949219,0.058058695688477734,-0.019836426819610776,0.07102867130348321
0.0951932892203331,0.2934507429599762,9.752817153930664,0.001422598958015442,0.00513574481010437,0.013203620910644531,0.010223085640216584,-0.019836426819610776,0.09162926889218213
0.09075120091438293,0.29073500633239746,9.751167297363281,-0.009976327419281006,0.002315342426300049,0.0036878585815429688,0.032004098666031065,-0.019836426819610776,-0.0646590396547703
0.10333864390850067,0.28437674045562744,9.741374015808105,0.004158779978752136,-0.007271081209182739,-0.008029937744140625,0.015643007499286987,-0.019836426819610776,-0.01802302827023892
0.10013420134782791,0.2766513228416443,9.739994049072266,-0.0007455348968505859,-0.01170051097869873,-0.012463569641113281,-0.042617819099940814,-0.0548476029791259,-0.0646590396547703
0.1006956547498703,0.29820501804351807,9.745645523071289,0.0015007629990577698,0.009885221719741821,-0.000461578369140625,0.049617522359374173,-0.014660090583879922,-0.05430636718330859
0.09550595283508301,0.2912687361240387,9.734282493591309,-0.0028454065322875977,-0.0028682947158813477,-0.011685371398925781,0.059873725078916064,0.04119870389257852,-0.033793961744224804
0.07839340716600418,0.28113648295402527,9.760102272033691,-0.025553777813911438,0.00455358624458313,0.004416465759277344,0.019273753301144614,0.016031261064919897,-0.0394916068322716
0.09967870265245438,0.27966636419296265,9.72643756866455,0.0008428767323493958,-0.007291316986083984,-0.021322250366210938,0.03963522756782698,0.04119870389257852,-0.003623935623007449
0.10807287693023682,0.2814807593822479,9.755640983581543,0.009949222207069397,-0.0018186867237091064,0.014385223388671875,-0.06178471729317175,-0.003992135513113366,0.041566890442471215
0.10253250598907471,0.28711023926734924,9.748295783996582,0.019105203449726105,-0.0044220685958862305,-0.00004482269287109375,0.06900812258813625,-0.031737631241961314,0.0574111684087554
0.09174957126379013,0.29132112860679626,9.741415023803711,0.005092211067676544,0.007357925176620483,-0.006646156311035156,-0.016593917908119534,-0.019836426819610776,0.08485622919561535
0.09174957126379013,0.29132112860679626,9.741415023803711,-0.011390484869480133,0.002525240182876587,-0.0041332244873046875,-0.016593917908119534,-0.019836426819610776,0.08485622919561535
0.08790997415781021,0.2947937250137329,9.742155075073242,-0.001287505030632019,0.007067888975143433,0.015041351318359375,-0.05399472646221354,0.01756440841490967,-0.003623935623007449
0.0744866207242012,0.2845252752304077,9.747901916503906,-0.013277597725391388,-0.004199296236038208,0.009233474731445312,0.02694732409130849,-0.019836426819610776,-0.021117797655342274
0.0744866207242012,0.2845252752304077,9.747901916503906,-0.026915162801742554,-0.0018274188041687012,-0.0026655197143554688,0.02694732409130849,-0.019836426819610776,-0.021117797655342274
0.09552378952503204,0.2918098568916321,9.750470161437988,-0.005236804485321045,-0.0041803717613220215,-0.0072460174560546875,0.02152636836571333,0.025993218701409113,-0.041744221896840315
0.08686737716197968,0.2895560562610626,9.759199142456055,-0.009734183549880981,0.0024427473545074463,0.0110015869140625,-0.01431729045974999,-0.019836426819610776,-0.005900563071376992
0.08526404201984406,0.29042717814445496,9.771966934204102,-0.008970960974693298,0.007243454456329346,0.024114608764648438,-0.0007000410290734163,0.025304825346005748,-0.019517812502053564
0.10990210622549057,0.29858818650245667,9.753053665161133,0.004552066326141357,0.008897930383682251,0.0023565292358398438,0.03418686437416582,-0.045226807955593536,-0.003623935623007449
0.08479852974414825,0.29491087794303894,9.74914264678955,-0.011801593005657196,0.006242990493774414,-0.0000362396240234375,0.04444118612364332,0.03821375447777758,-0.06316656327984317
0.08384504914283752,0.2880684435367584,9.754340171813965,-0.013711690902709961,-0.006018549203872681,0.009416580200195312,0.04444118612364332,-0.03895350598656161,-0.003623935623007449
0.09922737628221512,0.28353849053382874,9.763060569763184,0.007651433348655701,-0.008029311895370483,-0.010186195373535156,-0.016593917908119534,0.0014816207764171655,-0.04334100539895558
0.09353794902563095,0.2851680815219879,9.749391555786133,-0.003919884562492371,0.001653134822845459,-0.014675140380859375,-0.07762899525945594,0.00013700065474362978,-0.0446856188505225
0.09667293727397919,0.2963413894176483,9.7500638961792,0.007917441427707672,0.015678435564041138,-0.00047969818115234375,0.08500557955274987,0.020727986619815616,-0.04418833572222062
0.10634547472000122,0.2725129723548889,9.734119415283203,0.01600470393896103,-0.007954031229019165,-0.012272834777832031,0.06517882772277885,0.0009012247846846707,-0.0646590396547703
0.089688740670681,0.2995057702064514,9.743697166442871,-0.0009380131959915161,0.009162753820419312,-0.004487037658691406,-0.057954275169477196,0.04119870389257852,-0.04498430622457834
0.07287139445543289,0.29257962107658386,9.777461051940918,-0.014817073941230774,0.015922516584396362,-0.0066928863525390625,0.043516749367951184,-0.01891199006391864,0.05648673165306327
0.09108123928308487,0.29338338971138,9.75489616394043,-0.004461765289306641,0.010875046253204346,0.006671905517578125,-0.09916276744350785,0.04119870389257852,-0.0431252808109316
0.09108123928308487,0.29338338971138,9.75489616394043,-0.0019373595714569092,0.0013849735260009766,0.0041522979736328125,-0.09916276744350785,0.04119870389257852,-0.0431252808109316
0.08993879705667496,0.2943178415298462,9.751519203186035,0.009335540235042572,-0.010245829820632935,-0.0026788711547851562,0.04097678611056591,0.10050160458274936,-0.003623935623007449
0.08993879705667496,0.2943178415298462,9.751519203186035,-0.004727676510810852,0.006267517805099487,0.0020542144775390625,0.04097678611056591,0.10050160458274936,-0.003623935623007449
0.09782378375530243,0.27521637082099915,9.747047424316406,-0.00006381422281265259,-0.016982823610305786,0.004719734191894531,-0.049437389460228305,0.024776951441257602,-0.025930626420968293
0.09821758419275284,0.29603081941604614,9.741625785827637,0.009322233498096466,0.011564850807189941,-0.004731178283691406,-0.041408968998341115,0.04119870389257852,-0.021733955423671472
0.09392606467008591,0.2715316116809845,9.744072914123535,0.000050127506256103516,-0.01673772931098938,-0.004212379455566406,-0.014072831052444357,-0.017315346634042213,-0.006145022478682624
0.10415724664926529,0.28223586082458496,9.754231452941895,0.01399300992488861,-0.006740659475326538,0.017232894897460938,-0.039716282703367994,0.01807631741948357,-0.003623935623007449
0.10325585305690765,0.25963905453681946,9.750166893005371,-0.0025868266820907593,-0.013885259628295898,0.01628398895263672,0.04113947668092312,0.04119870389257852,-0.0003222328503938633
0.09412451833486557,0.2874099910259247,9.737480163574219,0.013669118285179138,0.01506534218788147,-0.02607250213623047,0.0073172937156257304,0.04119870389257852,-0.003623935623007449
0.09412451833486557,0.2874099910259247,9.737480163574219,-0.00993146002292633,-0.00861501693725586,-0.0020608901977539062,0.0073172937156257304,0.04119870389257852,-0.003623935623007449
0.10150828957557678,0.2786679267883301,9.752137184143066,0.007303602993488312,0.0007955431938171387,0.008929252624511719,0.04853371674641727,0.03301363597692399,-0.0077164729158880185
0.10684853047132492,0.2956291437149048,9.742667198181152,0.023341141641139984,-0.010678231716156006,0.01096343994140625,-0.016593917908119534,-0.03159647177574552,-0.003623935623007449
0.09973257035017014,0.2869875729084015,9.748640060424805,0.003788493573665619,0.0008001923561096191,-0.00044345855712890625,-0.046048148208447486,-0.00404598995389333,-0.03307817926354863
0.10150828957557678,0.2874184250831604,9.768930435180664,0.006077691912651062,-0.0016237199306488037,-0.002758026123046875,-0.011781009101214181,-0.07124568989218978,0.0574111684087554
0.08375924080610275,0.2990001142024994,9.764236450195312,0.0032499730587005615,0.02427646517753601,0.017702102661132812,-0.06753713729671086,-0.019836426819610776,0.03193955204435312
0.08375924080610275,0.2990001142024994,9.764236450195312,-0.022494427859783173,0.0026701688766479492,0.010222434997558594,-0.06753713729671086,-0.019836426819610776,0.03193955204435312
0.09649427980184555,0.27178919315338135,9.757116317749023,-0.0007601901888847351,0.01655358076095581,0.012442588806152344,-0.016593917908119534,-0.019836426819610776,-0.05897590871870979
0.09649427980184555,0.27178919315338135,9.757116317749023,0.0015601292252540588,-0.0188138484954834,0.0051097869873046875,-0.016593917908119534,-0.019836426819610776,-0.05897590871870979
0.09977620095014572,0.29202979803085327,9.74247932434082,0.008357316255569458,0.009666144847869873,-0.020849227905273438,0.018149340079137877,-0.046128259523902995,0.0574111684087554
0.11375382542610168,0.2841571271419525,9.753782272338867,0.019876793026924133,0.0069560706615448,0.000347137451171875,-0.07079659161404822,0.04119870389257852,-0.0646590396547703
0.11375382542610168,0.2841571271419525,9.753782272338867,0.017067216336727142,-0.004754066467285156,0.0026607513427734375,-0.07079659161404822,0.04119870389257852,-0.0646590396547703
0.09802640229463577,0.2905460000038147,9.752199172973633,-0.00689360499382019,0.007237255573272705,0.005032539367675781,-0.043651352119368034,0.03427848162352589,-0.03068138317446917
0.08953088521957397,0.29747748374938965,9.763055801391602,-0.006515771150588989,0.011647552251815796,0.007476806640625,-0.016593917908119534,-0.019836426819610776,0.05006671401900829
0.09438936412334442,0.28521186113357544,9.7423677444458,-0.010779887437820435,-0.002845287322998047,-0.00238037109375,0.01852898920724216,0.006075780101950297,-0.029536125869301995
0.09438936412334442,0.28521186113357544,9.7423677444458,0.005791284143924713,-0.0028357505798339844,-0.013956069946289062,0.01852898920724216,0.006075780101950297,-0.029536125869301995
0.08833278715610504,0.28700825572013855,9.766027450561523,-0.01522751897573471,-0.004828602075576782,-0.000965118408203125,-0.008962208707048431,-0.019836426819610776,-0.003623935623007449
0.08107443153858185,0.29874834418296814,9.737138748168945,-0.012285299599170685,0.004676938056945801,-0.010747909545898438,-0.04895319308109787,0.008839395369067122,-0.0646590396547703
0.08107443153858185,0.29874834418296814,9.737138748168945,-0.014302708208560944,0.016319483518600464,-0.015110015869140625,-0.04895319308109787,0.008839395369067122,-0.0646590396547703
0.0850876048207283,0.2845546007156372,9.749955177307129,-0.006664477288722992,0.0065839290618896484,0.004220008850097656,-0.06877109367959565,-0.0720136059261402,0.04855325348868189
0.0850876048207283,0.2845546007156372,9.749955177307129,-0.008945256471633911,-0.005113929510116577,-0.00055694580078125,-0.06877109367959565,-0.0720136059261402,0.04855325348868189
0.09059276431798935,0.29285115003585815,9.75538444519043,-0.006547771394252777,0.01604500412940979,0.008729934692382812,0.04444118612364332,-0.05150796731021363,-0.03529549612393013
0.08539215475320816,0.26985764503479004,9.749150276184082,0.0074670761823654175,0.0015034973621368408,0.01064300537109375,-0.016593917908119534,0.031492021241265225,-0.0646590396547703
0.08539215475320816,0.26985764503479004,9.749150276184082,-0.011300362646579742,-0.02180120348930359,-0.003627777099609375,-0.016593917908119534,0.031492021241265225,-0.0646590396547703
0.09681198000907898,0.28990817070007324,9.758803367614746,0.01480487734079361,-0.009675204753875732,0.0030965805053710938,-0.07811128398809553,-0.019836426819610776,0.02713475408708716
0.08666419982910156,0.2872594892978668,9.740845680236816,-0.020835988223552704,0.009407341480255127,-0.015252113342285156,-0.006159456589389566,0.0917993432705581,-0.003623935623007449
0.10142519325017929,0.29353371262550354,9.743374824523926,0.00327436625957489,0.0023840665817260742,-0.000644683837890625,-0.10761736769722005,-0.019836426819610776,-0.003623935623007449
0.10142519325017929,0.29353371262550354,9.743374824523926,0.0124664306640625,0.009534597396850586,-0.012277603149414062,-0.10761736769722005,-0.019836426819610776,-0.003623935623007449
0.10585223138332367,0.2962952256202698,9.761970520019531,0.009626470506191254,0.004797309637069702,0.02559185028076172,-0.027983004885064566,-0.008447329837505829,-0.015013022599952481
0.10585223138332367,0.2962952256202698,9.761970520019531,0.011655263602733612,0.009349465370178223,0.008576393127441406,-0.027983004885064566,-0.008447329837505829,-0.015013022599952481
0.09026391059160233,0.27778103947639465,9.738174438476562,-0.019152119755744934,-0.004437237977981567,-0.005157470703125,-0.016593917908119534,0.09388163716280623,-0.011976109719595894
0.09671732783317566,0.29676052927970886,9.742300987243652,0.002510055899620056,0.007358163595199585,-0.009674072265625,-0.016593917908119534,0.09388163716280623,-0.011976109719595894
0.09864504635334015,0.28796201944351196,9.751131057739258,0.004839062690734863,-0.004924178123474121,-0.00035190582275390625,-0.0657100883741589,0.04119870389257852,-0.015542842508304485
0.10247892886400223,0.29239821434020996,9.75480842590332,0.0045677050948143005,0.004455536603927612,0.015964508056640625,0.04444118612364332,-0.02369397625657382,0.028822411121675332
0.10206957161426544,0.3121735155582428,9.74299144744873,0.008916608989238739,0.0226973295211792,-0.007548332214355469,0.03665218913857019,0.04119870389257852,-0.003623935623007449
0.0952078104019165,0.3220299780368805,9.745474815368652,-0.005236208438873291,0.026752173900604248,-0.00035381317138671875,-0.016593917908119534,-0.007015981654618337,-0.003623935623007449
0.1134856641292572,0.30809828639030457,9.751396179199219,0.01808122545480728,0.018261998891830444,-0.000209808349609375,-0.07762899525945594,-0.019836426819610776,-0.003623935623007449
0.0890078917145729,0.29906168580055237,9.725566864013672,-0.006358414888381958,0.008161097764968872,-0.023618698120117188,-0.0032683922601965507,-0.07420875135214561,-0.11236861803861016
0.09779325127601624,0.29292893409729004,9.733295440673828,-0.010872110724449158,0.003102898597717285,-0.020628929138183594,-0.0370618470763189,0.027676313383075125,0.04388878123430531
0.09192639589309692,0.2984665036201477,9.737601280212402,-0.0037146061658859253,0.007911205291748047,-0.005725860595703125,-0.020646567963464285,-0.04832763379749999,0.028919954760759575
0.1075531393289566,0.29795029759407043,9.74283504486084,0.012736991047859192,0.005072146654129028,-0.0051479339599609375,0.03474555250393171,0.05089433417723682,-0.013319562572612444
0.09592721611261368,0.2982594966888428,9.737563133239746,-0.0016037970781326294,0.004611611366271973,-0.011981010437011719,0.030806627766310313,0.00743269656516184,-0.0646590396547703
0.09188530594110489,0.2916903793811798,9.741406440734863,-0.01100890338420868,-0.004905998706817627,-0.0023298263549804688,0.04444118612364332,-0.05486313765742372,0.02238443756062263
0.09932498633861542,0.2939451038837433,9.745529174804688,0.0029433071613311768,0.0019473135471343994,-0.0020017623901367188,0.039035658354640186,-0.07546598640710397,0.046600112870749145
0.10150828957557678,0.2834130823612213,9.74025821685791,0.005160793662071228,-0.007396042346954346,0.009697914123535156,-0.016593917908119534,-0.019836426819610776,-0.018827856674176496
0.10266631096601486,0.28307023644447327,9.739503860473633,0.016559623181819916,-0.01851668953895569,-0.018202781677246094,-0.016593917908119534,0.06625959176712097,-0.028684820162496596
0.09122750908136368,0.28743258118629456,9.748560905456543,-0.004359975457191467,-0.004122376441955566,0.0029745101928710938,-0.01214212867315216,0.027843351195416276,-0.003623935623007449
0.09470854699611664,0.27638036012649536,9.74144458770752,-0.013789772987365723,-0.006410539150238037,-0.006419181823730469,0.04444118612364332,-0.051898668804972896,-0.003623935623007449
0.08761251717805862,0.29431167244911194,9.746854782104492,-0.006460554897785187,0.005762547254562378,0.010174751281738281,0.020001715396493102,0.04119870389257852,-0.0646590396547703
0.09896215796470642,0.28491050004959106,9.744318008422852,0.0033723413944244385,-0.006050735712051392,-0.00138092041015625,0.04444118612364332,-0.015997253526361978,0.053572001785613214
0.10540376603603363,0.2856327295303345,9.740336418151855,0.0010181888937950134,-0.010614335536956787,-0.0036687850952148438,0.00017637095901706755,0.04119870389257852,-0.047888750787633695
0.10190282762050629,0.2860008478164673,9.724769592285156,0.009777061641216278,0.0038121044635772705,-0.016757965087890625,0.08178049629478076,-0.057175713645375076,-0.003623935623007449
0.09001488983631134,0.2983746826648712,9.734283447265625,-0.006832808256149292,0.008190184831619263,-0.009298324584960938,0.09931025684089782,-0.019836426819610776,0.0574111684087554
0.10252298414707184,0.2943858504295349,9.726319313049316,0.002637013792991638,-0.015298187732696533,-0.02068614959716797,0.026850387431925877,-0.019836426819610776,0.01396685639860338
0.08923541009426117,0.2950892150402069,9.755243301391602,-0.004786282777786255,0.0009844005107879639,0.008271217346191406,0.021586385985002173,-0.058016707367359345,-0.01894943937748801
0.08923541009426117,0.2950892150402069,9.755243301391602,-0.011387266218662262,0.014664977788925171,-0.01107025146484375,0.039883495606007686,-0.022115268743375285,0.05513232648499089
0.08785494416952133,0.2789818346500397,9.741600036621094,-0.006546981632709503,-0.015889912843704224,0.00786590576171875,-0.07762899525945594,-0.03816917482024069,0.03907840706791227
0.09646729379892349,0.29111987352371216,9.747320175170898,-0.006191074848175049,0.005965083837509155,0.007819175720214844,0.005497902075463584,-0.019836426819610776,-0.025715755606590566
0.08524608612060547,0.3139013350009918,9.761293411254883,-0.011085852980613708,0.02224627137184143,0.017035484313964844,0.04157544151914695,-0.018403554517362593,-0.0646590396547703
0.1030135527253151,0.3000621795654297,9.753775596618652,0.01025400310754776,0.019427061080932617,0.018886566162109375,-0.03577051443636336,-0.0006598202862070326,-0.0646590396547703
0.0945594385266304,0.2842549681663513,9.73800277709961,-0.006548464298248291,-0.004317641258239746,-0.005053520202636719,-0.05627502246921932,-0.04119039293974079,0.09709229965028163
0.0776994451880455,0.3020385801792145,9.753846168518066,-0.01838534325361252,0.010205388069152832,0.009325981140136719,-0.016593917908119534,-0.019836426819610776,-0.0646590396547703
0.08953088521957397,0.2938738465309143,9.748567581176758,-0.006259694695472717,0.014606267213821411,-0.007235527038574219,0.02448277305927104,-0.019836426819610776,-0.0646590396547703
0.09725002944469452,0.2879805266857147,9.742765426635742,0.005767568945884705,0.002633720636367798,-0.00030517578125,-0.016593917908119534,-0.0022002247121899426,0.018075535349483394
0.09697823971509933,0.2973196804523468,9.768732070922852,0.0008547082543373108,0.005289256572723389,0.02546405792236328,0.04444118612364332,-0.08087150750600049,0.05408722750069961
0.10150828957557678,0.3012092411518097,9.73898983001709,0.00535496324300766,0.007397502660751343,-0.012502670288085938,0.04444118612364332,0.0019129965812923946,-0.003623935623007449
0.09322942793369293,0.29564568400382996,9.72490406036377,-0.011105142533779144,0.004450112581253052,-0.030704498291015625,0.024777024812430326,0.021534530908678958,0.0574111684087554
0.10873454809188843,0.30417656898498535,9.744548797607422,0.012013524770736694,0.01127636432647705,0.00028514862060546875,0.04342675628955098,-0.019836426819610776,-0.002609505788915106
0.11024148017168045,0.28575918078422546,9.756692886352539,0.011647127568721771,-0.014931201934814453,-0.00437164306640625,0.008871321834362303,-0.019836426819610776,0.03578608246519423
0.0953977182507515,0.3066047430038452,9.731582641601562,0.0014633461833000183,0.011233031749725342,-0.014159202575683594,0.025509469219421637,-0.061939797271885415,-0.08359075655899198
0.08014649152755737,0.3045731484889984,9.723238945007324,-0.016778089106082916,0.010474711656570435,-0.020503997802734375,-0.016593917908119534,0.09887910114954077,-0.06633639804475056
0.09081434458494186,0.27802544832229614,9.759248733520508,-0.011481314897537231,-0.015306800603866577,0.008007049560546875,-0.00024320542726270013,0.024847979739035117,-0.02596613806856707
0.08819841593503952,0.30987629294395447,9.744026184082031,-0.018162421882152557,0.015561342239379883,0.0025949478149414062,0.08739463164805357,-0.019836426819610776,-0.003623935623007449
0.10430129617452621,0.30008161067962646,9.744170188903809,0.0074129775166511536,0.0051839351654052734,0.0003871917724609375,0.04444118612364332,-0.019836426819610776,0.054878982495678956
0.10803546011447906,0.28099963068962097,9.754131317138672,0.0026115775108337402,-0.01589101552963257,0.021335601806640625,0.09707753203424412,0.07908918831838417,0.04266529691880033
0.07890983670949936,0.3040584623813629,9.764310836791992,-0.018649719655513763,0.012658536434173584,0.018357276916503906,-0.06034980393830049,0.023919495896156547,0.040131963747386735
0.09823521971702576,0.2835685908794403,9.741057395935059,0.003239579498767853,-0.011112421751022339,-0.006000518798828125,0.0412467453354467,0.03800425976932859,-0.003623935623007449
0.0996403843164444,0.29467257857322693,9.751534461975098,0.0008921623229980469,0.007854253053665161,0.012795448303222656,0.057883418626944926,0.04119870389257852,-0.0646590396547703
0.09869296103715897,0.29786211252212524,9.747305870056152,0.00794006884098053,0.009629040956497192,0.0031137466430664062,0.13331942290483093,0.06904183330694996,-0.003623935623007449
0.08250194042921066,0.28042083978652954,9.730884552001953,-0.013002365827560425,-0.013787597417831421,-0.015484809875488281,0.10146334057461211,-0.019836426819610776,-0.003623935623007449
0.09911283850669861,0.2914884686470032,9.738192558288574,0.003527306020259857,0.002722799777984619,-0.012720108032226562,0.032850435143411016,-0.00824564915895203,-0.039936863129005025
0.09541497379541397,0.2887003719806671,9.746248245239258,0.003373973071575165,-0.001975715160369873,0.0016946792602539062,0.10547629015540616,-0.03553955865989239,-0.04895590114438208
0.10456544905900955,0.3044593930244446,9.759888648986816,0.010505415499210358,0.012249529361724854,0.01564788818359375,0.04934956416647679,0.03138194447185828,-0.05975066161193683
0.0934971421957016,0.29779791831970215,9.744901657104492,-0.013105429708957672,0.007176727056503296,0.012887001037597656,0.04444118612364332,-0.05535674555698275,-0.0291387075771851
0.0991671085357666,0.3037360906600952,9.736111640930176,0.005459390580654144,0.006934404373168945,-0.008128166198730469,-0.0016810002681900522,-0.05104566222098161,0.04249825076882592
0.09845489263534546,0.28958114981651306,9.734668731689453,0.0033260807394981384,-0.007657468318939209,-0.009882926940917969,-0.011005942712976407,0.09664582939414494,-0.003623935623007449
0.1104024201631546,0.28657957911491394,9.742761611938477,0.010390125215053558,-0.009847432374954224,0.0020360946655273438,-0.06010535787120809,0.03253609969924498,-0.03847278806802899
0.11506543308496475,0.28164443373680115,9.75619125366211,0.02364318072795868,-0.020566284656524658,0.01607799530029297,-0.09580787724077544,0.026913279867164207,-0.0503736189644093
0.10315918922424316,0.30701929330825806,9.743972778320312,0.006624743342399597,0.011949539184570312,-0.000514984130859375,0.09915250881953962,-0.019836426819610776,0.05108738707288885
0.10315918922424316,0.30701929330825806,9.743972778320312,0.006624743342399597,0.011949539184570312,-0.000514984130859375,0.09915250881953962,-0.019836426819610776,0.05108738707288885
0.1103041023015976,0.2886306047439575,9.74395751953125,0.01544535905122757,-0.01646772027015686,0.004363059997558594,-0.016593917908119534,-0.019836426819610776,0.023397333270194363
0.10372354090213776,0.2785978317260742,9.71744155883789,0.01544535905122757,-0.01646772027015686,0.004363059997558594,-0.016593917908119534,-0.019836426819610776,0.023397333270194363
0.09370643645524979,0.306291401386261,9.736598014831543,0.0035819262266159058,0.0031473636627197266,-0.013138771057128906,-0.02182077353132468,0.04119870389257852,0.02950704420447655
0.08811813592910767,0.29811063408851624,9.739739418029785,-0.01017499715089798,0.005006521940231323,-0.005761146545410156,-0.004074701427801845,-0.0073172036691864775,0.10592704261998734
0.10441824048757553,0.29448023438453674,9.751341819763184,0.00901339203119278,0.000125199556350708,0.008208274841308594,0.04444118612364332,0.04119870389257852,0.0574111684087554
0.10099443048238754,0.2929121255874634,9.721179962158203,-0.007471069693565369,0.009363770484924316,-0.01297760009765625,0.07689481662474568,0.04119870389257852,-0.03607756612410981
0.10647176206111908,0.283364474773407,9.740774154663086,0.013356350362300873,-0.00944429636001587,0.0021657943725585938,0.032673703998636935,-0.03160390894461716,-0.0646590396547703
0.09737781435251236,0.28587228059768677,9.729402542114258,0.0014700964093208313,-0.006388276815414429,-0.011404037475585938,0.035599766377219656,-0.02867783989592783,-0.0646590396547703
0.09787456691265106,0.30057981610298157,9.7350492477417,0.0014977604150772095,0.01254931092262268,-0.011092185974121094,-0.046079044142271215,0.009648732765073964,-0.03517390008040539
0.08519718796014786,0.2865835428237915,9.736717224121094,-0.012649782001972198,-0.008724004030227661,-0.006085395812988281,-0.00494385633989919,-0.06922145927799336,-0.10239402722019908
0.10226850211620331,0.2902364134788513,9.750954627990723,-0.010000176727771759,-0.0015641450881958008,0.0034008026123046875,-0.010641688190931097,-0.019836426819610776,-0.003623935623007449
0.08458433300256729,0.3070823550224304,9.73218059539795,-0.009969651699066162,0.008057326078414917,-0.003970146179199219,-0.01262928657961803,-0.019836426819610776,0.061375786397043684
0.11228616535663605,0.2939964234828949,9.731292724609375,0.01392257958650589,0.00032386183738708496,-0.010478019714355469,-0.016593917908119534,0.0004782766595128704,-0.003623935623007449
0.09435518831014633,0.30201348662376404,9.720547676086426,-0.0010810047388076782,0.009722024202346802,-0.017000198364257812,0.013499068481736841,-0.019836426819610776,-0.003623935623007449
0.09435518831014633,0.30201348662376404,9.720547676086426,-0.0010810047388076782,0.009722024202346802,-0.017000198364257812,0.013499068481736841,-0.019836426819610776,-0.003623935623007449
0.1133103296160698,0.2818899154663086,9.726215362548828,0.017775937914848328,-0.014116078615188599,-0.01593494415283203,0.025725940859386082,0.04119870389257852,-0.003623935623007449
0.08934341371059418,0.2860950529575348,9.738607406616211,-0.010557331144809723,-0.008588910102844238,-0.0016832351684570312,-0.12741258993323926,0.04119870389257852,-0.003623935623007449
0.0948501005768776,0.29176434874534607,9.732598304748535,0.008334711194038391,-0.015410810708999634,-0.0039615631103515625,-0.043073480762987934,-0.049007964661536896,0.025547615559131893
0.09566613286733627,0.29967066645622253,9.715007781982422,-0.0032823458313941956,0.010425001382827759,-0.024580001831054688,0.04444118612364332,-0.011273584075809752,-0.056096203581075886
0.09236697852611542,0.28622135519981384,9.723382949829102,-0.007985323667526245,-0.0031571388244628906,-0.014242172241210938,-0.053541799542877064,-0.007792822291214729,-0.003623935623007449
0.10118800401687622,0.29239821434020996,9.750697135925293,-0.0006010755896568298,-0.0008162856101989746,0.016429901123046875,0.04444118612364332,0.0737563380310182,-0.09721667712826329
0.10421684384346008,0.28771650791168213,9.718228340148926,0.008802592754364014,-0.0008680522441864014,0.008989334106445312,0.04444118612364332,0.0737563380310182,-0.09721667712826329
0.11578277498483658,0.30247896909713745,9.761441230773926,0.019802846014499664,0.008167237043380737,0.03036975860595703,0.04444118612364332,-0.007128006095155802,-0.051950625600421935
0.08473995327949524,0.29370665550231934,9.741650581359863,-0.013382010161876678,0.0008788406848907471,0.010897636413574219,-0.038650653130927,-0.019836426819610776,-0.03696175545650912
0.08473995327949524,0.29370665550231934,9.741650581359863,-0.013042986392974854,-0.0012449026107788086,-0.00571441650390625,-0.038650653130927,-0.019836426819610776,-0.03696175545650912
0.08901211619377136,0.30117154121398926,9.736214637756348,-0.012743458151817322,0.010670989751815796,-0.0009708404541015625,-0.002987434029513663,0.027592218346445995,-0.051052562446271044
0.10412244498729706,0.290562242269516,9.747642517089844,0.015517115592956543,-0.008236289024353027,0.012861251831054688,-0.023721193626601394,-0.019836426819610776,-0.030577836439434722
0.11529669165611267,0.29025113582611084,9.756197929382324,0.019818544387817383,-0.0033242106437683105,0.017160415649414062,-0.022921194379850428,0.04119870389257852,-0.11303959074307136
0.09318870306015015,0.2814248502254486,9.744906425476074,-0.003743201494216919,-0.014699697494506836,0.0023059844970703125,-0.031029789523205936,-0.005400538529257846,-0.05022316136957729
0.09369383007287979,0.28383734822273254,9.730056762695312,0.005643859505653381,-0.009606122970581055,-0.01639080047607422,0.0094203116291153,0.006177809387730669,-0.003623935623007449
0.10070278495550156,0.3033086359500885,9.749686241149902,0.006113462150096893,0.011671632528305054,0.009675979614257812,0.04444118612364332,0.046635968028838404,0.0519738976023889
0.09137100726366043,0.2869984209537506,9.748650550842285,0.0023274049162864685,-0.007422149181365967,0.00669097900390625,0.04444118612364332,0.05637226595350605,-0.049485474258789464
0.0953129231929779,0.31255316734313965,9.752233505249023,-0.002421766519546509,0.018528908491134644,0.008830070495605469,-0.02712534923676517,0.00541540953194783,-0.10044232067518777
0.09486725926399231,0.2979484498500824,9.73507022857666,-0.002316974103450775,0.00555691123008728,-0.0058135986328125,0.10547629015540616,-0.019836426819610776,0.0010082933360099097
0.09973988682031631,0.2850991189479828,9.746124267578125,0.004698470234870911,-0.01573166251182556,-0.00331878662109375,0.015359834793209133,0.025221820871807573,0.01235294406271019
0.10485757887363434,0.27418822050094604,9.755965232849121,0.002311922609806061,-0.024289071559906006,0.012834548950195312,-0.05323361393700669,0.01680329588970282,-0.003623935623007449
0.09567601978778839,0.2991383969783783,9.764227867126465,-0.0003970414400100708,0.007085889577865601,0.021312713623046875,-0.07762899525945594,0.09844355652803345,0.05362090700728756
0.08342413604259491,0.29066070914268494,9.78016471862793,-0.01662018895149231,0.00003069639205932617,0.030031204223632812,-0.03335690967862333,0.04119870389257852,-0.003623935623007449
0.09818394482135773,0.2949402928352356,9.753268241882324,0.0029305294156074524,0.007133662700653076,0.014149665832519531,-0.016593917908119534,0.017531444748036425,-0.017324534705899335
0.09887225925922394,0.28868991136550903,9.745190620422363,0.002767235040664673,-0.0045233070850372314,-0.00021266937255859375,-0.016593917908119534,-0.016771546182232838,-0.003623935623007449
0.09602738171815872,0.2972278296947479,9.763957977294922,-0.0018990635871887207,0.016590237617492676,0.013765335083007812,-0.016593917908119534,0.04119870389257852,-0.003623935623007449
0.09640698879957199,0.27892154455184937,9.751965522766113,-0.004151672124862671,-0.01408877968788147,0.010486602783203125,-0.016593917908119534,0.0029961018330551003,-0.0646590396547703
0.09387315809726715,0.28733810782432556,9.766207695007324,-0.0017808154225349426,-0.004012763500213623,0.0195465087890625,-0.01888037709363419,0.03891223470190394,-0.003623935623007449
0.08234444260597229,0.287126362323761,9.777524948120117,-0.013408772647380829,-0.010759502649307251,0.023657798767089844,-0.03491630056307542,-0.019836426819610776,-0.003623935623007449
0.08666961640119553,0.2908678352832794,9.765894889831543,-0.012843117117881775,-0.0010578334331512451,0.029089927673339844,0.005446542254556262,-0.05883106068353792,0.07945162857143119
0.09632407128810883,0.2872702479362488,9.737507820129395,0.0016396641731262207,-0.003536134958267212,-0.011186599731445312,0.04444118612364332,0.09937099483170068,0.0574111684087554
0.08159195631742477,0.27652043104171753,9.756722450256348,-0.014744184911251068,-0.017484337091445923,-0.0015573501586914062,0.0025791968244731744,-0.019836426819610776,0.0574111684087554
0.08328498899936676,0.29250481724739075,9.761964797973633,-0.014271065592765808,-0.0003993809223175049,0.014446258544921875,0.023191447089422113,-0.07815738776499312,-0.003623935623007449
0.09457086771726608,0.2901771366596222,9.747337341308594,0.0002594888210296631,-0.0007198750972747803,-0.0025148391723632812,0.10484181627432222,-0.019836426819610776,-0.004258409504091387
0.10699614882469177,0.29065611958503723,9.781098365783691,0.02351199835538864,0.015527874231338501,0.041808128356933594,0.0033813038249133243,0.021223472154385744,-0.0646590396547703
0.09592708200216293,0.3052029609680176,9.746049880981445,-0.0004715174436569214,0.008389562368392944,-0.001953125,0.02430605525471018,0.020748707306003745,-0.0646590396547703
0.10150191932916641,0.28290554881095886,9.763568878173828,0.0063531845808029175,-0.009172588586807251,0.01239776611328125,0.10547629015540616,-0.019836426819610776,-0.0646590396547703
0.10222300887107849,0.2882215678691864,9.751504898071289,-0.000947125256061554,-0.020635277032852173,-0.013561248779296875,0.004177901317292507,-0.00034494122835217227,0.01714788360240459
0.10585123300552368,0.28691667318344116,9.766637802124023,0.019775688648223877,-0.0017331838607788086,0.009892463684082031,0.10547629015540616,-0.05915269322433676,0.0160342025819355
0.07530736178159714,0.30871859192848206,9.77564811706543,-0.020224809646606445,0.016908735036849976,0.02288341522216797,0.10547629015540616,0.03834499549546232,0.0574111684087554
0.08488219231367111,0.28394681215286255,9.778282165527344,-0.005623914301395416,0.0023926198482513428,0.008275032043457031,-0.03452237740682287,0.04119870389257852,0.017929379973415698
0.10316116362810135,0.2990097403526306,9.772974967956543,0.008987084031105042,0.009853869676589966,0.025735855102539062,-0.016593917908119534,0.04119870389257852,0.015297142461169144
0.099174864590168,0.2877313494682312,9.751779556274414,0.003935419023036957,-0.004346758127212524,-0.0029773712158203125,-0.016593917908119534,-0.01825611181071891,-0.06149841630709318
0.10519050806760788,0.29677852988243103,9.77537727355957,0.003799431025981903,0.012203335762023926,0.015733718872070312,-0.07762899525945594,-0.019836426819610776,-0.009552833307269417
0.10782508552074432,0.28847694396972656,9.778441429138184,0.017235450446605682,-0.008947134017944336,0.019331932067871094,0.001434539828901018,-0.019836426819610776,0.03938271067173485
0.10350783169269562,0.290497750043869,9.778302192687988,0.007431529462337494,-0.0020329654216766357,0.02034473419189453,-0.014071883897305548,-0.019836426819610776,-0.062137005643956314
0.07664575427770615,0.2858673930168152,9.774778366088867,-0.017783820629119873,-0.011214107275009155,0.009715080261230469,-0.03972288610891322,0.003292568061609355,0.011153205326741583
0.10462672263383865,0.2909523844718933,9.771814346313477,0.012953616678714752,-0.008647501468658447,0.009448051452636719,0.04444118612364332,-0.019836426819610776,-0.020898924776997747
0.10338030010461807,0.30023902654647827,9.762284278869629,0.007811270654201508,0.007408618927001953,0.0016193389892578125,-0.07096019598901118,-0.07753710787077811,-0.006958335258229826
0.0948379710316658,0.2942776083946228,9.77124309539795,-0.004080101847648621,0.005001753568649292,0.015544891357421875,-0.07762899525945594,-0.019836426819610776,0.009526192901463722
0.11154536157846451,0.28042083978652954,9.77062702178955,0.017005212604999542,-0.011290788650512695,0.012552261352539062,-0.00011477919456794865,0.02471955850892032,0.04093202969520382
0.09960048645734787,0.29828429222106934,9.76586627960205,0.0022325292229652405,0.007913917303085327,0.005138397216796875,-0.012452261950153051,-0.019836426819610776,-0.060517377026697204
0.08914381265640259,0.28722020983695984,9.76175594329834,0.0022421330213546753,0.00539165735244751,0.004993438720703125,0.01969222911983351,0.004912540189358946,-0.10094518668272334
0.09254170954227448,0.29294776916503906,9.794839859008789,-0.0045777857303619385,0.003174901008605957,0.03053569793701172,-0.03227187009594333,-0.0651935553181767,0.026055264033107803
0.09211985021829605,0.2743951678276062,9.775535583496094,-0.0044533684849739075,-0.017613649368286133,0.009967803955078125,-0.021523086673260552,-0.019836426819610776,-0.008553104388148467
0.08312614262104034,0.29195699095726013,9.780401229858398,-0.008442200720310211,0.011225253343582153,0.01621246337890625,-0.026552080253946894,0.005702050693463579,-0.03912057548190916
0.0807274654507637,0.30021950602531433,9.761823654174805,-0.006006769835948944,0.010938942432403564,-0.00286865234375,-0.03154757655923108,-0.05096416685840425,-0.09578680637399022
0.10358934104442596,0.28609976172447205,9.763632774353027,0.01406252384185791,-0.005414247512817383,-0.00045871734619140625,-0.13300838249333088,0.04119870389257852,-0.059003309516669177
0.1042320504784584,0.28009259700775146,9.790213584899902,0.006655298173427582,-0.007464796304702759,0.004208564758300781,-0.04292904627442596,-0.019836426819610776,-0.0299590773295271
0.10150828957557678,0.285028874874115,9.790714263916016,0.006096698343753815,-0.006872266530990601,0.03321647644042969,-0.030687426291059045,-0.019836426819610776,-0.003623935623007449
0.10792864859104156,0.3009587526321411,9.76337718963623,0.012687906622886658,0.012130200862884521,-0.0025091171264648438,-0.07762899525945594,-0.019836426819610776,-0.05815261745967202
0.07702746987342834,0.2846777141094208,9.76602840423584,-0.03660205751657486,-0.000027686357498168945,-0.0001049041748046875,0.0037167835070373097,-0.019836426819610776,0.03710048033381178
0.11379152536392212,0.2960551083087921,9.782580375671387,0.02042289823293686,0.0027162134647369385,0.01852703094482422,-0.029904555878086003,0.02788805424992548,-0.003623935623007449
0.10629922151565552,0.30705752968788147,9.777432441711426,0.010084010660648346,0.01634153723716736,0.01084136962890625,-0.07762899525945594,-0.07357355709954765,-0.05736108257821085
0.09110681712627411,0.2979455888271332,9.761237144470215,0.005011856555938721,0.027357041835784912,-0.005756378173828125,0.07234854532962867,-0.04774377268538291,-0.03675168711889156
0.09727149456739426,0.27857959270477295,9.760316848754883,-0.0017937123775482178,-0.015072822570800781,-0.007767677307128906,-0.029119724453769227,-0.019836426819610776,0.008901870922642243
0.06920862197875977,0.30039387941360474,9.76602840423584,-0.03243038058280945,0.011137962341308594,-0.000553131103515625,-0.024677513491895738,-0.019836426819610776,0.0574111684087554
0.0795222818851471,0.29550081491470337,9.767436981201172,-0.02923043817281723,0.013184040784835815,-0.0028676986694335938,-0.048897390969187396,-0.019836426819610776,-0.03235555325348921
0.08591703325510025,0.29652994871139526,9.776529312133789,-0.014434747397899628,0.0015251338481903076,0.008732795715332031,-0.07762899525945594,-0.03153345260848157,0.034017103490800595
0.11313635110855103,0.2812190055847168,9.774262428283691,0.017959900200366974,-0.015392690896987915,0.005794525146484375,0.0266404858469736,-0.028736776957945635,-0.012524285761342306
0.08358175307512283,0.3042965531349182,9.77461051940918,-0.0127495676279068,0.01523810625076294,0.0009784698486328125,0.04444118612364332,0.04119870389257852,0.0574111684087554
0.09364005923271179,0.30326545238494873,9.767995834350586,-0.0027690082788467407,0.00973007082939148,0.000606536865234375,0.03352543659226546,-0.019836426819610776,0.0072918139083704096
0.1095680221915245,0.3051367402076721,9.761998176574707,0.01568783074617386,0.011488527059555054,-0.006354331970214844,-0.06793291474260137,-0.019836426819610776,0.006072144893847117
0.09311582148075104,0.2828827202320099,9.75879192352295,-0.0010863393545150757,-0.01897689700126648,-0.0015230178833007812,-0.04689996084335535,-0.019836426819610776,-0.004046913763659001
0.09870577603578568,0.28680261969566345,9.76401138305664,0.0012037232518196106,-0.006655395030975342,-0.008042335510253906,-0.06749616950190401,-0.08087150750600049,-0.003623935623007449
0.09282033145427704,0.2888408601284027,9.780061721801758,-0.006335735321044922,-0.0042678117752075195,0.01019287109375,0.03396458974144951,-0.030313016531697972,-0.003623935623007449
0.08337386697530746,0.297093003988266,9.770867347717285,-0.02006164938211441,0.00033214688301086426,0.00525665283203125,0.07557149415348216,0.011293891215387979,-0.03475424365284629
0.11165621876716614,0.29406195878982544,9.764896392822266,0.01768147200345993,0.0024412572383880615,-0.006546974182128906,-0.07762899525945594,-0.07154891293874133,-0.012946530190266611
0.08975788205862045,0.2939195930957794,9.775400161743164,-0.008536137640476227,0.002789318561553955,0.004797935485839844,-0.12752774265377745,0.030062320574710737,-0.11455776036866537
0.08473995327949524,0.30042633414268494,9.767073631286621,-0.01058882474899292,0.01672723889350891,0.0024662017822265625,-0.016593917908119534,-0.08346363099708644,-0.06725114980564303
0.10284867137670517,0.2979092299938202,9.767133712768555,0.006076514720916748,0.006974369287490845,0.0023956298828125,-0.008055941321765587,0.04973668047893247,-0.003623935623007449
0.09378442913293839,0.2952987849712372,9.746391296386719,-0.006027258932590485,0.0045424699783325195,-0.020313262939453125,-0.004552000916696154,0.004247407163235981,-0.003623935623007449
0.08630077540874481,0.2960749566555023,9.748759269714355,-0.019967660307884216,0.004342377185821533,-0.024402618408203125,-0.012340617705692433,-0.02408969367150482,-0.003623935623007449
0.09070926904678345,0.2858204245567322,9.781845092773438,-0.0030827149748802185,-0.007322639226913452,0.01846027374267578,-0.008841066230773263,0.033445848880178944,-0.011376787300353719
0.07856268435716629,0.29756632447242737,9.772078514099121,-0.016585983335971832,0.006876468658447266,0.008846282958984375,-0.003737327435400239,0.02834211008480592,-0.0646590396547703
0.08785733580589294,0.2982666492462158,9.783037185668945,0.00024300813674926758,0.004486709833145142,0.01791095733642578,-0.0501771176236392,0.06865059820366179,0.0574111684087554
0.0985744297504425,0.29452452063560486,9.776928901672363,0.005303911864757538,0.0018010437488555908,0.010072708129882812,0.05130031021613606,-0.08087150750600049,-0.003623935623007449
0.09059994667768478,0.2942591905593872,9.766563415527344,0.00036479532718658447,-0.000752866268157959,0.00048351287841796875,-0.036770776964013215,0.013959886137194528,-0.003623935623007449
0.1089836061000824,0.29718923568725586,9.760846138000488,0.011850088834762573,0.0037536919116973877,0.0080108642578125,0.05180173548064359,0.04119870389257852,0.030573887736320807
0.09662910550832748,0.28714585304260254,9.758753776550293,0.011462762951850891,-0.007956653833389282,0.0006570816040039062,0.006921049362272432,0.02944121692232923,-0.0646590396547703
0.09662910550832748,0.28714585304260254,9.758753776550293,-0.00043239444494247437,-0.005381584167480469,-0.011007308959960938,0.006921049362272432,0.02944121692232923,-0.0646590396547703
0.08665158599615097,0.2935475707054138,9.754341125488281,-0.019081629812717438,-0.0005477368831634521,-0.006045341491699219,0.01269083165332087,-0.04912116304083796,-0.03537429676343651
0.1063966304063797,0.2952115535736084,9.745721817016602,0.01364993304014206,0.0017037391662597656,-0.021623611450195312,-0.016593917908119534,-0.08087150750600049,-0.003623935623007449
0.0877310261130333,0.29419806599617004,9.749863624572754,-0.005079612135887146,-0.000895082950592041,-0.018495559692382812,0.0291548225547581,0.010625976754808085,-0.003623935623007449
0.094584621489048,0.294530987739563,9.749523162841797,-0.00984133780002594,0.010881900787353516,-0.024724960327148438,0.019239715747106943,-0.019836426819610776,-0.07529120960356701
0.094584621489048,0.294530987739563,9.749523162841797,-0.00984133780002594,0.010881900787353516,-0.024724960327148438,0.019239715747106943,-0.019836426819610776,-0.07529120960356701
0.09301361441612244,0.27998778223991394,9.757101058959961,0.0005246028304100037,-0.014614582061767578,-0.007254600524902344,-0.016593917908119534,-0.06420505885858924,-0.12569414368653314
0.09036111831665039,0.30302366614341736,9.763419151306152,0.005546838045120239,0.003995180130004883,0.01416778564453125,0.007276619405509776,0.04119870389257852,-0.003623935623007449
0.07830192893743515,0.28506216406822205,9.74267292022705,-0.015701867640018463,-0.007834374904632568,-0.021155357360839844,0.04062736590562423,-0.07705768728798139,-0.007437755841026542
0.08953088521957397,0.2914695143699646,9.767230987548828,-0.0033757761120796204,0.0020276308059692383,0.010016441345214844,-0.016593917908119534,0.06835447882065132,-0.0646590396547703
0.08769171684980392,0.2833726406097412,9.770455360412598,-0.003314770758152008,-0.007418274879455566,0.009740829467773438,0.04444118612364332,0.0035941102412948398,-0.050484989734498845
0.0861247256398201,0.2910134494304657,9.75655746459961,-0.002976424992084503,-0.004776746034622192,0.01639080047607422,0.018689325229965564,-0.019836426819610776,-0.003623935623007449
0.0861247256398201,0.2910134494304657,9.75655746459961,-0.007584378123283386,0.00004124641418457031,-0.016671180725097656,0.018689325229965564,-0.019836426819610776,-0.003623935623007449
0.0904247984290123,0.30140769481658936,9.766672134399414,-0.002745591104030609,0.014344483613967896,0.011731147766113281,-0.1313713515679228,-0.019836426819610776,-0.0646590396547703
0.10701843351125717,0.2823350429534912,9.76674747467041,0.015179865062236786,-0.016316860914230347,0.0054569244384765625,-0.0593041713454803,-0.08087150750600049,-0.021948772877196307
0.10701843351125717,0.2823350429534912,9.76674747467041,0.012295112013816833,-0.006418973207473755,0.0029735565185546875,-0.0593041713454803,-0.08087150750600049,-0.021948772877196307
0.09797275811433792,0.2963254451751709,9.772823333740234,-0.002157166600227356,0.005331128835678101,0.014538764953613281,0.0004248457705027267,-0.03685515047759337,0.0354029915620785
0.11578425765037537,0.28526031970977783,9.742461204528809,0.020939230918884277,-0.0063895583152771,-0.02081012725830078,-0.015359214473294278,0.039964000457753265,-0.12322473681688265
0.10945513844490051,0.2777968943119049,9.751426696777344,0.012873105704784393,-0.017794251441955566,-0.015528678894042969,0.002780754106054664,-0.019836426819610776,-0.0452843676405961
0.08473995327949524,0.29083460569381714,9.736849784851074,-0.010904662311077118,-0.0009709000587463379,-0.033728599548339844,0.004599825581099466,-0.10206525099521949,-0.0434652961655513
0.08708389848470688,0.29812514781951904,9.761185646057129,-0.0013545900583267212,-0.008114933967590332,0.0279693603515625,-0.05772163519108686,0.04119870389257852,-0.0646590396547703
0.08708389848470688,0.29812514781951904,9.761185646057129,-0.010390311479568481,0.013378947973251343,-0.0031995773315429688,-0.05772163519108686,0.04119870389257852,-0.0646590396547703
0.08792340755462646,0.30116066336631775,9.745336532592773,-0.005577974021434784,0.013034820556640625,-0.026397705078125,-0.03707270600988216,-0.06039271940423786,-0.024102723724770073
0.06802911311388016,0.28763195872306824,9.77796459197998,-0.026162154972553253,-0.003673344850540161,0.016126632690429688,0.04402264360388831,-0.019836426819610776,-0.0646590396547703
0.09911283850669861,0.28809964656829834,9.752147674560547,0.0045508816838264465,-0.005946338176727295,-0.012187004089355469,-0.040839381914372294,-0.062476700833458666,-0.02201874229554927
0.09788550436496735,0.2789311110973358,9.74782943725586,0.006723649799823761,-0.012842804193496704,-0.02116107940673828,0.04444118612364332,0.0032401310184843007,-0.0646590396547703
0.0754002183675766,0.27806004881858826,9.749432563781738,-0.018969222903251648,-0.012354671955108643,-0.011264801025390625,0.04444118612364332,-0.01895487884942956,-0.004505483593188665
0.10108616948127747,0.3070525527000427,9.768282890319824,0.014487020671367645,0.010630667209625244,0.009922027587890625,-0.016593917908119534,0.04119870389257852,-0.021578835424318137
0.10408558696508408,0.2936922311782837,9.744468688964844,0.011824339628219604,-0.0011802911758422852,-0.015976905822753906,-0.05882824589854793,0.0035971751552827504,-0.003623935623007449
0.08516585826873779,0.30662912130355835,9.765389442443848,-0.009752906858921051,0.0148162841796875,0.005862236022949219,0.0426325733757651,-0.021645039567488998,-0.003623935623007449
0.08649073541164398,0.29391831159591675,9.745988845825195,-0.009212777018547058,0.003004908561706543,-0.012517929077148438,-0.09405520000693993,0.04119870389257852,-0.02005011369006499
0.09503171592950821,0.29044678807258606,9.7422513961792,0.000430472195148468,-0.0040388405323028564,-0.02148723602294922,0.0014930500040956974,0.023111724307676718,-0.0646590396547703
0.08066444098949432,0.29030942916870117,9.740291595458984,-0.013693124055862427,-0.0016914308071136475,-0.01843547821044922,-0.07242068253263031,-0.019836426819610776,-0.0062280919864202595
0.09410426020622253,0.30507272481918335,9.772082328796387,0.007713228464126587,0.02167341113090515,0.01933765411376953,-0.016593917908119534,0.0034688389690272522,0.01968132349552397
0.07477166503667831,0.29402104020118713,9.769865989685059,-0.020397812128067017,-0.0022595226764678955,0.013874053955078125,-0.06056540846440547,-0.019836426819610776,-0.003623935623007449
0.09578149020671844,0.3111610412597656,9.768022537231445,0.003753446042537689,0.018489807844161987,0.008778572082519531,-0.016593917908119534,-0.019836426819610776,-0.06125267623931817
0.08996214717626572,0.2982112169265747,9.7608060836792,-0.005568049848079681,0.008732914924621582,0.003958702087402344,-0.016593917908119534,0.04119870389257852,0.009395952399770686
0.09349576383829117,0.29958468675613403,9.75709056854248,0.0038726404309272766,0.006086558103561401,-0.0031347274780273438,-0.004808800021232767,-0.019836426819610776,-0.0646590396547703
0.09812550991773605,0.30627742409706116,9.763303756713867,0.006453946232795715,0.013192921876907349,0.00394439697265625,-0.13866412597164524,0.09384834666070903,-0.007816671257403577
0.10247723013162613,0.2909179925918579,9.774076461791992,0.008143015205860138,0.0012623965740203857,0.022430419921875,0.03278194648872577,-0.056183588647791056,-0.08934697852329956
0.09464631974697113,0.29178106784820557,9.755829811096191,0.010213017463684082,-0.0010741353034973145,-0.0038118362426757812,-0.016593917908119534,-0.019836426819610776,-0.003623935623007449
0.09539102762937546,0.2999730408191681,9.750425338745117,0.02004741132259369,0.0037532150745391846,-0.01748943328857422,0.028764501256075672,0.005734183932063713,-0.02919453636952202
0.09539102762937546,0.2999730408191681,9.750425338745117,-0.010818451642990112,0.008131474256515503,-0.0030241012573242188,0.028764501256075672,0.005734183932063713,-0.02919453636952202
0.08829925209283829,0.29616111516952515,9.752373695373535,-0.005889736115932465,0.007729470729827881,-0.0029344558715820312,0.09064969036513404,-0.005009823694285349,-0.049832439864498174
0.10710299760103226,0.2845296859741211,9.757022857666016,0.01529790461063385,-0.008292585611343384,0.0000057220458984375,-0.06604148595103675,-0.01404266549529457,-0.003623935623007449
0.09568101912736893,0.28993505239486694,9.748613357543945,0.003040410578250885,0.0038877129554748535,-0.013836860656738281,0.018036775359964893,-0.05446710674748198,-0.038254635561198486
0.08739347010850906,0.2961570918560028,9.745500564575195,-0.004045344889163971,-0.005916029214859009,-0.00408172607421875,0.04444118612364332,0.04119870389257852,0.05083653770344955
0.08739347010850906,0.2961570918560028,9.745500564575195,-0.006196364760398865,0.003491222858428955,-0.013281822204589844,0.04444118612364332,0.04119870389257852,0.05083653770344955
0.09005822241306305,0.2892072796821594,9.740205764770508,-0.008503161370754242,-0.0006812512874603271,-0.021944046020507812,-0.11156289584038667,-0.019836426819610776,-0.0646590396547703
0.09693524986505508,0.29030749201774597,9.731228828430176,0.001114286482334137,-0.000836491584777832,-0.021329879760742188,0.09215875529520356,0.04119870389257852,0.04409363354855281
0.0999743789434433,0.2975744307041168,9.753959655761719,0.0055229514837265015,0.006309330463409424,0.0035839080810546875,0.04444118612364332,0.04119870389257852,-0.003623935623007449
0.10578318685293198,0.301785409450531,9.751587867736816,0.019200123846530914,0.005690723657608032,-0.01782703399658203,0.039478626804805926,-0.014873840820346942,-0.03166020797947018
0.08334455639123917,0.3048407733440399,9.746899604797363,-0.016198717057704926,0.012546926736831665,-0.012675285339355469,-0.004297923215656969,0.016606717842706696,-0.028215925007932578
0.07546021044254303,0.2905064523220062,9.757996559143066,-0.025994643568992615,-0.015575319528579712,-0.005600929260253906,0.012640412317445747,-0.07830509060579464,0.02561039460255783
0.07546021044254303,0.2905064523220062,9.757996559143066,-0.011331737041473389,0.008174151182174683,0.01085662841796875,0.012640412317445747,-0.07830509060579464,0.02561039460255783
0.10059411823749542,0.2937694787979126,9.752442359924316,0.007682599127292633,-0.0013414621353149414,0.0035657882690429688,-0.016593917908119534,0.029552460960393167,-0.015270168550032883
0.10489208996295929,0.2954972982406616,9.762091636657715,0.01178479939699173,0.0009201467037200928,0.013593673706054688,-0.016593917908119534,-0.12398025979274918,-0.012587118165621134
0.10043847560882568,0.28298693895339966,9.757431030273438,0.008906319737434387,-0.00550881028175354,-0.003326416015625,-0.048197923569282555,-0.04926750517989077,-0.003623935623007449
0.09456317871809006,0.300687700510025,9.759462356567383,0.0016393661499023438,0.008544057607650757,0.00142669677734375,0.04444118612364332,-0.030813674733945196,-0.025578444791889508
0.09078291058540344,0.2887507975101471,9.743000030517578,-0.0029452070593833923,-0.0058502256870269775,-0.017729759216308594,0.04444118612364332,-0.029548175416895382,0.028275915946794974
0.10150828957557678,0.30117616057395935,9.743035316467285,0.006114780902862549,0.012571185827255249,-0.014676094055175781,0.10547629015540616,-0.048347444014135675,-0.03614801579013879
0.0988587811589241,0.29212242364883423,9.75990104675293,0.005909144878387451,-0.004355877637863159,0.004370689392089844,0.13950834802522938,-0.019836426819610776,0.03040810890660255
0.0995592400431633,0.2895563542842865,9.75761604309082,0.005848705768585205,-0.0068566203117370605,0.0016794204711914062,0.04444118612364332,-0.019836426819610776,-0.0646590396547703
0.10024308413267136,0.2802410125732422,9.750615119934082,0.0009986832737922668,-0.023043513298034668,0.003963470458984375,0.07438577598161059,-0.019836426819610776,-0.03471444979680303
0.09526396542787552,0.29021817445755005,9.734457015991211,0.0006883516907691956,-0.0015833675861358643,-0.023738861083984375,0.04444118612364332,-0.029094121249541596,-0.05540134522483948
0.09688519686460495,0.3014247715473175,9.733491897583008,0.003072299063205719,0.01261928677558899,-0.02553558349609375,0.09412455577548465,-0.03118815452942569,0.046059434028833876
0.09284944832324982,0.29626619815826416,9.752577781677246,-0.008488059043884277,0.007537186145782471,-0.0061931610107421875,-0.0429121308840596,0.043998251024010636,-0.03274171240564616
0.08161824941635132,0.29445987939834595,9.760235786437988,-0.01539187878370285,0.0008112788200378418,0.007786750793457031,-0.06061640809955578,-0.019836426819610776,-0.0646590396547703
0.11112013459205627,0.2962370216846466,9.759808540344238,0.020006470382213593,0.0031132400035858154,0.007555961608886719,-0.004463128416206653,-0.019836426819610776,-0.11356335419462027
0.09712357819080353,0.28077268600463867,9.734832763671875,0.012739673256874084,-0.017545491456985474,-0.03446006774902344,-0.05383379012989511,0.008440366246203588,-0.03638225659411585
0.1047988086938858,0.28042611479759216,9.741474151611328,0.010128408670425415,-0.014601409435272217,-0.010217666625976562,-0.07762899525945594,0.048844620420731774,-0.07230495618292355
0.09998739510774612,0.28963518142700195,9.742947578430176,0.00538046658039093,-0.004954814910888672,-0.007203102111816406,0.01860696275352873,0.005997803220610421,-0.0775761546748809
0.10329364985227585,0.2865270972251892,9.754660606384277,0.0001752898097038269,-0.007162630558013916,0.009368896484375,0.038452364201585064,-0.019836426819610776,-0.05867021773271205
0.09513574093580246,0.28995653986930847,9.743430137634277,-0.002086952328681946,-0.00015297532081604004,-0.009517669677734375,0.09856379853991608,0.03428620894203513,-0.0646590396547703
0.10522429645061493,0.29127711057662964,9.765198707580566,0.009520672261714935,0.004948079586029053,0.016303062438964844,0.04444118612364332,0.027504418065594265,-0.0646590396547703
0.09222415834665298,0.29105162620544434,9.76244068145752,-0.006940111517906189,0.00016686320304870605,0.020456314086914062,0.01771742399562713,0.014474925089295801,-0.0646590396547703
0.08618089556694031,0.28521186113357544,9.7332124710083,-0.011539183557033539,-0.006695777177810669,-0.01970672607421875,-0.053152918987222686,-0.08087150750600049,-0.009742958026119068
0.09728530794382095,0.28521186113357544,9.7378511428833,0.00009430199861526489,-0.006775557994842529,-0.014147758483886719,0.1199478201604368,-0.08087150750600049,-0.11122261368150252
0.10941553115844727,0.2777286767959595,9.737515449523926,0.0066599249839782715,-0.02025914192199707,0.0032501220703125,-0.016593917908119534,0.006089657258755192,-0.003623935623007449
0.0955139771103859,0.29301121830940247,9.74267578125,-0.004857398569583893,0.010273635387420654,-0.00637054443359375,0.029110826531549696,0.05652906014961883,-0.003623935623007449
0.09940405189990997,0.2926895022392273,9.738133430480957,0.00928681343793869,0.007762312889099121,-0.008287429809570312,-0.07762899525945594,-0.019836426819610776,-0.003623935623007449
0.09940405189990997,0.2926895022392273,9.738133430480957,-0.007306434214115143,-0.008627176284790039,-0.01737689971923828,-0.07762899525945594,-0.019836426819610776,-0.003623935623007449
0.10955706238746643,0.27400103211402893,9.749126434326172,-0.004576660692691803,-0.008524268865585327,-0.008138656616210938,-0.10643731911596811,-0.03594982357734272,-0.019737339050846008
0.10955706238746643,0.27400103211402893,9.749126434326172,0.018807142972946167,-0.019702225923538208,0.00139617919921875,-0.10643731911596811,-0.03594982357734272,-0.019737339050846008
0.09147784113883972,0.2966834008693695,9.740633010864258,-0.016765937209129333,0.015742719173431396,-0.007670402526855469,-0.004678732942311625,-0.019836426819610776,-0.02794068972872222
0.09089193493127823,0.3020074665546417,9.731485366821289,-0.0022316202521324158,-0.0006136894226074219,-0.02653789520263672,-0.09496827090096634,-0.03717568245080134,0.06642848553662672
0.09489744901657104,0.2945525348186493,9.741164207458496,0.00028157979249954224,-0.0006769299507141113,-0.006786346435546875,-0.13866412597164524,-0.019836426819610776,-0.01828961909128098
0.09489744901657104,0.2945525348186493,9.741164207458496,-0.004419684410095215,0.011216491460800171,-0.008933067321777344,-0.13866412597164524,-0.019836426819610776,-0.01828961909128098
0.09401822090148926,0.291397362947464,9.744468688964844,0.002818003296852112,0.004064828157424927,-0.0035371780395507812,-0.0088569677649347,0.04119870389257852,-0.02138999136593786
0.09401822090148926,0.291397362947464,9.744468688964844,-0.004178769886493683,-0.0007794797420501709,-0.003437042236328125,-0.0088569677649347,0.04119870389257852,-0.02138999136593786
0.09883479028940201,0.29390254616737366,9.741795539855957,-0.0018458068370819092,0.0016180872917175293,-0.010240554809570312,-0.039300188112739345,0.018492420347745484,-0.003623935623007449
0.10274863243103027,0.3151978850364685,9.723074913024902,0.007387317717075348,0.024890035390853882,-0.02392864227294922,-0.016593917908119534,-0.08087150750600049,-0.003623935623007449
0.07704400271177292,0.2828163504600525,9.739384651184082,-0.015567027032375336,-0.008016616106033325,-0.0017900466918945312,-0.05912475881784846,-0.03834065659111164,0.03890693196714793
0.10255160182714462,0.28441041707992554,9.750795364379883,0.012847676873207092,0.013598471879959106,0.0027723312377929688,0.022536822816265314,0.04119870389257852,0.0355068051013774
0.1059935986995697,0.3091156780719757,9.744519233703613,0.010024912655353546,0.018008261919021606,-0.0019655227661132812,-0.07503332327165275,-0.07957366484199228,0.054815496420952216
0.10830298811197281,0.29039451479911804,9.751776695251465,0.0192253515124321,-0.008579134941101074,0.007393836975097656,0.002714773411455283,0.02189000423537044,-0.10638545236695833
0.10997080057859421,0.2810589373111725,9.742230415344238,0.00653240829706192,-0.012810826301574707,-0.016168594360351562,0.005795202067344256,-0.019836426819610776,-0.04226991967930651
0.09102044999599457,0.2817493677139282,9.760814666748047,-0.0032956600189208984,-0.0010691285133361816,0.0028409957885742188,0.06341771947418659,0.04119870389257852,-0.04568250630422702
0.09102044999599457,0.2817493677139282,9.760814666748047,-0.007786504924297333,-0.012763053178787231,0.019066810607910156,0.02404647471571664,-0.019836426819610776,-0.024018653701040737
0.07533121109008789,0.28290870785713196,9.758771896362305,0.013086207211017609,0.010533362627029419,-0.002742767333984375,-0.016593917908119534,-0.019836426819610776,-0.003918114004994014
0.07533121109008789,0.28290870785713196,9.758771896362305,-0.022244147956371307,-0.008363276720046997,0.011305809020996094,-0.016593917908119534,-0.019836426819610776,-0.003918114004994014
0.11095926910638809,0.2941043972969055,9.750900268554688,0.017793327569961548,-0.0013854503631591797,0.001499176025390625,0.002639001000350454,-0.019836426819610776,-0.043757940423017255
0.09461811929941177,0.31122350692749023,9.754303932189941,0.011868618428707123,0.0009740591049194336,0.020505905151367188,-0.07655058576274762,-0.08087150750600049,-0.0646590396547703
0.09911283850669861,0.2908642292022705,9.738628387451172,-0.00002884119749069214,0.000655442476272583,-0.015171051025390625,-0.03854298427000674,0.04119870389257852,-0.025573001984894657
0.09911283850669861,0.2908642292022705,9.738628387451172,0.00004045665264129639,-0.0016641616821289062,-0.005434989929199219,-0.03854298427000674,0.04119870389257852,-0.025573001984894657
0.12262383103370667,0.2971152663230896,9.742444038391113,0.00942770391702652,0.003333836793899536,0.0062465667724609375,0.04067206229002682,0.04119870389257852,-0.06654360490663186
0.09129571914672852,0.2927771508693695,9.76186752319336,0.023210719227790833,0.005495727062225342,-0.005568504333496094,-0.03266228477611832,0.018715331975643183,-0.0646590396547703
0.09129571914672852,0.2927771508693695,9.76186752319336,-0.009847044944763184,0.0055730342864990234,0.015241622924804688,-0.03266228477611832,0.018715331975643183,-0.0646590396547703
0.08744971454143524,0.29000282287597656,9.757794380187988,-0.004972867667675018,-0.0020624399185180664,-0.013276100158691406,0.04711042271726298,-0.08087150750600049,-0.061989803061150636
0.0837031677365303,0.2835075557231903,9.744468688964844,-0.028060004115104675,0.0002339184284210205,-0.0038738250732421875,-0.031068596203470716,-0.043116619677496776,0.019656270575091773
0.0837031677365303,0.2835075557231903,9.744468688964844,-0.006352819502353668,-0.013617455959320068,-0.0037698745727539062,-0.031068596203470716,-0.043116619677496776,0.019656270575091773
0.0920678898692131,0.2870413362979889,9.743619918823242,-0.004202350974082947,-0.013338595628738403,-0.017401695251464844,0.04444118612364332,-0.08087150750600049,-0.000018662958298530934
0.0966697707772255,0.2938450276851654,9.767119407653809,0.005245409905910492,0.0009614527225494385,-0.0005283355712890625,-0.02928583678881805,-0.05669992160057493,-0.040487453749344746
0.0966697707772255,0.2938450276851654,9.767119407653809,0.005245409905910492,0.0009614527225494385,-0.0005283355712890625,-0.02928583678881805,-0.05669992160057493,-0.040487453749344746
0.08697456121444702,0.2955893874168396,9.737604141235352,-0.00884895771741867,0.010209113359451294,-0.015377998352050781,0.04444118612364332,-0.019836426819610776,-0.032092310825966044
0.11011387407779694,0.3010038435459137,9.752098083496094,0.012497961521148682,0.010216206312179565,0.005340576171875,-0.016593917908119534,-0.044712829550443464,-0.0646590396547703
0.10207317769527435,0.293008416891098,9.74916934967041,0.005232490599155426,0.0005428493022918701,0.0051937103271484375,0.05998859098486996,0.025651292361245265,-0.003623935623007449
0.09891428053379059,0.29699066281318665,9.752462387084961,0.00042360275983810425,0.004860430955886841,0.005434989929199219,0.04950030857589308,-0.019836426819610776,-0.11557589878203361
0.09268544614315033,0.286599338054657,9.746864318847656,-0.0112595334649086,-0.006792604923248291,-0.0017061233520507812,0.02842894153267235,-0.019836426819610776,-0.12569414368653314
0.10919544845819473,0.3037627637386322,9.73550033569336,0.014658212661743164,0.011799216270446777,-0.01324462890625,0.07424434304102372,-0.019836426819610776,-0.003623935623007449
0.10591293126344681,0.2881867587566376,9.744178771972656,0.007261514663696289,-0.004932194948196411,-0.0032739639282226562,-0.07516840627074563,-0.019836426819610776,-0.062198443995953374
0.08995850384235382,0.2933821678161621,9.762092590332031,-0.0066671594977378845,-0.00035622715950012207,0.017548561096191406,0.05533576473663678,-0.030730978752177795,-0.003623935623007449
0.09486982226371765,0.27912136912345886,9.761096954345703,-0.004185765981674194,-0.014292389154434204,0.017060279846191406,0.011330016512795,-0.019836426819610776,-0.003623935623007449
0.1095237210392952,0.2977571189403534,9.748737335205078,0.012318149209022522,0.006976455450057983,0.000415802001953125,0.10547629015540616,0.034546516522649305,-0.003623935623007449
0.09992695599794388,0.29586362838745117,9.775704383850098,0.0050546228885650635,0.004381000995635986,0.04931354522705078,0.04444118612364332,0.04119870389257852,0.09118664061745357
0.09295888245105743,0.2935754954814911,9.737985610961914,-0.006746187806129456,0.0041634440422058105,-0.015101432800292969,-0.016593917908119534,-0.08087150750600049,-0.016777519262703294
0.10302611440420151,0.29303842782974243,9.73874568939209,0.004975639283657074,0.002113431692123413,-0.012333869934082031,-0.016593917908119534,-0.027290424370235933,0.04250315996729187
0.09600353240966797,0.3112354278564453,9.734500885009766,0.002700693905353546,0.02753978967666626,-0.018711090087890625,-0.016593917908119534,-0.019836426819610776,-0.03167537580190437
0.10245031863451004,0.29955777525901794,9.750686645507812,0.004820674657821655,0.00817081332206726,0.00276947021484375,-0.016593917908119534,-0.08087150750600049,-0.003623935623007449
0.08225365728139877,0.29000282287597656,9.746864318847656,-0.018698960542678833,-0.0036461055278778076,-0.0019073486328125,0.03605241982218506,-0.028225186450962423,-0.05627027335331204
0.10124991834163666,0.29201072454452515,9.750134468078613,0.007510297000408173,0.005898535251617432,0.007457733154296875,-0.04546576785999812,0.00903544647764095,-0.03249579891509926
0.0836123526096344,0.2928561270236969,9.730554580688477,-0.018423259258270264,-0.0010715126991271973,-0.018242835998535156,0.03277371557716738,-0.08087150750600049,-0.041324098561818415
0.09911283850669861,0.3009241819381714,9.757013320922852,0.0005341023206710815,0.008394747972488403,0.012965202331542969,-0.0686601964870755,-0.0288052189218846,0.005344863149372986
0.08604789525270462,0.2886947989463806,9.749627113342285,-0.01571790874004364,-0.0011257827281951904,-0.010685920715332031,-0.016593917908119534,-0.02170877910626697,0.0574111684087554
0.09800752997398376,0.2956538498401642,9.766948699951172,-0.001347169280052185,0.0015150606632232666,0.021860122680664062,-0.027551689111148837,-0.058955951759728654,0.03549561266248357
0.08373630046844482,0.30765169858932495,9.759343147277832,-0.017730116844177246,0.015325665473937988,0.011926651000976562,0.025141586159379756,-0.01018661683231908,-0.0646590396547703
0.10032562166452408,0.29718315601348877,9.76479721069336,-0.0032968223094940186,0.00561174750328064,0.027896881103515625,-0.04718834957280327,0.010758031525499406,-0.003623935623007449
0.11513872444629669,0.28599634766578674,9.751178741455078,0.019984886050224304,-0.008387267589569092,-0.0032024383544921875,-0.0065998837289363834,0.03120466304328876,-0.003623935623007449
0.09713251888751984,0.29396337270736694,9.755392074584961,-0.0017155855894088745,0.0013145804405212402,0.000919342041015625,-0.05647191067617287,-0.07029297188446557,-0.05408049736312876
0.08239752054214478,0.2864891588687897,9.733450889587402,-0.01344657689332962,-0.0032510459423065186,-0.027055740356445312,-0.04778731180628843,-0.05102982071777967,-0.003623935623007449
0.10187041014432907,0.30663177371025085,9.728424072265625,0.0035562217235565186,0.01580679416656494,-0.021498680114746094,-0.007367372876063676,-0.07164496247394463,-0.003623935623007449
0.10000547766685486,0.2865508198738098,9.751983642578125,0.005753666162490845,-0.0010086596012115479,-0.01624011993408203,-0.005221919744312757,0.07948982160188774,-0.05328704816107013
0.10264872759580612,0.27950966358184814,9.756904602050781,0.003478400409221649,-0.007795125246047974,0.01660633087158203,-0.042731437695958385,0.07025624627746352,-0.0646590396547703
0.10084445774555206,0.2930620610713959,9.752246856689453,0.0033614635467529297,0.0002923011779785156,-0.00010013580322265625,-0.06071503229591106,-0.028293401631276603,-0.05620205817299786
0.07177555561065674,0.2837590277194977,9.761225700378418,-0.0015237405896186829,0.004868358373641968,0.020867347717285156,-0.05332783586299848,-0.129756025169428,-0.003623935623007449
0.08845978230237961,0.2876073122024536,9.757593154907227,-0.021821148693561554,-0.004209935665130615,-0.007898330688476562,0.016197913678604244,-0.04807968592443663,-0.03186720806804652
0.09641802310943604,0.281317800283432,9.743569374084473,-0.0006998106837272644,-0.013242870569229126,-0.010698318481445312,-0.024219970858784218,-0.06561937492424467,-0.057032980033999
0.08867184817790985,0.31379231810569763,9.768936157226562,-0.009875521063804626,0.02448946237564087,0.01698017120361328,-0.1736013439890538,-0.006787480477380337,-0.05161009664759317
0.09564241021871567,0.30041396617889404,9.77834415435791,-0.00021997839212417603,0.0052062273025512695,0.018836021423339844,-0.016593917908119534,0.013810575800699668,0.0574111684087554
0.08154846727848053,0.2977186441421509,9.760970115661621,-0.016614556312561035,0.007212281227111816,0.008030891418457031,-0.0708367456558485,-0.06728700829878559,0.003168313980599997
0.09061489999294281,0.27725595235824585,9.73845386505127,-0.002113930881023407,-0.009262144565582275,0.005476951599121094,0.030631250653178337,0.04119870389257852,0.01018599984745753
0.09671732783317566,0.2947937250137329,9.764371871948242,0.0003958567976951599,0.0029374361038208008,0.008223533630371094,0.01782201793739956,-0.10749067569224424,-0.0646590396547703
0.06745228171348572,0.3060675263404846,9.761287689208984,-0.030160583555698395,0.014474421739578247,0.009908676147460938,-0.010618476219923631,-0.013860985131414875,-0.003623935623007449
0.10477317869663239,0.2959422767162323,9.763354301452637,-0.010622747242450714,0.007011771202087402,-0.013653755187988281,-0.0019617850761010453,-0.0052042806473790665,0.042779035576736915
0.10060593485832214,0.28382745385169983,9.768688201904297,0.012570798397064209,-0.00959169864654541,0.009543418884277344,0.07020327229075625,0.015436601050199053,-0.003623935623007449
0.0955030620098114,0.2934100925922394,9.754859924316406,0.0005921423435211182,-0.0001615285873413086,-0.0006074905395507812,0.10547629015540616,-0.07571507486839787,-0.05950260034706107
0.09129384905099869,0.30258578062057495,9.78153133392334,-0.013430684804916382,0.011312663555145264,0.008730888366699219,0.10547629015540616,-0.019836426819610776,-0.04922880188627846
0.09825287759304047,0.29024842381477356,9.76559829711914,-0.0013278871774673462,-0.012778788805007935,0.007613182067871094,0.019401232378700554,0.04119870389257852,-0.07561423619664763
0.08731179684400558,0.2765117585659027,9.73985481262207,-0.00846690684556961,-0.017329305410385132,-0.01622486114501953,-0.02108762209303257,-0.024330131004523813,-0.008117639807920487
0.07896577566862106,0.29465073347091675,9.742074012756348,-0.006033807992935181,-0.0050754547119140625,-0.013447761535644531,0.012101574424955209,-0.08087150750600049,-0.019793741472351502
0.10249417275190353,0.2876419126987457,9.755918502807617,0.01082727313041687,-0.0005449950695037842,-0.005718231201171875,0.020203632863831603,-0.04407396673920927,-0.0646590396547703
0.10008224844932556,0.2863526940345764,9.765172958374023,0.005570642650127411,-0.007326781749725342,0.0104522705078125,0.10184282962015773,-0.07723804697075204,0.050144247338258514
0.08274137228727341,0.2922706604003906,9.76030158996582,-0.017903193831443787,0.011433422565460205,-0.0038089752197265625,0.04444118612364332,0.06828556327914295,-0.020598049607973394
0.09544550627470016,0.2886723279953003,9.75348949432373,0.003976322710514069,-0.012276649475097656,-0.003917694091796875,0.08211610937903698,-0.04319660092587336,-0.026984116399376645
0.08942300081253052,0.301980197429657,9.754050254821777,-0.005452543497085571,0.008423089981079102,-0.0014925003051757812,0.16376245648965046,-0.019836426819610776,-0.1229452193292278
0.0871354341506958,0.307054728269577,9.757433891296387,-0.007659740746021271,0.0080128014087677,-0.001445770263671875,0.019279016015260962,-0.06293504387936355,-0.0646590396547703
0.09104149043560028,0.2873481214046478,9.757179260253906,-0.0026379674673080444,-0.004212677478790283,0.010149002075195312,-0.016593917908119534,-0.0038942150130055805,-0.087205500775089
0.10398358106613159,0.30629223585128784,9.754688262939453,0.009059108793735504,0.012668192386627197,-0.0014085769653320312,-0.07356205783574969,-0.019836426819610776,-0.00565739766475396
0.09463644027709961,0.29073217511177063,9.764883995056152,0.011106707155704498,-0.0017321109771728516,0.01726531982421875,0.08689255938320474,-0.019836426819610776,-0.0646590396547703
0.08559710532426834,0.2956508994102478,9.746535301208496,-0.010067880153656006,0.0005103945732116699,-0.01595306396484375,0.0007620730205588836,-0.041675983371153,-0.0646590396547703
0.10644254833459854,0.28305521607398987,9.742026329040527,0.011323682963848114,-0.011177539825439453,-0.013268470764160156,0.043223905007286886,0.03998141944116878,-0.0646590396547703
0.10367895662784576,0.29642820358276367,9.764195442199707,0.017966285347938538,0.0008040964603424072,-0.015230178833007812,0.06669569667758364,0.02180839714850734,-0.1063038502826752
0.08963402360677719,0.2932310998439789,9.764156341552734,-0.0083061084151268,-0.001779317855834961,0.01491546630859375,-0.016593917908119534,-0.10209233162806153,-0.10710067455867917
0.11343766748905182,0.29716524481773376,9.76796817779541,0.017222292721271515,0.0029616951942443848,0.012290000915527344,-0.01598246923505794,-0.08087150750600049,-0.0640475909817087
0.0974685400724411,0.28998249769210815,9.729324340820312,0.011951625347137451,0.00047641992568969727,-0.03229713439941406,0.0035789390838073453,0.0008529865736714557,0.03723831141682852
0.09670651704072952,0.3028075098991394,9.770841598510742,-0.0022912174463272095,0.014672189950942993,0.02044963836669922,-0.016593917908119534,-0.10112469926195435,-0.044405847898816436
0.08960101008415222,0.3138173222541809,9.75171184539795,-0.007282249629497528,0.019200295209884644,-0.003574371337890625,-0.07727163762764676,-0.02055113541312253,0.05705381077694622
0.10150828957557678,0.28618159890174866,9.749480247497559,0.004528939723968506,0.002392888069152832,0.008168220520019531,-0.05666052795092835,-0.019836426819610776,0.017344531685520134
0.10369470715522766,0.30906206369400024,9.75089168548584,0.0018873512744903564,0.012183040380477905,-0.0033464431762695312,-0.016593917908119534,-0.019836426819610776,-0.023081130196177153
0.10172505676746368,0.30690115690231323,9.737499237060547,0.003871701657772064,0.01137271523475647,-0.017075538635253906,-0.016593917908119534,0.10002458523833273,-0.12458953401105548
0.0943218469619751,0.28739866614341736,9.743086814880371,-0.003255404531955719,0.008654117584228516,-0.004954338073730469,0.04444118612364332,-0.05916028380566046,0.035699931368202154
0.09579598903656006,0.2938723564147949,9.743363380432129,-0.0033411532640457153,-0.002797454595565796,-0.013735771179199219,0.020965905987588827,-0.04331168027523882,-0.04587912770691612
0.08284656703472137,0.2902180254459381,9.756303787231445,-0.014793969690799713,-0.005347460508346558,0.003002166748046875,0.04626885536611014,0.04119870389257852,-0.06283137041230348
0.09972622245550156,0.2917848527431488,9.741518020629883,-0.0004391893744468689,-0.0004127919673919678,-0.02037525177001953,-0.07762899525945594,-0.019836426819610776,-0.0646590396547703
0.10460078716278076,0.29418495297431946,9.762720108032227,0.006383806467056274,-0.004666715860366821,0.003635406494140625,-0.059869382839512084,-0.019836426819610776,-0.0646590396547703
0.09257698059082031,0.30437564849853516,9.745986938476562,-0.00573374330997467,0.009125232696533203,-0.008790016174316406,0.041678441305439275,-0.019836426819610776,-0.0646590396547703
0.0887632817029953,0.30620959401130676,9.743552207946777,0.001382678747177124,0.013454824686050415,-0.010870933532714844,0.006769958107312345,-0.019836426819610776,-0.0646590396547703
0.09777311235666275,0.28933295607566833,9.751938819885254,0.0018025413155555725,-0.005732178688049316,-0.0033559799194335938,-0.016593917908119534,0.04119870389257852,-0.0646590396547703
0.10779909044504166,0.2786225378513336,9.761087417602539,0.011185653507709503,-0.01704654097557068,0.008214950561523438,0.040637797952364364,-0.01603303197822521,-0.0074273237942864044
0.09767895936965942,0.3034111559391022,9.739202499389648,0.008519373834133148,-0.007130622863769531,-0.0036611557006835938,0.03219041475400564,-0.019836426819610776,-0.05248119256071441
0.08563943952322006,0.2965569496154785,9.742839813232422,-0.01734331250190735,0.0016202032566070557,-0.0123138427734375,0.012221502941827113,-0.06476166591509239,-0.01973377721391555
0.08589036762714386,0.29925599694252014,9.744961738586426,-0.01237276941537857,0.004276275634765625,-0.007315635681152344,-0.1344767397627514,-0.019836426819610776,-0.12150675747763931
0.10167572647333145,0.2924819588661194,9.740123748779297,0.018315650522708893,0.004387468099594116,-0.014105796813964844,-0.06627515312584523,0.005004200794411989,-0.03981841537580084
0.09728129953145981,0.2924448549747467,9.728310585021973,0.0015980824828147888,-0.004792928695678711,-0.0227813720703125,-0.03214931355706656,-0.00428101449539722,-0.0646590396547703
0.09192639589309692,0.30176985263824463,9.741022109985352,-0.0053442418575286865,0.007108092308044434,-0.007630348205566406,-0.07762899525945594,-0.07015348661500921,-0.0646590396547703
0.11286471784114838,0.3002500832080841,9.756135940551758,0.0016570836305618286,0.009267032146453857,-0.000431060791015625,-0.016593917908119534,-0.08087150750600049,-0.003623935623007449
0.10333512723445892,0.29593101143836975,9.763753890991211,0.005518615245819092,-0.00030919909477233887,0.01557159423828125,-0.0021053257703770945,0.04119870389257852,-0.0646590396547703
0.10333512723445892,0.29593101143836975,9.763753890991211,0.005518615245819092,-0.00030919909477233887,0.01557159423828125,-0.0021053257703770945,0.04119870389257852,-0.0646590396547703
0.09134364128112793,0.29000282287597656,9.7640380859375,-0.0009255111217498779,-0.005342662334442139,-0.0011587142944335938,0.05186505480270505,-0.029666633175259485,0.060932331029095316
0.08823223412036896,0.2730325758457184,9.743371963500977,-0.009846076369285583,-0.023822367191314697,-0.006461143493652344,-0.030566777402673117,0.05817409520296054,0.01272999184923605
0.08338607102632523,0.28682607412338257,9.758893966674805,-0.013900279998779297,-0.006321936845779419,0.010318756103515625,-0.02322889973804479,0.05817409520296054,-0.03433226602818644
0.09755823016166687,0.28210270404815674,9.754288673400879,0.005314558744430542,-0.0038909316062927246,0.0007171630859375,-0.02265525722925628,0.05211273920655726,-0.006845383672873385
0.10166425257921219,0.30335506796836853,9.751145362854004,0.0028856471180915833,0.010935813188552856,0.00054168701171875,-0.0386240660859742,-0.015862680790424875,-0.08236572477875317
0.1089843362569809,0.2869494557380676,9.738730430603027,0.011717170476913452,-0.008409500122070312,-0.01338958740234375,0.051820024912971885,0.04341639094387695,-0.03433226602818644
0.11219283938407898,0.2854020297527313,9.748347282409668,0.016147777438163757,-0.010477930307388306,-0.0060329437255859375,0.016346637045717306,0.025233513568697255,-0.03433226602818644
0.08858337253332138,0.2914440929889679,9.75022029876709,-0.012625381350517273,-0.003193199634552002,-0.0012350082397460938,0.03220022648083092,0.009379917463477022,-0.009850373422988097
0.10390377044677734,0.2868858277797699,9.741686820983887,0.006260663270950317,-0.007914572954177856,-0.010611534118652344,0.03591090017021224,0.005669243774095701,0.08773794203533926
0.0943218469619751,0.28020843863487244,9.747478485107422,-0.003333278000354767,-0.0076677799224853516,0.01064300537109375,0.01527692536803017,-0.00015439962783931168,-0.03433226602818644
0.10274581611156464,0.290891170501709,9.751385688781738,0.008586451411247253,-0.002376377582550049,0.0037841796875,-0.02791123453792654,0.008456281120578248,-0.03433226602818644
0.11161836981773376,0.28255224227905273,9.747838973999023,0.018142610788345337,-0.011540442705154419,-0.000698089599609375,-0.025645039136297135,0.05817409520296054,-0.03433226602818644
0.1119244247674942,0.2949259579181671,9.746930122375488,0.027049578726291656,-0.0018760859966278076,-0.0053386688232421875,-0.047953517522829815,0.026814478912983726,0.058062437618286694
0.08276581019163132,0.28492316603660583,9.742206573486328,-0.01565650850534439,-0.008965522050857544,-0.00983428955078125,0.033705095913841916,0.00787504803046603,0.015966754463881624
0.09666072577238083,0.2947937250137329,9.760010719299316,0.0015284419059753418,0.002696692943572998,0.011280059814453125,0.08465029632409682,0.007551961406425915,0.01628984108792174
0.08601005375385284,0.2900993227958679,9.752877235412598,-0.0079340860247612,0.0025475025177001953,0.003983497619628906,0.04444117278343009,-0.06389611286056517,-0.03433226602818644
0.11153434216976166,0.295628160238266,9.744805335998535,0.015979796648025513,0.004950135946273804,-0.007811546325683594,-0.006650243033852005,0.038286715438945726,-0.03433226602818644
0.0995313748717308,0.29353809356689453,9.737095832824707,0.0013498365879058838,0.0025634765625,-0.017149925231933594,-0.005929778138334664,-0.01352518861922685,-0.03433226602818644
0.10051876306533813,0.29503169655799866,9.748032569885254,0.010622009634971619,0.011835992336273193,-0.0027008056640625,0.01316579660490121,-0.032620750022249505,-0.003056883179550941
0.09252196550369263,0.29587364196777344,9.726385116577148,-0.0035820752382278442,0.0023430585861206055,-0.0235748291015625,-0.007422014389423777,0.006310888019786831,-0.07702353634213133
0.09014903753995895,0.30002903938293457,9.736393928527832,-0.015032343566417694,0.009191721677780151,-0.01593303680419922,-0.005272519173066386,0.05817409520296054,0.026702838003576413
0.09592930972576141,0.29821136593818665,9.733748435974121,-0.01000756025314331,0.008882850408554077,-0.014837265014648438,-0.04860274567973804,-0.03486985661074066,-0.005306003108255315
0.08637474477291107,0.2937060594558716,9.740218162536621,-0.012064605951309204,-0.0006517469882965088,-0.0027818679809570312,-0.016593931248332756,-0.002861035509228759,0.026702838003576413
0.09671732783317566,0.301980197429657,9.730542182922363,0.000006817281246185303,0.008597403764724731,-0.0111083984375,-0.06532679736784483,0.04587186729586967,0.026702838003576413
0.11109021306037903,0.2968125641345978,9.737632751464844,0.013980299234390259,-0.0008300840854644775,-0.017791748046875,-0.07762900859966916,0.025257485931858413,-0.09536737005994929
0.1066250205039978,0.30470138788223267,9.741778373718262,0.011183157563209534,0.013181954622268677,-0.0034351348876953125,-0.07009545668749055,0.11167564732254477,-0.03433226602818644
0.08627935498952866,0.291885107755661,9.730265617370605,-0.011971257627010345,-0.001109093427658081,-0.01715850830078125,0.03136686336081003,0.10613489648220993,-0.03433226602818644
0.09033443033695221,0.2846711575984955,9.735675811767578,-0.009414322674274445,-0.00368461012840271,-0.0026979446411132812,0.11217241018253098,-0.036726640868565974,-0.06150175136039885
0.09639284759759903,0.2929815948009491,9.738576889038086,-0.0020046457648277283,0.0014513134956359863,-0.0068206787109375,-0.016593931248332756,0.05817409520296054,-0.0887714216939136
0.09120486676692963,0.27802544832229614,9.754830360412598,-0.011636205017566681,-0.01442486047744751,0.011858940124511719,-0.016593931248332756,0.010865767087485777,-0.03433226602818644
0.09880764037370682,0.2811608910560608,9.730835914611816,0.000325620174407959,-0.014097422361373901,-0.016416549682617188,0.0710709597793991,0.02376876149190017,0.000073051007607402
