Accelerometer_Gx,Accelerometer_Gy,Accelerometer_Gz,Accelerometer_X,Accelerometer_Y,Accelerometer_Z,Gyroscope_Z,Gyroscope_X,Gyroscope_Y
0.1075381487607956,0.28521186113357544,9.733731269836426,-0.008755594491958618,-0.007576197385787964,0.02555370330810547,-0.017166119673879997,-0.049877109568474326,0.024032580883645217
0.08221020549535751,0.28552982211112976,9.748490333557129,-0.018416672945022583,0.010515868663787842,0.010685920715332031,-0.017166119673879997,0.04272458082636193,0.03555540349814763
0.10211312025785446,0.28508007526397705,9.730623245239258,-0.015036448836326599,-0.0031911730766296387,0.012608528137207031,-0.10704023005256719,0.04272458082636193,0.027389672221559375
0.10211312025785446,0.28508007526397705,9.730623245239258,0.006185054779052734,0.0017213225364685059,-0.006153106689453125,-0.10704023005256719,0.04272458082636193,0.027389672221559375
0.10626620054244995,0.28187137842178345,9.738293647766113,0.008629046380519867,-0.007564365863800049,-0.003337860107421875,-0.0051275243955490645,0.01864738693464676,0.07302908963707713
0.08491396903991699,0.29128754138946533,9.735583305358887,-0.018912620842456818,0.006662636995315552,0.016515731811523438,0.011134368945671158,-0.018310549885827365,0.024032580883645217
0.10214798152446747,0.29399746656417847,9.735207557678223,-0.02260570228099823,0.003993332386016846,-0.0025186538696289062,-0.03346513882849894,0.03457506791399915,0.08506768491540807
0.09415407478809357,0.29020628333091736,9.737282752990723,0.001470617949962616,0.017533153295516968,0.008731842041015625,-0.03608605049971944,0.033264608743335596,0.08506768491540807
0.08943864703178406,0.28608664870262146,9.762389183044434,-0.016237951815128326,-0.008537888526916504,0.031027793884277344,0.043868984357882855,0.04507553994280825,0.024032580883645217
0.09302206337451935,0.2945198118686676,9.719488143920898,-0.010664843022823334,0.007577747106552124,-0.012879371643066406,-0.017166119673879997,-0.011331337193904044,0.08506768491540807
0.08670766651630402,0.29239821434020996,9.726396560668945,-0.0009782388806343079,0.005026817321777344,-0.0008707046508789062,0.029972517594348953,-0.004414076452186853,0.03792905431728573
0.08681594580411911,0.27602899074554443,9.740156173706055,-0.01664578914642334,-0.016189903020858765,-0.0029659271240234375,0.009281440009467191,-0.026450501200362787,0.024032580883645217
0.09817305207252502,0.2816339433193207,9.755687713623047,-0.0040101781487464905,-0.006313055753707886,0.0264892578125,-0.010984331567555662,0.036542786049930984,-0.09803762717988049
0.10377398878335953,0.2942273020744324,9.738675117492676,0.010023221373558044,0.005418539047241211,-0.004508018493652344,-0.09593999871253288,-0.018310549885827365,-0.004831651806483219
0.10456540435552597,0.2684434652328491,9.736818313598633,0.0004521012306213379,-0.01797601580619812,-0.01165008544921875,-0.017166119673879997,0.04272458082636193,0.05910333443541284
0.11483033746480942,0.2921045124530792,9.725726127624512,0.014243058860301971,0.0040261149406433105,-0.007391929626464844,-0.027875976354378995,-0.023665478226076866,0.024032580883645217
0.09671004861593246,0.2959733009338379,9.731894493103027,-0.007230445742607117,0.0034107863903045654,-0.0001373291015625,-0.04759093052743734,0.012299766637751277,-0.021790117721338962
0.09515426307916641,0.28833797574043274,9.748844146728516,-0.002302125096321106,-0.006072014570236206,0.013841629028320312,0.043868984357882855,0.04272458082636193,0.04924791841182657
0.11090925335884094,0.3014373183250427,9.734844207763672,0.009858764708042145,0.014563262462615967,-0.0010166168212890625,0.043868984357882855,0.03350309840522408,0.08506768491540807
0.1034039556980133,0.28597578406333923,9.749524116516113,0.0071204304695129395,0.007100731134414673,0.029291152954101562,0.043868984357882855,-0.034410579749910186,0.04013261741783465
0.09481097012758255,0.2808348536491394,9.742512702941895,-0.009145595133304596,0.012101560831069946,0.01888275146484375,0.019582532546503405,0.04272458082636193,0.07260548450640412
0.09031660109758377,0.29161250591278076,9.740777969360352,-0.01104782521724701,0.004906743764877319,0.004380226135253906,-0.07019344055361114,0.09975580662232215,-0.03299863824220839
0.09802113473415375,0.27170297503471375,9.763421058654785,0.0009733512997627258,-0.00694650411605835,0.020563125610351562,-0.04498115793425778,-0.04612558147609854,0.06845766536992876
0.09326573461294174,0.2659255862236023,9.739678382873535,-0.01076161116361618,-0.02471676468849182,0.0028715133666992188,0.006624136236575218,0.005479712694734459,0.08506768491540807
0.09027711302042007,0.2973136007785797,9.744468688964844,-0.010397545993328094,0.011207520961761475,0.0073719024658203125,-0.017166119673879997,-0.018310549885827365,0.024032580883645217
0.1021982952952385,0.29958468675613403,9.749585151672363,0.0011642053723335266,0.012914717197418213,0.013956069946289062,-0.017166119673879997,-0.10521899746298032,0.024032580883645217
0.0820496529340744,0.28011375665664673,9.7450590133667,-0.015101097524166107,-0.01060342788696289,0.001918792724609375,-0.03250322941386429,0.04272458082636193,0.04688157802953449
0.0820496529340744,0.28011375665664673,9.7450590133667,-0.021601855754852295,0.0012646019458770752,0.015839576721191406,-0.03250322941386429,0.04272458082636193,0.04688157802953449
0.09769375622272491,0.2931191325187683,9.753307342529297,0.01158132404088974,0.008596032857894897,-0.0026302337646484375,0.02550043789506988,0.00005800324709221766,0.024032580883645217
0.09625359624624252,0.28148719668388367,9.745133399963379,-0.007226280868053436,-0.008357375860214233,0.008454322814941406,0.10490408838964571,0.003740298967895591,-0.03700252314811763
0.09625359624624252,0.28148719668388367,9.745133399963379,0.004691712558269501,0.0010160505771636963,0.003566741943359375,0.10490408838964571,0.003740298967895591,-0.03700252314811763
0.10764633119106293,0.2967398464679718,9.727102279663086,0.016334250569343567,0.014920562505722046,-0.02057647705078125,0.043868984357882855,-0.07934562723716378,0.04310692467753719
0.11283852159976959,0.2853412628173828,9.743304252624512,0.0251678004860878,-0.004097670316696167,-0.0037021636962890625,-0.03861040570763417,-0.018310549885827365,0.005886062259603937
0.10160578787326813,0.3064136207103729,9.77049446105957,0.001404978334903717,0.019378364086151123,0.030782699584960938,-0.016338065958721733,-0.01913860360098563,0.023204527168486953
0.08934752643108368,0.28686994314193726,9.732354164123535,-0.019981466233730316,0.002682209014892578,-0.01450347900390625,0.0027895586467816336,-0.038266221536382386,-0.03700252314811763
0.09991621226072311,0.274023175239563,9.749274253845215,-0.0007223039865493774,-0.011237025260925293,0.006855010986328125,-0.037261870233379776,0.0017852473644186942,0.003936816983932213
0.10150828957557678,0.2684487998485565,9.737319946289062,0.0013199672102928162,-0.01752033829689026,-0.003025054931640625,-0.017030102859861538,-0.07934562723716378,-0.03673048284997411
0.10635855048894882,0.28275710344314575,9.766087532043457,0.0031543076038360596,-0.0003572702407836914,0.021849632263183594,-0.057352538171641716,-0.03915920873940205,0.06421901272162016
0.10370980203151703,0.2746697962284088,9.733258247375488,-0.0017267987132072449,-0.014392256736755371,-0.009029388427734375,0.024347683390071557,-0.04030301863143457,0.06554637727749016
0.09933455288410187,0.2851749062538147,9.7443208694458,-0.0017822757363319397,0.0003050267696380615,0.0030345916748046875,-0.13735330328017137,0.10281817262950761,0.024032580883645217
0.09122269600629807,0.2740803360939026,9.76025676727295,-0.010930247604846954,-0.011241286993026733,0.006561279296875,0.043868984357882855,-0.018310549885827365,-0.015449474355958939
0.11603976041078568,0.2876073122024536,9.762188911437988,0.01718532294034958,0.002771615982055664,0.03200721740722656,0.1279429034294805,-0.07934562723716378,0.08506768491540807
0.08776957541704178,0.28527528047561646,9.74881649017334,-0.014001674950122833,0.0003516077995300293,0.005799293518066406,-0.07496969045458056,-0.019926303171145285,0.025648334168963137
0.06379992514848709,0.27437132596969604,9.7334566116333,-0.008889034390449524,0.0026980340480804443,0.007965087890625,0.024989320965656075,0.04272458082636193,0.06618801485307468
0.0871606320142746,0.2923882007598877,9.751670837402344,-0.02357456088066101,0.012242943048477173,0.0012569427490234375,-0.014639750093768639,0.10123332194812003,-0.03447616023811289
0.13634978234767914,0.27822375297546387,9.763731956481934,0.037544332444667816,-0.006717562675476074,0.01923656463623047,-0.014639750093768639,0.10123332194812003,-0.03447616023811289
0.0880432054400444,0.27719342708587646,9.734962463378906,-0.012289658188819885,-0.013538241386413574,-0.01629924774169922,-0.017166119673879997,-0.056216005365922174,0.024032580883645217
0.1004706472158432,0.27734652161598206,9.761595726013184,-0.00033804774284362793,-0.006145447492599487,0.019086837768554688,0.01742998242131802,-0.018310549885827365,0.06776963053275575
0.10616891086101532,0.2665692865848541,9.7632417678833,0.004297681152820587,-0.008477210998535156,0.011575698852539062,-0.06824013985311972,-0.018310549885827365,-0.033682170757418736
0.10193093121051788,0.3088380694389343,9.728875160217285,0.006168924272060394,0.013359665870666504,0.003757476806640625,0.019934467381637566,-0.042245053521859435,-0.03700252314811763
0.09497418254613876,0.28696566820144653,9.756446838378906,-0.005678854882717133,0.009738773107528687,0.011445999145507812,-0.0005450010709994159,-0.018310549885827365,0.0406536994865258
0.09671732783317566,0.28395819664001465,9.758685111999512,-0.003165602684020996,0.0005231499671936035,0.013153076171875,0.043868984357882855,-0.018310549885827365,-0.029016958121208303
0.09186754375696182,0.2977036237716675,9.761178016662598,-0.014748014509677887,0.016939401626586914,0.008126258850097656,-0.041879971906594315,-0.05463178167455606,-0.061716382050938566
0.11218173056840897,0.2885572016239166,9.746793746948242,0.01585499942302704,0.011603504419326782,0.0026998519897460938,-0.017166119673879997,-0.018310549885827365,0.03974245620171089
0.09269513189792633,0.29449865221977234,9.74628734588623,-0.008084036409854889,0.011831313371658325,0.000484466552734375,0.03897225232119279,-0.07444890187058031,0.08506768491540807
0.09031273424625397,0.27162081003189087,9.75627613067627,-0.014979049563407898,-0.018744677305221558,0.01910400390625,-0.08816157384643873,-0.008350176399658347,0.024032580883645217
0.09450750797986984,0.26429781317710876,9.742012023925781,0.0019216090440750122,-0.017722666263580322,-0.0071163177490234375,0.012563052420967419,-0.0034459571682970485,0.024032580883645217
0.10739782452583313,0.2870027422904968,9.747095108032227,0.011941589415073395,0.00649145245552063,0.00000858306884765625,0.04974895681015064,-0.012430577433559582,0.07918771913324689
0.0981684997677803,0.30052897334098816,9.742484092712402,-0.007178500294685364,0.022728562355041504,-0.009383201599121094,-0.10470870762678632,0.008196950710582632,0.024032580883645217
0.0865868330001831,0.2975913882255554,9.719161987304688,-0.01166851818561554,0.01726585626602173,-0.03473472595214844,0.10490408838964571,-0.018310549885827365,0.038010509659223424
0.09331303834915161,0.27424323558807373,9.759723663330078,-0.013707667589187622,-0.0020169615745544434,0.0011692047119140625,-0.004314184935575417,-0.018310549885827365,0.030458548252797507
0.08101541548967361,0.2753673195838928,9.763092041015625,-0.015704907476902008,-0.006350845098495483,0.010035514831542969,0.010005840267885223,-0.011619332387061896,-0.03700252314811763
0.10714738816022873,0.2947937250137329,9.758142471313477,0.010776624083518982,0.010485023260116577,0.013818740844726562,-0.00402442216416556,-0.06620392972744933,0.05031597590307409
0.09310094267129898,0.2947937250137329,9.753169059753418,-0.005987204611301422,0.009768903255462646,0.0064678192138671875,0.043868984357882855,-0.018310549885827365,-0.014557454318397918
0.09256041795015335,0.2786947786808014,9.75207805633545,-0.012842059135437012,0.000010073184967041016,-0.0006923675537109375,0.03848416059980133,-0.05152049710548303,0.08506768491540807
0.10291566699743271,0.29084131121635437,9.756147384643555,0.005941331386566162,0.009706646203994751,0.01771831512451172,-0.029754251695706054,0.006865744173304502,0.011444435521605935
0.11367528885602951,0.2756299376487732,9.753484725952148,0.01763162761926651,-0.008886903524398804,0.011051177978515625,0.02781056928894819,0.05075378836082926,-0.03700252314811763
0.09881015121936798,0.2811366617679596,9.763935089111328,-0.015596076846122742,0.005160003900527954,0.031711578369140625,0.04036030817711937,-0.047073750471113826,-0.00823930255251134
0.08473995327949524,0.277896523475647,9.751784324645996,-0.013313114643096924,-0.008587419986724854,0.0051937103271484375,-0.017166119673879997,-0.0067603564888453205,0.024032580883645217
0.08882396668195724,0.2835232615470886,9.73594856262207,-0.007886707782745361,-0.0015999376773834229,-0.013393402099609375,0.08689227923872705,-0.009304638640261433,-0.02799661857265831
0.10362115502357483,0.2876073122024536,9.7459135055542,-0.003511771559715271,0.002879321575164795,0.005909919738769531,0.04206885598561426,-0.016510394833132328,0.11468517274515519
0.0999627336859703,0.285907506942749,9.764753341674805,0.0013133883476257324,0.002828240394592285,0.017389297485351562,-0.017166119673879997,0.03189712683125169,0.03486003154370215
0.07566548883914948,0.2840764820575714,9.752790451049805,-0.026796020567417145,0.0005587637424468994,0.0026578903198242188,0.034226124621680176,0.03308171442005264,-0.017716803675712274
0.10391878336668015,0.29122304916381836,9.750360488891602,0.008798450231552124,0.009641289710998535,-0.014173507690429688,0.04348612690849852,0.01239844419495945,0.08468482079591712
0.10747973620891571,0.28077995777130127,9.756446838378906,0.00852251797914505,-0.006798893213272095,0.007176399230957031,-0.0782011970252164,-0.03836295809256666,0.003980172676905927
0.10556910932064056,0.2947937250137329,9.766342163085938,0.0053835660219192505,0.009676903486251831,0.018421173095703125,-0.0782011970252164,0.010900815162675067,-0.04761044725938213
0.09688586741685867,0.2993600070476532,9.739453315734863,-0.00895017385482788,0.023209333419799805,-0.00018310546875,0.014067134781398273,-0.018310549885827365,0.0538344304601298
0.08559807389974594,0.2855733633041382,9.762818336486816,-0.01572290062904358,-0.0005935728549957275,0.009133338928222656,-0.06899005993943275,-0.027521680301504415,0.07585654782962441
0.09999420493841171,0.27978819608688354,9.761734962463379,0.0004961341619491577,-0.007758229970932007,0.005600929260253906,0.08244728684239665,-0.1291523271602488,0.024032580883645217
0.10526012629270554,0.3040584623813629,9.744786262512207,0.00986780971288681,0.010915100574493408,0.0007915496826171875,0.1340745056536611,0.013554146887079987,0.05320299814766063
0.09777318686246872,0.29206332564353943,9.764972686767578,0.00014341622591018677,0.005235046148300171,0.012782096862792969,-0.11363645856308056,-0.00977725571431458,-0.02846922897660485
0.08953088521957397,0.29958000779151917,9.759806632995605,-0.008879363536834717,0.014183789491653442,0.004841804504394531,0.043868984357882855,-0.00607949868638612,-0.07357553812121122
0.10906708240509033,0.29497990012168884,9.750364303588867,0.01473236083984375,0.00915876030921936,-0.0022821426391601562,-0.017166119673879997,0.014578908716313297,-0.041746309640209665
0.0835307165980339,0.28580498695373535,9.755236625671387,-0.01625867187976837,-0.002699047327041626,0.0024318695068359375,-0.07064486002885345,-0.06423294657433125,0.08506768491540807
0.07678964734077454,0.2843265235424042,9.740928649902344,-0.02491246908903122,-0.0048494040966033936,-0.016595840454101562,-0.06537526236248282,-0.005484608552987182,0.08506768491540807
0.07994899153709412,0.2801021933555603,9.747945785522461,-0.016721613705158234,0.009900718927383423,-0.0020399093627929688,-0.017166119673879997,0.015179138270054612,0.06346650463394193
0.0927356407046318,0.2798813581466675,9.73647403717041,-0.004745252430438995,-0.00674930214881897,-0.013624191284179688,0.03699599978385174,-0.07247264266313266,0.024032580883645217
0.0935274213552475,0.29238617420196533,9.735681533813477,-0.0047444626688957214,0.009908437728881836,-0.012679100036621094,0.07770881642527384,-0.018310549885827365,0.07147004559816883
0.09793678671121597,0.27015072107315063,9.75258731842041,-0.0004622265696525574,-0.01760450005531311,0.004271507263183594,-0.0719870188811874,0.04272458082636193,0.08506768491540807
0.10686475783586502,0.28521186113357544,9.741508483886719,0.01126205176115036,-0.0007829666137695312,-0.009821891784667969,-0.06379200583657536,-0.003901342021919798,0.03844178541249948
0.09407664835453033,0.2923165261745453,9.761646270751953,-0.010409362614154816,0.004072517156600952,0.02325153350830078,-0.046642361326025374,-0.04986938558501839,0.05559142992304947
0.08117339015007019,0.300005704164505,9.758183479309082,-0.01960226148366928,0.015620321035385132,0.00864410400390625,-0.0782011970252164,-0.00992581899886897,-0.020233074714414063
0.0985046923160553,0.2948060929775238,9.746851921081543,-0.0005715414881706238,0.010557115077972412,-0.005675315856933594,0.013508526692911723,-0.003130311048181884,0.03921280971613078
0.08837965130805969,0.29207655787467957,9.748430252075195,-0.01684330403804779,-0.008524447679519653,0.003943443298339844,-0.0782011970252164,-0.018310549885827365,0.04926642128756643
0.0943218469619751,0.2925792932510376,9.753145217895508,-0.002335101366043091,0.005715757608413696,0.0038318634033203125,-0.017166119673879997,0.024269386343614335,0.08506768491540807
0.08901434391736984,0.2912554144859314,9.768610954284668,-0.009658485651016235,0.0031690895557403564,0.027235031127929688,-0.06224335382376753,-0.11126131364006152,0.08506768491540807
0.09624280780553818,0.2813813388347626,9.750683784484863,-0.002440907061100006,-0.006102621555328369,0.005515098571777344,-0.10267339129540186,-0.018310549885827365,0.12163059467698546
0.08983217179775238,0.2840214967727661,9.754351615905762,-0.007058307528495789,-0.0032491981983184814,0.0032625198364257812,-0.017166119673879997,0.04272458082636193,0.020194268034149282
0.09605855494737625,0.29503333568573,9.744948387145996,0.00042743980884552,0.0056816935539245605,-0.011020660400390625,0.027083841163322797,0.08697454166356472,0.007247431018978549
0.10081914067268372,0.29239821434020996,9.769979476928711,0.014270037412643433,0.005331933498382568,0.03564643859863281,0.020219501047459985,-0.04196001985603701,0.10871716155572432
0.11061499267816544,0.27454128861427307,9.748785018920898,0.0043098777532577515,0.012405246496200562,-0.011846542358398438,-0.017166119673879997,0.06030190590272446,0.024032580883645217
0.098097063601017,0.28935104608535767,9.74820613861084,-0.0003980100154876709,-0.0018840432167053223,0.00012493133544921875,-0.017166119673879997,0.06030190590272446,0.024032580883645217
0.0814410001039505,0.2977895438671112,9.743273735046387,-0.004213288426399231,0.007203608751296997,-0.013731002807617188,-0.017166119673879997,0.06559393513762901,0.03932898963308711
0.0814410001039505,0.2977895438671112,9.743273735046387,-0.004213288426399231,0.007203608751296997,-0.013731002807617188,-0.017166119673879997,0.06559393513762901,0.03932898963308711
0.0943218469619751,0.2667822539806366,9.752860069274902,-0.0023287758231163025,-0.0019247829914093018,0.009202003479003906,-0.01117114791352609,-0.0366572517494882,0.005685865679771161
0.08993308991193771,0.2818896472454071,9.744932174682617,0.002785980701446533,0.010777384042739868,-0.014190673828125,0.004886773567519338,0.02067167424474937,0.001979687642245883
0.09165053069591522,0.274601548910141,9.740632057189941,0.004607565701007843,-0.003310590982437134,0.011754989624023438,0.02469538937761413,-0.018310549885827365,0.024032580883645217
0.09165053069591522,0.274601548910141,9.740632057189941,-0.009525597095489502,-0.014935702085494995,-0.021173477172851562,0.02469538937761413,-0.018310549885827365,0.024032580883645217
0.10930898785591125,0.29239821434020996,9.76062297821045,0.0042914897203445435,0.006417006254196167,0.016531944274902344,-0.05691743377717075,0.021440799235523094,0.045316357471904094
0.09200417250394821,0.2685471773147583,9.742152214050293,-0.005175001919269562,-0.01702171564102173,-0.009546279907226562,-0.01848720098932211,-0.018310549885827365,0.024032580883645217
0.09427517652511597,0.2844756245613098,9.734746932983398,-0.005254969000816345,0.002640634775161743,-0.02320098876953125,-0.09814963161009811,-0.059397212662601895,0.10620594645783393
0.11106801778078079,0.29480481147766113,9.742107391357422,0.00439087301492691,0.014169245958328247,0.005433082580566406,-0.20013002550900813,-0.018310549885827365,0.08464349281535326
0.11106801778078079,0.29480481147766113,9.742107391357422,0.00439087301492691,0.014169245958328247,0.005433082580566406,-0.20013002550900813,-0.018310549885827365,0.08464349281535326
0.09911283850669861,0.2915363609790802,9.750983238220215,0.0013963133096694946,-0.0000978708267211914,0.012501716613769531,0.06340632026198781,-0.039059423944496394,0.024032580883645217
0.09022355079650879,0.2893895208835602,9.74949836730957,-0.010285831987857819,0.008723318576812744,0.0053558349609375,0.02419817962048497,0.04272458082636193,0.043703392291149716
0.1108759418129921,0.29218393564224243,9.756125450134277,0.013344600796699524,0.006527364253997803,0.005639076232910156,-0.077291301101937,-0.017400653962547953,-0.035182724631452195
0.10136234760284424,0.2949335277080536,9.74996566772461,-0.00863126665353775,0.006132990121841431,0.0009250640869140625,-0.05666855875928841,0.0032221017203138474,0.0024999426177172257
0.09249567240476608,0.30254945158958435,9.776469230651855,0.0014886930584907532,0.022062957286834717,-0.00010395050048828125,-0.0593161108363146,0.10375968485812478,0.08506768491540807
0.0898037850856781,0.2952030599117279,9.740019798278809,0.0014886930584907532,0.022062957286834717,-0.00010395050048828125,0.04213068787390139,-0.07413073778521936,0.025770877367626684
0.09367852658033371,0.27393266558647156,9.746454238891602,-0.005386099219322205,-0.020600348711013794,-0.00916290283203125,-0.03948779153128991,0.020402883956052224,0.0017108956860220808
0.09880770742893219,0.2673702538013458,9.736006736755371,-0.005448848009109497,0.010082334280014038,0.0097808837890625,-0.014574609832602286,-0.01571904671465627,0.026624090724922927
0.09880770742893219,0.2673702538013458,9.736006736755371,-0.005448848009109497,0.010082334280014038,0.0097808837890625,-0.014574609832602286,-0.01571904671465627,0.026624090724922927
0.09646810591220856,0.2977679967880249,9.767435073852539,0.006235063076019287,0.008100003004074097,0.00296783447265625,-0.055057247764973644,0.0574717463169996,0.08506768491540807
0.10137942433357239,0.287736177444458,9.744468688964844,0.0018174946308135986,0.0031266212463378906,-0.00722503662109375,0.043868984357882855,0.046008034187286884,0.024032580883645217
0.10137942433357239,0.287736177444458,9.744468688964844,0.0018174946308135986,0.0031266212463378906,-0.00722503662109375,0.043868984357882855,0.046008034187286884,0.024032580883645217
0.1012900322675705,0.29375529289245605,9.744569778442383,0.016037382185459137,0.002663165330886841,-0.0017862319946289062,-0.003936563519880982,-0.018310549885827365,0.024032580883645217
0.09443289041519165,0.2969394028186798,9.744635581970215,0.006662994623184204,-0.01152297854423523,0.007752418518066406,0.04245434145700346,-0.07722366622089799,0.1446881393761849
0.09443289041519165,0.2969394028186798,9.744635581970215,0.006662994623184204,-0.01152297854423523,0.007752418518066406,0.04245434145700346,-0.07722366622089799,0.1446881393761849
0.09529118984937668,0.2899470031261444,9.731010437011719,-0.0030461251735687256,0.007170289754867554,-0.014874458312988281,0.0075321245093637875,-0.04300878072885793,0.012393951878156713
0.09529118984937668,0.2899470031261444,9.731010437011719,-0.0030461251735687256,0.007170289754867554,-0.014874458312988281,0.0075321245093637875,-0.04300878072885793,0.012393951878156713
0.08650790899991989,0.29338040947914124,9.739678382873535,0.008154794573783875,0.016300827264785767,-0.010104179382324219,0.048874132307433656,-0.018310549885827365,0.08006253029575065
0.07792302221059799,0.29415029287338257,9.745207786560059,-0.02205105870962143,0.001615971326828003,-0.009545326232910156,0.043868984357882855,0.05213935960204312,0.05925753396005381
0.10812684148550034,0.26214489340782166,9.754939079284668,0.011762291193008423,-0.03141292929649353,0.00003719329833984375,0.043868984357882855,-0.018310549885827365,0.07059850278790462
0.10629922151565552,0.304318904876709,9.744972229003906,0.008889108896255493,0.018427640199661255,-0.007594108581542969,0.043868984357882855,0.03704456483008891,0.07938767558924166
0.10153424739837646,0.2869376838207245,9.747920989990234,0.01326856017112732,0.0038697421550750732,0.008921623229980469,0.009086259349806142,-0.018310549885827365,0.024032580883645217
0.10153424739837646,0.2869376838207245,9.747920989990234,-0.0034341439604759216,-0.005524575710296631,-0.009958267211914062,0.009086259349806142,-0.018310549885827365,0.024032580883645217
0.10049447417259216,0.28571876883506775,9.750134468078613,-0.005757935345172882,0.0015537440776824951,-0.011415481567382812,-0.004250445396797447,-0.011852712747286092,0.01757474374510394
0.10049447417259216,0.28571876883506775,9.750134468078613,0.003686189651489258,-0.0031184256076812744,0.0028743743896484375,-0.0782011970252164,-0.045379936928123386,-0.009933122765608388
0.09461275488138199,0.29027342796325684,9.724223136901855,0.008566677570343018,0.004230022430419922,-0.031769752502441406,-0.0782011970252164,-0.045379936928123386,-0.009933122765608388
0.10150828957557678,0.2914334833621979,9.736531257629395,0.0037961676716804504,0.013144224882125854,-0.032752037048339844,0.043868984357882855,-0.018310549885827365,0.0313229673892008
0.10150828957557678,0.2914334833621979,9.736531257629395,0.017398439347743988,0.010275959968566895,-0.00371551513671875,-0.054789523025807654,-0.07934562723716378,0.024032580883645217
0.10426484793424606,0.2931312024593353,9.748526573181152,-0.004179015755653381,-0.001421213150024414,0.008026123046875,-0.054789523025807654,-0.07934562723716378,0.024032580883645217
0.09815579652786255,0.2994280755519867,9.73344898223877,-0.006462134420871735,-0.0059171319007873535,-0.0065155029296875,0.043868984357882855,-0.06308915669261857,-0.028874291210898337
0.09305211156606674,0.2933799922466278,9.732636451721191,-0.004025749862194061,0.007921457290649414,-0.015280723571777344,-0.11055348192646605,0.010372289255005662,-0.004650251587081201
0.09305211156606674,0.2933799922466278,9.732636451721191,-0.006274379789829254,0.0009458959102630615,-0.010204315185546875,-0.11055348192646605,0.010372289255005662,-0.004650251587081201
0.10321738570928574,0.28828686475753784,9.749259948730469,0.0007664188742637634,-0.010499626398086548,0.004261970520019531,-0.06945684734030758,-0.018310549885827365,0.08506768491540807
0.10321738570928574,0.28828686475753784,9.749259948730469,-0.013339579105377197,-0.017079472541809082,-0.026253700256347656,0.04626962909847705,0.04272458082636193,-0.005284645426885803
0.0909641906619072,0.27830806374549866,9.74052619934082,-0.0012547150254249573,-0.0028049349784851074,0.016401290893554688,0.04626962909847705,0.04272458082636193,-0.005284645426885803
0.07982448488473892,0.29605376720428467,9.759847640991211,-0.006128177046775818,0.0018742382526397705,-0.0056591033935546875,0.0759727010661543,-0.06970184035614212,0.014388780662410339
0.10642042011022568,0.2924952208995819,9.749187469482422,-0.003233008086681366,-0.005651414394378662,0.010315895080566406,-0.017783544762465346,-0.018310549885827365,-0.03700252314811763
0.10642042011022568,0.2924952208995819,9.749187469482422,0.02011772245168686,0.013265937566757202,-0.003948211669921875,-0.017783544762465346,-0.018310549885827365,-0.03700252314811763
0.11623075604438782,0.2967204451560974,9.761467933654785,0.008084967732429504,-0.005720287561416626,-0.01718425750732422,0.10490408838964571,0.032299014094798184,0.024032580883645217
0.10503767430782318,0.2901729941368103,9.740983009338379,0.0026970207691192627,0.010403931140899658,0.00128936767578125,-0.018250385524193075,-0.018310549885827365,-0.005942824866866446
0.10503767430782318,0.2901729941368103,9.740983009338379,0.009580396115779877,-0.00858992338180542,-0.010387420654296875,-0.018250385524193075,-0.018310549885827365,-0.005942824866866446
0.11086633801460266,0.29022663831710815,9.747076988220215,0.0002316012978553772,0.012866616249084473,-0.0080718994140625,-0.0782011970252164,0.03160145768043749,0.024032580883645217
0.10369697958230972,0.2983352541923523,9.743633270263672,-0.00002872943878173828,0.008046329021453857,0.0060138702392578125,-0.017166119673879997,0.013524328175473988,-0.007802277167336304
0.10369697958230972,0.2983352541923523,9.743633270263672,0.0092562735080719,0.01018059253692627,-0.010456085205078125,-0.017166119673879997,0.013524328175473988,-0.007802277167336304
0.10673557966947556,0.28858691453933716,9.744433403015137,0.018554501235485077,-0.006202965974807739,0.008161544799804688,-0.017166119673879997,-0.07934562723716378,0.04899142613219408
0.10611798614263535,0.2761737108230591,9.752399444580078,0.0037890225648880005,-0.0059992969036102295,0.0010519027709960938,-0.017166119673879997,-0.018310549885827365,-0.004175686841897542
0.10611798614263535,0.2761737108230591,9.752399444580078,0.00831294059753418,-0.019778281450271606,0.012666702270507812,-0.017166119673879997,-0.018310549885827365,-0.004175686841897542
0.10312030464410782,0.2876073122024536,9.72935962677002,-0.01714242994785309,-0.0005575418472290039,-0.0021295547485351562,-0.017166119673879997,-0.06643359483829102,-0.024090490749244877
0.10636487603187561,0.2903965711593628,9.745617866516113,0.017960593104362488,-0.005229294300079346,0.010152816772460938,0.07146023387134355,0.015133317972688007,0.08506768491540807
0.10636487603187561,0.2903965711593628,9.745617866516113,-0.008191168308258057,0.011046022176742554,-0.013413429260253906,0.07146023387134355,0.015133317972688007,0.08506768491540807
0.08766821771860123,0.2748286724090576,9.7708158493042,-0.010291136801242828,-0.024700403213500977,0.008544921875,0.043868984357882855,0.04272458082636193,0.07149249717702261
0.08766821771860123,0.2748286724090576,9.7708158493042,-0.012267529964447021,-0.01011192798614502,0.02927112579345703,0.043868984357882855,0.04272458082636193,0.07149249717702261
0.1102193146944046,0.29689890146255493,9.747336387634277,0.01817159354686737,0.010903239250183105,0.007613182067871094,0.009653138370490755,-0.018310549885827365,-0.03700252314811763
0.09658311307430267,0.2885752320289612,9.765731811523438,0.003989659249782562,-0.019326627254486084,0.0033702850341796875,-0.031569988117445186,0.04272458082636193,0.07066381647184287
0.09805375337600708,0.2892967462539673,9.7472562789917,-0.007584527134895325,-0.002617865800857544,0.009588241577148438,-0.017166119673879997,-0.018310549885827365,0.059047478962649474
0.09805375337600708,0.2892967462539673,9.7472562789917,0.006568215787410736,0.006799429655075073,-0.011638641357421875,-0.017166119673879997,-0.018310549885827365,0.059047478962649474
0.09312889724969864,0.27863141894340515,9.753464698791504,-0.010089151561260223,-0.014703333377838135,-0.0014276504516601562,0.07450862600517826,-0.0031128120234870317,0.03923031207587894
0.11109021306037903,0.282400518655777,9.745874404907227,0.011229462921619415,-0.007243931293487549,0.0006608963012695312,0.07450862600517826,-0.0031128120234870317,0.03923031207587894
0.11109021306037903,0.282400518655777,9.745874404907227,0.01088600605726242,-0.0022547245025634766,-0.001689910888671875,-0.0423861929777554,-0.018310549885827365,0.05984759827131944
0.09671732783317566,0.29112768173217773,9.746719360351562,-0.0030716583132743835,-0.00007349252700805664,-0.005990028381347656,-0.04582846157709638,0.02653820476466865,0.040218955277811844
0.08477618545293808,0.2914690673351288,9.741144180297852,-0.019068971276283264,-0.00004369020462036133,-0.008255958557128906,-0.041764792505629686,0.018125881314185792,0.024032580883645217
0.08477618545293808,0.2914690673351288,9.741144180297852,-0.006926119327545166,0.009403347969055176,0.001285552978515625,-0.041764792505629686,0.018125881314185792,0.024032580883645217
0.10347110778093338,0.28847259283065796,9.745566368103027,0.009755395352840424,-0.009166806936264038,0.015252113342285156,-0.017166119673879997,0.04272458082636193,0.024032580883645217
0.07634653151035309,0.29400143027305603,9.73316478729248,-0.03004249930381775,0.011864334344863892,-0.0059604644775390625,0.043868984357882855,0.019014866453238653,0.061357977212391404
0.07634653151035309,0.29400143027305603,9.73316478729248,-0.008279174566268921,-0.002511262893676758,-0.0220947265625,0.043868984357882855,0.019014866453238653,0.061357977212391404
0.10020001977682114,0.30578991770744324,9.746139526367188,0.02227574586868286,0.03254327178001404,-0.011631965637207031,0.017968273365066425,0.07785896719520174,-0.019435329963697727
0.08981585502624512,0.3082696199417114,9.767537117004395,-0.017718181014060974,0.01965177059173584,0.0304107666015625,0.021014350971906993,-0.041165176601696614,0.008706743623834086
0.08981585502624512,0.3082696199417114,9.767537117004395,0.00825653225183487,0.016806811094284058,0.008605003356933594,0.021014350971906993,-0.041165176601696614,0.008706743623834086
0.08694939315319061,0.29332077503204346,9.749267578125,-0.0062004029750823975,0.00028640031814575195,-0.016968727111816406,0.043868984357882855,-0.018310549885827365,0.06630270066615007
0.08694939315319061,0.29332077503204346,9.749267578125,-0.01304955780506134,0.0048649609088897705,0.013781547546386719,0.043868984357882855,-0.018310549885827365,0.06630270066615007
0.11181299388408661,0.28821250796318054,9.740139961242676,-0.006347067654132843,0.011730045080184937,-0.012196540832519531,0.06592744046819604,0.020666116378415474,0.04095077269478169
0.09986420720815659,0.28446048498153687,9.762227058410645,0.003001280128955841,-0.0070053040981292725,-0.01618480682373047,-0.017166119673879997,-0.018310549885827365,0.06592319828039123
0.0889139324426651,0.2821994125843048,9.734052658081055,-0.013463139533996582,-0.011185944080352783,-0.009673118591308594,-0.09947123319385591,-0.018310549885827365,-0.03700252314811763
0.0889139324426651,0.2821994125843048,9.734052658081055,-0.0014730319380760193,0.0009996891021728516,-0.011740684509277344,-0.09947123319385591,-0.018310549885827365,-0.03700252314811763
0.09575580805540085,0.2836000323295593,9.753178596496582,0.014603495597839355,-0.004054456949234009,0.01659393310546875,0.10490408838964571,0.02162426051786802,0.04513288951945256
0.09575580805540085,0.2836000323295593,9.753178596496582,-0.0114549919962883,-0.006443291902542114,0.00449371337890625,0.10490408838964571,0.02162426051786802,0.04513288951945256
0.09194343537092209,0.2756597697734833,9.742082595825195,0.002597510814666748,0.0030572116374969482,0.00165557861328125,-0.017166119673879997,0.04261604151652889,-0.03700252314811763
0.1056661456823349,0.2645111680030823,9.765304565429688,0.023713484406471252,-0.017460733652114868,0.027306556701660156,-0.03789423636077453,-0.018310549885827365,0.0643395548883003
0.1056661456823349,0.2645111680030823,9.765304565429688,-0.002598091959953308,-0.026261597871780396,0.014903068542480469,-0.03789423636077453,-0.018310549885827365,0.0643395548883003
0.08312239497900009,0.28302380442619324,9.735198974609375,0.01831294596195221,0.004885435104370117,0.0027093887329101562,-0.01452322333126852,0.04140313265505619,-0.035681074976811895
0.08418142795562744,0.29324325919151306,9.747570037841797,-0.03291434049606323,0.007159709930419922,-0.0017080307006835938,0.08337319769164989,0.021193681790732843,0.042005903519416424
0.08418142795562744,0.29324325919151306,9.747570037841797,-0.003986135125160217,0.00445932149887085,0.003002166748046875,0.0671213295206665,0.023833193054239067,0.024032580883645217
0.08021791279315948,0.30437564849853516,9.751790046691895,-0.00897166132926941,0.01597866415977478,0.009828567504882812,-0.017166119673879997,-0.018310549885827365,0.0833546814756968
0.09934639185667038,0.29216468334198,9.743651390075684,0.005582898855209351,-0.001241534948348999,0.011750221252441406,0.043868984357882855,-0.0019331803238983112,0.007655241337195912
0.09795859456062317,0.2890271842479706,9.741010665893555,0.003184281289577484,-0.00141105055809021,-0.013864517211914062,0.0009226091464806286,-0.018310549885827365,-0.01891379432775701
0.08032576739788055,0.29239821434020996,9.761237144470215,-0.008580423891544342,0.0032136142253875732,0.014470100402832031,0.043868984357882855,-0.018310549885827365,0.08266767383494195
0.08772438019514084,0.2747662663459778,9.742074012756348,-0.012675747275352478,-0.003888249397277832,-0.004954338073730469,-0.002159700479472743,-0.07934562723716378,0.024032580883645217
0.10250573605298996,0.2937963306903839,9.746545791625977,0.0019050538539886475,0.008482247591018677,0.0023012161254882812,-0.0609114402551886,0.08646991474788375,0.024032580883645217
0.0975014790892601,0.28747662901878357,9.735149383544922,0.013566486537456512,-0.0033691823482513428,-0.007080078125,-0.017166119673879997,-0.014980619222034587,0.024032580883645217
0.09232823550701141,0.27776792645454407,9.750320434570312,-0.0008243396878242493,0.0036933720111846924,-0.001903533935546875,0.006592013003135002,0.018966431474080402,0.024032580883645217
0.10019659996032715,0.2882600724697113,9.740768432617188,-0.002877861261367798,-0.000462949275970459,-0.004389762878417969,-0.017166119673879997,-0.03494214722619436,0.024032580883645217
0.10469982773065567,0.2922390103340149,9.761881828308105,0.018029600381851196,0.0019077956676483154,-0.008925437927246094,-0.017166119673879997,-0.022367148644286034,-0.032945924389658966
0.1000809445977211,0.27848464250564575,9.753131866455078,0.0033353865146636963,-0.012281328439712524,0.011814117431640625,0.08023723372811489,-0.018310549885827365,-0.03700252314811763
0.1000809445977211,0.27848464250564575,9.753131866455078,0.0008852779865264893,-0.0074568986892700195,0.0021762847900390625,0.05763923936411697,-0.018310549885827365,0.024032580883645217
0.09652741998434067,0.29737913608551025,9.747930526733398,-0.003948032855987549,0.011156350374221802,-0.014372825622558594,0.034191446737407816,-0.018310549885827365,0.024032580883645217
0.09610378742218018,0.2838154733181,9.752461433410645,-0.02259136736392975,-0.003506392240524292,0.016243934631347656,0.00829011542467653,-0.00818788603569782,0.05961144981685154
0.10092159360647202,0.2911275029182434,9.744421005249023,0.003529958426952362,-0.0007615089416503906,-0.005095481872558594,-0.04830379150141775,0.08881097542611885,0.024032580883645217
0.0904211774468422,0.29763439297676086,9.745136260986328,0.0011726617813110352,0.013160943984985352,0.004363059997558594,0.043868984357882855,-0.012639551873692883,0.0793966935733802
0.105963334441185,0.294099897146225,9.759469985961914,0.010617822408676147,0.0008841454982757568,-0.011981964111328125,-0.017166119673879997,0.016486499176197197,0.024032580883645217
0.10368578135967255,0.298471599817276,9.747590065002441,0.0104011669754982,0.00991407036781311,0.0014810562133789062,0.043868984357882855,0.08957918494476017,0.07088718500204345
0.09785127639770508,0.284077912569046,9.746359825134277,-0.010778531432151794,0.004908472299575806,-0.0055446624755859375,0.043868984357882855,-0.06648815631037178,0.07863894278190546
0.10605006664991379,0.28918972611427307,9.726638793945312,-0.0013593360781669617,0.007251530885696411,-0.02167034149169922,-0.017166119673879997,0.015659722786455006,0.024032580883645217
0.10605006664991379,0.28918972611427307,9.726638793945312,0.01505068689584732,-0.00689464807510376,-0.01874256134033203,-0.017166119673879997,0.015659722786455006,0.024032580883645217
0.10920954495668411,0.28971773386001587,9.750685691833496,-0.019988209009170532,-0.0023617446422576904,0.014378547668457031,0.051132497003901344,0.04272458082636193,0.01676907490773334
0.12155938893556595,0.2876073122024536,9.750502586364746,0.026855602860450745,-0.0025419294834136963,-0.011696815490722656,0.03859524455530659,0.04272458082636193,0.02930632735632809
0.12155938893556595,0.2876073122024536,9.750502586364746,0.019189491868019104,-0.0024414360523223877,0.016572952270507812,0.03859524455530659,0.04272458082636193,0.02930632735632809
0.105666883289814,0.28426334261894226,9.74781322479248,0.0024876296520233154,-0.01179608702659607,0.006543159484863281,-0.06208956784573646,0.04272458082636193,-0.02894670855837766
0.09333886206150055,0.2930949330329895,9.746312141418457,-0.009481869637966156,0.012098729610443115,-0.012254714965820312,-0.017166119673879997,-0.07934562723716378,-0.004661003798938682
0.09569696336984634,0.28046536445617676,9.765939712524414,-0.000004343688488006592,-0.01134258508682251,0.022768020629882812,-0.029599531902749398,-0.018310549885827365,0.07263427268653866
0.08671119064092636,0.30965304374694824,9.744680404663086,-0.016336590051651,0.0007398128509521484,-0.0011577606201171875,-0.022570800339343486,-0.018310549885827365,0.024032580883645217
0.10088962316513062,0.28548160195350647,9.767123222351074,0.00988689810037613,0.007261037826538086,0.019927978515625,-0.04505646343789982,-0.04620089364984719,-0.07014727007564744
0.09825292974710464,0.27845537662506104,9.753006935119629,-0.00438835471868515,-0.013872772455215454,0.0170440673828125,-0.05629144427169644,-0.007355663503907467,0.0349874572604052
0.092304527759552,0.286472886800766,9.743334770202637,-0.004241332411766052,-0.00846448540687561,-0.011579513549804688,-0.007531470838915876,0.04272458082636193,0.08506768491540807
0.10746533423662186,0.29593876004219055,9.74319839477539,0.012492775917053223,0.012823611497879028,0.00283050537109375,0.013620284329184733,0.04272458082636193,0.054818991556816556
0.0855364203453064,0.2828163504600525,9.754044532775879,-0.013579599559307098,-0.006329715251922607,0.0031328201293945312,0.023575525168316326,-0.018310549885827365,-0.03700252314811763
0.09945309162139893,0.3046451807022095,9.777935028076172,-0.008573099970817566,-0.006024807691574097,0.017015457153320312,-0.02763908084797062,-0.018310549885827365,-0.03700252314811763
0.09185708314180374,0.2887704372406006,9.735980987548828,-0.008486375212669373,-0.001692354679107666,-0.01691150665283203,0.01246877713412273,0.04095925707039131,0.024032580883645217
0.08305654674768448,0.2939848005771637,9.743497848510742,-0.014904819428920746,0.00740852952003479,-0.00685882568359375,0.0867603178495283,0.03365269222124992,0.06692391437529066
0.08518043160438538,0.29322493076324463,9.753609657287598,-0.009861275553703308,-0.013730019330978394,0.0026464462280273438,-0.0669781023214012,0.0315014761173868,-0.03700252314811763
0.10224418342113495,0.2951016426086426,9.739883422851562,-0.004458136856555939,0.012212663888931274,-0.0045566558837890625,0.012043931363620005,0.013514516448648706,0.024032580883645217
0.11692501604557037,0.29206031560897827,9.727362632751465,0.020756997168064117,0.002575516700744629,-0.020348548889160156,-0.008556426101240916,-0.018310549885827365,0.08506768491540807
0.09907769411802292,0.2880793809890747,9.754156112670898,0.010830104351043701,0.00010380148887634277,-0.022109031677246094,-0.005138036483568537,-0.018310549885827365,0.03606066407395667
0.09337545186281204,0.28666093945503235,9.73806095123291,-0.0010454729199409485,0.0004222095012664795,-0.014890670776367188,-0.13923632773740569,0.014341686374680968,0.024032580883645217
0.09337545186281204,0.28666093945503235,9.73806095123291,-0.008034802973270416,-0.0063450634479522705,-0.0028390884399414062,-0.017166119673879997,0.027128467511605973,-0.029204468158266307
0.07968699187040329,0.2797970473766327,9.750649452209473,-0.021936260163784027,-0.00581243634223938,0.0043201446533203125,0.07926079682128075,-0.07934562723716378,0.0722460458013322
0.08274077624082565,0.286295086145401,9.751487731933594,-0.021358489990234375,-0.003293156623840332,0.013514518737792969,-0.017166119673879997,-0.045910950785558825,0.05163298845348328
0.08274077624082565,0.286295086145401,9.751487731933594,-0.004598386585712433,-0.0008428990840911865,-0.007821083068847656,-0.017166119673879997,-0.045910950785558825,0.05163298845348328
0.08982131630182266,0.2833535373210907,9.748476028442383,0.002721935510635376,-0.003717571496963501,0.006123542785644531,-0.06451433836194388,0.10375968485812478,0.010345722220372692
0.0889432281255722,0.2928614020347595,9.746694564819336,-0.010838545858860016,-0.0009659528732299805,0.005974769592285156,0.03638219656315635,0.01595041270268384,-0.03700252314811763
0.0889432281255722,0.2928614020347595,9.746694564819336,-0.0012502521276474,0.010531246662139893,-0.010487556457519531,0.03638219656315635,0.01595041270268384,-0.03700252314811763
0.10250463336706161,0.28957170248031616,9.741508483886719,0.01719345897436142,-0.008589357137680054,-0.00732421875,0.02946550278050112,-0.018310549885827365,0.024032580883645217
0.10598518699407578,0.2862328588962555,9.75334358215332,0.014248579740524292,-0.004028201103210449,0.0023355484008789062,0.05287499565504796,0.007704006486631423,0.0500471305859974
0.09649842977523804,0.2915226221084595,9.740541458129883,-0.0001488327980041504,0.0031723380088806152,-0.005040168762207031,-0.0227434360386582,-0.018310549885827365,0.024032580883645217
0.10154279321432114,0.2864268124103546,9.734331130981445,-0.002505190670490265,-0.006101399660110474,-0.02120685577392578,-0.0782011970252164,0.07368172621846375,0.07002870226052425
0.0885489210486412,0.3110116422176361,9.732491493225098,-0.007153116166591644,0.02443435788154602,-0.013384819030761719,0.043868984357882855,-0.018310549885827365,-0.0009874826033825271
0.08832090348005295,0.29444801807403564,9.758841514587402,-0.0066576674580574036,0.004616886377334595,0.012968063354492188,-0.02157033770849529,0.03832035945669333,0.07625924884617748
0.07982248812913895,0.295297771692276,9.744722366333008,-0.022803843021392822,-0.000040143728256225586,0.012603759765625,-0.0782011970252164,-0.018310549885827365,0.0079681360383339
0.09623635560274124,0.2871290445327759,9.744467735290527,-0.005572915077209473,0.000024050474166870117,-0.006207466125488281,-0.053793956253212184,0.006096717566603296,0.04843983499586266
0.10405396670103073,0.28221556544303894,9.760936737060547,0.008387625217437744,-0.006712198257446289,0.014765739440917969,-0.0133392393871159,0.03889769720454453,0.024032580883645217
0.11498188972473145,0.2767075300216675,9.747763633728027,0.010452009737491608,-0.01591390371322632,0.009700775146484375,0.043868984357882855,-0.018310549885827365,-0.020212930992447812
0.09988904744386673,0.2835926115512848,9.753056526184082,-0.00204380601644516,-0.010455816984176636,-0.009140968322753906,-0.05455983123453953,0.01908319836041853,-0.013361157357440763
0.10582472383975983,0.2757485508918762,9.781017303466797,0.009259484708309174,-0.012643426656723022,0.034511566162109375,0.04084651892844643,-0.02133301531526379,0.08204521948597164
0.09331129491329193,0.2831345200538635,9.755379676818848,-0.00044633448123931885,-0.00993436574935913,-0.00138092041015625,-0.017166119673879997,-0.03595373559487027,0.024032580883645217
0.09331129491329193,0.2831345200538635,9.755379676818848,-0.005123339593410492,-0.0026427507400512695,0.010300636291503906,0.005637920953448845,-0.041114577172942986,0.10787171220252369
0.10690472275018692,0.29360923171043396,9.75223445892334,0.0061770156025886536,-0.0005337297916412354,0.012392044067382812,0.005637920953448845,-0.041114577172942986,0.10787171220252369
0.08715938776731491,0.29069986939430237,9.762190818786621,0.006260193884372711,-0.011968404054641724,0.009972572326660156,-0.041458047642787356,0.06701652213548251,0.024032580883645217
0.10756649076938629,0.3139575719833374,9.725908279418945,0.0043668076395988464,0.025524407625198364,-0.03030109405517578,-0.017166119673879997,-0.018310549885827365,0.0630164725408748
0.10756649076938629,0.3139575719833374,9.725908279418945,0.02051655948162079,0.024844318628311157,-0.0084991455078125,-0.017166119673879997,-0.018310549885827365,0.0630164725408748
0.09822256118059158,0.2925358712673187,9.769451141357422,0.003773018717765808,-0.0014893114566802979,0.012788772583007812,-0.0782011970252164,0.0008656130854867234,-0.017826366846910153
0.11721433699131012,0.2859349548816681,9.761847496032715,0.024596914649009705,-0.001447439193725586,0.01641845703125,0.04674976338268118,-0.03961583756790781,0.024032580883645217
0.09916701912879944,0.2781608998775482,9.73973274230957,0.0003564804792404175,-0.010692566633224487,-0.009771347045898438,-0.0782011970252164,0.04272458082636193,-0.036312280505656276
0.09905026853084564,0.29809197783470154,9.746087074279785,0.0050739869475364685,0.0013789832592010498,-0.004847526550292969,-0.036979964847558076,0.08394582634423348,-0.017188664634226327
0.10869473218917847,0.3027357757091522,9.760404586791992,0.009788520634174347,0.01723623275756836,0.013985633850097656,0.043868984357882855,-0.05943748009621456,-0.01643905137281743
0.09435342997312546,0.28523290157318115,9.75166130065918,0.009282112121582031,0.005040287971496582,0.0042858123779296875,-0.017032010510352382,-0.018578774882989205,0.08493357575188046
0.07750644534826279,0.28597894310951233,9.743796348571777,-0.025739267468452454,-0.006562739610671997,0.006443023681640625,0.06341450448279994,0.002434252072755438,0.08506768491540807
0.08373173326253891,0.282737672328949,9.763710975646973,-0.019930563867092133,-0.0088004469871521,0.01592731475830078,-0.017166119673879997,0.001366564772424846,0.024032580883645217
0.09199275076389313,0.30414339900016785,9.747030258178711,-0.0052452608942985535,0.014935016632080078,-0.0033893585205078125,-0.07735586773393477,0.04272458082636193,0.024032580883645217
0.08531956374645233,0.29745182394981384,9.75391960144043,-0.019006535410881042,0.016980230808258057,-0.0009708404541015625,0.04052309212896914,0.00314979442959361,0.12464244129669663
0.0821935310959816,0.291951984167099,9.76318645477295,-0.01603086292743683,0.006985396146774292,0.01752471923828125,-0.036229177647385584,0.0007525247629447496,0.06600461360168926
0.10347703844308853,0.27341732382774353,9.73531436920166,-0.00852905958890915,-0.009381145238876343,0.0007305145263671875,-0.018719374060249653,-0.01675729549945771,0.024032580883645217
0.09888002276420593,0.29087889194488525,9.746686935424805,-0.0015901774168014526,0.002825528383255005,0.008133888244628906,-0.011234914132730506,-0.018310549885827365,-0.014680424403884593
0.10974761843681335,0.29221394658088684,9.760526657104492,0.021529972553253174,0.0076499879360198975,0.010527610778808594,-0.06009173751350773,-0.018310549885827365,0.10317715776732996
0.08263599872589111,0.308000385761261,9.770333290100098,-0.013878390192985535,0.019388288259506226,0.01933002471923828,-0.017166119673879997,-0.018310549885827365,0.08754390863401537
0.091988205909729,0.2957615852355957,9.751195907592773,0.007436022162437439,0.018979907035827637,0.025775909423828125,0.03564893173305184,-0.018310549885827365,0.024032580883645217
0.09434936940670013,0.2958282232284546,9.740629196166992,0.0028260797262191772,0.006636530160903931,-0.02337169647216797,0.06120748626702634,-0.035649045124864234,0.0413710827927887
0.08234444260597229,0.3082716166973114,9.746003150939941,-0.013690881431102753,0.0016216039657592773,0.021533966064453125,-0.0106508662576283,-0.021568176593953214,0.027290207591771063
0.09494967758655548,0.30500349402427673,9.752495765686035,-0.01067112386226654,0.0034648478031158447,-0.023120880126953125,0.01999627925960486,0.01885186905797732,0.03732227471885208
0.09891124069690704,0.29653996229171753,9.749058723449707,0.0057934001088142395,0.004909098148345947,0.00034332275390625,0.05527576045756116,-0.018310549885827365,0.0685249133847843
0.09863320738077164,0.29255810379981995,9.742074012756348,-0.00371483713388443,0.002573937177658081,-0.008985519409179688,-0.021239647162918245,-0.018310549885827365,-0.032928995659079384
0.10102318227291107,0.29119551181793213,9.740396499633789,-0.013078808784484863,-0.01617521047592163,-0.013149261474609375,0.004208930653248463,0.06100958420386786,0.0636926345882796
0.10102318227291107,0.29119551181793213,9.740396499633789,0.015399686992168427,0.007593333721160889,-0.008128166198730469,0.08682861974122842,0.006573640194474064,-0.055077991796534914
0.08531003445386887,0.28300637006759644,9.751540184020996,-0.003750160336494446,-0.006850302219390869,0.02628803253173828,-0.012324342645560761,0.033041016764563544,-0.04184430684654348
0.10208620876073837,0.28879106044769287,9.75544548034668,-0.005539223551750183,-0.010911047458648682,0.0023279190063476562,-0.04265671916169815,-0.028364408251207632,0.05957707208737669
0.08953088521957397,0.31028103828430176,9.758256912231445,-0.0060860514640808105,0.014874547719955444,0.006796836853027344,0.028963884082901865,-0.06444052696218278,0.07016258464042707
0.08953088521957397,0.3015979528427124,9.771648406982422,-0.005948573350906372,0.028463900089263916,0.004279136657714844,-0.017166119673879997,0.03702492470117182,0.1347034700266841
0.08267437666654587,0.29681625962257385,9.76528263092041,-0.014803871512413025,-0.0027314722537994385,-0.0010700225830078125,0.01755431987866002,0.04272458082636193,-0.03700252314811763
0.0876900851726532,0.2850349545478821,9.757932662963867,-0.007194489240646362,-0.0098344087600708,0.0006685256958007812,-0.06406901536414433,-0.051081243904699807,-0.03700252314811763
0.10023586452007294,0.28597530722618103,9.785805702209473,0.007350265979766846,-0.007270753383636475,0.03278350830078125,0.03738488033950612,0.09727558083974805,0.017548476865268482
0.09006515890359879,0.2785596549510956,9.74819564819336,-0.009188055992126465,-0.018785983324050903,-0.007716178894042969,-0.023972376501371257,0.015610150554119523,0.09187394174289933
0.09453852474689484,0.30176350474357605,9.76372241973877,-0.001726791262626648,0.012520194053649902,0.013592720031738281,-0.051579080651850434,0.0638264969578626,0.07175662005861846
0.1017940491437912,0.2713010311126709,9.767962455749512,0.007098093628883362,-0.022919118404388428,0.01576709747314453,0.043868984357882855,-0.07934562723716378,0.024032580883645217
0.07686874270439148,0.27973613142967224,9.759321212768555,-0.02330557256937027,-0.017697066068649292,0.013001441955566406,0.010737310839311275,0.009592893967577128,0.024032580883645217
0.09475336223840714,0.28342634439468384,9.753128051757812,0.003203757107257843,-0.012234896421432495,-0.0035648345947265625,-0.09071132882032944,-0.030820668340727185,0.011522449088532175
0.0892181321978569,0.27313485741615295,9.760924339294434,-0.0038575828075408936,-0.021440207958221436,0.005749702453613281,0.01996234175716636,-0.026279426305995123,0.016063697793370846
0.11088894307613373,0.2769043445587158,9.775763511657715,0.031298913061618805,-0.011186420917510986,0.021413803100585938,0.011398371765348017,0.04272458082636193,-0.004531910555582796
0.08492795377969742,0.30013900995254517,9.77137279510498,-0.004431679844856262,0.01244160532951355,0.0161590576171875,-0.00543817794086564,0.0192686873551733,-0.025274574744996666
0.08194918930530548,0.28830498456954956,9.769773483276367,-0.027730867266654968,0.002707749605178833,0.006398200988769531,-0.008277789067658773,0.02494791127628622,0.024032580883645217
0.08565549552440643,0.29247888922691345,9.755802154541016,0.0012572705745697021,0.0005171895027160645,0.017493247985839844,-0.0782011970252164,-0.018310549885827365,-0.03700252314811763
0.08030650019645691,0.2965814173221588,9.742681503295898,-0.01705264300107956,0.009830713272094727,-0.01736927032470703,0.004697129096345703,-0.018310549885827365,0.08506768491540807
0.08979175984859467,0.28684836626052856,9.766526222229004,-0.005315244197845459,-0.002140045166015625,0.011084556579589844,0.05353774411805737,-0.018310549885827365,0.03370134064381973
0.09313330799341202,0.28643712401390076,9.752825736999512,-0.0006456300616264343,-0.006708651781082153,-0.0008678436279296875,-0.017166119673879997,-0.04859409455146313,0.05431614555960081
0.08992873132228851,0.2748258113861084,9.782010078430176,-0.003063187003135681,-0.015896320343017578,0.027322769165039062,0.03373224324775007,-0.018310549885827365,-0.03700252314811763
0.09981027990579605,0.28675830364227295,9.760114669799805,0.008628085255622864,-0.001153320074081421,0.0007190704345703125,-0.06738515224746486,-0.018310549885827365,-0.03700252314811763
0.09439928829669952,0.2923208475112915,9.781482696533203,-0.0010903999209403992,0.00578761100769043,0.025783538818359375,0.012365063646422996,-0.020283260596557787,0.024032580883645217
0.08109289407730103,0.2900848686695099,9.773404121398926,-0.015065297484397888,-0.0013311207294464111,0.01807880401611328,-0.017166119673879997,-0.027328654086278832,0.024032580883645217
0.10150828957557678,0.292733758687973,9.760446548461914,0.008038997650146484,0.0007762312889099121,0.0039539337158203125,-0.06660408276327688,-0.12878360366677388,0.024032580883645217
0.09150391817092896,0.29843977093696594,9.76821231842041,-0.010942034423351288,0.01009717583656311,0.0038442611694335938,0.04117808992809617,-0.07934562723716378,-0.09803762717988049
0.07956898212432861,0.2910105586051941,9.755014419555664,-0.015571624040603638,0.00015100836753845215,-0.008264541625976562,-0.017166119673879997,0.04272458082636193,0.03259136820262655
0.09000366926193237,0.29911190271377563,9.787147521972656,-0.0034287571907043457,0.00922095775604248,0.02880573272705078,0.031822905219934,-0.0062644640777719,0.03607866002159407
0.09944874048233032,0.2891629934310913,9.770650863647461,0.010709896683692932,-0.011865317821502686,0.0070400238037109375,-0.0498234552308927,-0.014030916102498694,0.024032580883645217
0.08295412361621857,0.2953602075576782,9.771690368652344,-0.010739371180534363,0.006724894046783447,0.0111846923828125,0.051636056702524503,-0.026077622230469014,0.024032580883645217
0.1003752127289772,0.27714216709136963,9.766911506652832,-0.005916118621826172,-0.0076093971729278564,-0.0007638931274414062,0.008521087876414033,-0.07934562723716378,0.024032580883645217
0.07725124061107635,0.2791077494621277,9.779318809509277,-0.029495112597942352,-0.011700719594955444,0.01771831512451172,0.01629137521244235,-0.018310549885827365,-0.00354502826179529
0.10260474681854248,0.2862367630004883,9.766576766967773,0.008480347692966461,-0.0018530786037445068,0.0028409957885742188,0.050853192959658074,-0.011326334613945539,0.08506768491540807
0.09248516708612442,0.28679296374320984,9.78756332397461,-0.006186284124851227,0.0008639991283416748,0.02817535400390625,-0.03730896118605584,-0.004679793489262828,0.08506768491540807
0.11227655410766602,0.28512075543403625,9.78642463684082,0.01724512130022049,-0.01301071047782898,0.025060653686523438,-0.0782011970252164,-0.04853797894454192,0.024032580883645217
0.09192639589309692,0.28449752926826477,9.77071475982666,-0.002455301582813263,-0.003445535898208618,0.007576942443847656,0.05296911085933397,0.0336244509898575,0.024032580883645217
0.09741286933422089,0.2767632305622101,9.756446838378906,0.00460197776556015,-0.012592881917953491,-0.0086822509765625,0.0117098524038844,-0.018310549885827365,0.024032580883645217
0.09640809148550034,0.3065080940723419,9.761547088623047,0.006771460175514221,0.029706686735153198,-0.008441925048828125,0.008823737293797,-0.018310549885827365,0.024032580883645217
0.10566514730453491,0.27189576625823975,9.759053230285645,0.011420905590057373,-0.017764806747436523,-0.00597381591796875,-0.017166119673879997,0.04272458082636193,0.01864731022842073
0.10270856320858002,0.2864120900630951,9.761237144470215,0.008800968527793884,-0.0008578896522521973,-0.0033826828002929688,0.02864239161434186,0.04272458082636193,0.008805994810210833
0.0909375548362732,0.28338733315467834,9.739831924438477,-0.005596645176410675,-0.0005588233470916748,-0.01645946502685547,-0.017166119673879997,-0.07934562723716378,0.04922716104005208
0.09845729917287827,0.30007633566856384,9.751819610595703,0.003845818340778351,0.011129498481750488,-0.01134490966796875,-0.017166119673879997,-0.018310549885827365,-0.03282685631653993
0.10353301465511322,0.294519305229187,9.7558012008667,0.01304595172405243,0.0009655952453613281,-0.00612640380859375,0.027429392706429908,-0.06290604225581743,0.024032580883645217
0.0948011502623558,0.28712862730026245,9.762674331665039,0.0036054998636245728,0.007914453744888306,0.005795478820800781,0.06828454942293802,0.04272458082636193,0.024032580883645217
0.10450050234794617,0.28656303882598877,9.778005599975586,0.008232980966567993,-0.0015922784805297852,0.014947891235351562,-0.017166119673879997,0.04272458082636193,0.024032580883645217
0.11174982041120529,0.282990038394928,9.765854835510254,0.014343507587909698,-0.0010966062545776367,-0.002170562744140625,0.02706255685312601,-0.08996144875465609,0.024032580883645217
0.09270217269659042,0.29826900362968445,9.774682998657227,-0.009375900030136108,0.012936413288116455,0.01186370849609375,0.030112789936385446,0.0053289149244652705,0.04767203902383124
0.10569781064987183,0.30880576372146606,9.749380111694336,0.009417332708835602,0.019536107778549194,-0.014342308044433594,-0.13310692664840684,-0.024439964315039454,-0.030873108718905546
0.10114234685897827,0.29515963792800903,9.756770133972168,0.006630539894104004,0.002213418483734131,-0.004298210144042969,0.0697245987599,-0.05349003951557306,0.08506768491540807
0.0952172577381134,0.28968891501426697,9.749550819396973,-0.00022470206022262573,0.006805062294006348,-0.008395195007324219,0.05927526977353336,0.06553898679936479,0.062253278942405205
0.08970335870981216,0.2808520197868347,9.769784927368164,-0.007233880460262299,-0.00965869426727295,0.00814056396484375,-0.017166119673879997,-0.020507776385095513,-0.03480529664884949
0.0943218469619751,0.29407086968421936,9.75879955291748,-0.00250803679227829,0.0022831857204437256,-0.020032882690429688,-0.05978347186635801,-0.03672826837457914,-0.018584797989259248
0.08893918991088867,0.28175491094589233,9.757856369018555,-0.00010408461093902588,-0.004839122295379639,0.008363723754882812,0.021848814659518757,0.0037096298176966472,0.08506768491540807
0.08997222781181335,0.2806415259838104,9.76140308380127,-0.006571047008037567,-0.00881388783454895,-0.00044536590576171875,-0.07538994719173468,-0.07934562723716378,0.02262694929679775
0.10705246031284332,0.2998563051223755,9.760212898254395,0.009419076144695282,0.014554738998413086,-0.005265235900878906,0.043868984357882855,-0.037502214184906214,-0.03700252314811763
0.09525877237319946,0.3002101480960846,9.75092601776123,-0.004850752651691437,0.01428171992301941,-0.012109756469726562,-0.09942791752152187,0.002916163940371489,0.06384097775931583
0.10867085307836533,0.2947220802307129,9.754169464111328,0.011596381664276123,0.004761159420013428,-0.006927490234375,-0.017166119673879997,0.0433330212813418,0.024032580883645217
0.11274231225252151,0.28277498483657837,9.740255355834961,0.018046081066131592,-0.009323567152023315,-0.03248882293701172,0.023875046305698575,-0.019363806410504322,0.024032580883645217
0.10152889788150787,0.29162725806236267,9.753279685974121,-0.0011152923107147217,-0.004581451416015625,-0.012948989868164062,0.10490408838964571,0.002122001036905446,-0.016569985565598043
0.08716248720884323,0.30437564849853516,9.754063606262207,-0.010822951793670654,0.013542234897613525,-0.0057621002197265625,0.04393791990971106,-0.07920775613350736,0.024032580883645217
0.08145292103290558,0.2995448112487793,9.754942893981934,-0.00994107872247696,0.010489821434020996,-0.010417938232421875,0.06455274483581197,-0.038994303693649875,0.06438392443747895
0.09030397236347198,0.2829688489437103,9.74609088897705,-0.007266245782375336,-0.0038476884365081787,-0.012455940246582031,0.0044742141333947005,0.04272458082636193,0.00433519577140114
0.09192639589309692,0.28031280636787415,9.758625030517578,-0.004466429352760315,-0.010080099105834961,-0.0000705718994140625,-0.018083699559975675,0.04272458082636193,0.08323253848342993
0.10319843143224716,0.2892974317073822,9.747570037841797,0.009799294173717499,0.0017731189727783203,-0.014040946960449219,0.08337219050555157,0.024753254219994164,0.08506768491540807
0.10133673995733261,0.2778538465499878,9.740077018737793,0.0024472102522850037,-0.014638245105743408,-0.02271270751953125,-0.054942028343369344,0.02383661982151064,-0.07914967284513581
0.10629922151565552,0.28979939222335815,9.756311416625977,0.009049497544765472,0.00029656291007995605,-0.0009717941284179688,-0.07992886135925939,-0.018310549885827365,-0.03700252314811763
0.10326135903596878,0.2986481487751007,9.757791519165039,0.003941051661968231,0.01922452449798584,-0.005902290344238281,-0.017166119673879997,0.004023034781990401,-0.07570404918216933
0.0855281725525856,0.28350603580474854,9.768030166625977,0.006093159317970276,0.00917041301727295,0.001598358154296875,0.041358583012999044,-0.018310549885827365,-0.031981720458350016
0.0855281725525856,0.28350603580474854,9.768030166625977,-0.012736156582832336,-0.007460296154022217,0.010872840881347656,0.041358583012999044,-0.018310549885827365,-0.031981720458350016
0.0943218469619751,0.29083606600761414,9.747772216796875,-0.0029422417283058167,0.007042676210403442,-0.010168075561523438,-0.017166119673879997,0.004814269508654065,-0.013877717093849423
0.10065917670726776,0.294945627450943,9.761199951171875,0.006523981690406799,-0.004675567150115967,0.006412506103515625,-0.0782011970252164,0.022057088738457867,-0.016335037730320183
0.09669981151819229,0.2876150906085968,9.773199081420898,-0.0007281005382537842,-0.002811610698699951,0.01557159423828125,0.043819392115227535,-0.07924644275185314,0.08501808600264614
0.07370097935199738,0.2840757966041565,9.739480972290039,-0.023355454206466675,-0.014502465724945068,-0.026686668395996094,-0.017166119673879997,0.005599948036510483,0.024032580883645217
0.10869473218917847,0.2876073122024536,9.759424209594727,0.01230013370513916,-0.0024270713329315186,-0.0049877166748046875,-0.0006705991784909589,0.04272458082636193,-0.020507002652728597
0.11315931379795074,0.28314271569252014,9.760310173034668,0.01641874760389328,-0.007093846797943115,0.001499176025390625,0.043868984357882855,0.04272458082636193,0.08091007406242726
0.08123629540205002,0.2901391088962555,9.750231742858887,-0.030445046722888947,0.01409253478050232,-0.00553131103515625,-0.053439746911723554,0.06748603760996139,0.024032580883645217
0.10138032585382462,0.28767129778862,9.728866577148438,0.010240666568279266,-0.004508614540100098,-0.026129722595214844,-0.017166119673879997,0.027058296322528017,0.008366301382391264
0.09814200550317764,0.30580025911331177,9.749519348144531,0.0031510666012763977,0.01629340648651123,-0.0036039352416992188,0.09500963890216987,-0.018310549885827365,0.01908534946980069
0.08078854531049728,0.2820384204387665,9.749711036682129,-0.022609427571296692,-0.011867731809616089,-0.015377044677734375,-0.06255016538767597,-0.05378358423743155,0.024032580883645217
0.08078854531049728,0.2820384204387665,9.749711036682129,-0.022609427571296692,-0.011867731809616089,-0.015377044677734375,0.10490408838964571,-0.06447534491869399,0.11636219762980489
0.1034529060125351,0.29628750681877136,9.726065635681152,0.0032399743795394897,-0.002113133668899536,0.0015850067138671875,-0.005678328459300347,-0.07360173162987395,0.024032580883645217
0.10008593648672104,0.28994035720825195,9.757806777954102,0.009951822459697723,0.007395923137664795,0.0046634674072265625,-0.00890120391198111,0.01633947001616342,-0.03700252314811763
0.08388281613588333,0.29650795459747314,9.748234748840332,0.00003135204315185547,-0.01879754662513733,-0.014351844787597656,-0.017166119673879997,-0.01177776742940107,0.024032580883645217
0.08388281613588333,0.29650795459747314,9.748234748840332,0.00003135204315185547,-0.01879754662513733,-0.014351844787597656,-0.017166119673879997,-0.01177776742940107,0.024032580883645217
0.09192639589309692,0.3003772497177124,9.73781967163086,-0.0043023452162742615,0.002473294734954834,-0.009168624877929688,-0.017166119673879997,0.015572811297309239,0.05791592205646199
0.08786380290985107,0.29885634779930115,9.748739242553711,-0.011023201048374176,0.011324405670166016,-0.0036878585815429688,-0.017166119673879997,-0.0050449784911804196,0.058536562136434
0.09911283850669861,0.2939313054084778,9.74264907836914,0.003107115626335144,0.0041603147983551025,-0.010409355163574219,-0.017166119673879997,-0.06469643227243348,-0.03700252314811763
0.10211634635925293,0.2882983088493347,9.758841514587402,-0.0017699375748634338,0.004174917936325073,0.006178855895996094,-0.04510149999773959,-0.07934562723716378,0.024032580883645217
0.10531799495220184,0.2957749664783478,9.749259948730469,0.009419836103916168,0.004226326942443848,-0.0034723281860351562,0.05636954455000862,-0.005809986358648293,0.08506768491540807
0.07866086810827255,0.28504541516304016,9.761722564697266,0.014180436730384827,-0.009994596242904663,0.005740165710449219,0.0519826020915167,-0.06311838509978947,0.032146205287385675
0.10474945604801178,0.29690685868263245,9.747428894042969,0.014180436730384827,-0.009994596242904663,0.005740165710449219,-0.013577895801669664,-0.018310549885827365,0.02044437035164811
0.0943218469619751,0.2920393645763397,9.748600006103516,-0.002628825604915619,0.003438591957092285,-0.00795745849609375,0.069814698560006,-0.018310549885827365,-0.07464470285015622
0.10659383982419968,0.2783755958080292,9.741484642028809,-0.0025873705744743347,-0.010500431060791016,0.013220787048339844,-0.026087654070812472,-0.018310549885827365,0.024032580883645217
0.08589904010295868,0.28513452410697937,9.73751449584961,-0.009778551757335663,-0.002817690372467041,-0.021663665771484375,0.014336333614125367,0.011222117533196648,-0.005500076530218881
0.08589904010295868,0.28513452410697937,9.73751449584961,-0.011867441236972809,-0.007469683885574341,-0.007086753845214844,0.014336333614125367,0.011222117533196648,-0.005500076530218881
0.10364910960197449,0.2802969515323639,9.764389991760254,0.009521633386611938,-0.011919200420379639,0.011284828186035156,-0.017166119673879997,-0.018310549885827365,0.024032580883645217
0.087199367582798,0.29127511382102966,9.760007858276367,-0.016392722725868225,-0.006901413202285767,0.010970115661621094,-0.04795522507012232,-0.018310549885827365,0.054821699620100764
0.087199367582798,0.29127511382102966,9.760007858276367,-0.001998335123062134,0.00972399115562439,0.0036754608154296875,-0.04795522507012232,-0.018310549885827365,0.054821699620100764
0.07886865735054016,0.2863704264163971,9.761727333068848,-0.020903639495372772,-0.0022193193435668945,0.005326271057128906,0.05437388867253519,-0.00780563890106842,0.024032580883645217
0.09915906190872192,0.29709669947624207,9.733713150024414,0.00043111294507980347,0.011602789163589478,-0.019931793212890625,0.043868984357882855,-0.018310549885827365,-0.005895707233763936
0.08252093940973282,0.28290724754333496,9.730984687805176,-0.023002907633781433,0.013148486614227295,-0.01721668243408203,0.154631427384269,-0.06803786220002421,0.01272481584650565
0.08252093940973282,0.28290724754333496,9.730984687805176,-0.010852083563804626,-0.013109922409057617,-0.021387100219726562,0.154631427384269,-0.06803786220002421,0.01272481584650565
0.10401340574026108,0.288640558719635,9.756117820739746,0.0051948800683021545,0.0011457204818725586,0.011881828308105469,0.07298966930700411,-0.07934562723716378,0.08506768491540807
0.09744191914796829,0.2930104732513428,9.757170677185059,0.0026900991797447205,-0.0012873411178588867,0.006896018981933594,0.026839488477722946,-0.018310549885827365,0.024032580883645217
0.085214763879776,0.30003809928894043,9.743023872375488,-0.009060904383659363,0.01983901858329773,-0.00494384765625,-0.029263998859772523,0.030626691635309487,0.024032580883645217
0.0973123088479042,0.29718923568725586,9.753456115722656,-0.006128691136837006,0.005120396614074707,0.009430885314941406,0.043868984357882855,-0.018310549885827365,-0.06971399996049459
0.0987323597073555,0.2974976599216461,9.729859352111816,0.0054437220096588135,0.004695326089859009,-0.023233413696289062,0.03601023806797494,0.03486583453645402,-0.021285030568301805
0.08563360571861267,0.29579493403434753,9.746363639831543,-0.015702538192272186,0.006923705339431763,-0.00628662109375,0.07939376539657782,0.02996941599477468,0.08506768491540807
0.08868422359228134,0.2856799066066742,9.7484130859375,-0.010286606848239899,-0.012490630149841309,-0.006016731262207031,0.13244012943068434,-0.018310549885827365,0.05753164387436943
0.08868422359228134,0.2856799066066742,9.7484130859375,-0.010286606848239899,-0.012490630149841309,-0.006016731262207031,0.13244012943068434,-0.018310549885827365,0.05753164387436943
0.10943439602851868,0.29186099767684937,9.756939888000488,-0.007385715842247009,-0.002902477979660034,-0.0081329345703125,0.07124554314984434,-0.018310549885827365,0.010344294817557866
0.11408309638500214,0.3003343939781189,9.757342338562012,0.022355318069458008,0.0042383670806884766,0.012755393981933594,-0.0782011970252164,-0.05263343774411826,0.050744783716903955
0.09311790764331818,0.29504451155662537,9.764837265014648,-0.004186838865280151,0.003966569900512695,0.014768600463867188,-0.017166119673879997,0.04272458082636193,-0.08589408444412672
0.1130376085639,0.2756299376487732,9.744916915893555,0.0076438188552856445,-0.017075181007385254,0.0027112960815429688,-0.017166119673879997,-0.050364847774215384,-0.022512136751696745
0.11618198454380035,0.28754931688308716,9.753032684326172,0.018946565687656403,-0.016573041677474976,-0.009007453918457031,-0.05225429554411644,-0.04425745803703394,0.033173855272781695
0.11618198454380035,0.28754931688308716,9.753032684326172,0.024861417710781097,0.005321294069290161,0.0004749298095703125,-0.05225429554411644,-0.04425745803703394,0.033173855272781695
0.09072985500097275,0.28821173310279846,9.73189640045166,-0.00444541871547699,0.01177823543548584,-0.006665229797363281,-0.04765226882783523,0.02745010338745812,0.024032580883645217
0.10051477700471878,0.300578236579895,9.760828971862793,0.003155544400215149,0.007211625576019287,0.008119583129882812,-0.04248048160481331,0.07844530958697825,-0.06231689841926417
0.10051477700471878,0.300578236579895,9.760828971862793,0.0008147284388542175,0.00946834683418274,0.012547492980957031,-0.04248048160481331,0.07844530958697825,-0.06231689841926417
0.08537005633115768,0.30349570512771606,9.75178050994873,-0.011189468204975128,-0.005391925573348999,0.007205009460449219,-0.06214667729854276,-0.018310549885827365,-0.008076485250128515
0.10534576326608658,0.2886315882205963,9.748794555664062,0.008057400584220886,0.008551597595214844,0.00007534027099609375,-0.02961363250812577,-0.066898114402918,-0.0002612147151133197
0.10534576326608658,0.2886315882205963,9.748794555664062,0.0052729398012161255,-0.024364739656448364,-0.006909370422363281,-0.02961363250812577,-0.066898114402918,-0.0002612147151133197
0.08819306641817093,0.30053380131721497,9.745698928833008,-0.013709843158721924,0.015868961811065674,0.009779930114746094,-0.00012266326058255322,0.04272458082636193,-0.019959066734820192
0.1044517457485199,0.27436167001724243,9.737314224243164,0.007914498448371887,-0.02664393186569214,-0.025106430053710938,0.043868984357882855,0.005225741715401054,-0.013466238216995823
0.1044517457485199,0.27436167001724243,9.737314224243164,0.0031064823269844055,-0.0050157904624938965,0.0058689117431640625,0.043868984357882855,0.005225741715401054,-0.013466238216995823
0.10629922151565552,0.28931018710136414,9.734512329101562,0.00763317197561264,-0.004678577184677124,-0.022085189819335938,0.008574075203334522,0.04272458082636193,-0.03700252314811763
0.10629922151565552,0.28931018710136414,9.734512329101562,0.007493853569030762,-0.002293020486831665,-0.01215362548828125,0.008574075203334522,0.04272458082636193,-0.03700252314811763
0.10451799631118774,0.2819257080554962,9.74502182006836,0.0023631006479263306,-0.011228889226913452,0.004748344421386719,-0.0015156483252949193,-0.018310549885827365,0.024032580883645217
0.10375133156776428,0.29711300134658813,9.751579284667969,0.004597865045070648,0.005312234163284302,0.0022907257080078125,0.020177659468687045,0.024052684584971798,0.024032580883645217
0.09476704895496368,0.2904267907142639,9.751655578613281,0.000253140926361084,-0.006677955389022827,0.0026216506958007812,-0.017166119673879997,0.020579044806711033,0.024032580883645217
0.09476704895496368,0.2904267907142639,9.751655578613281,-0.01143016666173935,0.007510006427764893,0.0025482177734375,-0.017166119673879997,0.020579044806711033,0.024032580883645217
0.07919377833604813,0.2876073122024536,9.751029968261719,-0.020142115652561188,-0.004236459732055664,-0.0043849945068359375,0.0856618046514934,-0.018310549885827365,-0.056244813556376554
0.07919377833604813,0.2876073122024536,9.751029968261719,-0.017282217741012573,-0.004293382167816162,0.005057334899902344,0.0856618046514934,-0.018310549885827365,-0.056244813556376554
0.09819379448890686,0.2994039058685303,9.751835823059082,-0.005335219204425812,-0.0022234320640563965,0.011963844299316406,0.022756195952605696,-0.018310549885827365,0.04284210810485375
0.0974867194890976,0.2835732400417328,9.741279602050781,0.011591017246246338,0.00756072998046875,-0.009268760681152344,0.003072904775631381,0.001928487903897233,0.04427160533315659
0.0974867194890976,0.2835732400417328,9.741279602050781,-0.005065076053142548,-0.01590976119041443,-0.006683349609375,0.003072904775631381,0.001928487903897233,0.04427160533315659
0.10629276186227798,0.2924305200576782,9.73253059387207,0.006623104214668274,0.012347191572189331,-0.001262664794921875,0.10473953018943732,-0.01847510808603575,0.08506768491540807
0.08300765603780746,0.2907167077064514,9.751655578613281,-0.02637658268213272,-0.009205281734466553,0.0038595199584960938,0.0036098083372046296,0.04272458082636193,-0.03570984981673322
0.08300765603780746,0.2907167077064514,9.751655578613281,-0.006936699151992798,0.0027219653129577637,0.0037508010864257812,0.0036098083372046296,0.04272458082636193,-0.03570984981673322
0.10623987764120102,0.2948530614376068,9.72069263458252,0.006938271224498749,0.004924297332763672,-0.020002365112304688,-0.017166119673879997,0.041212511013263994,0.08355561176725683
0.09654930233955383,0.301980197429657,9.743446350097656,-0.005117982625961304,0.00943496823310852,-0.009398460388183594,0.02209666915108956,-0.057573325370583704,-0.015230214611430952
0.09654930233955383,0.301980197429657,9.743446350097656,0.0018824487924575806,0.009100198745727539,0.00018215179443359375,-0.036011852233774885,-0.037156282445722257,0.024032580883645217
0.08946630358695984,0.2949228882789612,9.742202758789062,-0.010158203542232513,0.0064955055713653564,0.000751495361328125,-0.13759086579724086,-0.019956018496098807,-0.03535705453784619
0.08953088521957397,0.283914715051651,9.7466402053833,-0.007292471826076508,-0.0027954280376434326,-0.0038251876831054688,0.021613840143814452,0.003944600998347647,0.0017774366695768142
0.08953088521957397,0.283914715051651,9.7466402053833,0.002363555133342743,0.009218752384185791,-0.017782211303710938,0.021613840143814452,0.003944600998347647,0.0017774366695768142
0.10140639543533325,0.28302013874053955,9.738301277160645,0.0022663474082946777,-0.0048809051513671875,0.015313148498535156,-0.0782011970252164,-0.018310549885827365,-0.03440639092295827
0.09341093897819519,0.3003946840763092,9.740488052368164,-0.004763171076774597,-0.002001851797103882,-0.015160560607910156,-0.017166119673879997,0.06593421062640656,0.0008229444134939777
0.09187155216932297,0.29781094193458557,9.737282752990723,-0.0022323131561279297,0.014385133981704712,0.001560211181640625,-0.026484218589283116,-0.035549533804329646,-0.01976352588940213
0.10163804143667221,0.2934362590312958,9.74407958984375,0.0072395578026771545,0.018595397472381592,-0.007578849792480469,-0.010554002969418413,-0.07934562723716378,0.08176163323328389
0.08773554116487503,0.2781983017921448,9.74866008758545,-0.01887425035238266,-0.028224319219589233,0.0135955810546875,-0.13923632773740569,-0.018310549885827365,-0.013028999388409226
0.08773554116487503,0.2781983017921448,9.74866008758545,-0.002075977623462677,-0.003920406103134155,-0.00308990478515625,-0.13923632773740569,-0.018310549885827365,-0.013028999388409226
0.09829086810350418,0.2833095192909241,9.746700286865234,-0.008679524064064026,-0.0016741752624511719,-0.00034046173095703125,0.09652683469219862,0.04691320767508547,-0.03281389629939409
0.09289975464344025,0.28521186113357544,9.75023365020752,-0.0013973936438560486,-0.006390422582626343,0.006609916687011719,0.03243560787303852,-0.029743899690245254,-0.0007682762197074303
0.09137562662363052,0.30738601088523865,9.754602432250977,-0.006068572402000427,0.015177160501480103,0.010964393615722656,-0.13923632773740569,-0.00264298638905073,-0.09803762717988049
0.09671732783317566,0.29815974831581116,9.742656707763672,0.001162514090538025,0.01731380820274353,0.0036649703979492188,0.02903221932513505,0.04272458082636193,0.01414139974840894
0.10266517847776413,0.29819414019584656,9.758912086486816,-0.0011970177292823792,0.007332563400268555,-0.012643814086914062,-0.017166119673879997,-0.018310549885827365,0.04963733257600985
0.10266517847776413,0.29819414019584656,9.758912086486816,0.012778334319591522,0.004828810691833496,0.03195667266845703,-0.017166119673879997,-0.018310549885827365,0.04963733257600985
0.08826486021280289,0.2848493158817291,9.738097190856934,0.0031556114554405212,0.011935144662857056,-0.022527694702148438,0.09339328530725693,-0.01255514834463298,0.08506768491540807
0.09458665549755096,0.29517897963523865,9.740448951721191,-0.013064652681350708,0.00939670205116272,0.008533477783203125,-0.05182418038939075,0.01634753417505653,0.015751550144173333
0.09458665549755096,0.29517897963523865,9.740448951721191,0.008331410586833954,-0.002379894256591797,-0.014996528625488281,-0.05182418038939075,0.01634753417505653,0.015751550144173333
0.12870635092258453,0.2846220135688782,9.724973678588867,0.01946641504764557,0.0071201324462890625,-0.0028553009033203125,-0.017166119673879997,-0.07277322434746611,0.07192286579579953
0.1052529588341713,0.29372677206993103,9.742576599121094,0.01774410903453827,0.0001537799835205078,-0.018480300903320312,0.043868984357882855,-0.07934562723716378,0.05121777431692733
0.1052529588341713,0.29372677206993103,9.742576599121094,-0.0015130266547203064,0.0024061501026153564,0.012312889099121094,0.043868984357882855,-0.07934562723716378,0.05121777431692733
0.08639324456453323,0.2869470417499542,9.747235298156738,0.01703483611345291,0.006794273853302002,-0.0120391845703125,0.043868984357882855,-0.018310549885827365,0.03140118105932538
0.10410314798355103,0.291999489068985,9.766227722167969,0.0029714256525039673,0.004237502813339233,0.018451690673828125,0.038788617616075965,-0.018310549885827365,0.024032580883645217
0.10410314798355103,0.291999489068985,9.766227722167969,0.0075151920318603516,-0.005167126655578613,0.022596359252929688,0.038788617616075965,-0.018310549885827365,0.024032580883645217
0.10597829520702362,0.2959055006504059,9.760893821716309,0.005201816558837891,-0.005022197961807251,-0.01733112335205078,-0.017166119673879997,-0.07116846339784368,0.07689052107608797
0.1061595231294632,0.3012714684009552,9.730805397033691,0.009242244064807892,-0.0003902614116668701,-0.005766868591308594,0.043868984357882855,-0.04704801719980727,0.05277005486773174
0.1061595231294632,0.3012714684009552,9.730805397033691,0.004296138882637024,0.015850991010665894,-0.02190685272216797,0.043868984357882855,-0.04704801719980727,0.05277005486773174
0.0939708799123764,0.2896518409252167,9.748970031738281,-0.007375866174697876,-0.005368918180465698,0.0155792236328125,-0.026108638226211747,0.04272458082636193,-0.03700252314811763
0.10034790635108948,0.29239821434020996,9.742148399353027,-0.000010468065738677979,-0.00042572617530822754,-0.005848884582519531,0.014302943060428997,0.044627592258057146,-0.03890555125507938
0.10034790635108948,0.29239821434020996,9.742148399353027,0.0024956464767456055,-0.00048828125,-0.0010290145874023438,0.014302943060428997,0.044627592258057146,-0.03890555125507938
0.09518616646528244,0.2915339767932892,9.744283676147461,-0.011285826563835144,0.006418168544769287,-0.02665424346923828,-0.017166119673879997,-0.018310549885827365,0.07531442824468108
0.08822094649076462,0.287554532289505,9.767152786254883,0.009968936443328857,0.003953158855438232,0.034519195556640625,0.043868984357882855,-0.018310549885827365,-0.006653177880760995
0.08822094649076462,0.287554532289505,9.767152786254883,-0.029928438365459442,-0.014861464500427246,0.007944107055664062,0.043868984357882855,-0.018310549885827365,-0.006653177880760995
0.08738061040639877,0.280850887298584,9.743794441223145,-0.01952214539051056,-0.00910729169845581,0.0057010650634765625,-0.06724367928623833,0.03176705641727724,0.024032580883645217
0.09289038181304932,0.301980197429657,9.751522064208984,-0.011654973030090332,0.010244131088256836,0.0009832382202148438,-0.017166119673879997,0.04272458082636193,0.05540091833801636
0.12124891579151154,0.2846350371837616,9.752594947814941,0.02582942694425583,-0.008993029594421387,0.0076580047607421875,0.043868984357882855,-0.018310549885827365,0.024032580883645217
0.11499109119176865,0.28699201345443726,9.752269744873047,0.013435706496238708,0.002829134464263916,-0.0018672943115234375,-0.05552248770111465,-0.0680062725751129,-0.025663161815960147
0.08576888591051102,0.2925107777118683,9.753022193908691,-0.015436507761478424,0.0029870271682739258,0.00962066650390625,0.043868984357882855,0.013640468071790651,0.026899486086691956
0.08576888591051102,0.2925107777118683,9.753022193908691,-0.008049428462982178,-0.0018271207809448242,0.002368927001953125,0.043868984357882855,0.013640468071790651,0.026899486086691956
0.07609979808330536,0.2871227562427521,9.750699996948242,0.0017405003309249878,0.003154665231704712,0.00009822845458984375,-0.1270641835845025,-0.018310549885827365,0.03620472503654841
0.09251048415899277,0.2922229468822479,9.751304626464844,-0.01161443442106247,-0.0010623633861541748,-0.00004673004150390625,-0.021633263494266676,0.00997343688996733,0.024032580883645217
0.09701644629240036,0.29090264439582825,9.746861457824707,0.0001456141471862793,0.0011548101902008057,-0.0026302337646484375,-0.017166119673879997,-0.06410323301106051,0.07744648780235644
0.10098475962877274,0.29165250062942505,9.759888648986816,0.0025406554341316223,-0.010492891073226929,0.01607227325439453,-0.017166119673879997,0.09042035208951632,0.07172835214679961
0.08764592558145523,0.2932131588459015,9.738608360290527,-0.004414156079292297,-0.0010347366333007812,-0.007967948913574219,0.043868984357882855,0.04272458082636193,0.017528973473536925
0.08764592558145523,0.2932131588459015,9.738608360290527,-0.013541162014007568,0.005909919738769531,-0.010073661804199219,0.043868984357882855,0.04272458082636193,0.017528973473536925
0.09299753606319427,0.2961180806159973,9.76921272277832,0.0009459704160690308,0.0013405084609985352,0.015903472900390625,-0.017166119673879997,-0.031956594166745095,-0.0707455252778318
0.10869473218917847,0.2870238721370697,9.75539493560791,0.012719199061393738,-0.008226275444030762,0.007853507995605469,0.043868984357882855,0.04272458082636193,-0.017633534064776298
0.09886708855628967,0.28379932045936584,9.729174613952637,0.012432552874088287,0.0012465715408325195,0.005307197570800781,-0.010904717175042702,-0.02457195905477127,0.07880628241657077
0.10404614359140396,0.3125525414943695,9.742074012756348,0.00019916892051696777,0.0013936758041381836,-0.00591278076171875,-0.04949775392506094,-0.032662271435905096,-0.0693341707395118
0.09635580331087112,0.2902967035770416,9.757463455200195,-0.0023544058203697205,-0.006227552890777588,0.008378982543945312,0.008745550304098865,0.01681289417311654,0.04994425086162408
0.09635580331087112,0.2902967035770416,9.757463455200195,0.0023343265056610107,0.005518734455108643,0.010477066040039062,0.008745550304098865,0.01681289417311654,0.04994425086162408
0.10619069635868073,0.28114190697669983,9.74875545501709,-0.004512891173362732,0.004822880029678345,0.0126190185546875,0.05809047207637416,-0.048136545248245004,-0.05260706414257702
0.09132056683301926,0.29913729429244995,9.738414764404297,0.0019446983933448792,0.004898786544799805,-0.020214080810546875,-0.005766333845930375,-0.07934562723716378,0.024032580883645217
0.09132056683301926,0.29913729429244995,9.738414764404297,-0.016873642802238464,0.009550690650939941,0.005962371826171875,-0.005766333845930375,-0.07934562723716378,0.024032580883645217
0.10250270366668701,0.30640947818756104,9.76159954071045,-0.004849821329116821,0.025492221117019653,0.0009050369262695312,-0.04941040220887882,0.026602429553702598,0.024032580883645217
0.10250270366668701,0.30640947818756104,9.76159954071045,0.009328141808509827,0.008510440587997437,0.017180442810058594,0.007151341463135577,0.01840710634913313,-0.01268506201110206
0.10869473218917847,0.2957670986652374,9.748324394226074,0.011120505630970001,-0.0035810470581054688,-0.009054183959960938,0.007151341463135577,0.01840710634913313,-0.01268506201110206
0.09502330422401428,0.2831670939922333,9.74240493774414,-0.012874320149421692,-0.015139073133468628,0.0006952285766601562,0.00020027662111211217,-0.018310549885827365,0.024032580883645217
0.10424958169460297,0.298448771238327,9.754396438598633,0.003784358501434326,0.0018556714057922363,0.00324249267578125,0.006115954154070402,0.019442503663358226,0.0007505070556948191
0.09240315854549408,0.2785021960735321,9.736676216125488,-0.005893610417842865,-0.014746814966201782,-0.013433456420898438,-0.0782011970252164,0.04272458082636193,0.08506768491540807
0.09640146046876907,0.2910118103027344,9.757201194763184,0.0036524534225463867,-0.004890382289886475,0.02186870574951172,0.008544353208274388,-0.0440209894174487,-0.0016778919985091676
0.11320546269416809,0.3059304356575012,9.738454818725586,0.017566390335559845,0.020822882652282715,-0.013743400573730469,0.0055589468911705735,0.04272458082636193,-0.03700252314811763
0.11320546269416809,0.3059304356575012,9.738454818725586,0.010164327919483185,-0.0007893741130828857,-0.0040454864501953125,0.0055589468911705735,0.04272458082636193,-0.03700252314811763
0.10580196231603622,0.29578834772109985,9.745689392089844,0.0005164742469787598,0.015998631715774536,0.005297660827636719,0.0012603299844260248,-0.03673699287402678,-0.018576073489811613
0.11089669167995453,0.2991977334022522,9.740541458129883,0.014039434492588043,0.011140048503875732,-0.008645057678222656,-0.03422439706406784,-0.013380420625334316,0.06307927826472717
0.110929474234581,0.30416133999824524,9.758413314819336,0.011171877384185791,0.010875403881072998,0.010396003723144531,-0.015800962293950144,-0.07934562723716378,-0.03563735909808117
0.10552455484867096,0.2915521562099457,9.73643684387207,0.003740847110748291,0.0011845827102661133,-0.008520126342773438,0.0851659222455799,0.003248251873283608,0.06532951877134226
0.10552455484867096,0.2915521562099457,9.73643684387207,0.0060324594378471375,-0.003678649663925171,-0.012935638427734375,-0.017166119673879997,0.0025398965563191555,0.004698356395962189
0.1049601212143898,0.2923387587070465,9.757265090942383,0.02469532936811447,-0.005878716707229614,0.010476112365722656,-0.017166119673879997,0.0025398965563191555,0.004698356395962189
0.10001007467508316,0.273086279630661,9.733241081237793,-0.013591766357421875,-0.0011006593704223633,-0.008276939392089844,0.023838560822534542,0.0017198803196275564,-0.03700252314811763
0.11109720915555954,0.2860126793384552,9.754844665527344,0.007435254752635956,-0.007293254137039185,0.008741378784179688,-0.017166119673879997,-0.07934562723716378,0.024032580883645217
0.09915903955698013,0.2852184474468231,9.7325439453125,-0.002743653953075409,-0.0071038007736206055,-0.014890670776367188,0.10456778161430191,-0.07934562723716378,0.024032580883645217
0.07439368218183517,0.2898491322994232,9.739678382873535,-0.023763731122016907,-0.016192317008972168,-0.007489204406738281,-0.017166119673879997,0.001164477217367755,0.044812631020615654
0.09500398486852646,0.2916288375854492,9.756446838378906,-0.008316665887832642,0.000571131706237793,0.009218215942382812,-0.09780493384063725,-0.018310549885827365,-0.07843390370467285
0.10857601463794708,0.29000282287597656,9.765870094299316,0.0012015551328659058,-0.0015433132648468018,0.008955955505371094,-0.01918267966547337,-0.018310549885827365,0.02302430088784853
0.10204631090164185,0.2947937250137329,9.759535789489746,-0.00611046701669693,0.0030544698238372803,0.008211135864257812,0.02617844756200604,-0.018310549885827365,0.045704864501588234
0.09192639589309692,0.29038259387016296,9.757370948791504,-0.008490338921546936,0.0029441118240356445,0.009958267211914062,0.0015660076302105408,-0.03704267051981129,0.00530045357955468
0.08264624327421188,0.2943410277366638,9.749410629272461,-0.00838439166545868,-0.01118481159210205,0.005026817321777344,-0.07435642751252068,-0.020232934642175224,-0.03700252314811763
0.083856500685215,0.30084189772605896,9.760354042053223,-0.017142653465270996,0.003066539764404297,0.009538650512695312,-0.0331824463700971,-0.0022941764988639803,-0.014493141150451373
0.09586360305547714,0.29239821434020996,9.745172500610352,-0.0092453733086586,0.0004661381244659424,-0.005026817321777344,0.0007619929792795475,-0.018310549885827365,0.08506768491540807
0.09963233768939972,0.28094032406806946,9.774364471435547,0.011937320232391357,0.00038185715675354004,-0.0025548934936523438,-0.014518834401118256,-0.07669834196440203,0.026679866156406957
0.09751410782337189,0.2811067998409271,9.755533218383789,-0.011944420635700226,-0.001587510108947754,0.0037965774536132812,-0.017166119673879997,-0.04156829116485959,0.024032580883645217
0.09751410782337189,0.2811067998409271,9.755533218383789,0.004658356308937073,-0.01548817753791809,0.006020545959472656,-0.017166119673879997,-0.04156829116485959,0.024032580883645217
0.10042703151702881,0.2813669443130493,9.728240966796875,-0.01620350033044815,0.0060918331146240234,-0.012943267822265625,0.036981585683464636,0.039280878154099516,0.02747627688580102
0.08953088521957397,0.29790908098220825,9.768394470214844,-0.00880856066942215,-0.005667835474014282,0.013649940490722656,-0.016414652122833145,0.02212905251868762,0.024032580883645217
0.09837578237056732,0.27876245975494385,9.752944946289062,0.0011241883039474487,-0.012705236673355103,-0.0012722015380859375,-0.017166119673879997,0.023945232502516407,0.047509008278036856
0.0900244191288948,0.2781899571418762,9.743390083312988,-0.008350610733032227,-0.011813908815383911,-0.008519172668457031,-0.1308530175831555,-0.0751539855002519,0.019840925806520127
0.10869473218917847,0.28610557317733765,9.73054313659668,0.009961828589439392,0.0003718137741088867,-0.016976356506347656,0.00765841630794291,-0.06795960850925996,0.01264654881552818
0.10393443703651428,0.2830134332180023,9.760054588317871,0.00849081575870514,-0.006336867809295654,0.01207733154296875,-0.017166119673879997,-0.018310549885827365,-0.03198142697365912
0.09029778838157654,0.2981952428817749,9.760136604309082,-0.012740008533000946,0.010272830724716187,-0.006893157958984375,-0.0782011970252164,-0.0537130345198034,0.04966518694121881
0.09029778838157654,0.2981952428817749,9.760136604309082,-0.003203168511390686,0.007788658142089844,0.023571014404296875,0.07532410656937415,-0.018310549885827365,-0.007422547997952685
0.09306889772415161,0.3025476336479187,9.754847526550293,0.006096377968788147,-0.004228472709655762,-0.009673118591308594,-0.07237915444886811,-0.07352358466081547,0.02985462345999351
0.10039366781711578,0.2916038930416107,9.771933555603027,-0.007842957973480225,-0.011346757411956787,0.032319068908691406,-0.017166119673879997,0.03456574977506311,0.03219140192978412
0.10039366781711578,0.2916038930416107,9.771933555603027,0.010971873998641968,0.012287676334381104,0.012788772583007812,-0.017166119673879997,0.03456574977506311,0.03219140192978412
0.1004863753914833,0.2840937376022339,9.758074760437012,-0.00518721342086792,0.004818588495254517,0.0007648468017578125,-0.02367554341695338,0.04272458082636193,0.08506768491540807
0.09724149852991104,0.27884840965270996,9.746041297912598,-0.00502428412437439,0.0048337578773498535,-0.0204315185546875,0.07772532493913692,-0.0249881003361462,-0.0031461825668635686
0.09724149852991104,0.27884840965270996,9.746041297912598,0.004297986626625061,-0.023421674966812134,0.008089065551757812,0.07772532493913692,-0.0249881003361462,-0.0031461825668635686
0.09040497988462448,0.287024587392807,9.758323669433594,-0.000836983323097229,-0.006624042987823486,-0.013315200805664062,-0.07077743506786045,-0.010886781258364807,0.009185043628720097
0.09639569371938705,0.30236953496932983,9.747770309448242,-0.01230398565530777,0.00773853063583374,0.000736236572265625,-0.050163937492975194,-0.018310549885827365,0.024032580883645217
0.09639569371938705,0.30236953496932983,9.747770309448242,0.00896664708852768,0.016969412565231323,-0.006275177001953125,-0.050163937492975194,-0.018310549885827365,0.024032580883645217
0.1057933121919632,0.2898191809654236,9.733458518981934,-0.009922534227371216,-0.016316324472427368,-0.0103302001953125,0.0356549615094285,0.03451055130780096,-0.0452165526666786
0.10503461956977844,0.28421470522880554,9.752920150756836,0.008810646831989288,-0.009096890687942505,0.0020780563354492188,0.011647500247281587,0.04272458082636193,-0.008188903226956049
0.10503461956977844,0.28421470522880554,9.752920150756836,0.006309695541858673,-0.0018294751644134521,0.0043468475341796875,0.011647500247281587,0.04272458082636193,-0.008188903226956049
0.07829048484563828,0.3009360432624817,9.749567031860352,-0.0013741850852966309,0.005019962787628174,-0.011672019958496094,0.03500088418501383,-0.02717864338858978,-0.028134422975248607
0.099417544901371,0.3016754388809204,9.755134582519531,-0.007762819528579712,0.0209122896194458,0.009537696838378906,-0.0782011970252164,0.013177562672963614,0.024032580883645217
0.099417544901371,0.3016754388809204,9.755134582519531,0.0111541748046875,0.0018301904201507568,0.0022821426391601562,-0.0782011970252164,0.013177562672963614,0.024032580883645217
0.09920290112495422,0.29718923568725586,9.755587577819824,-0.010057516396045685,0.0064775943756103516,0.014380455017089844,-0.017166119673879997,-0.018310549885827365,0.024032580883645217
0.1003151684999466,0.29121431708335876,9.762475967407227,0.0016877874732017517,-0.0032373368740081787,0.002208709716796875,0.013234118506921171,-0.018310549885827365,0.024032580883645217
0.1003151684999466,0.29121431708335876,9.762475967407227,0.003938257694244385,0.003868281841278076,0.02310657501220703,0.013234118506921171,-0.018310549885827365,0.024032580883645217
0.10173257440328598,0.3014695942401886,9.750090599060059,-0.017038844525814056,-0.002819627523422241,0.00359344482421875,-0.06762347515668805,-0.007732814677085803,0.03461031609238678
0.1062297523021698,0.28528133034706116,9.74316692352295,0.006511613726615906,-0.0029624998569488525,-0.0104522705078125,-0.046798241717532406,0.07235671621022756,0.024032580883645217
0.1062297523021698,0.28528133034706116,9.74316692352295,0.011159546673297882,-0.007407963275909424,-0.00318145751953125,-0.046798241717532406,0.07235671621022756,0.024032580883645217
0.09701057523488998,0.2925531268119812,9.74701976776123,0.011053696274757385,-0.007628411054611206,-0.012376785278320312,-0.05536562013382914,0.019889000599921363,-0.014166946256730373
0.10139273852109909,0.30174902081489563,9.747657775878906,0.001559428870677948,0.006796121597290039,-0.009703636169433594,-0.08114586233113814,-0.04735577591885453,0.024032580883645217
0.10139273852109909,0.30174902081489563,9.747657775878906,0.006041176617145538,0.015951961278915405,0.006869316101074219,-0.08114586233113814,-0.04735577591885453,0.024032580883645217
0.10773466527462006,0.30294325947761536,9.756446838378906,0.015154771506786346,-0.0028738677501678467,0.006618499755859375,-0.04154884113398093,-0.018310549885827365,0.03622393494358907
0.09560853987932205,0.2853897213935852,9.743141174316406,-0.0018431469798088074,-0.003380417823791504,0.006259918212890625,0.02015066554723095,0.009940606625226311,-0.008751379977277178
0.09342063218355179,0.29359984397888184,9.749860763549805,-0.003869004547595978,0.0017473697662353516,-0.00030040740966796875,-0.017166119673879997,0.03507045006191681,0.03168671498314365
0.0871354341506958,0.3057621717453003,9.759723663330078,-0.01078285276889801,0.011044502258300781,0.004364013671875,0.03101558219612378,-0.018310549885827365,0.08506768491540807
0.10569165647029877,0.2943216562271118,9.741938591003418,0.013032056391239166,-0.0014763176441192627,0.0016078948974609375,0.043868984357882855,0.009199804574650992,-0.0034777669067265317
0.10569165647029877,0.2943216562271118,9.741938591003418,0.0010982528328895569,0.007806867361068726,-0.019394874572753906,0.043868984357882855,0.009199804574650992,-0.0034777669067265317
0.10366745293140411,0.29503005743026733,9.736136436462402,0.012173675000667572,-0.004120469093322754,-0.03242778778076172,0.043868984357882855,0.028971091133095418,0.010279101195538624
0.10899599641561508,0.28072217106819153,9.750608444213867,0.011902876198291779,-0.008954018354415894,0.003574371337890625,0.017189591779045305,0.016045174907311156,-0.002646818365298945
0.10899599641561508,0.28072217106819153,9.750608444213867,0.006885811686515808,-0.01333528757095337,0.0011453628540039062,0.017189591779045305,0.016045174907311156,-0.002646818365298945
0.09591333568096161,0.28407272696495056,9.753263473510742,0.00870516151189804,-0.01028364896774292,-0.019423484802246094,-0.017166119673879997,-0.03282261412873511,0.024032580883645217
0.10106240212917328,0.2958088517189026,9.77699089050293,-0.007781989872455597,0.004078596830368042,0.029645919799804688,0.06973336995009392,-0.05348125498516593,-0.011138144226013176
0.10106240212917328,0.2958088517189026,9.77699089050293,0.01539352536201477,-0.0033372342586517334,0.007129669189453125,0.06973336995009392,-0.05348125498516593,-0.011138144226013176
0.09132322669029236,0.27382051944732666,9.762432098388672,-0.003798089921474457,-0.0007857382297515869,0.016243934631347656,-0.0782011970252164,-0.07934562723716378,0.06984514092658016
0.08896608650684357,0.30395370721817017,9.751791954040527,-0.00831865519285202,0.01164063811302185,0.013153076171875,0.007976046784774949,-0.10448779369581872,0.024032580883645217
0.08896608650684357,0.30395370721817017,9.751791954040527,-0.01530902087688446,0.015902608633041382,-0.015153884887695312,0.007976046784774949,-0.10448779369581872,0.024032580883645217
0.08613505959510803,0.2854749858379364,9.730096817016602,-0.0029440075159072876,0.008589953184127808,-0.019117355346679688,0.01167492772566742,-0.002213508229506427,-0.03700252314811763
0.0842558890581131,0.28807899355888367,9.74592113494873,-0.016329288482666016,-0.005276799201965332,0.002887725830078125,-0.0782011970252164,-0.0059774360500726926,0.10941869668867868
0.0842558890581131,0.28807899355888367,9.74592113494873,0.005022548139095306,-0.002592235803604126,0.0054416656494140625,-0.07166321188563325,-0.13384274612934347,0.0817986923456165
0.09976707398891449,0.29446661472320557,9.750974655151367,-0.004886344075202942,0.006620556116104126,0.0029535293579101562,0.0875615177154693,-0.018310549885827365,-0.019659952473941235
0.08789141476154327,0.30088719725608826,9.74980640411377,-0.01652408391237259,0.0064643025398254395,0.002872467041015625,-0.017166119673879997,-0.03223467091137189,-0.013447041650168384
0.08789141476154327,0.30088719725608826,9.74980640411377,-0.002021774649620056,0.015629351139068604,-0.0018672943115234375,-0.017166119673879997,-0.03223467091137189,-0.013447041650168384
0.09167736768722534,0.30160069465637207,9.753043174743652,0.009938739240169525,0.004090100526809692,0.007029533386230469,-0.06052516104111264,-0.04399354859884964,0.06739164893130431
0.10841140151023865,0.28817397356033325,9.7459716796875,0.012206517159938812,-0.007881015539169312,-0.0025463104248046875,-0.017166119673879997,-0.018310549885827365,0.0012812207583327434
0.10841140151023865,0.28817397356033325,9.7459716796875,0.011574380099773407,0.018038272857666016,-0.000019073486328125,-0.017166119673879997,-0.018310549885827365,0.0012812207583327434
0.10753131657838821,0.2897838354110718,9.754338264465332,0.01578100025653839,0.003692626953125,0.0162811279296875,-0.0782011970252164,-0.03679598329689747,0.0055471408024685
0.08331967145204544,0.2990250587463379,9.758654594421387,-0.008114732801914215,0.015384376049041748,0.011182785034179688,0.043868984357882855,-0.018310549885827365,0.041209012542346345
0.08331967145204544,0.2990250587463379,9.758654594421387,-0.031207270920276642,-0.006076723337173462,0.0038881301879882812,0.043868984357882855,-0.018310549885827365,0.041209012542346345
0.0893520638346672,0.28435373306274414,9.753281593322754,0.00008356571197509766,-0.0035599470138549805,0.0018024444580078125,-0.039030128836259385,0.062310121590947044,-0.017416982383532516
0.0893520638346672,0.28435373306274414,9.753281593322754,-0.013819709420204163,-0.007989853620529175,0.0040760040283203125,-0.039030128836259385,0.062310121590947044,-0.017416982383532516
0.09042419493198395,0.2898605763912201,9.751046180725098,-0.001637279987335205,-0.010152041912078857,0.013427734375,-0.03630345595460947,-0.05839676337196692,-0.056139886109273555
0.11185011267662048,0.2964293360710144,9.756388664245605,0.019122689962387085,-0.00022211670875549316,0.015341758728027344,-0.05810199135049195,0.022625360143897596,-0.016903317473393176
0.1047007218003273,0.287616491317749,9.754059791564941,0.004298150539398193,0.0019133985042572021,0.007901191711425781,0.043868984357882855,-0.07934562723716378,0.04433850650246834
0.10629922151565552,0.2946486175060272,9.765841484069824,0.006371848285198212,-0.012184619903564453,-0.0062885284423828125,-0.016637927271541158,0.04166818601652433,-0.035946125003226734
0.09598138183355331,0.29037797451019287,9.76197338104248,-0.000921592116355896,0.018462449312210083,0.007441520690917969,-0.0782011970252164,0.021582839155811592,0.0028908508857814516
0.07942422479391098,0.2898854613304138,9.74008560180664,-0.014580942690372467,-0.0027792155742645264,-0.018712997436523438,0.06620663112062693,0.023375842186692624,0.08506768491540807
0.10559696704149246,0.27362945675849915,9.749391555786133,0.007464759051799774,-0.016838103532791138,-0.0020294189453125,0.04275066761331888,-0.07822731716270641,0.02515089095810258
0.10199616104364395,0.27424976229667664,9.751492500305176,-0.004805602133274078,-0.018379956483840942,0.0028018951416015625,-0.034748760825211764,0.020998347718619737,-0.015276305048115316
0.0943218469619751,0.3003185987472534,9.752582550048828,-0.004706688225269318,0.010006487369537354,0.0027265548706054688,0.043868984357882855,-0.018310549885827365,0.08506768491540807
0.09663999825716019,0.28575316071510315,9.758532524108887,-0.004610523581504822,0.011986136436462402,-0.0020036697387695312,-0.13332559942355302,-0.018310549885827365,-0.03306203760554918
0.09547185152769089,0.28422999382019043,9.734169006347656,0.0025078430771827698,0.005148768424987793,-0.002162933349609375,-0.0782011970252164,0.02014059702130113,-0.03700252314811763
0.08853788673877716,0.3009871542453766,9.742483139038086,-0.011308282613754272,0.010234057903289795,-0.010721206665039062,-0.04246770168054598,-0.03617729088805596,0.06720093724307286
0.10795857012271881,0.29292404651641846,9.74467945098877,-0.006468884646892548,0.01453542709350586,-0.0011043548583984375,0.10222452647099169,-0.020990111804481383,0.024032580883645217
0.08678895235061646,0.29444730281829834,9.751404762268066,-0.01604662835597992,0.00005033612251281738,-0.021872520446777344,-0.15369639849927805,-0.07934562723716378,0.024032580883645217
0.0986526608467102,0.3063109517097473,9.763927459716797,-0.00620047003030777,0.009721815586090088,0.010881423950195312,-0.1049601973264603,-0.018310549885827365,-0.08089956864451439
0.09100800007581711,0.2941438853740692,9.75725269317627,0.017232604324817657,0.032769083976745605,0.01989459991455078,0.04044755317159571,-0.018310549885827365,0.02061114969735807
0.07378105074167252,0.2895689010620117,9.761746406555176,-0.029539592564105988,-0.0053882598876953125,0.00754547119140625,-0.0411960458550939,0.005719399640759676,0.024032580883645217
0.10309378057718277,0.2936803996562958,9.731075286865234,0.009020589292049408,0.0017565786838531494,-0.025603294372558594,-0.017166119673879997,-0.018310549885827365,0.024032580883645217
0.09654946625232697,0.29273393750190735,9.744636535644531,-0.00290621817111969,0.006394624710083008,-0.003932952880859375,0.039591998606878884,-0.018310549885827365,0.024032580883645217
0.09192639589309692,0.29274439811706543,9.739678382873535,-0.005199842154979706,-0.007741183042526245,-0.010640144348144531,-0.042064066849067314,0.01782661697590808,0.0352717772248202
0.10155043751001358,0.2750205397605896,9.736274719238281,0.0022063329815864563,-0.014597535133361816,-0.02403736114501953,-0.04714695489117329,0.04272458082636193,0.00850545314651705
0.09991036355495453,0.2929992973804474,9.73108959197998,0.011533468961715698,-0.016594409942626953,0.018552780151367188,0.09982396177167682,0.04272458082636193,0.01895245426567634
0.08738230913877487,0.2884814143180847,9.735648155212402,-0.0026788488030433655,0.009313136339187622,-0.01862621307373047,-0.007475481964020284,0.007361703285444036,0.0497048207147034
0.0871354341506958,0.29290035367012024,9.74025821685791,-0.00925464928150177,-0.00003769993782043457,-0.008547782897949219,-0.03193152123599307,-0.018310549885827365,-0.03700252314811763
0.10014241933822632,0.2889731824398041,9.76591968536377,0.005169697105884552,-0.002635866403579712,0.019802093505859375,0.03226851503231783,-0.018310549885827365,-0.03700252314811763
0.0783357247710228,0.29064810276031494,9.74997329711914,-0.02721530944108963,0.00481182336807251,-0.001865386962890625,-0.06998017056482013,0.0773526527425481,-0.03700252314811763
0.09466487169265747,0.2789161205291748,9.73872184753418,-0.0031985417008399963,-0.014026761054992676,-0.013454437255859375,0.043868984357882855,-0.018310549885827365,-0.03700252314811763
0.10176954418420792,0.2836001217365265,9.730313301086426,0.008506447076797485,0.0002631545066833496,0.003223419189453125,-0.010509513358320772,0.036067967840696095,-0.09138101419421465
0.10155496746301651,0.3027942180633545,9.730816841125488,0.01756412535905838,0.016699105501174927,-0.03589820861816406,0.010092738416817768,0.04272458082636193,0.0578088268247103
0.09671732783317566,0.28521186113357544,9.743106842041016,0.0010130032896995544,-0.0049231648445129395,-0.0046291351318359375,-0.0040004631412176245,0.029558924293699558,0.09823332810785722
0.11144092679023743,0.2873152196407318,9.746864318847656,0.0009472966194152832,-0.004856765270233154,0.00015926361083984375,0.043868984357882855,-0.07190300221831095,-0.014674621411132727
0.10649266839027405,0.29311245679855347,9.763052940368652,0.007271714508533478,0.009376943111419678,0.02344036102294922,-0.0782011970252164,0.047652605668219106,0.024032580883645217
0.09623181074857712,0.28284841775894165,9.75023078918457,-0.0001112818717956543,-0.009389728307723999,0.0015811920166015625,0.031498417873505505,-0.018310549885827365,0.060326551946653366
0.07981855422258377,0.2882544696331024,9.758193969726562,-0.002465672791004181,0.002543628215789795,0.0061931610107421875,0.08841501121724323,0.03448003557005408,0.015788035627337365
0.10669034719467163,0.29466336965560913,9.763021469116211,0.002917550504207611,0.0068492889404296875,0.0034055709838867188,0.04054733796650136,0.010546192274576534,-0.008145800998033567
0.0949469655752182,0.29121798276901245,9.758321762084961,0.00007858127355575562,0.0019998550415039062,0.014278411865234375,-0.04723781508343297,0.04272458082636193,0.008996733178868729
0.10041630268096924,0.28543025255203247,9.742074012756348,-0.0068377479910850525,-0.002483189105987549,-0.0070858001708984375,-0.13923632773740569,-0.06821644763443624,0.01846799108228145
0.08930104225873947,0.28150373697280884,9.727700233459473,-0.00006898492574691772,-0.004569679498672485,-0.02067089080810547,0.041916884276581474,-0.016358423124099544,0.024032580883645217
0.10715289413928986,0.28718048334121704,9.748832702636719,0.00977606326341629,-0.0016382336616516113,0.0014162063598632812,-0.056450299530752125,0.04272458082636193,0.013157132136413079
0.08495275676250458,0.3033069670200348,9.736812591552734,0.01423521339893341,-0.003995120525360107,-0.0009508132934570312,-0.007359008562373055,0.04272458082636193,0.014225469772138276
0.10269402712583542,0.2995767295360565,9.739710807800293,0.0024859681725502014,0.007339507341384888,0.0022106170654296875,-0.10882069495054555,0.012105092906192692,0.024032580883645217
0.08988571166992188,0.29004085063934326,9.747688293457031,-0.009461738169193268,0.0026077628135681152,0.002147674560546875,-0.0782011970252164,-0.11034850955029955,0.01402184475750727
0.10786092281341553,0.2938539981842041,9.719892501831055,0.007176302373409271,-0.011309146881103516,-0.007231712341308594,-0.027788571277343986,0.04272458082636193,0.013410115939968003
0.1041274294257164,0.2937358021736145,9.739398002624512,0.016106948256492615,0.009810209274291992,-0.017838478088378906,-0.017166119673879997,0.012919396196571677,0.08364292346279928
0.08690556138753891,0.2735953629016876,9.732852935791016,-0.012168996036052704,-0.015964239835739136,-0.012852668762207031,-0.007969763544347065,0.04272458082636193,-0.027806160348478094
0.1049564778804779,0.27757784724235535,9.734888076782227,0.009103111922740936,-0.01063808798789978,-0.009879112243652344,0.043868984357882855,-0.006906438493740291,0.0736635768583743
0.10100080072879791,0.3021831512451172,9.735090255737305,-0.007385879755020142,0.017533481121063232,-0.0049457550048828125,-0.014580106000450031,0.013500018971928958,0.05584313306613501
0.1007876992225647,0.29651927947998047,9.759461402893066,0.0015242770314216614,0.007873624563217163,0.011877059936523438,-0.13070144608051942,-0.07081075892049071,0.024032580883645217
0.09778781980276108,0.28669726848602295,9.757102012634277,-0.003504931926727295,-0.003915369510650635,0.005980491638183594,-0.02978189261750345,0.030108801212631865,0.07245191197178462
0.10040958225727081,0.29549640417099,9.740291595458984,0.003550708293914795,0.0008791089057922363,-0.02446269989013672,-0.04516062382274251,-0.04630505403468988,-0.009008005659041895
0.09222472459077835,0.2873089909553528,9.749251365661621,-0.00595642626285553,-0.0016659796237945557,0.0013265609741210938,-0.0247674798898695,0.03512321394026582,0.07746632469941857
0.09243299812078476,0.29087841510772705,9.77169418334961,-0.003493592143058777,-0.0038185715675354004,0.01991748809814453,-0.0782011970252164,0.029816503800709698,0.024032580883645217
0.08698548376560211,0.29224833846092224,9.732807159423828,-0.0008725225925445557,0.01265418529510498,-0.00000476837158203125,0.01038506250916638,0.00924063896732562,0.024032580883645217
0.10390377044677734,0.2820248305797577,9.737549781799316,0.006881840527057648,-0.008458733558654785,-0.008479118347167969,-0.02397752582367521,0.03591316133635349,0.024032580883645217
0.10761235654354095,0.2966480553150177,9.72855281829834,0.006659150123596191,0.005879908800125122,-0.0059185028076171875,-0.03095517771065148,-0.018310549885827365,0.07127861353842337
0.09763521701097488,0.3007563054561615,9.746126174926758,0.0062992870807647705,0.003223031759262085,0.004105567932128906,-0.017166119673879997,0.05052027793352615,0.11168738671018073
0.09864035248756409,0.2955024540424347,9.739206314086914,0.0015152692794799805,0.004815608263015747,-0.005237579345703125,0.03784976008989011,-0.06730717870117829,0.018013356615652475
0.1107303723692894,0.2983338534832001,9.736710548400879,-0.0031120851635932922,0.011696547269821167,-0.009751319885253906,0.07573994102584496,-0.050181479873363015,-0.0834555534979801
0.11588117480278015,0.3064829707145691,9.749547958374023,0.017281964421272278,0.020359158515930176,0.00003814697265625,-0.017166119673879997,-0.018310549885827365,-0.0018500207697214224
0.08599335700273514,0.3087488114833832,9.766544342041016,-0.014003254473209381,0.017295241355895996,0.023000717163085938,-0.017166119673879997,-0.012987911531683367,0.09039032326955207
0.09733381122350693,0.28480666875839233,9.743307113647461,-0.0019496232271194458,-0.013739824295043945,-0.0032978057861328125,-0.017166119673879997,-0.002603192533007472,0.05544727557896517
0.0876661017537117,0.2760638892650604,9.724903106689453,-0.018333800137043,-0.008771657943725586,-0.03115081787109375,-0.005287606954221239,-0.05476733825121834,0.08506768491540807
0.12253997474908829,0.28253141045570374,9.73301887512207,0.02410941570997238,-0.009910911321640015,-0.011597633361816406,-0.06923854809113163,0.03824324968921293,0.019551256416602828
0.11588117480278015,0.29506391286849976,9.757306098937988,0.015838488936424255,-0.0009730756282806396,0.019125938415527344,0.043868984357882855,-0.06322646750731963,-0.03700252314811763
0.11639322340488434,0.27756041288375854,9.72970199584961,0.005505882203578949,-0.017105579376220703,-0.039689064025878906,0.05631599026402617,0.005983509182142317,-0.03700252314811763
0.11530178040266037,0.2700367867946625,9.721238136291504,0.014839529991149902,-0.0213606059551239,-0.022283554077148438,0.043868984357882855,0.09637842482009629,0.024032580883645217
0.09418949484825134,0.30171358585357666,9.739411354064941,-0.011395223438739777,0.01409175992012024,-0.00042629241943359375,-0.04428745350646514,-0.018310549885827365,0.024032580883645217
0.10666874796152115,0.29811087250709534,9.742813110351562,0.009641073644161224,0.00881350040435791,0.009045600891113281,0.020385793475387316,-0.04179372742810968,0.000549390001149678
0.10607229173183441,0.30084553360939026,9.750293731689453,0.004781961441040039,0.011129885911941528,0.008787155151367188,-0.13634526340821268,0.039833516497168917,0.08217662058621505
0.09476575255393982,0.28308233618736267,9.731338500976562,-0.009185649454593658,-0.004876881837844849,-0.007228851318359375,-0.0782011970252164,0.06758718977672237,0.06698143737470687
0.10324790328741074,0.2921789288520813,9.744903564453125,0.021629929542541504,0.014278173446655273,0.011659622192382812,-0.0782011970252164,0.020535033775762754,0.024032580883645217
0.09230654686689377,0.3111059367656708,9.753822326660156,-0.009177878499031067,0.020897120237350464,0.011333465576171875,-0.017166119673879997,0.03885019270525856,0.024032580883645217
0.12219666689634323,0.2838853597640991,9.743538856506348,0.028103969991207123,-0.01240772008895874,-0.0007371902465820312,-0.017166119673879997,-0.036973855029902095,0.024032580883645217
0.09844111651182175,0.29565563797950745,9.749070167541504,-0.00033724308013916016,0.006702542304992676,0.0013637542724609375,-0.0953153832490205,0.04272458082636193,-0.015042050903925035
0.10358337312936783,0.27323442697525024,9.746757507324219,0.0019725486636161804,-0.01674523949623108,0.00365447998046875,-0.017166119673879997,-0.018310549885827365,-0.03700252314811763
0.09117214381694794,0.2830818295478821,9.733867645263672,-0.012084409594535828,-0.0162523090839386,-0.0011053085327148438,-0.017166119673879997,0.0235069581398784,-0.03700252314811763
0.10444452613592148,0.2793968617916107,9.741243362426758,0.009610623121261597,-0.004048407077789307,-0.00072479248046875,0.025165751955632646,0.021558636673972346,0.06390175577075836
0.09428505599498749,0.28043922781944275,9.7374849319458,-0.006867349147796631,-0.008271992206573486,-0.005269050598144531,0.04293161426547133,-0.07887694552601131,0.0845990032042556
0.09590619802474976,0.2891916036605835,9.750882148742676,-0.001661352813243866,0.003915548324584961,0.0012884140014648438,-0.03759173368573701,0.02229894346913177,-0.016576895796047392
