Accelerometer_Gx,Accelerometer_Gy,Accelerometer_Gz,Accelerometer_X,Accelerometer_Y,Accelerometer_Z,Gyroscope_Z,Gyroscope_X,Gyroscope_Y
0.10338789969682693,0.2762564718723297,9.756114959716797,0.011256478726863861,0.0009483098983764648,0.031958580017089844,0.25699520567098566,-0.13355389049243277,0.2804951652015021
0.11318027973175049,0.2944367825984955,9.754356384277344,0.0031056031584739685,0.01416739821434021,0.03075885772705078,0.051056117613094885,0.011665202710228086,-0.018722375608224758
0.09641207009553909,0.27390554547309875,9.722101211547852,0.0022851750254631042,0.016274720430374146,-0.015256881713867188,-0.00274605621146247,-0.05901278773816389,0.06828304197884386
0.09641207009553909,0.27390554547309875,9.722101211547852,-0.012990958988666534,-0.01957261562347412,-0.0029144287109375,-0.00274605621146247,-0.05901278773816389,0.06828304197884386
0.10862670093774796,0.28085920214653015,9.766467094421387,0.009936757385730743,0.0022481679916381836,0.03551006317138672,0.01789426186210699,-0.051272842717110564,-0.05378716608468184
0.11206531524658203,0.27690601348876953,9.7420015335083,-0.012872524559497833,0.013069987297058105,0.025961875915527344,-0.0018974185473016087,0.029553948394167497,-0.05378716608468184
0.11206531524658203,0.27690601348876953,9.7420015335083,0.0025415420532226562,-0.012955904006958008,-0.0015306472778320312,-0.0018974185473016087,0.029553948394167497,-0.05378716608468184
0.09420527517795563,0.2944506108760834,9.750852584838867,-0.02206972986459732,0.004857897758483887,-0.009718894958496094,0.056477880421590014,-0.014305117515184294,-0.05378716608468184
0.1013653576374054,0.30465659499168396,9.754755020141602,-0.013307079672813416,0.013825774192810059,0.014647483825683594,-0.0190734766800325,0.003653684298494028,0.007247937947081011
0.1013653576374054,0.30465659499168396,9.754755020141602,0.003168158233165741,-0.001509934663772583,0.029229164123535156,-0.0190734766800325,0.003653684298494028,0.007247937947081011
0.10806470364332199,0.279915452003479,9.764387130737305,0.007559478282928467,-0.015195578336715698,0.0050258636474609375,0.0034179760710624746,0.02423854543817015,-0.015243514804013964
0.09671732783317566,0.29147300124168396,9.745394706726074,-0.006362356245517731,0.008688002824783325,-0.0018682479858398438,0.04680693953655359,-0.014305117515184294,-0.01632730040665103
0.09671732783317566,0.29147300124168396,9.745394706726074,-0.006118051707744598,0.003565490245819092,0.0028057098388671875,0.04680693953655359,-0.014305117515184294,-0.01632730040665103
0.09224392473697662,0.2862795889377594,9.741914749145508,-0.0006160810589790344,-0.01555141806602478,-0.006524085998535156,0.08130326350695256,0.007388363701569565,-0.04974185314660956
0.09106351435184479,0.28042083978652954,9.795830726623535,-0.00727284699678421,-0.0057850182056427,0.037410736083984375,-0.041058201431863936,-0.014305117515184294,0.06828304197884386
0.09106351435184479,0.28042083978652954,9.795830726623535,-0.011674672365188599,-0.005452483892440796,0.05462074279785156,-0.041058201431863936,-0.014305117515184294,0.06828304197884386
0.10459264367818832,0.2860322594642639,9.751458168029785,-0.004632569849491119,0.0015589892864227295,-0.010099411010742188,0.02273377772428498,0.004922755457634214,-0.013655695925184341
0.09514140337705612,0.2878594696521759,9.745288848876953,-0.016491979360580444,0.00856637954711914,-0.011957168579101562,-0.0190734766800325,0.046730013197005,0.007247937947081011
0.09514140337705612,0.2878594696521759,9.745288848876953,-0.0019797682762145996,-0.0009539127349853516,0.00234222412109375,-0.0190734766800325,0.046730013197005,0.007247937947081011
0.11559753865003586,0.30426928400993347,9.751265525817871,-0.004123963415622711,0.010731697082519531,-0.020999908447265625,0.04286498657053065,0.046730013197005,0.00815129716588131
0.11035080254077911,0.2908308207988739,9.774782180786133,0.011941038072109222,0.005154222249984741,0.026020050048828125,0.08189883732627916,-0.014305117515184294,-0.05378716608468184
0.11035080254077911,0.2908308207988739,9.774782180786133,0.006930403411388397,0.0025104880332946777,0.027632713317871094,0.08189883732627916,-0.014305117515184294,-0.05378716608468184
0.09422064572572708,0.2802184522151947,9.758487701416016,-0.0113772451877594,-0.015803247690200806,-0.006171226501464844,-0.0203627282467253,0.046730013197005,0.007247937947081011
0.10150828957557678,0.2904990017414093,9.752017974853516,0.0008122697472572327,-0.0034889578819274902,0.012341499328613281,0.020076353889474003,-0.014305117515184294,-0.031901892622425494
0.09265436232089996,0.28290966153144836,9.755414009094238,-0.008592553436756134,-0.010847300291061401,0.012061119079589844,0.065900239773435,-0.014305117515184294,-0.011300307857948088
0.0943218469619751,0.27875572443008423,9.751331329345703,-0.006046071648597717,0.012774080038070679,-0.006905555725097656,-0.0190734766800325,-0.014305117515184294,-0.05378716608468184
0.10753025114536285,0.28356486558914185,9.762401580810547,0.0012303441762924194,-0.02930504083633423,0.018833160400390625,-0.03475593785992557,-0.05266389345090564,-0.015428370138640658
0.10700349509716034,0.2910591661930084,9.748885154724121,0.00997498631477356,0.010888129472732544,-0.00756072998046875,-0.0190734766800325,-0.0753401948665207,-0.036432722620737254
0.08084294199943542,0.2733621299266815,9.752421379089355,-0.004401057958602905,-0.010343015193939209,0.015938758850097656,-0.0190734766800325,-0.0175590156337144,0.06502915053042037
0.09414424747228622,0.2929418981075287,9.747618675231934,-0.0176304429769516,0.022956877946853638,-0.0311279296875,0.01850783162907099,0.009148688212634985,-0.030333363691915867
0.09414424747228622,0.2929418981075287,9.747618675231934,0.0014697089791297913,-0.003369659185409546,0.016317367553710938,0.01850783162907099,0.009148688212634985,-0.030333363691915867
0.0943218469619751,0.28506752848625183,9.74882698059082,-0.005126580595970154,-0.0009168386459350586,-0.000591278076171875,0.1029967313834932,-0.010627934431098513,-0.05010998967070267
0.1149943396449089,0.2947613298892975,9.756414413452148,-0.00034440308809280396,0.015440881252288818,0.013398170471191406,0.017712888323131417,0.022481264163246154,-0.04124954011011685
0.11304137110710144,0.2986091077327728,9.750531196594238,0.019872918725013733,0.007895857095718384,-0.00098419189453125,-0.002871307473410224,-0.09154236407314298,-0.008954231259541267
0.11192118376493454,0.27806356549263,9.762937545776367,-0.008849918842315674,0.021579653024673462,0.0037050247192382812,-0.014644365807543686,-0.023163332590055312,0.05942482023386623
0.10912472009658813,0.277657151222229,9.76222038269043,0.004975870251655579,-0.029768645763397217,0.012555122375488281,-0.044112976857725694,-0.014305117515184294,-0.028747652566775427
0.10912472009658813,0.277657151222229,9.76222038269043,0.009474463760852814,0.006022989749908447,0.009876251220703125,-0.044112976857725694,-0.014305117515184294,-0.028747652566775427
0.10236013680696487,0.2926187217235565,9.74989128112793,-0.014023706316947937,0.008115142583847046,-0.0184173583984375,0.0917594026721694,-0.06972153718096541,-0.05378716608468184
0.09293917566537857,0.28005102276802063,9.735997200012207,-0.006864368915557861,-0.004145443439483643,-0.022576332092285156,0.04196162735173035,-0.014305117515184294,0.007247937947081011
0.10264811664819717,0.27904945611953735,9.754620552062988,0.0004174262285232544,-0.010812580585479736,0.0038919448852539062,-0.004552361102453166,-0.08986131044410003,-0.06830828166226117
0.09557950496673584,0.2921466827392578,9.760734558105469,-0.006961695849895477,0.005554556846618652,0.010607719421386719,0.04196162735173035,-0.027122841276679306,-0.0055697924845206125
0.09507952630519867,0.2750431299209595,9.75808334350586,-0.001932002604007721,-0.00641515851020813,0.0033283233642578125,0.0687414784062413,0.07350985758140934,0.007247937947081011
0.09507952630519867,0.2750431299209595,9.75808334350586,-0.008788533508777618,-0.015621691942214966,0.010224342346191406,0.0687414784062413,0.07350985758140934,0.007247937947081011
0.11295325309038162,0.2916000485420227,9.745266914367676,0.007326312363147736,0.017413437366485596,-0.0002307891845703125,-0.012290711968026382,-0.021087882227190415,-0.047004394702569105
0.11026044189929962,0.2766112685203552,9.755464553833008,0.004523254930973053,-0.020353764295578003,0.013946533203125,0.014569520541257834,0.046730013197005,0.07453391904944846
0.11026044189929962,0.2766112685203552,9.755464553833008,0.01145566999912262,-0.0012242496013641357,-0.0050716400146484375,0.014569520541257834,0.046730013197005,0.07453391904944846
0.09785791486501694,0.2818751633167267,9.73605728149414,-0.012117899954319,-0.01041954755783081,0.02309417724609375,0.1029967313834932,-0.014305117515184294,-0.045793570249412455
0.10500921308994293,0.28521186113357544,9.754236221313477,0.004548251628875732,-0.0009641349315643311,-0.00022411346435546875,0.00909276937385881,0.05143261511582531,0.011950549871061237
0.10006901621818542,0.2866496741771698,9.768904685974121,-0.00471014529466629,0.0014833807945251465,0.020613670349121094,-0.043473126870713016,0.022330359671271185,0.1049184958199262
0.10731791704893112,0.27459269762039185,9.735208511352539,0.01159728318452835,-0.002980262041091919,-0.0009241104125976562,-0.03637718731309123,-0.022956966161607046,-0.04513531076815248
0.09524188190698624,0.265127956867218,9.738758087158203,-0.0005362331867218018,-0.025683701038360596,-0.01899242401123047,-0.0801085540313689,-0.014305117515184294,0.06828304197884386
0.09524188190698624,0.265127956867218,9.738758087158203,-0.012192949652671814,-0.01319211721420288,-0.006824493408203125,-0.11820737590212647,-0.025773271935900156,0.056814887558128
0.09384989738464355,0.27394235134124756,9.758405685424805,-0.01180596649646759,-0.0032812952995300293,-0.017454147338867188,0.035949159901734896,-0.020317584965179745,0.0622705678587418
0.07482536882162094,0.2701402008533478,9.738314628601074,-0.023083366453647614,-0.016912072896957397,-0.010285377502441406,0.015682014282750106,-0.0753401948665207,-0.027507546345594984
0.09713675826787949,0.2801225483417511,9.748961448669434,-0.027222447097301483,-0.009526044130325317,-0.012325286865234375,-0.0190734766800325,-0.024991668843183268,0.017934489275079984
0.09710674732923508,0.2859906852245331,9.768872261047363,-0.0009126588702201843,0.007234483957290649,0.009050369262695312,0.03203955028267034,0.02688585905888499,0.01717001501614102
0.10031193494796753,0.2816166579723358,9.743268013000488,0.006442204117774963,-0.009370893239974976,-0.017388343811035156,0.011436938321774788,0.046744267214833435,0.007247937947081011
0.0927048772573471,0.28359484672546387,9.7376127243042,-0.007504172623157501,-0.00013265013694763184,-0.014685630798339844,0.04196162735173035,0.0368123484034684,-0.04386950462619854
0.08088508248329163,0.2895863652229309,9.733844757080078,-0.0026619136333465576,0.004459559917449951,0.002025604248046875,-0.008462697763138358,-0.06472942928983978,0.007247937947081011
0.10495493561029434,0.2804795503616333,9.74914264678955,0.00018449872732162476,-0.0005459487438201904,-0.004488945007324219,-0.017579426159945104,-0.04407563760091541,0.007247937947081011
0.10247284173965454,0.2619725167751312,9.736783981323242,0.004359781742095947,-0.021286100149154663,-0.01614665985107422,0.03284688664669378,-0.014305117515184294,0.06828304197884386
0.10404206812381744,0.2602158486843109,9.755404472351074,-0.005104094743728638,-0.01600414514541626,0.012248039245605469,-0.0190734766800325,0.03522787124805105,-0.030782888856880554
0.09596025943756104,0.26945236325263977,9.74648666381836,0.004424102604389191,-0.014770448207855225,-0.009196281433105469,-0.05119496255231655,0.049937900920130084,0.007247937947081011
0.10760185122489929,0.28935152292251587,9.741632461547852,0.006913095712661743,0.009197741746902466,-0.009082794189453125,-0.027370955902407953,-0.014305117515184294,0.051688056853666516
0.10632164776325226,0.2890356779098511,9.761698722839355,0.016015715897083282,0.004416346549987793,0.005138397216796875,-0.031394631014633044,0.03440885219229785,-0.00507321638751953
0.11751188337802887,0.2868424952030182,9.739158630371094,0.02249383181333542,0.011096358299255371,-0.01636505126953125,0.009237737470949687,-0.014305117515184294,0.07269573104885556
0.0751732587814331,0.27685049176216125,9.7555570602417,-0.027266062796115875,-0.007856369018554688,0.005103111267089844,-0.026751356359067304,0.03905212684786359,-0.05378716608468184
0.10322785377502441,0.29444581270217896,9.754727363586426,-0.00789836049079895,0.020441383123397827,0.016603469848632812,-0.03211622982827431,-0.014305117515184294,-0.10177951029809627
0.10034938901662827,0.28711265325546265,9.749429702758789,0.010837137699127197,0.0010094046592712402,-0.018854141235351562,-0.0190734766800325,0.019363129394683272,0.03461481174424282
0.09326376020908356,0.27802544832229614,9.735152244567871,-0.005361318588256836,-0.004000067710876465,-0.0143280029296875,0.04196162735173035,0.046730013197005,0.0005081153814387025
0.08844549208879471,0.281730979681015,9.761368751525879,-0.014448046684265137,-0.003959447145462036,-0.011600494384765625,-0.005245905447687137,0.046730013197005,-0.0065796332852643535
0.10046416521072388,0.2721281349658966,9.765905380249023,0.002567492425441742,-0.02476981282234192,0.02312469482421875,0.0075304169620712845,-0.014305117515184294,0.007247937947081011
0.0877995640039444,0.29389429092407227,9.766776084899902,-0.01365312933921814,0.015171945095062256,0.017652511596679688,-0.0190734766800325,0.09577178529390148,-0.05378716608468184
0.10312997549772263,0.2636525630950928,9.755298614501953,0.016981177031993866,-0.017823874950408936,0.000858306884765625,-0.0190734766800325,0.03210802226208906,-0.05378716608468184
0.10141410678625107,0.2888954281806946,9.749998092651367,-0.004501231014728546,0.00194588303565979,0.0030050277709960938,-0.02847840704330205,-0.04952512804259388,-0.02797207925043519
0.09172225743532181,0.27241790294647217,9.76781177520752,-0.006976775825023651,-0.00810500979423523,0.017078399658203125,0.09259435327756378,0.04152882414404029,-0.10441989201051527
0.10207756608724594,0.2851611077785492,9.777368545532227,-0.009136013686656952,-0.017163872718811035,0.009615898132324219,-0.0190734766800325,-0.014305117515184294,-0.038420754566353923
0.08357039093971252,0.2877289950847626,9.747173309326172,-0.025536857545375824,0.0015919804573059082,0.001522064208984375,-0.00810671417329111,-0.0753401948665207,0.007247937947081011
0.1035589650273323,0.2874349057674408,9.741901397705078,0.005381956696510315,0.005899101495742798,-0.009754180908203125,0.04196162735173035,0.046730013197005,0.007247937947081011
0.09559474140405655,0.2922479510307312,9.743195533752441,0.0006517916917800903,0.0033368170261383057,-0.011811256408691406,-0.002857313589739631,0.0019110455751085774,0.052066878888550994
0.09559474140405655,0.2922479510307312,9.743195533752441,-0.004051230847835541,0.012592613697052002,-0.0068264007568359375,-0.002857313589739631,0.0019110455751085774,0.052066878888550994
0.09925288707017899,0.27041882276535034,9.723750114440918,-0.0022960081696510315,-0.017886042594909668,-0.024763107299804688,-0.043277305880817275,-0.03850894671596907,0.007247937947081011
0.09632939100265503,0.25674736499786377,9.752819061279297,0.002479560673236847,-0.017041385173797607,-0.011699676513671875,0.08594647146145219,0.0027451490769633278,0.0952176261665247
0.09064552932977676,0.28206348419189453,9.763104438781738,-0.004502162337303162,-0.004437804222106934,0.0233001708984375,0.0185440703182904,-0.014305117515184294,-0.016169619086358937
0.1113099455833435,0.2573450207710266,9.751106262207031,0.012362420558929443,-0.02311617136001587,0.00177001953125,-0.0801085540313689,0.043930682844037755,0.0016492772411465164
0.11079179495573044,0.28411221504211426,9.734588623046875,0.01665864884853363,-0.003711611032485962,-0.009927749633789062,-0.03688400869384734,0.028919461172870337,-0.0715977114387099
0.10301756113767624,0.28015774488449097,9.7615966796875,0.004447527229785919,0.003318995237350464,0.016422271728515625,-0.05752869568724722,0.024150129839983527,0.04570317029450895
0.0943218469619751,0.282440185546875,9.758992195129395,-0.004990562796592712,0.0033928751945495605,0.008856773376464844,-0.020990358598426004,0.044813134613664804,-0.055704041332968725
0.09784852713346481,0.27260228991508484,9.754816055297852,-0.004870213568210602,-0.008215129375457764,0.013265609741210938,-0.0801085540313689,-0.014305117515184294,-0.06989396610697517
0.09787001460790634,0.29223620891571045,9.758679389953613,-0.00710228830575943,0.01794019341468811,0.012858390808105469,0.006166473541544696,-0.06478501795833869,-0.05378716608468184
0.10635240375995636,0.28265678882598877,9.762941360473633,0.006623297929763794,0.003274291753768921,0.012480735778808594,-0.020428548858766007,-0.014305117515184294,0.1266080016531397
0.10049757361412048,0.28054821491241455,9.739049911499023,0.008744217455387115,-0.003670424222946167,-0.01814556121826172,-0.0801085540313689,-0.014305117515184294,-0.03452359136622613
0.08729936182498932,0.2748860716819763,9.756281852722168,-0.017074428498744965,-0.0059337317943573,0.010535240173339844,0.06300289887392072,-0.014305117515184294,0.007247937947081011
0.08729936182498932,0.2748860716819763,9.756281852722168,-0.0026505813002586365,-0.0012817084789276123,-0.0037250518798828125,0.06300289887392072,-0.014305117515184294,0.007247937947081011
0.08493906259536743,0.2899862229824066,9.746947288513184,-0.014043211936950684,0.010329097509384155,-0.0036211013793945312,0.04153886265449036,0.10734235253152787,0.007247937947081011
0.10065672546625137,0.2876073122024536,9.7476167678833,-0.004781857132911682,0.007459312677383423,-0.008400917053222656,0.02178558204884325,-0.0349881042607465,-0.03361112078179474
0.11101047694683075,0.2613368034362793,9.753983497619629,-0.001948721706867218,-0.004438519477844238,-0.007938385009765625,-0.018734862047801185,-0.014305117515184294,0.007247937947081011
0.11101047694683075,0.2613368034362793,9.753983497619629,0.012054987251758575,-0.01825714111328125,0.003924369812011719,-0.018734862047801185,-0.014305117515184294,0.007247937947081011
0.09896878898143768,0.285139799118042,9.750832557678223,0.004849791526794434,0.0076063573360443115,0.0015192031860351562,0.06291826189112941,-0.03526173871437013,-0.05378716608468184
0.08031207323074341,0.2900431752204895,9.73959732055664,0.0018842369318008423,0.011325091123580933,-0.014932632446289062,-0.018045586570798473,0.045702119752717665,0.007247937947081011
0.08031207323074341,0.2900431752204895,9.73959732055664,-0.019051551818847656,0.008713364601135254,-0.009862899780273438,-0.018045586570798473,0.045702119752717665,0.007247937947081011
0.10838876664638519,0.2960337996482849,9.764788627624512,0.014133602380752563,0.020071715116500854,0.008335113525390625,-0.0190734766800325,0.0073391916756307615,-0.03214287023408001
0.08299891650676727,0.2759208083152771,9.753323554992676,0.0038020461797714233,0.002985358238220215,-0.01967620849609375,-0.0764028829219461,0.04487717764229359,0.06643020642413246
0.08299891650676727,0.2759208083152771,9.753323554992676,-0.017189808189868927,-0.006279289722442627,0.004154205322265625,-0.0764028829219461,0.04487717764229359,0.06643020642413246
0.10353340953588486,0.288491427898407,9.74837589263916,-0.0005637407302856445,0.005179375410079956,-0.0005350112915039062,0.05794343624623377,0.046730013197005,-0.05378716608468184
0.09661083668470383,0.30363020300865173,9.765708923339844,-0.004847407341003418,0.004727721214294434,0.008746147155761719,0.15860522343925448,-0.011591811527183506,0.0099612439350818
0.09661083668470383,0.30363020300865173,9.765708923339844,-0.0024079009890556335,0.020626991987228394,0.015499114990234375,0.15860522343925448,-0.011591811527183506,0.0099612439350818
0.10363002121448517,0.2859133183956146,9.76785945892334,0.01908688247203827,-0.003467172384262085,0.01451873779296875,-0.03346033635173878,-0.014305117515184294,0.04495891979881557
0.08740094304084778,0.29931917786598206,9.738079071044922,-0.007731474936008453,0.010854661464691162,0.00007915496826171875,0.09623172249528647,-0.021070126403391023,0.12255313712239999
0.08740094304084778,0.29931917786598206,9.738079071044922,-0.01220451295375824,0.015042752027511597,-0.013891220092773438,0.09623172249528647,-0.021070126403391023,0.12255313712239999
0.09321493655443192,0.28127995133399963,9.734457969665527,-0.014235928654670715,-0.008944183588027954,-0.012933731079101562,0.028912524261994543,0.046730013197005,0.055233938889108054
0.08916395902633667,0.2674003541469574,9.755263328552246,0.016322992742061615,0.00023877620697021484,-0.01073455810546875,-0.014766362057465105,-0.0753401948665207,0.002940823324513615
0.08916395902633667,0.2674003541469574,9.755263328552246,-0.012203022837638855,-0.018367648124694824,0.005866050720214844,-0.014766362057465105,-0.0753401948665207,0.002940823324513615
0.10620556771755219,0.29842036962509155,9.753703117370605,0.011476509273052216,0.023870408535003662,-0.003958702087402344,0.07810521419107921,0.010586409682389612,0.06828304197884386
0.09591589123010635,0.2902064025402069,9.76982307434082,0.012676641345024109,-0.018822163343429565,0.008235931396484375,0.1029967313834932,-0.019382022471659894,0.0021710396607120216
0.09591589123010635,0.2902064025402069,9.76982307434082,-0.006331063807010651,0.007148176431655884,0.01965808868408203,0.1029967313834932,-0.019382022471659894,0.0021710396607120216
0.12685197591781616,0.30135592818260193,9.746864318847656,0.025937601923942566,0.018235087394714355,-0.004062652587890625,0.006573363385049693,0.05647142375839024,-0.018398902118001183
0.08496518433094025,0.2790694534778595,9.747539520263672,-0.016626596450805664,-0.0030988454818725586,0.0007038116455078125,0.04196162735173035,0.040991253571805907,0.007247937947081011
0.08496518433094025,0.2790694534778595,9.747539520263672,-0.01572679728269577,-0.004942208528518677,-0.004055023193359375,0.04196162735173035,0.040991253571805907,0.007247937947081011
0.10216259956359863,0.2838505208492279,9.753396034240723,0.0058226510882377625,-0.002307981252670288,-0.0018329620361328125,-0.053758938193502644,0.012044518333001802,0.007247937947081011
0.09963640570640564,0.2833399176597595,9.775650024414062,0.0032285526394844055,0.0023365020751953125,0.0049991607666015625,0.1029967313834932,-0.007635037584270162,-0.05378716608468184
0.09963640570640564,0.2833399176597595,9.775650024414062,-0.0015401020646095276,-0.002558112144470215,0.02582550048828125,0.1029967313834932,-0.007635037584270162,-0.05378716608468184
0.10390377044677734,0.2913295030593872,9.763116836547852,0.0031352490186691284,0.006661921739578247,0.006037712097167969,0.014730923781039053,0.019499296286100483,-0.08101787632547974
0.09823674708604813,0.277966171503067,9.752239227294922,-0.008734427392482758,0.008821845054626465,0.0031185150146484375,0.02708022596553945,-0.0753401948665207,0.007247937947081011
0.09823674708604813,0.277966171503067,9.752239227294922,-0.0016303583979606628,-0.010124176740646362,-0.0016222000122070312,0.02708022596553945,-0.0753401948665207,0.007247937947081011
0.09981309622526169,0.29000282287597656,9.743151664733887,0.003200061619281769,0.003784388303756714,0.0038442611694335938,0.06801849888053148,-0.014305117515184294,0.007247937947081011
0.1045069545507431,0.27502676844596863,9.740583419799805,0.007438249886035919,-0.014991849660873413,-0.005360603332519531,0.08762808537945048,-0.021989440517205652,0.007247937947081011
0.1045069545507431,0.27502676844596863,9.740583419799805,0.0025483518838882446,-0.010097652673721313,-0.012192726135253906,0.08762808537945048,-0.021989440517205652,0.007247937947081011
0.09530811756849289,0.29408952593803406,9.742496490478516,-0.008951529860496521,0.015677988529205322,-0.02129077911376953,0.04196162735173035,0.05032253928797965,0.007247937947081011
0.0817984864115715,0.29169073700904846,9.748005867004395,0.004944406449794769,0.0008695125579833984,0.016239166259765625,-0.06208204396547887,0.03771675149395337,-0.08778250501760963
0.0817984864115715,0.29169073700904846,9.748005867004395,-0.023057058453559875,0.005634129047393799,-0.007506370544433594,-0.06208204396547887,0.03771675149395337,-0.08778250501760963
0.10781119018793106,0.2759092152118683,9.746725082397461,0.017534062266349792,-0.0006883442401885986,-0.0096282958984375,-0.0801085540313689,0.07635805980551788,-0.02238011533153848
0.11502396315336227,0.2909480035305023,9.764786720275879,0.021476589143276215,-0.014600217342376709,0.018331527709960938,-0.060511247198721384,-0.0753401948665207,0.007247937947081011
0.11502396315336227,0.2909480035305023,9.764786720275879,0.01143888384103775,0.009227722883224487,0.010831832885742188,-0.060511247198721384,-0.0753401948665207,0.007247937947081011
0.10870453715324402,0.2995896339416504,9.743239402770996,0.011032290756702423,0.01580241322517395,-0.02457141876220703,-0.04952847643611277,-0.014305117515184294,-0.08436725702015119
0.09192639589309692,0.289285808801651,9.740639686584473,-0.010478749871253967,0.01121339201927185,0.004263877868652344,0.04196162735173035,0.046730013197005,-0.04309541874363263
0.09192639589309692,0.289285808801651,9.740639686584473,-0.010107532143592834,0.0015155971050262451,-0.014485359191894531,0.04196162735173035,0.046730013197005,-0.04309541874363263
0.10051819682121277,0.28517407178878784,9.755305290222168,-0.014936722815036774,0.001723647117614746,-0.00030422210693359375,-0.04911004730817016,-0.044341681473215336,-0.05378716608468184
0.11256591230630875,0.270844042301178,9.761788368225098,0.008746445178985596,-0.019152700901031494,0.01134490966796875,-0.061308671784320375,-0.014305117515184294,-0.04438721829105096
0.10896690934896469,0.29133665561676025,9.736048698425293,0.003407299518585205,0.0042066872119903564,-0.019227027893066406,0.04196162735173035,0.03540155081905044,-0.042458710376833894
0.11303572356700897,0.28407034277915955,9.75143051147461,0.0195404514670372,-0.002917081117630005,0.0047283172607421875,0.012877201102148336,-0.014305117515184294,0.007247937947081011
0.11783300340175629,0.2847520709037781,9.773707389831543,-0.006968051195144653,-0.012111693620681763,0.014172554016113281,-0.006948556881937601,-0.06321528840863902,-0.09057243052025489
0.11783300340175629,0.2847520709037781,9.773707389831543,0.018724508583545685,0.002227962017059326,0.023095130920410156,-0.006948556881937601,-0.06321528840863902,-0.09057243052025489
0.10793188214302063,0.29017671942710876,9.763392448425293,-0.002949140965938568,0.0021365880966186523,-0.0037946701049804688,-0.051807238318597945,0.01842866746875429,-0.025485837031697656
0.0948290154337883,0.29189106822013855,9.754050254821777,-0.007259361445903778,0.004542291164398193,0.0019731521606445312,-0.0801085540313689,-0.0013828765181428794,-0.005674299714907097
0.0948290154337883,0.29189106822013855,9.754050254821777,-0.009410753846168518,0.006877988576889038,0.00191497802734375,-0.0801085540313689,-0.0013828765181428794,-0.005674299714907097
0.09911283850669861,0.2757715582847595,9.736109733581543,-0.004411220550537109,0.0028190314769744873,-0.002079010009765625,-0.07412891017600787,-0.014305117515184294,-0.02027977880090667
0.0906113013625145,0.28328564763069153,9.723591804504395,0.002673998475074768,-0.011201173067092896,-0.009008407592773438,0.014433457036493097,0.03296592136927977,0.007247937947081011
0.0906113013625145,0.28328564763069153,9.723591804504395,-0.013397850096225739,0.0035754144191741943,-0.03691864013671875,0.014433457036493097,0.03296592136927977,0.007247937947081011
0.10360605269670486,0.2795277535915375,9.747474670410156,0.003366239368915558,0.0040270984172821045,0.013422012329101562,-0.08769382595021186,0.020005070460118606,0.007247937947081011
0.10356580466032028,0.2749440670013428,9.759296417236328,-0.015266373753547668,-0.003340989351272583,0.01772785186767578,-0.0801085540313689,-0.014305117515184294,-0.05378716608468184
0.10356580466032028,0.2749440670013428,9.759296417236328,0.006096944212913513,-0.010102719068527222,0.005587577819824219,-0.0801085540313689,-0.014305117515184294,-0.05378716608468184
0.10382374376058578,0.2885424792766571,9.75121021270752,0.010800875723361969,0.016037851572036743,0.012650489807128906,-0.04494012343838481,0.01156155925864777,-0.027920505986116305
0.09994019567966461,0.2972758114337921,9.742280960083008,-0.003392636775970459,0.011066406965255737,-0.008665084838867188,-0.06429818688709678,0.04145988525715878,-0.05378716608468184
0.09972882270812988,0.29484862089157104,9.749848365783691,-0.005737893283367157,0.000030428171157836914,0.0010700225830078125,0.1029967313834932,0.03138388213782887,-0.008098189777041817
0.11207522451877594,0.2909878194332123,9.749259948730469,0.010648868978023529,0.0068454742431640625,-0.0012531280517578125,0.00602414680667191,0.046730013197005,-0.05378716608468184
0.10834288597106934,0.2831681966781616,9.729987144470215,0.005668178200721741,-0.002728790044784546,-0.022177696228027344,0.0374792690181632,-0.014305117515184294,0.06380069031538332
0.11095496267080307,0.2946585416793823,9.75355339050293,0.010097406804561615,0.011428862810134888,0.0014820098876953125,-0.06398842713606612,-0.014305117515184294,0.007247937947081011
0.10199522972106934,0.28856995701789856,9.746377944946289,-0.011334195733070374,-0.002681225538253784,0.0063724517822265625,-0.11675814849846729,-0.014305117515184294,0.007247937947081011
0.08968395739793777,0.29015588760375977,9.75328540802002,-0.013372428715229034,0.004411876201629639,0.003864288330078125,-0.02687367277410607,-0.014305117515184294,0.007247937947081011
0.10062197595834732,0.2993547320365906,9.754247665405273,0.0012216046452522278,0.01611095666885376,0.008624076843261719,-0.0968321388120129,-0.014305117515184294,0.007247937947081011
0.11520383507013321,0.2873547673225403,9.756587982177734,0.021935440599918365,-0.01013326644897461,-0.0012302398681640625,-0.0190734766800325,-0.0006549644485939766,0.007247937947081011
0.1075214147567749,0.2807728350162506,9.740616798400879,0.0049994587898254395,-0.005263566970825195,-0.010509490966796875,0.04196162735173035,-0.014305117515184294,0.007247937947081011
0.08814728260040283,0.2910146117210388,9.762248992919922,-0.013309523463249207,0.006339430809020996,0.012841224670410156,0.04196162735173035,-0.014305117515184294,0.05065633810323757
0.09366197139024734,0.29606470465660095,9.754612922668457,0.0061388686299324036,-0.008306235074996948,0.012524604797363281,-0.003503740301871092,-0.014305117515184294,-0.05378716608468184
0.10201296210289001,0.28354138135910034,9.751591682434082,0.005797475576400757,-0.0015491843223571777,-0.016302108764648438,0.023488286843946604,-0.03839352052105982,-0.011225402560702733
0.10201296210289001,0.28354138135910034,9.751591682434082,-0.0038046464323997498,-0.0039046406745910645,0.007442474365234375,0.023488286843946604,-0.03839352052105982,-0.011225402560702733
0.0943218469619751,0.29057660698890686,9.741211891174316,-0.008068181574344635,0.017530888319015503,-0.011151313781738281,-0.0801085540313689,0.007664406063679894,-0.031817649175924265
0.09187159687280655,0.27367284893989563,9.746206283569336,-0.010197073221206665,-0.013200521469116211,-0.0038557052612304688,-0.020469783457837315,-0.014305117515184294,0.004455311051258161
0.08953088521957397,0.2989563047885895,9.716479301452637,-0.011738821864128113,0.015110433101654053,-0.03314971923828125,-0.038334930304585804,0.06924218996934141,-0.07304862637934176
0.09441529214382172,0.27857479453086853,9.75672721862793,-0.00198160856962204,-0.020238518714904785,0.021327972412109375,0.02082321239685242,-0.035443519129849,-0.11482227011644469
0.10625482350587845,0.2830161452293396,9.756535530090332,0.0051402747631073,-0.0034442543983459473,0.006762504577636719,0.04139599564098206,0.046730013197005,-0.052655902663185254
0.09346557408571243,0.28185608983039856,9.76602840423584,-0.011266462504863739,-0.015418797731399536,0.015445709228515625,-0.0190734766800325,0.00574548642771663,0.02729853188482202
0.0847490131855011,0.28513938188552856,9.761137962341309,-0.013832777738571167,-0.019204139709472656,-0.015349388122558594,0.041730808312444904,-0.014305117515184294,0.007247937947081011
0.0847490131855011,0.28513938188552856,9.761137962341309,-0.015801578760147095,-0.00010865926742553711,0.0106964111328125,0.041730808312444904,-0.014305117515184294,0.007247937947081011
0.10615092515945435,0.2756299376487732,9.760562896728516,0.01031724363565445,-0.008899182081222534,0.005251884460449219,-0.0801085540313689,-0.014305117515184294,-0.05378716608468184
0.09675609320402145,0.2969954311847687,9.761004447937012,-0.0011242181062698364,0.0009361803531646729,-0.004487037658691406,0.039986361990167786,-0.014305117515184294,-0.05378716608468184
0.09675609320402145,0.2969954311847687,9.761004447937012,-0.003443092107772827,0.012484312057495117,0.009613037109375,0.039986361990167786,-0.014305117515184294,-0.05378716608468184
0.09247343987226486,0.28945574164390564,9.748015403747559,-0.0028772130608558655,-0.00008085370063781738,-0.009472846984863281,0.06358790724437495,0.00732116904756692,-0.01437833527545698
0.10200680047273636,0.28986039757728577,9.754549026489258,0.018528319895267487,-0.0006317496299743652,0.01899242401123047,0.04014709154918126,-0.012490581712635203,-0.1130077343138956
0.10200680047273636,0.28986039757728577,9.754549026489258,0.0016929283738136292,0.003972142934799194,0.002162933349609375,0.04014709154918126,-0.012490581712635203,-0.1130077343138956
0.08322478085756302,0.27347996830940247,9.742074012756348,-0.016423344612121582,-0.01459038257598877,-0.009276390075683594,0.003356624430451364,0.046730013197005,-0.031357064974197976
0.10859212279319763,0.2897976040840149,9.758431434631348,0.00718718022108078,0.00004890561103820801,-0.0017852783203125,-0.02168791834784,0.046730013197005,-0.05640161442259595
0.10859212279319763,0.2897976040840149,9.758431434631348,0.009396642446517944,0.004736185073852539,0.0075778961181640625,-0.02168791834784,0.046730013197005,-0.05640161442259595
0.11257456243038177,0.2863583266735077,9.764779090881348,0.013630226254463196,0.004593610763549805,0.016481399536132812,0.05656765338647205,0.03212396715194347,-0.05378716608468184
0.0940219983458519,0.28072068095207214,9.752401351928711,-0.0052997395396232605,-0.00279390811920166,-0.009587287902832031,-0.19453890202354446,-0.01048517413929599,-0.05378716608468184
0.0940219983458519,0.28072068095207214,9.752401351928711,-0.0048227086663246155,-0.004570811986923218,0.0029554367065429688,-0.19453890202354446,-0.01048517413929599,-0.05378716608468184
0.09766614437103271,0.28810521960258484,9.756305694580078,-0.002302788197994232,0.004627853631973267,-0.009490966796875,0.07882179041444214,0.022555062222794027,-0.02961221844552417
0.09901338070631027,0.2981145679950714,9.761881828308105,-0.006917797029018402,0.01607346534729004,0.009405136108398438,0.02554604808407823,0.002110468422574438,-0.05378716608468184
0.11381465196609497,0.2920692265033722,9.756939888000488,0.013969309628009796,0.006325900554656982,0.004162788391113281,-0.0190734766800325,0.10357393572921217,-0.05378716608468184
0.1116153821349144,0.2867105305194855,9.741023063659668,0.008734971284866333,-0.0031752586364746094,-0.004741668701171875,-0.04387882943524119,0.08295975780345255,0.007247937947081011
0.0965215191245079,0.2925940155982971,9.7496976852417,-0.004951708018779755,0.009073436260223389,-0.022348403930664062,-0.0340403955030874,-0.0703512219255024,-0.05378716608468184
0.0965215191245079,0.2925940155982971,9.7496976852417,-0.002607583999633789,0.006523191928863525,0.0015621185302734375,-0.0340403955030874,-0.0703512219255024,-0.05378716608468184
0.09772101044654846,0.2830438017845154,9.75922966003418,-0.002672329545021057,-0.007782667875289917,0.010664939880371094,0.016388792119500978,-0.03987793940720044,-0.02821433752255908
0.0913318619132042,0.2815464437007904,9.756671905517578,0.00888010859489441,0.0063863396644592285,0.0076885223388671875,-0.0190734766800325,0.04099406835679589,-0.04805122124447273
0.0913318619132042,0.2815464437007904,9.756671905517578,-0.009917952120304108,-0.005405008792877197,0.005145072937011719,-0.0190734766800325,0.04099406835679589,-0.04805122124447273
0.1134856641292572,0.29239821434020996,9.755081176757812,0.013327673077583313,0.006170809268951416,0.002532958984375,0.015698829621517297,0.011957690220188676,-0.08855947238623163
0.09749608486890793,0.2838546931743622,9.772496223449707,0.0034987106919288635,0.00599101185798645,-0.0045928955078125,-0.0190734766800325,-0.007691073149912034,0.007247937947081011
0.09749608486890793,0.2838546931743622,9.772496223449707,-0.003609485924243927,-0.0034592151641845703,0.023482322692871094,-0.0190734766800325,-0.007691073149912034,0.007247937947081011
0.10950841009616852,0.27879348397254944,9.749259948730469,0.005400761961936951,-0.0006521046161651611,-0.0027103424072265625,0.008182459903969494,-0.014305117515184294,0.03450387453108301
0.1224907636642456,0.2774485945701599,9.766982078552246,0.017295710742473602,-0.012237191200256348,0.0048770904541015625,0.04196162735173035,0.046730013197005,0.05358530197819623
0.1224907636642456,0.2774485945701599,9.766982078552246,0.021547392010688782,-0.00730779767036438,0.016386985778808594,0.04196162735173035,0.046730013197005,0.05358530197819623
0.11677711457014084,0.2675475478172302,9.754544258117676,0.011473625898361206,-0.013544023036956787,-0.005345344543457031,0.008881113550867752,0.10776511722876785,-0.05378716608468184
0.10937433689832687,0.2954733371734619,9.745844841003418,0.01122293621301651,0.014986753463745117,-0.012238502502441406,-0.027731448484324465,0.09910714542447589,-0.09750632650786076
0.10659687221050262,0.30186015367507935,9.75129508972168,0.02253737300634384,0.019013583660125732,0.0068645477294921875,-0.08316646440733799,-0.014305117515184294,-0.024798549246465122
0.10659687221050262,0.30186015367507935,9.75129508972168,-0.013043686747550964,0.014058709144592285,-0.007306098937988281,-0.08316646440733799,-0.014305117515184294,-0.024798549246465122
0.09954772889614105,0.293105810880661,9.732491493225098,0.0037042945623397827,0.0067109763622283936,-0.0024471282958984375,-0.0010443252519243716,0.037715437482950934,-0.05378716608468184
0.09954772889614105,0.293105810880661,9.732491493225098,-0.006013393402099609,0.006077677011489868,-0.018158912658691406,-0.0010443252519243716,0.037715437482950934,-0.05378716608468184
0.08980497717857361,0.2922612428665161,9.751518249511719,-0.002946697175502777,0.0009178817272186279,-0.0038366317749023438,0.012316945497328785,-0.014305117515184294,-0.024142490900386886
0.12252897024154663,0.29201754927635193,9.748005867004395,-0.0070631131529808044,0.0034876763820648193,0.0034198760986328125,-0.028773038992538188,-0.014305117515184294,-0.05378716608468184
0.12252897024154663,0.29201754927635193,9.748005867004395,0.025717131793498993,0.0057503581047058105,-0.003662109375,-0.028773038992538188,-0.014305117515184294,-0.05378716608468184
0.09783606976270676,0.29715409874916077,9.75522232055664,-0.01471535861492157,0.005240261554718018,0.0008707046508789062,-0.0190734766800325,0.016436133201174968,0.03798917865828035
0.10508644580841064,0.2860003113746643,9.740072250366211,0.00888855755329132,0.0029802322387695312,-0.008172988891601562,-0.029118043586903168,-0.014305117515184294,-0.06383173966165911
0.09144747257232666,0.2762528657913208,9.738144874572754,-0.014671817421913147,-0.013474643230438232,-0.012601852416992188,0.0199880683583663,-0.014305117515184294,-0.01472563438649626
0.10112596303224564,0.30443936586380005,9.763442039489746,0.01373186707496643,0.014169812202453613,0.02018451690673828,0.04196162735173035,-0.10666956555806839,0.038577308638628696
0.11304429173469543,0.30374571681022644,9.759283065795898,-0.0007425770163536072,0.0045912861824035645,-0.008326530456542969,0.04196162735173035,0.03548401334708645,-0.05378716608468184
0.11304429173469543,0.30374571681022644,9.759283065795898,0.010743699967861176,0.01299893856048584,0.007916450500488281,0.04196162735173035,0.03548401334708645,-0.05378716608468184
0.10629922151565552,0.29708361625671387,9.739889144897461,0.003523401916027069,0.010110229253768921,-0.015418052673339844,0.010098781533407642,0.046730013197005,-0.08565001857311115
0.09816766530275345,0.2962440550327301,9.748786926269531,-0.003585316240787506,-0.011200487613677979,0.0059719085693359375,-0.007032400122042152,0.046730013197005,-0.0417460961967981
0.09816766530275345,0.2962440550327301,9.748786926269531,-0.0031043365597724915,0.007619589567184448,-0.0010843276977539062,-0.007032400122042152,0.046730013197005,-0.0417460961967981
0.09714360535144806,0.28812161087989807,9.737112045288086,0.006651744246482849,-0.008873552083969116,-0.009957313537597656,-0.05177508840473129,-0.009936944736696686,0.03994956301199302
0.09523143619298935,0.2858182489871979,9.748956680297852,-0.007628999650478363,-0.0038371682167053223,-0.0003681182861328125,0.016270217634271174,0.021038600144492523,-0.1019765652577151
0.10718224197626114,0.29756805300712585,9.75064754486084,0.006532847881317139,0.010273844003677368,0.002044677734375,0.016270217634271174,0.021038600144492523,-0.1019765652577151
0.09911283850669861,0.28412970900535583,9.761394500732422,-0.002729840576648712,-0.006340444087982178,0.022893905639648438,0.04196162735173035,0.046730013197005,0.007247937947081011
0.09325949102640152,0.2934635579586029,9.766561508178711,0.00429428368806839,0.007522851228713989,0.01724529266357422,0.07585321944642534,-0.014305117515184294,0.007247937947081011
0.09325949102640152,0.2934635579586029,9.766561508178711,-0.012151606380939484,0.002485513687133789,0.01444244384765625,0.07585321944642534,-0.014305117515184294,0.007247937947081011
0.10227705538272858,0.2815648317337036,9.76813793182373,0.004415050148963928,-0.01848861575126648,0.018309593200683594,-0.026360181286738626,-0.04117929721739282,-0.05378716608468184
0.07256881892681122,0.2880912125110626,9.743500709533691,-0.03309011459350586,-0.0017442405223846436,-0.007814407348632812,-0.004623691222554843,0.09331532510118358,-0.03933737395709757
0.10982896387577057,0.290569931268692,9.745857238769531,0.007341936230659485,0.0005140304565429688,-0.0024709701538085938,-0.004623691222554843,0.09331532510118358,-0.03933737395709757
0.09977751225233078,0.2825070321559906,9.749568939208984,0.0025578737258911133,-0.013358652591705322,0.004778861999511719,-0.01001916714089468,-0.005250794635833249,-0.027796762168262712
0.11648283898830414,0.28760361671447754,9.758258819580078,0.009781770408153534,0.005549758672714233,-0.023110389709472656,-0.06487348358232489,0.0009299629390196316,0.007247937947081011
0.09555914998054504,0.2860367000102997,9.751321792602539,-0.0002071857452392578,0.0011079907417297363,0.009653091430664062,-0.029581882800655792,0.046730013197005,-0.05378716608468184
0.09555914998054504,0.2860367000102997,9.751321792602539,-0.014095127582550049,-0.008308947086334229,-0.013902664184570312,-0.029581882800655792,0.046730013197005,-0.05378716608468184
0.0911855697631836,0.2830434739589691,9.746637344360352,-0.018382780253887177,0.008058667182922363,-0.01838397979736328,0.025979598343708755,0.030747977518876795,-0.03780513707666024
0.0911855697631836,0.2830434739589691,9.746637344360352,-0.00614706426858902,-0.010867387056350708,0.000759124755859375,0.025979598343708755,0.030747977518876795,-0.03780513707666024
0.09910876303911209,0.2947937250137329,9.758846282958984,0.005989477038383484,0.005338311195373535,0.00039958953857421875,0.06635512770411521,0.046730013197005,-0.029393665732296983
0.10150828957557678,0.2885083854198456,9.766576766967773,0.0009194463491439819,0.007367163896560669,0.04696083068847656,-0.04651138711260509,-0.0311037009745662,-0.03698858262529993
0.10150828957557678,0.2885083854198456,9.766576766967773,0.0008728206157684326,-0.004350185394287109,0.0014028549194335938,-0.04651138711260509,-0.0311037009745662,-0.03698858262529993
0.10690959542989731,0.2861384153366089,9.73549747467041,0.022073015570640564,-0.0017251670360565186,-0.00022983551025390625,-0.03289190986632033,0.046730013197005,-0.05378716608468184
0.08112441748380661,0.2808910012245178,9.72986125946045,-0.02048211544752121,-0.008633404970169067,-0.02118396759033203,-0.022068367888737644,-0.017300015393996046,-0.050792268205870086
0.10731349140405655,0.28829795122146606,9.732125282287598,0.007794409990310669,-0.0011700987815856934,-0.015241622924804688,-0.0801085540313689,-0.031901652498587486,0.007247937947081011
0.10148803144693375,0.28758704662323,9.743301391601562,0.012368828058242798,0.010791569948196411,-0.024242401123046875,-0.03446119918898365,-0.014305117515184294,-0.030963488663489212
0.10176830738782883,0.30272889137268066,9.756620407104492,0.007514923810958862,-0.029558837413787842,0.01117706298828125,-0.0190734766800325,-0.03869308167908174,0.0316359287914049
0.11875268816947937,0.2722721993923187,9.741121292114258,0.021151766180992126,-0.010073453187942505,-0.017080307006835938,-0.0190734766800325,-0.03869308167908174,0.0316359287914049
0.10414113849401474,0.27584031224250793,9.760342597961426,-0.010007239878177643,-0.007000744342803955,0.025257110595703125,-0.0190734766800325,-0.014305117515184294,0.007247937947081011
0.10007238388061523,0.31041067838668823,9.751079559326172,-0.0026667267084121704,0.0234033465385437,0.0012664794921875,-0.0190734766800325,-0.014305117515184294,-0.008464138506166407
0.10041729360818863,0.2829587161540985,9.733796119689941,-0.005217641592025757,-0.010034114122390747,-0.019571304321289062,-0.0190734766800325,-0.014305117515184294,-0.008464138506166407
0.10223628580570221,0.2972949743270874,9.754990577697754,-0.0028456449508666992,0.013416469097137451,0.01119232177734375,-0.0190734766800325,-0.014305117515184294,-0.01130061468285221
0.10799913108348846,0.2917026877403259,9.753355026245117,-0.004900284111499786,-0.007600456476211548,-0.007022857666015625,-0.0190734766800325,-0.03539932967354887,-0.03381673348819592
0.10799913108348846,0.2917026877403259,9.753355026245117,0.011416085064411163,0.008944004774093628,0.009473800659179688,-0.0190734766800325,-0.03539932967354887,-0.03381673348819592
0.11349756270647049,0.2876192033290863,9.739726066589355,0.015533484518527985,0.00378456711769104,0.0083770751953125,-0.018770320334547074,0.04657843502426229,-0.11467069861380859
0.0911925807595253,0.28675708174705505,9.738866806030273,-0.00376284122467041,-0.007776230573654175,-0.012530326843261719,0.0006123958282004011,-0.014305117515184294,-0.03311254365281025
0.0911925807595253,0.28675708174705505,9.738866806030273,-0.01532408595085144,0.0016852021217346191,-0.009851455688476562,0.0006123958282004011,-0.014305117515184294,-0.03311254365281025
0.09200111031532288,0.3040020763874054,9.744543075561523,-0.0056296586990356445,-0.007560104131698608,-0.0007143020629882812,-0.020025274213044356,-0.013353319982172438,-0.05378716608468184
0.09262979030609131,0.3001455068588257,9.741228103637695,-0.012321576476097107,0.0038112103939056396,-0.009859085083007812,0.0024826670415938534,-0.1148191618467638,-0.014308205774545344
0.08234444260597229,0.2933068573474884,9.75115966796875,-0.019004076719284058,0.005669504404067993,-0.004725456237792969,-0.0001310942753392877,-0.014305117515184294,-0.034844783679988625
0.08467481285333633,0.2713600993156433,9.770689010620117,-0.015577293932437897,-0.01783791184425354,0.020570755004882812,-0.017413767392145847,0.04507031057922496,-0.052127463466901794
0.08976215124130249,0.28778913617134094,9.746633529663086,-0.005745656788349152,-0.012553542852401733,-0.007952690124511719,-0.0026564766796721663,0.046730013197005,-0.11482227011644469
0.08976215124130249,0.28778913617134094,9.746633529663086,-0.012489721179008484,0.006355106830596924,-0.0007448196411132812,-0.0026564766796721663,0.046730013197005,-0.11482227011644469
0.09290797263383865,0.2810097932815552,9.756545066833496,0.015613682568073273,0.006446242332458496,0.008746147155761719,0.04446261050607894,-0.0753401948665207,0.0047469547927324164
0.09214778244495392,0.2884635925292969,9.751973152160645,-0.026664599776268005,-0.00985601544380188,0.0060062408447265625,-0.0190734766800325,0.023688905308022548,0.06828304197884386
0.09214778244495392,0.2884635925292969,9.751973152160645,0.004426322877407074,0.006752997636795044,-0.0011501312255859375,-0.0190734766800325,0.023688905308022548,0.06828304197884386
0.10377427190542221,0.28042083978652954,9.768294334411621,0.0014500021934509277,-0.007366597652435303,0.015021324157714844,-0.0190734766800325,-0.014305117515184294,-0.047188229510884264
0.09619857370853424,0.2822975814342499,9.755728721618652,-0.0010676756501197815,-0.002142190933227539,0.02111530303955078,-0.005855779975588451,-0.014305117515184294,0.04437432497497124
0.09619857370853424,0.2822975814342499,9.755728721618652,-0.005722999572753906,-0.006809055805206299,-0.007416725158691406,-0.005855779975588451,-0.014305117515184294,0.04437432497497124
0.09800190478563309,0.2963957190513611,9.732001304626465,-0.016932763159275055,-0.002045542001724243,0.00696563720703125,0.04196162735173035,0.046730013197005,-0.05378716608468184
0.0963212251663208,0.29809996485710144,9.756050109863281,0.006986573338508606,0.004693061113357544,0.014346122741699219,-0.0190734766800325,0.08304893712884617,0.007247937947081011
0.0963212251663208,0.29809996485710144,9.756050109863281,-0.009331651031970978,0.013910293579101562,-0.00235748291015625,-0.0190734766800325,0.08304893712884617,0.007247937947081011
0.09027452766895294,0.29828330874443054,9.756446838378906,0.0002507716417312622,-0.005158334970474243,0.005145072937011719,0.08878621599037755,0.04199317028589538,0.01672162376930026
0.09891362488269806,0.2802206575870514,9.758642196655273,-0.00633586198091507,0.0013205111026763916,0.016516685485839844,0.0317847321997973,0.046730013197005,-0.018181163157780584
0.09891362488269806,0.2802206575870514,9.758642196655273,0.0055621713399887085,-0.014986962080001831,-0.00024700164794921875,0.0317847321997973,0.046730013197005,-0.018181163157780584
0.10779914259910583,0.2888833284378052,9.76101303100586,0.000650651752948761,-0.010121405124664307,0.006878852844238281,-0.024778218761513756,-0.014305117515184294,0.007247937947081011
0.107620008289814,0.30400338768959045,9.762929916381836,-0.001918993890285492,0.008803755044937134,0.006434440612792969,-0.0190734766800325,0.08145405460711513,0.007247937947081011
0.10296949744224548,0.3109791576862335,9.758315086364746,0.007130734622478485,0.028819680213928223,-0.0010957717895507812,0.07471696678518348,-0.028444996479285847,0.054143163014742306
0.08764268457889557,0.26807701587677,9.77825927734375,-0.007166273891925812,-0.0045542120933532715,0.026882171630859375,-0.0190734766800325,-0.02076729689312955,-0.04732498003662997
0.09990585595369339,0.2913517951965332,9.768709182739258,0.005057074129581451,-0.01061105728149414,-0.0001506805419921875,-0.046153949439516576,0.046730013197005,0.007247937947081011
0.09990585595369339,0.2913517951965332,9.768709182739258,-0.001993037760257721,0.013004809617996216,0.025470733642578125,-0.046153949439516576,0.046730013197005,0.007247937947081011
0.109950952231884,0.2839556038379669,9.737166404724121,0.002498738467693329,0.003300786018371582,-0.00083160400390625,0.027447882241956545,-0.014305117515184294,-0.000008937942859196374
0.10087747871875763,0.28521186113357544,9.751486778259277,0.00903940200805664,-0.0038453340530395508,0.013712882995605469,0.0034078108285867915,-0.014305117515184294,0.03508673512720839
0.12621508538722992,0.2976841926574707,9.748685836791992,0.032177239656448364,0.008170008659362793,-0.0025043487548828125,0.006148797759024643,-0.014305117515184294,-0.028564891645624695
0.08610480278730392,0.29078271985054016,9.763689041137695,0.0009801462292671204,0.010102242231369019,-0.0164031982421875,0.04692954276617664,-0.014305117515184294,0.012215846691420696
0.08929567784070969,0.2908216118812561,9.756855010986328,-0.0007933378219604492,-0.004096895456314087,0.00001621246337890625,-0.044375192088830714,0.07203174861612305,0.007247937947081011
0.08929567784070969,0.2908216118812561,9.756855010986328,-0.016996748745441437,0.005364358425140381,0.004672050476074219,-0.044375192088830714,0.07203174861612305,0.007247937947081011
0.11996910721063614,0.2957976162433624,9.745501518249512,0.0021003857254981995,-0.015225261449813843,-0.0028219223022460938,0.050733611288329955,-0.06656821760002771,0.06828304197884386
0.10248754918575287,0.29923513531684875,9.74960994720459,0.008241042494773865,0.019897878170013428,-0.014118194580078125,-0.04847766784056218,-0.014305117515184294,0.03887883747810096
0.09042730927467346,0.2826155126094818,9.762566566467285,-0.005809783935546875,-0.004102915525436401,0.011759757995605469,0.09197117188697283,0.035704447030378034,0.007247937947081011
0.08083899319171906,0.282953679561615,9.744845390319824,-0.016497261822223663,-0.0036281347274780273,-0.009325027465820312,0.04196162735173035,0.03714053432401288,-0.04419769388179633
0.0858730599284172,0.2887662649154663,9.749156951904297,-0.006646044552326202,0.003491133451461792,0.00490570068359375,0.042620320389920065,0.0775769150670346,0.03809483314700399
0.0858730599284172,0.2887662649154663,9.749156951904297,-0.017930716276168823,-0.003762274980545044,-0.013857841491699219,0.042620320389920065,0.0775769150670346,0.03809483314700399
0.09671732783317566,0.29759588837623596,9.743700981140137,-0.0013460218906402588,0.010059148073196411,-0.0019712448120117188,0.031600036947729275,-0.0753401948665207,0.0579214582449494
0.11709648370742798,0.2922225892543793,9.747040748596191,0.019640550017356873,-0.00909358263015747,0.005383491516113281,0.010996491171908136,0.016660035339904445,0.007247937947081011
0.11709648370742798,0.2922225892543793,9.747040748596191,0.01674196869134903,0.014378935098648071,-0.018052101135253906,0.010996491171908136,0.016660035339904445,0.007247937947081011
0.11172634363174438,0.2780725657939911,9.748380661010742,0.004982210695743561,0.009417027235031128,-0.00782012939453125,0.08058357901390875,-0.0030985346602854574,0.10690498697091565
0.08942841738462448,0.2903102934360504,9.765823364257812,-0.012006692588329315,0.007050305604934692,0.008790969848632812,-0.016461809776575322,-0.046128482972474474,0.007247937947081011
0.08942841738462448,0.2903102934360504,9.765823364257812,-0.007039390504360199,-0.006986171007156372,0.017859458923339844,-0.016461809776575322,-0.046128482972474474,0.007247937947081011
0.09196685254573822,0.2779849171638489,9.744939804077148,-0.01666697859764099,-0.002436012029647827,-0.005890846252441406,-0.007072767607253985,-0.014305117515184294,0.019248647019859528
0.11013881862163544,0.28202924132347107,9.760909080505371,0.0141543447971344,-0.0018162429332733154,0.0038080215454101562,-0.023258461650546253,-0.014305117515184294,-0.05378716608468184
0.10451720654964447,0.2771635055541992,9.739985466003418,0.004212692379951477,-0.013176053762435913,-0.012958526611328125,0.03414669699215233,0.0013247465390250463,0.007247937947081011
0.11437378078699112,0.2951793670654297,9.751538276672363,0.00893198698759079,-0.0011336207389831543,-0.010272026062011719,-0.06730615150476014,0.05953242239372038,-0.04098475688796646
0.10065092146396637,0.2847580015659332,9.757984161376953,0.0038471072912216187,-0.008055776357650757,0.008587837219238281,-0.05248185290126893,0.08013840942856126,0.03487465241739421
0.10065092146396637,0.2847580015659332,9.757984161376953,-0.0031724050641059875,0.0015166103839874268,0.0013599395751953125,-0.05248185290126893,0.08013840942856126,0.03487465241739421
0.10685189068317413,0.2970048487186432,9.751838684082031,-0.014234647154808044,-0.00784650444984436,-0.007648468017578125,0.013790952347049105,-0.04716951319173284,0.054197697806396626
0.08972198516130447,0.29373976588249207,9.767370223999023,-0.016510896384716034,0.005940794944763184,0.01580333709716797,-0.07278036136154024,0.054058222542100194,0.014576157297336119
0.08972198516130447,0.29373976588249207,9.767370223999023,0.00022926181554794312,0.0036800503730773926,0.013029098510742188,-0.07278036136154024,0.054058222542100194,0.014576157297336119
0.09234920889139175,0.30127567052841187,9.758137702941895,0.0019129812717437744,0.017580419778823853,0.009855270385742188,-0.0657467873007345,-0.014305117515184294,0.007247937947081011
0.10150828957557678,0.3071175813674927,9.729779243469238,0.0020811259746551514,0.019505023956298828,-0.011461257934570312,-0.06283204409307122,0.011798774930173487,0.06828304197884386
0.10150828957557678,0.3071175813674927,9.729779243469238,0.002097390592098236,0.014236986637115479,-0.03909015655517578,-0.06283204409307122,0.011798774930173487,0.06828304197884386
0.09010707587003708,0.2792322039604187,9.751043319702148,-0.00023379921913146973,-0.01400744915008545,0.002902984619140625,-0.0190734766800325,-0.014305117515184294,0.06828304197884386
0.09291761368513107,0.2771993577480316,9.76421070098877,-0.006833568215370178,-0.015736013650894165,0.007595062255859375,0.016705722235138824,0.046730013197005,0.007247937947081011
0.09291761368513107,0.2771993577480316,9.76421070098877,-0.004237651824951172,-0.005951404571533203,0.014369964599609375,0.016705722235138824,0.046730013197005,0.007247937947081011
0.10036011040210724,0.27083897590637207,9.740826606750488,0.005425803363323212,-0.01701340079307556,-0.016178131103515625,0.07121695507290812,-0.014305117515184294,-0.0378972779293893
0.09289205819368362,0.2933639585971832,9.74975299835205,-0.0018751025199890137,0.00930023193359375,0.0032196044921875,-0.006771078685223051,-0.05097384851815061,0.03161429096555771
0.09289205819368362,0.2933639585971832,9.74975299835205,-0.011165842413902283,-0.00013977289199829102,-0.01317596435546875,-0.006771078685223051,-0.05097384851815061,0.03161429096555771
0.09300478547811508,0.2897641062736511,9.76015853881836,-0.0083402618765831,-0.0036219656467437744,0.010374069213867188,-0.0801085540313689,-0.031083977469316466,0.007247937947081011
0.0940311998128891,0.2898574769496918,9.768670082092285,-0.0127180814743042,-0.0010911822319030762,0.007598876953125,-0.032761669364627294,-0.014305117515184294,0.007247937947081011
0.06932730227708817,0.2945472300052643,9.736543655395508,-0.02881600707769394,0.00792500376701355,-0.016625404357910156,-0.0190734766800325,0.10148475161683451,0.004107758476167649
0.09090252965688705,0.2934221029281616,9.738296508789062,-0.007033199071884155,0.0076818764209747314,-0.008341789245605469,-0.0190734766800325,-0.014305117515184294,-0.010226313971816474
0.09162168949842453,0.2861119210720062,9.747750282287598,-0.002207033336162567,-0.0017131567001342773,0.001201629638671875,-0.05717576700622797,-0.014305117515184294,0.04535025495370292
0.09477648884057999,0.28751638531684875,9.756446838378906,-0.0019395723938941956,0.0008088350296020508,0.00391387939453125,-0.07315814285979336,-0.016621925685780553,0.007247937947081011
0.0979202464222908,0.2902391850948334,9.73801326751709,0.009633541107177734,-0.0017134249210357666,0.0038118362426757812,0.14569485856703454,-0.03264208102319257,0.049946065130622365
0.09824568778276443,0.2935146987438202,9.746864318847656,0.0025916174054145813,0.01203051209449768,-0.0049991607666015625,-0.05801442619089826,0.0635768215271869,0.046188900798159994
0.11827665567398071,0.2849178612232208,9.765911102294922,0.020991116762161255,-0.002084702253341675,0.013905525207519531,-0.0190734766800325,-0.07384207558140038,0.1278200400656996
0.09689248353242874,0.2798141837120056,9.75794792175293,0.020380981266498566,-0.01363876461982727,0.008860588073730469,-0.0190734766800325,-0.014305117515184294,0.026371213643073783
0.10596396774053574,0.2749059498310089,9.746641159057617,0.01540299504995346,-0.013088732957839966,-0.0008134841918945312,0.02351495393017874,0.028283319765133562,-0.03249295744968283
0.10596396774053574,0.2749059498310089,9.746641159057617,-0.005806826055049896,-0.008238017559051514,-0.014761924743652344,0.02351495393017874,0.028283319765133562,-0.03249295744968283
0.08773627132177353,0.2876666188240051,9.750699043273926,0.005748473107814789,-0.003454446792602539,0.011275291442871094,0.06331385924414142,-0.03414654357970027,0.007247937947081011
0.1014661192893982,0.30117467045783997,9.756403923034668,0.008358865976333618,0.014937669038772583,0.008853912353515625,0.021437555896183333,-0.034829175630518086,0.06828304197884386
0.10149410367012024,0.29958468675613403,9.732512474060059,-0.005975246429443359,0.01222655177116394,-0.0053653717041015625,-0.08001818742699847,0.04654928665837073,0.06828304197884386
0.08255139738321304,0.2788377106189728,9.767404556274414,0.00811496376991272,-0.006912708282470703,-0.00934600830078125,-0.0190734766800325,-0.054643654464324246,0.04758648823643419
0.0807243213057518,0.2828163504600525,9.75601863861084,-0.017025135457515717,-0.004076749086380005,0.0157470703125,-0.03882858489489112,0.046730013197005,0.007247937947081011
0.09889454394578934,0.2828163504600525,9.758467674255371,-0.014146260917186737,-0.0038307011127471924,-0.0219573974609375,0.04037250780211151,0.046730013197005,-0.11323314389671923
0.09626813232898712,0.2881874442100525,9.752497673034668,0.011755652725696564,-0.006192117929458618,0.0017642974853515625,0.02384154903029642,-0.035762617030135536,0.003910496743243863
0.08862188458442688,0.2741434872150421,9.748847961425781,-0.009381711483001709,-0.0108717679977417,0.0017328262329101562,0.023024767795311325,0.004631748711341342,0.026184797503500036
0.10125413537025452,0.28716254234313965,9.753605842590332,0.005125716328620911,0.0015614628791809082,0.002086639404296875,-0.0190734766800325,0.046730013197005,0.008866866203145928
0.09517835080623627,0.28803551197052,9.762537956237793,0.007711447775363922,0.006487935781478882,0.013548851013183594,-0.041305235500321544,-0.014305117515184294,-0.014983834213421254
0.08616551756858826,0.27731266617774963,9.755792617797852,-0.01106298714876175,-0.007834672927856445,0.010848045349121094,0.08483540512277474,0.02856868360123324,0.11115683309010148
0.09642849117517471,0.28942516446113586,9.744179725646973,0.0009037405252456665,0.004168778657913208,-0.007660865783691406,0.04196162735173035,-0.0728870897374283,0.06828304197884386
0.0996970534324646,0.29809483885765076,9.760974884033203,0.0008545443415641785,0.013400465250015259,0.015840530395507812,-0.0190734766800325,-0.05226568808620861,0.007247937947081011
0.08652952313423157,0.28490889072418213,9.744097709655762,-0.00412546843290329,0.001047760248184204,-0.010320663452148438,0.024773069439209802,0.0028834470674428633,-0.009940619965439535
0.1064411997795105,0.2712896764278412,9.747014999389648,0.012981116771697998,-0.014993488788604736,-0.0052947998046875,-0.0190734766800325,-0.010477223372215272,-0.11099437597347567
0.11741640418767929,0.27821066975593567,9.749444961547852,0.021240785717964172,-0.009969353675842285,-0.005192756652832031,0.04196162735173035,-0.01902569870637547,0.046364471344383706
0.0960366427898407,0.28682565689086914,9.738215446472168,0.004428334534168243,0.0019829869270324707,-0.0073795318603515625,-0.038989734670621105,0.026813743533729825,-0.03387090809409323
0.098125159740448,0.2829809784889221,9.738690376281738,-0.012021325528621674,-0.00026798248291015625,-0.025809288024902344,-0.023267693078096348,0.042535793463887854,0.06408882558078001
0.10150828957557678,0.301980197429657,9.763076782226562,0.00470539927482605,0.01617950201034546,0.007817268371582031,0.016895006520555447,0.010761513321150525,0.007247937947081011
0.10281800478696823,0.2917807102203369,9.74130630493164,0.001970738172531128,0.0060419440269470215,-0.004450798034667969,-0.06437434616438506,-0.0753401948665207,0.007247937947081011
0.10246597230434418,0.2855949401855469,9.747344970703125,0.015764251351356506,0.00357702374458313,-0.02528667449951172,-0.0190734766800325,-0.019185334367904684,-0.048906942561854835
0.10246597230434418,0.2855949401855469,9.747344970703125,0.0036605820059776306,-0.0011494755744934082,-0.0012960433959960938,-0.0190734766800325,-0.019185334367904684,-0.048906942561854835
0.07695502042770386,0.28521186113357544,9.738080024719238,-0.01646193116903305,-0.0013218820095062256,-0.019850730895996094,0.05721073837519123,0.08233704999043101,-0.08939419620800124
0.09955427050590515,0.29586493968963623,9.74885082244873,0.007192231714725494,-0.0037116408348083496,0.018310546875,0.036337893715043826,0.041106279560318475,0.012871664913660924
0.09434287250041962,0.27462127804756165,9.75440788269043,0.006978541612625122,-0.004033476114273071,0.010905265808105469,0.0071608930558030165,-0.014305117515184294,-0.02755279634884632
0.09434287250041962,0.27462127804756165,9.75440788269043,-0.009538978338241577,-0.017864346504211426,-0.0010433197021484375,0.0071608930558030165,-0.014305117515184294,-0.02755279634884632
0.09886150807142258,0.29278308153152466,9.735004425048828,-0.00023212283849716187,-0.010158658027648926,0.0059967041015625,-0.0190734766800325,0.040326313978774675,0.013651627160151423
0.09886150807142258,0.29278308153152466,9.735004425048828,0.002180427312850952,0.008786767721176147,-0.017461776733398438,-0.0190734766800325,0.040326313978774675,0.013651627160151423
0.10574948042631149,0.2865470349788666,9.760452270507812,0.004018940031528473,0.001637190580368042,0.01312255859375,-0.012069557913220775,-0.014305117515184294,0.007247937947081011
0.09417586028575897,0.28633660078048706,9.755884170532227,0.013235874474048615,0.008860200643539429,0.0012683868408203125,-0.026237811510846972,-0.06101151186467854,-0.04662282458376076
0.09417586028575897,0.28633660078048706,9.755884170532227,-0.005885645747184753,-0.0006708800792694092,0.005890846252441406,-0.026237811510846972,-0.06101151186467854,-0.04662282458376076
0.0899677574634552,0.28063827753067017,9.75688362121582,-0.015019319951534271,-0.00300443172454834,-0.0016717910766601562,0.06970964438087739,0.018981989497751355,0.007247937947081011
0.10390377044677734,0.27895867824554443,9.744468688964844,0.00669136643409729,-0.0008439719676971436,-0.0064296722412109375,-0.01114756241654839,0.038804092263414275,-0.05378716608468184
0.10390377044677734,0.27895867824554443,9.744468688964844,0.006585635244846344,-0.007776588201522827,-0.006253242492675781,-0.01114756241654839,0.038804092263414275,-0.05378716608468184
0.10247307270765305,0.28312698006629944,9.746366500854492,0.0015559792518615723,0.0019293725490570068,0.005992889404296875,0.009465521611726967,0.018190998229979004,0.0112050320551117
0.09779931604862213,0.29958468675613403,9.74075984954834,0.0054624080657958984,0.013786911964416504,-0.003911018371582031,0.09380729882462284,0.028351154749370895,-0.05378716608468184
0.09779931604862213,0.29958468675613403,9.74075984954834,-0.0015953108668327332,0.013230681419372559,-0.010784149169921875,0.09380729882462284,0.028351154749370895,-0.05378716608468184
0.0943218469619751,0.2878555655479431,9.750234603881836,-0.0038223937153816223,0.012920081615447998,-0.010767936706542969,0.07058156071711183,-0.015570169935091147,0.0059828588467477125
0.08765839040279388,0.2964402139186859,9.754050254821777,0.007898688316345215,-0.008265316486358643,0.015145301818847656,-0.06102459194374338,0.004778854577601153,0.016789925661000387
0.08765839040279388,0.2964402139186859,9.754050254821777,-0.00791381299495697,0.01049727201461792,0.0029897689819335938,-0.06102459194374338,0.004778854577601153,0.016789925661000387
0.09429284185171127,0.28154608607292175,9.74319839477539,-0.0054941326379776,-0.0110149085521698,-0.013337135314941406,0.0721094820385716,-0.04519235351989266,0.007247937947081011
0.10869473218917847,0.28642281889915466,9.760807037353516,0.01060640811920166,0.005793273448944092,-0.0040073394775390625,-0.0190734766800325,0.02619241143019688,0.05801423942791315
0.0967399999499321,0.2943907082080841,9.736903190612793,-0.003587670624256134,0.007994085550308228,-0.01554107666015625,-0.0190734766800325,0.02619241143019688,0.05801423942791315
0.08129044622182846,0.2780892550945282,9.75171947479248,-0.02646644413471222,-0.012918740510940552,-0.0036344528198242188,-0.04999786517856603,0.046730013197005,0.038172339785827764
0.10570672899484634,0.3033324182033539,9.765410423278809,0.0163700133562088,0.022039592266082764,-0.008028030395507812,0.04196162735173035,-0.0028205713074710616,0.018732474149634325
0.10570672899484634,0.3033324182033539,9.765410423278809,0.006575331091880798,0.014370650053024292,0.02014446258544922,0.04196162735173035,-0.0028205713074710616,0.018732474149634325
0.10037554055452347,0.29518362879753113,9.752044677734375,0.0015772730112075806,-0.0003248155117034912,-0.006256103515625,-0.01576232903645726,-0.01761622513811987,0.007247937947081011
0.11146331578493118,0.3054228723049164,9.73387622833252,0.015480130910873413,0.018348276615142822,-0.015398025512695312,0.004976699944853432,-0.014305117515184294,0.056257946996294286
0.10295986384153366,0.2818010747432709,9.743088722229004,0.005653999745845795,-0.010478556156158447,-0.002712249755859375,0.004976699944853432,-0.014305117515184294,0.056257946996294286
0.10310734808444977,0.28776785731315613,9.746864318847656,-0.001822441816329956,-0.003279775381088257,-0.0025615692138671875,0.009399007308598679,-0.01021494811015075,0.0031577885523673016
0.11974649876356125,0.2992761433124542,9.73936939239502,0.021490491926670074,0.010615259408950806,-0.009470939636230469,0.08727421621339904,-0.02216637176517807,0.06828304197884386
0.09642640501260757,0.28960731625556946,9.756237030029297,-0.007585771381855011,-0.0015848875045776367,0.012074470520019531,0.029221937167481407,-0.027044807699433234,-0.02830778571618396
0.11389301717281342,0.2910875976085663,9.747045516967773,0.02257484197616577,0.003058314323425293,0.009733200073242188,0.014321059069985398,-0.04769963992498897,-0.0261466044730435
0.11629098653793335,0.2987632155418396,9.722431182861328,0.019594736397266388,0.009991973638534546,-0.027800559997558594,-0.0190734766800325,-0.007328366092600556,0.014224682699558138
0.09539080411195755,0.28867074847221375,9.742873191833496,-0.0013560354709625244,-0.0019423961639404297,-0.003444671630859375,-0.0190734766800325,-0.0007573205695983034,0.020795724887507083
0.10150828957557678,0.2969855070114136,9.752427101135254,0.0009379088878631592,-0.002227216958999634,0.008258819580078125,-0.0190734766800325,-0.014305117515184294,-0.02688782674033533
0.09891604632139206,0.2670252323150635,9.737771034240723,-0.0038714557886123657,-0.02309402823448181,-0.010601997375488281,-0.0190734766800325,-0.06911557133553833,0.007247937947081011
0.12010739743709564,0.2847837507724762,9.758550643920898,0.019101545214653015,-0.0011658072471618652,0.015467643737792969,0.027573120163691074,0.03234149933885912,0.007247937947081011
0.08954614400863647,0.29581817984580994,9.754743576049805,-0.02093738317489624,0.008279979228973389,0.0007686614990234375,-0.08893885471007147,-0.023135364833033963,0.04218062029199388
0.10627467930316925,0.2939315736293793,9.742720603942871,0.00290650874376297,0.005551367998123169,-0.00623321533203125,0.1029967313834932,-0.019796836401819166,0.06828304197884386
0.12304230779409409,0.27439427375793457,9.763683319091797,0.018088266253471375,-0.018017709255218506,0.019542694091796875,0.05705933362522041,-0.0753401948665207,0.022345644220571073
0.11213427782058716,0.2919906675815582,9.73231315612793,-0.006405547261238098,0.005706429481506348,-0.022604942321777344,0.016636766672990785,-0.050015340857887745,0.0429581813001043
0.1061398983001709,0.2793426811695099,9.7213716506958,-0.010596886277198792,0.0008240044116973877,-0.0031175613403320312,-0.003307158919821662,-0.014305117515184294,0.007247937947081011
0.1061398983001709,0.2793426811695099,9.7213716506958,0.008304968476295471,-0.013140887022018433,-0.03330802917480469,-0.003307158919821662,-0.014305117515184294,0.007247937947081011
0.11918959021568298,0.28903329372406006,9.74966049194336,0.009909376502037048,-0.0012069940567016602,-0.007027626037597656,-0.00600180194952392,0.022027750274527885,-0.017454321640342798
0.10901357233524323,0.2888868749141693,9.742871284484863,0.005056433379650116,0.0011861920356750488,-0.004505157470703125,-0.031259254530849274,0.05079193803559282,-0.05378716608468184
0.12570688128471375,0.2854556441307068,9.752305030822754,0.02575976401567459,0.0017294883728027344,0.004727363586425781,0.0202406252750981,0.018797334266323,0.035180596867443174
0.11561372876167297,0.2998521327972412,9.738746643066406,-0.001129150390625,0.022299528121948242,-0.009174346923828125,0.09281195883565216,-0.014305117515184294,0.06828304197884386
0.10593097656965256,0.29718923568725586,9.752023696899414,0.001102842390537262,0.007739335298538208,0.005054473876953125,-0.036547261691467194,-0.014305117515184294,0.050809243627195945
0.08885478228330612,0.2903505265712738,9.758841514587402,-0.019774414598941803,-0.0018383264541625977,0.011566162109375,-0.036547261691467194,-0.014305117515184294,0.050809243627195945
0.10359712690114975,0.2840428948402405,9.743837356567383,-0.005350098013877869,0.012789100408554077,-0.0239410400390625,-0.04202279222935634,-0.014305117515184294,0.04533372642952002
0.09275215119123459,0.31792277097702026,9.74971866607666,-0.012209393084049225,0.02886831760406494,0.002338409423828125,-0.07777081506622627,-0.014305117515184294,-0.05144942711953919
0.10341525077819824,0.2854403555393219,9.75284481048584,-0.0050822049379348755,-0.009432584047317505,0.0018863677978515625,0.023691178146850362,0.028459557322018405,0.007247937947081011
0.09540426731109619,0.2823728024959564,9.737496376037598,-0.0024266988039016724,0.0005272924900054932,-0.0048160552978515625,-0.0190734766800325,-0.05318672308752896,0.007247937947081011
0.09471286088228226,0.2975150942802429,9.730683326721191,-0.009370148181915283,0.007329106330871582,-0.016321182250976562,0.0996757853533059,-0.014305117515184294,0.010568877307161703
0.10043656080961227,0.30090847611427307,9.756609916687012,-0.007073588669300079,0.0066699981689453125,0.011935234069824219,-0.0190734766800325,-0.05638752048732618,0.08723572302814499
0.0891648530960083,0.27671313285827637,9.753089904785156,-0.027586892247200012,-0.0021378397941589355,-0.00030422210693359375,-0.0404547835671624,0.007076202712158825,-0.05378716608468184
0.0989920124411583,0.29949405789375305,9.744438171386719,-0.0036534741520881653,0.009495705366134644,-0.002620697021484375,0.04273129095361294,-0.07457053126463811,-0.05224784555102327
0.09115190804004669,0.2891562581062317,9.750178337097168,-0.010133571922779083,-0.0027080774307250977,0.006909370422363281,0.061694830936477325,0.026996802942151416,0.06828304197884386
0.10389652848243713,0.2947961390018463,9.746861457824707,-0.011724226176738739,0.009146630764007568,-0.0050506591796875,-0.14108218636060163,-0.014305117515184294,0.007247937947081011
0.10389652848243713,0.2947961390018463,9.746861457824707,0.0025510117411613464,0.004468858242034912,-0.0002593994140625,-0.14108218636060163,-0.014305117515184294,0.007247937947081011
0.08480876684188843,0.29722362756729126,9.764408111572266,-0.020574405789375305,0.0040946900844573975,0.017995834350585938,-0.0190734766800325,0.006332202345463369,0.06828304197884386
0.08457867801189423,0.28034019470214844,9.742127418518066,-0.02912837266921997,-0.01689809560775757,-0.0014314651489257812,-0.07942368082472968,-0.013620244308545066,0.06691329556556541
0.08457867801189423,0.28034019470214844,9.742127418518066,-0.014372654259204865,-0.009308218955993652,-0.006052970886230469,-0.07942368082472968,-0.013620244308545066,0.06691329556556541
0.09420982748270035,0.29763731360435486,9.76078987121582,-0.0020191818475723267,-0.0026197731494903564,0.02221965789794922,-0.0403699131306397,0.02543355673607797,0.028544387737901432
0.09898513555526733,0.2876073122024536,9.739806175231934,-0.004288084805011749,-0.0027443766593933105,-0.004353523254394531,-0.015819731973954455,0.04510314084396598,-0.0505334280487104
0.09898513555526733,0.2876073122024536,9.739806175231934,0.0005690976977348328,-0.002637416124343872,-0.008892059326171875,-0.015819731973954455,0.04510314084396598,-0.0505334280487104
0.09279820322990417,0.2893509268760681,9.740337371826172,-0.006262853741645813,-0.0025607049465179443,-0.015783309936523438,-0.0190734766800325,0.024516713896762844,-0.014965358018107841
0.08861995488405228,0.2948864996433258,9.753511428833008,0.026572763919830322,0.006698429584503174,0.049447059631347656,0.04196162735173035,-0.011941078319673133,0.06828304197884386
0.08861995488405228,0.2948864996433258,9.753511428833008,-0.011455461382865906,0.00411495566368103,0.0014972686767578125,0.04196162735173035,-0.011941078319673133,0.06828304197884386
0.09341919422149658,0.2959740459918976,9.766305923461914,-0.003910809755325317,0.008738458156585693,0.019849777221679688,-0.0190734766800325,0.038767423352318434,-0.030787931457478726
0.11504240334033966,0.27622905373573303,9.755967140197754,0.0012769848108291626,-0.0029670894145965576,-0.004662513732910156,0.03890858615358754,-0.014305117515184294,-0.05378716608468184
0.11504240334033966,0.27622905373573303,9.755967140197754,0.017523057758808136,-0.01459968090057373,0.0047855377197265625,0.03890858615358754,-0.014305117515184294,-0.05378716608468184
0.09881617873907089,0.28575024008750916,9.749744415283203,-0.00882960855960846,-0.00208890438079834,-0.01689910888671875,-0.0801085540313689,0.06044854819657478,-0.05378716608468184
0.10104010254144669,0.2850557863712311,9.746028900146484,-0.004061564803123474,-0.006791859865188599,0.015850067138671875,-0.02304982071574352,-0.018281454880788698,0.0032715939113699944
0.10104010254144669,0.2850557863712311,9.746028900146484,0.003013983368873596,-0.0042424798011779785,-0.00788116455078125,-0.02304982071574352,-0.018281454880788698,0.0032715939113699944
0.10203994065523148,0.3034108877182007,9.744468688964844,-0.004708431661128998,0.014131754636764526,-0.007447242736816406,0.005507973936446709,-0.08721241100553835,-0.02920571546820263
0.08050859719514847,0.2713985741138458,9.744312286376953,-0.011026352643966675,-0.011939287185668945,0.018187522888183594,0.03720881620539317,0.046730013197005,0.007247937947081011
0.08050859719514847,0.2713985741138458,9.744312286376953,-0.017629720270633698,-0.018664032220840454,-0.010264396667480469,0.03720881620539317,0.046730013197005,0.007247937947081011
0.1061164066195488,0.29718923568725586,9.754273414611816,0.013142712414264679,0.007227599620819092,0.008863449096679688,0.016615775847484898,0.011040743994221076,0.04293719714470502
0.10826104879379272,0.29000282287597656,9.759057998657227,0.006164580583572388,0.00009593367576599121,0.008058547973632812,0.04196162735173035,-0.06981521215821507,0.06828304197884386
0.10826104879379272,0.29000282287597656,9.759057998657227,0.01052284985780716,0.000024765729904174805,0.005509376525878906,0.04196162735173035,-0.06981521215821507,0.06828304197884386
0.0994565561413765,0.2982204556465149,9.772871971130371,0.00313723087310791,0.01386171579360962,0.01640605926513672,0.03320328378315093,-0.04920182797514221,-0.027648792523196734
0.09333019703626633,0.2935541570186615,9.774619102478027,-0.013424061238765717,-0.0071776509284973145,0.010847091674804688,-0.02539012100182492,-0.02693839948866252,0.007247937947081011
0.09333019703626633,0.2935541570186615,9.774619102478027,-0.003759540617465973,0.00469815731048584,0.019861221313476562,-0.02539012100182492,-0.02693839948866252,0.007247937947081011
0.10622391104698181,0.2902856767177582,9.749335289001465,-0.001823529601097107,0.0024679899215698242,0.0034990310668945312,-0.04598688994932894,0.012608325769591892,0.03416136455659067
0.10629922151565552,0.2794191837310791,9.778450012207031,0.0076768845319747925,0.0004903674125671387,0.008413314819335938,0.02775694830189962,-0.12217063318866604,0.007247937947081011
0.10629922151565552,0.2794191837310791,9.778450012207031,0.007236965000629425,-0.01123744249343872,0.024486541748046875,0.02775694830189962,-0.12217063318866604,0.007247937947081011
0.09693708270788193,0.2856513261795044,9.767765045166016,0.0002279728651046753,0.0008220672607421875,0.004645347595214844,0.04196162735173035,0.019011874910423467,0.04056492036752885
0.11432308703660965,0.2858350872993469,9.756855010986328,0.004690505564212799,0.0010386109352111816,0.017716407775878906,-0.027013264765268205,0.038790221776716,0.06828304197884386
0.11432308703660965,0.2858350872993469,9.756855010986328,0.016279183328151703,-0.0036152899265289307,-0.0037393569946289062,-0.027013264765268205,0.038790221776716,0.06828304197884386
0.08478318899869919,0.2871454656124115,9.761896133422852,-0.030718572437763214,-0.008371561765670776,-0.0039882659912109375,0.013405146710542555,0.046730013197005,0.03580442525837542
0.09501402080059052,0.2831353545188904,9.763952255249023,0.0006358027458190918,-0.016938090324401855,-0.0059680938720703125,0.0331436263496191,-0.014305117515184294,-0.03615116408045935
0.09501402080059052,0.2831353545188904,9.763952255249023,-0.004060879349708557,-0.0025645196437835693,0.008172988891601562,0.0331436263496191,-0.014305117515184294,-0.03615116408045935
0.08503435552120209,0.29105332493782043,9.770721435546875,-0.005869090557098389,-0.00028520822525024414,0.009860992431640625,-0.021573859524786076,-0.0435724580983691,0.10005078541710208
0.0873536542057991,0.28521186113357544,9.767335891723633,-0.012618660926818848,-0.0024720728397369385,0.0025949478149414062,0.00045859650995611,0.046730013197005,0.05851700538384955
0.09106406569480896,0.27112653851509094,9.778676986694336,-0.007507979869842529,-0.018773436546325684,0.015523910522460938,0.00045859650995611,0.046730013197005,0.05851700538384955
0.09435467422008514,0.2744266986846924,9.761324882507324,0.004669494926929474,-0.0130196213722229,0.02022838592529297,-0.0801085540313689,0.01635179970823448,-0.023408965936124543
0.10073291510343552,0.28720229864120483,9.756852149963379,0.011251725256443024,-0.0007651150226593018,-0.001190185546875,-0.00875383457651015,-0.024624752948600035,0.05796339987532151
0.10073291510343552,0.28720229864120483,9.756852149963379,0.0015963688492774963,0.0016178488731384277,-0.00348663330078125,-0.00875383457651015,-0.024624752948600035,0.05796339987532151
0.09920046478509903,0.2876073122024536,9.761324882507324,-0.005424119532108307,0.0013901889324188232,-0.005947113037109375,0.04121715007241218,0.07761980385254551,0.03813773527272813
0.08535272628068924,0.3032056987285614,9.750151634216309,-0.019145384430885315,0.001856297254562378,-0.005425453186035156,-0.007717980359982182,-0.014305117515184294,-0.04243166309452491
0.08535272628068924,0.3032056987285614,9.750151634216309,-0.00931895524263382,0.020466983318328857,-0.009932518005371094,-0.007717980359982182,-0.014305117515184294,-0.04243166309452491
0.10401759296655655,0.2938806116580963,9.744013786315918,0.004799969494342804,0.0012694001197814941,-0.004355430603027344,-0.11207640066796734,0.046730013197005,0.007247937947081011
0.11010784655809402,0.2732747495174408,9.774627685546875,-0.006898067891597748,0.015137434005737305,0.01672840118408203,0.09099504847514943,0.046730013197005,0.05628135907050009
0.11010784655809402,0.2732747495174408,9.774627685546875,-0.025859668850898743,0.0036847591400146484,-0.010301589965820312,0.04196162735173035,0.07915663643643804,0.06828304197884386
0.08271800726652145,0.29000282287597656,9.763856887817383,0.0005512237548828125,0.003513842821121216,0.020261764526367188,0.04196162735173035,0.07915663643643804,0.06828304197884386
0.09304199367761612,0.2892245650291443,9.749536514282227,0.009499549865722656,0.01716366410255432,-0.026719093322753906,-0.06732846968148169,0.033949915506904564,0.007247937947081011
0.09304199367761612,0.2892245650291443,9.749536514282227,-0.0069896504282951355,-0.0018114447593688965,-0.0050220489501953125,-0.06732846968148169,0.033949915506904564,0.007247937947081011
0.10869473218917847,0.2801952362060547,9.756854057312012,0.011459648609161377,-0.003984212875366211,0.007031440734863281,0.04196162735173035,-0.014305117515184294,0.001498212666612875
0.09460171312093735,0.28521186113357544,9.75037956237793,-0.002859346568584442,-0.0015118420124053955,-0.009467124938964844,-0.0190734766800325,-0.014305117515184294,0.06115216440279188
0.10231642425060272,0.2814790904521942,9.732712745666504,0.00650380551815033,-0.0060252845287323,-0.032497406005859375,-0.0190734766800325,-0.014305117515184294,-0.040305720024612156
0.09811457246541977,0.2799217700958252,9.751595497131348,-0.012461155652999878,-0.012744903564453125,0.006089210510253906,-0.011953364656051221,0.03960990117302372,0.04132553930484646
0.10150828957557678,0.28611767292022705,9.755073547363281,0.004541017115116119,0.01758396625518799,0.0078887939453125,-0.033588562481235186,0.0322149173906424,-0.024756981142063247
0.10150828957557678,0.28611767292022705,9.755073547363281,0.004495084285736084,-0.006163120269775391,-0.006305694580078125,-0.033588562481235186,0.0322149173906424,-0.024756981142063247
0.09497684240341187,0.2828851044178009,9.767269134521484,0.002131067216396332,-0.01290982961654663,0.02657604217529297,-0.054200872777143624,-0.014305117515184294,-0.001971790236018056
0.08277473598718643,0.29923146963119507,9.745881080627441,-0.0165850967168808,0.013097941875457764,-0.01375579833984375,0.030349045112559127,0.046730013197005,0.007247937947081011
0.11075107753276825,0.28749069571495056,9.754050254821777,0.016563378274440765,-0.001567155122756958,-0.0039463043212890625,0.030349045112559127,0.046730013197005,0.007247937947081011
0.10110040754079819,0.27862685918807983,9.766630172729492,-0.01005341112613678,-0.0035874247550964355,0.012316703796386719,0.006379850252041481,-0.04988687460455333,0.04282971504676988
0.10043728351593018,0.28212371468544006,9.761425971984863,0.001843482255935669,-0.005581289529800415,0.0026521682739257812,0.025935068711971446,0.0146768992525405,0.06828304197884386
0.09644992649555206,0.3055131137371063,9.740668296813965,-0.008077248930931091,0.019724041223526,-0.025504112243652344,0.025935068711971446,0.0146768992525405,0.06828304197884386
0.0876089334487915,0.2947937250137329,9.765558242797852,0.0017909333109855652,0.007384955883026123,-0.011363983154296875,-0.0190734766800325,-0.03870133260095997,0.007247937947081011
0.1103145033121109,0.28266119956970215,9.743314743041992,0.01345989853143692,-0.0044321417808532715,-0.015707015991210938,-0.015120584739166958,0.046730013197005,0.06433015003797832
0.1078210100531578,0.2769376039505005,9.75252914428711,0.013093985617160797,-0.011247575283050537,-0.008375167846679688,0.04196162735173035,0.002354314180071827,0.051623610283587744
0.11202362924814224,0.2837497889995575,9.747145652770996,0.014750666916370392,-0.001746147871017456,0.0016641616821289062,0.06574463952640565,0.022946991017169786,0.06828304197884386
0.09840132296085358,0.29032695293426514,9.761981010437012,0.009335406124591827,0.010158956050872803,-0.016739845275878906,-0.03639715761228558,0.046730013197005,0.06828304197884386
0.09840132296085358,0.29032695293426514,9.761981010437012,-0.004823319613933563,0.0005938410758972168,0.01399993896484375,-0.03639715761228558,0.046730013197005,0.06828304197884386
0.10992862284183502,0.27497678995132446,9.744032859802246,0.016134627163410187,-0.020042210817337036,0.014391899108886719,-0.04219201283408605,0.008813441984242396,-0.01587061154718576
0.09422223269939423,0.31016749143600464,9.760838508605957,-0.005298122763633728,0.02479615807533264,0.0046749114990234375,-0.0190734766800325,-0.011766981867010532,0.007247937947081011
0.10370121151208878,0.2864360213279724,9.758383750915527,0.009182922542095184,0.0032426416873931885,0.004680633544921875,0.066644857124992,0.046730013197005,0.007247937947081011
0.09671732783317566,0.2956651747226715,9.734888076782227,-0.002593323588371277,0.009786278009414673,-0.020478248596191406,0.04196162735173035,0.024526312180176563,0.04607935096717534
0.10415145754814148,0.287545382976532,9.728257179260254,0.004444420337677002,0.0002294480800628662,-0.02689838409423828,-0.0190734766800325,-0.012727383837551016,-0.05220943240704856
0.09370467811822891,0.2802666127681732,9.737720489501953,-0.014537081122398376,-0.00907278060913086,-0.021348953247070312,0.02292703739324196,0.046730013197005,0.007247937947081011
0.10007968544960022,0.2881125211715698,9.746529579162598,0.007057316601276398,0.019329756498336792,0.009965896606445312,0.002344195628342423,0.046730013197005,-0.07520484506316337
0.09161292016506195,0.3052263855934143,9.746786117553711,0.01151159405708313,0.013968110084533691,-0.001842498779296875,-0.06042905814505645,0.08808561467234878,0.007247937947081011
0.09161292016506195,0.3052263855934143,9.746786117553711,-0.01657700538635254,0.018370985984802246,-0.008784294128417969,-0.06042905814505645,0.08808561467234878,0.007247937947081011
0.09192654490470886,0.2995844781398773,9.749259948730469,0.007018737494945526,-0.007829785346984863,-0.0008668899536132812,-0.01907410367005397,-0.014305117515184294,0.0682824149888224
0.09192654490470886,0.2995844781398773,9.749259948730469,-0.007176898419857025,0.011052042245864868,-0.0031728744506835938,-0.01907410367005397,-0.014305117515184294,0.0682824149888224
0.1038040891289711,0.28686419129371643,9.754084587097168,0.011859029531478882,-0.0058616697788238525,-0.0009250640869140625,0.04196162735173035,-0.014305117515184294,0.06828304197884386
0.11024800688028336,0.2909105122089386,9.759038925170898,0.013454191386699677,-0.005700111389160156,-0.008254051208496094,-0.038861735324749486,-0.03409336948979466,0.007247937947081011
0.08358846604824066,0.2805255353450775,9.753840446472168,-0.014791183173656464,-0.007746309041976929,0.001285552978515625,-0.08277574290225889,0.04406283099622164,-0.0484528016831151
0.07699261605739594,0.3031104803085327,9.745877265930176,-0.013322710990905762,0.0232524573802948,-0.007981300354003906,-0.09805370213681382,-0.014305117515184294,0.06828304197884386
0.08993759751319885,0.29438701272010803,9.756040573120117,0.007708027958869934,-0.009905785322189331,-0.012273788452148438,-0.08158894417311628,0.045249619720204325,0.008728328088828384
0.087051160633564,0.2814791202545166,9.768424034118652,0.0055617764592170715,-0.00023812055587768555,0.015883445739746094,-0.04107287566640888,-0.0313413768834481,0.04628362965225426
0.087051160633564,0.2814791202545166,9.768424034118652,-0.020339392125606537,-0.009514451026916504,0.01544189453125,-0.04107287566640888,-0.0313413768834481,0.04628362965225426
0.09248646348714828,0.29028284549713135,9.776792526245117,0.007993601262569427,0.00937342643737793,-0.005976676940917969,0.04196162735173035,-0.016683477429590005,0.06590468206443816
0.09248646348714828,0.29028284549713135,9.776792526245117,-0.006229117512702942,0.0020577609539031982,0.02446746826171875,0.04196162735173035,-0.016683477429590005,0.06590468206443816
0.09133536368608475,0.28493204712867737,9.761859893798828,-0.008129313588142395,-0.007173061370849609,0.0023527145385742188,-0.0801085540313689,0.046730013197005,0.007247937947081011
0.1107184886932373,0.2854596674442291,9.755826950073242,0.006441988050937653,0.0024774372577667236,-0.008849143981933594,-0.1411436847435582,-0.011147995973478125,0.004090816405374844
0.09631441533565521,0.29093560576438904,9.76030445098877,-0.005800157785415649,0.004959195852279663,0.0052814483642578125,0.04196162735173035,0.022962722463612632,0.06828304197884386
0.09631441533565521,0.29093560576438904,9.76030445098877,0.0014219805598258972,0.002424091100692749,0.007464408874511719,-0.0190734766800325,0.09105287829946974,-0.009464294312110481
0.11241455376148224,0.2784844934940338,9.771378517150879,-0.001054815948009491,-0.0019168555736541748,-0.009187698364257812,-0.07620982335618745,0.046730013197005,-0.05378716608468184
0.11241455376148224,0.2784844934940338,9.771378517150879,0.01535721868276596,-0.008718371391296387,0.019010543823242188,-0.07620982335618745,0.046730013197005,-0.05378716608468184
0.10773267596960068,0.28136366605758667,9.752107620239258,0.010210245847702026,-0.0010301470756530762,0.00482940673828125,-0.04358567824967277,0.046730013197005,-0.05378716608468184
0.0742325708270073,0.2765554189682007,9.74354362487793,-0.00653887540102005,-0.02634105086326599,0.006188392639160156,0.04196162735173035,0.042048125294266214,-0.049105278181943046
0.09911283850669861,0.29198890924453735,9.748502731323242,0.001279197633266449,0.009379446506500244,-0.01691722869873047,0.006228772337294616,-0.0396073598624048,-0.05378716608468184
0.09911283850669861,0.29198890924453735,9.748502731323242,0.0012225359678268433,0.004491865634918213,0.0021839141845703125,0.006228772337294616,-0.0396073598624048,-0.05378716608468184
0.10282714664936066,0.29132160544395447,9.76473617553711,-0.005490638315677643,-0.0046558380126953125,-0.0023336410522460938,-0.06913592183080954,-0.014305117515184294,0.007247937947081011
0.10282714664936066,0.29132160544395447,9.76473617553711,0.006282471120357513,0.0072512030601501465,0.011700630187988281,-0.06913592183080954,-0.014305117515184294,0.007247937947081011
0.10425077378749847,0.2971723973751068,9.759865760803223,0.008278563618659973,0.004502654075622559,0.004191398620605469,-0.11504705270924687,-0.014305117515184294,0.06828304197884386
0.0983714833855629,0.29429948329925537,9.760496139526367,-0.005380220711231232,0.004258632659912109,-0.00051116943359375,-0.0801085540313689,-0.008008696956637461,0.05569021420196342
0.0943218469619751,0.28364163637161255,9.747441291809082,-0.003001205623149872,0.0016272962093353271,-0.00067901611328125,-0.05908036258824338,0.019375559138353506,0.007247937947081011
0.0943218469619751,0.28364163637161255,9.747441291809082,-0.0028406456112861633,-0.00517040491104126,-0.012310981750488281,-0.05908036258824338,0.019375559138353506,0.007247937947081011
0.10068827122449875,0.29773589968681335,9.751381874084473,-0.002768009901046753,0.01610666513442993,-0.005106925964355469,-0.026037961776557983,-0.0753401948665207,0.014212423043606493
0.10240377485752106,0.28607377409935,9.751431465148926,-0.005282379686832428,0.00366935133934021,-0.000232696533203125,0.008592071150971919,-0.014305117515184294,0.012951932976621797
0.10240377485752106,0.28607377409935,9.751431465148926,0.013468720018863678,-0.003386557102203369,-0.0048847198486328125,0.008592071150971919,-0.014305117515184294,0.012951932976621797
0.11880440264940262,0.2938598692417145,9.746241569519043,0.00851486623287201,0.0014182031154632568,-0.010956764221191406,-0.06424595995232998,-0.006373820475664828,0.007247937947081011
0.11880440264940262,0.2938598692417145,9.746241569519043,0.02222791314125061,0.008498668670654297,-0.0059986114501953125,-0.06424595995232998,-0.006373820475664828,0.007247937947081011
0.10788442939519882,0.28552180528640747,9.748139381408691,0.014502093195915222,0.003919661045074463,-0.003345489501953125,-0.0436678006022716,-0.010356274329031833,-0.05378716608468184
0.10048148036003113,0.29582053422927856,9.749259948730469,-0.005005113780498505,0.0151844322681427,0.010943412780761719,-0.0190734766800325,-0.014305117515184294,0.05956229113112596
0.10048148036003113,0.29582053422927856,9.749259948730469,0.002093672752380371,0.007808595895767212,-0.005663871765136719,-0.0190734766800325,-0.014305117515184294,0.05956229113112596
0.0989275649189949,0.2863787114620209,9.757984161376953,-0.007412545382976532,-0.0015767216682434082,0.017995834350585938,-0.05037767438922899,0.016999103539385333,0.007247937947081011
0.09746421128511429,0.3025084435939789,9.757720947265625,0.0021613091230392456,0.005364745855331421,-0.0012989044189453125,-0.07059354022858579,-0.023820131317967407,-0.04427215228189872
0.09652715176343918,0.2887257933616638,9.743255615234375,-0.0025777146220207214,0.0169924795627594,0.0057201385498046875,0.04115403752365568,0.04753758634981314,0.007247937947081011
0.09652715176343918,0.2887257933616638,9.743255615234375,-0.01664334535598755,-0.004774361848831177,-0.010503768920898438,0.04115403752365568,0.04753758634981314,0.007247937947081011
0.09460656344890594,0.2680410146713257,9.76472282409668,-0.004071243107318878,-0.02063038945198059,0.015962600708007812,-0.07285422612215423,-0.014305117515184294,-0.000006389962133664273
0.0943218469619751,0.28856852650642395,9.726259231567383,-0.003985218703746796,-0.008379846811294556,-0.010099411010742188,0.014505407476509628,0.01927377998157106,0.06828304197884386
0.0943218469619751,0.28856852650642395,9.726259231567383,-0.003800317645072937,0.010415911674499512,-0.037766456604003906,0.014505407476509628,0.01927377998157106,0.06828304197884386
0.0960485190153122,0.29216116666793823,9.759121894836426,0.005871973931789398,0.015019327402114868,-0.02191925048828125,0.030963028426133028,-0.014305117515184294,0.057284449723353156
0.0960485190153122,0.29216116666793823,9.759121894836426,-0.0036339610815048218,0.002888977527618408,0.015954971313476562,0.030963028426133028,-0.014305117515184294,0.057284449723353156
0.10629922151565552,0.27917686104774475,9.755572319030762,0.0076360926032066345,-0.006200671195983887,-0.0034856796264648438,-0.0214324799450521,-0.0753401948665207,0.03894499159547224
0.1071692630648613,0.2895992398262024,9.761112213134766,0.021186351776123047,-0.008224844932556152,0.02956390380859375,0.12837359221337477,0.046730013197005,-0.004638138673475007
0.1071692630648613,0.2895992398262024,9.761112213134766,0.004372455179691315,0.0057051777839660645,0.0054607391357421875,0.12837359221337477,0.046730013197005,-0.004638138673475007
0.09528730064630508,0.29494860768318176,9.74338436126709,-0.00024590641260147095,0.005223602056503296,0.010596275329589844,0.009470964418721821,-0.014305117515184294,-0.017350294657632333
0.08763319253921509,0.2670435309410095,9.7401762008667,-0.00975007563829422,-0.015704572200775146,-0.008162498474121094,0.029278986589328204,-0.014305117515184294,0.09127023039350689
0.09541050344705582,0.2775890529155731,9.75013256072998,-0.004546664655208588,-0.012521028518676758,0.008654594421386719,0.014223528771114376,0.013432994405644902,0.007247937947081011
0.09541050344705582,0.2775890529155731,9.75013256072998,-0.002014271914958954,-0.002825707197189331,-0.010218620300292969,0.014223528771114376,0.013432994405644902,0.007247937947081011
0.1033383458852768,0.28866368532180786,9.748977661132812,0.018949933350086212,0.006614565849304199,0.0059909820556640625,0.015045879545119944,0.09430723665535604,0.007247937947081011
0.10573790967464447,0.29267895221710205,9.746368408203125,0.0022731274366378784,0.00857454538345337,0.0012655258178710938,-0.011922228598389484,0.01263682713514215,0.01439918602872403
0.10340671241283417,0.28521186113357544,9.745960235595703,0.004475094377994537,-0.0010226964950561523,-0.0054721832275390625,0.03562928826908145,0.10776511722876785,0.007247937947081011
0.10278408974409103,0.2925543487071991,9.731307029724121,-0.00012871623039245605,-0.0009625256061553955,0.008650779724121094,-0.06584411749640717,0.06099444973196673,-0.03952272954972011
0.10424650460481644,0.2958204746246338,9.741047859191895,-0.00019722431898117065,0.008307218551635742,-0.021134376525878906,-0.0190734766800325,-0.014305117515184294,0.007247937947081011
0.10424650460481644,0.2958204746246338,9.741047859191895,0.011428862810134888,0.010437190532684326,0.009728431701660156,-0.0190734766800325,-0.014305117515184294,0.007247937947081011
0.09376341849565506,0.2815377414226532,9.733641624450684,-0.014247119426727295,0.01202353835105896,-0.0045833587646484375,0.057014350426233526,-0.014305117515184294,0.053230318904340684
0.10928679257631302,0.297000914812088,9.760457038879395,0.007322393357753754,0.014204740524291992,0.019347190856933594,0.04196162735173035,0.03164403964104429,0.007247937947081011
0.10928679257631302,0.297000914812088,9.760457038879395,0.013980522751808167,0.002096027135848999,0.00018215179443359375,0.04196162735173035,0.03164403964104429,0.007247937947081011
0.10169057548046112,0.2876073122024536,9.745803833007812,0.016300231218338013,0.0002709627151489258,0.007477760314941406,-0.0801085540313689,0.030890671109613205,0.11347880392321491
0.10169057548046112,0.2876073122024536,9.745803833007812,-0.0027128905057907104,0.000398486852645874,-0.0067081451416015625,-0.0801085540313689,0.030890671109613205,0.11347880392321491
0.08769986033439636,0.28275066614151,9.7334566116333,0.007286272943019867,-0.018321633338928223,-0.01306915283203125,-0.0190734766800325,-0.014305117515184294,0.01912038086972345
0.09714752435684204,0.2865171432495117,9.76429271697998,0.01090947538614273,0.0037381649017333984,-0.00045013427734375,0.06973904621082018,-0.014305117515184294,-0.020529480912008815
0.09714752435684204,0.2865171432495117,9.76429271697998,-0.008046165108680725,-0.001195281744003296,0.022857666015625,0.06973904621082018,-0.014305117515184294,-0.020529480912008815
0.08981231600046158,0.2753828465938568,9.749135971069336,0.0018231570720672607,0.004206657409667969,0.008339881896972656,-0.05632407443323911,-0.05155571526839091,-0.006218193548209031
0.11588117480278015,0.2828165292739868,9.750971794128418,0.01551423966884613,-0.01380881667137146,-0.021688461303710938,-0.03651142987875107,0.0292920399879666,0.11188016613146169
0.08831678330898285,0.2968774735927582,9.73846435546875,0.015154503285884857,0.002911120653152466,0.013845443725585938,-0.03412359841295726,0.046730013197005,0.02229807302021899
0.08831678330898285,0.2968774735927582,9.73846435546875,-0.017481759190559387,0.007145822048187256,-0.014346122741699219,-0.03412359841295726,0.046730013197005,0.02229807302021899
0.10029251873493195,0.2928629517555237,9.7403564453125,0.008357562124729156,0.013898730278015137,0.01154327392578125,0.04196162735173035,-0.0753401948665207,0.02546658710401733
0.10029251873493195,0.2928629517555237,9.7403564453125,-0.0036445781588554382,0.004127472639083862,-0.014391899108886719,0.04196162735173035,-0.0753401948665207,0.02546658710401733
0.0871354341506958,0.27802544832229614,9.74881362915039,-0.012352660298347473,-0.007555872201919556,-0.0237579345703125,0.04196162735173035,0.046730013197005,0.046072467417152436
0.08996359258890152,0.2808535695075989,9.768580436706543,0.001892782747745514,0.006571829319000244,0.016550064086914062,-0.0190734766800325,-0.014305117515184294,0.06828304197884386
0.11096461117267609,0.2854629456996918,9.741233825683594,0.01394043117761612,-0.005018651485443115,-0.0055103302001953125,0.063373143151703,0.046730013197005,-0.010964134484736524
0.0920523852109909,0.29469922184944153,9.751592636108398,-0.007541574537754059,0.008809834718704224,0.004172325134277344,-0.08091106123820574,-0.014305117515184294,0.007247937947081011
0.10322380065917969,0.2858918309211731,9.741718292236328,0.001959569752216339,0.0018124878406524658,-0.0006084442138671875,-0.09743363568601038,-0.014305117515184294,0.050957973664415616
0.10322380065917969,0.2858918309211731,9.741718292236328,0.004208579659461975,-0.00044038891792297363,-0.0075817108154296875,-0.09743363568601038,-0.014305117515184294,0.050957973664415616
0.11203540861606598,0.28193607926368713,9.734512329101562,0.013153411448001862,-0.012065887451171875,-0.02353668212890625,-0.031942153385931545,0.009778099482800916,0.007247937947081011
0.08717121928930283,0.27886566519737244,9.753961563110352,-0.003170393407344818,0.004537403583526611,-0.015712738037109375,0.04196162735173035,0.006192013379759519,0.007247937947081011
0.10060817003250122,0.2803599536418915,9.752677917480469,-0.002659052610397339,-0.0069377124309539795,0.014453887939453125,-0.0389006220462936,0.005522041191290026,0.06828304197884386
0.10869473218917847,0.29467064142227173,9.739616394042969,0.009133696556091309,0.0003757774829864502,-0.011569023132324219,-0.019857601073048476,0.046730013197005,0.008032062340096987
0.11000638455152512,0.27515751123428345,9.755256652832031,-0.0006285160779953003,0.0024869441986083984,0.023865699768066406,-0.0190734766800325,-0.014305117515184294,-0.014135716817576078
0.10524449497461319,0.27877265214920044,9.742205619812012,0.0014369338750839233,-0.006486058235168457,-0.014059066772460938,0.04196162735173035,0.06968673256466743,0.007247937947081011
0.1134856641292572,0.2897556722164154,9.73796272277832,0.013017632067203522,-0.004046499729156494,0.01660919189453125,0.04196162735173035,-0.07376592964432532,0.06670877675664848
0.09824232757091522,0.2836868464946747,9.732930183410645,-0.004245057702064514,0.0004373490810394287,-0.020844459533691406,0.08081705275562551,0.002370655941269611,-0.014931740680786685
0.09824232757091522,0.2836868464946747,9.732930183410645,-0.0017210468649864197,-0.0020743906497955322,-0.008616447448730469,-0.0190734766800325,-0.03884520013045997,-0.035539675386758084
0.08650220185518265,0.28787869215011597,9.735611915588379,-0.02968055009841919,0.009745478630065918,0.008866310119628906,-0.07780367201139372,0.046730013197005,0.007247937947081011
0.09432991594076157,0.2903052270412445,9.751042366027832,0.006578676402568817,0.009566515684127808,-0.01439666748046875,0.019047776759259005,0.00860873974739366,-0.03087332216231711
0.08817096799612045,0.2876073122024536,9.748211860656738,-0.014162056148052216,0.0023121237754821777,0.01110076904296875,0.019047776759259005,0.00860873974739366,-0.03087332216231711
0.09671732783317566,0.28533458709716797,9.752699851989746,-0.002148069441318512,0.00227963924407959,-0.017156600952148438,-0.0190734766800325,-0.014305117515184294,0.007247937947081011
0.11815953254699707,0.2834903597831726,9.746329307556152,0.0002540871500968933,-0.011793792247772217,0.004033088684082031,-0.032699317208024485,0.02302537811006626,-0.05378716608468184
0.09540507942438126,0.2895447313785553,9.738563537597656,-0.0026706531643867493,0.009620100259780884,-0.0007266998291015625,-0.06339091898582223,0.07432981378714144,-0.07050481447044174
0.10762389004230499,0.2845999598503113,9.73636531829834,-0.007272474467754364,-0.009248912334442139,-0.02166748046875,-0.0190734766800325,-0.014305117515184294,-0.057684936264511266
0.08957153558731079,0.27610090374946594,9.753087997436523,0.004374369978904724,-0.011268377304077148,0.007075309753417969,-0.0190734766800325,0.046730013197005,-0.029269588409112826
0.08828277885913849,0.3078177869319916,9.736034393310547,-0.018956445157527924,-0.006266683340072632,0.009204864501953125,-0.0190734766800325,0.046730013197005,-0.029269588409112826
0.1024283692240715,0.299400269985199,9.75239086151123,-0.013366751372814178,0.01176103949546814,-0.011806488037109375,0.046660664098566895,-0.009606080768347748,0.06358400523200732
0.1005149707198143,0.30671370029449463,9.747915267944336,0.0007683262228965759,0.03663662075996399,-0.011740684509277344,-0.0190734766800325,-0.08575666023761327,0.03255727061762937
0.1005149707198143,0.30671370029449463,9.747915267944336,0.002849467098712921,0.0077033936977386475,0.014204025268554688,-0.0190734766800325,-0.08575666023761327,0.03255727061762937
0.09497431665658951,0.28651678562164307,9.719423294067383,0.00288497656583786,0.012324303388595581,-0.011808395385742188,-0.07456708281952004,-0.003222175091486572,0.0017064667352321506
0.09808685630559921,0.28315988183021545,9.759190559387207,0.0006713792681694031,-0.0015621185302734375,0.02406597137451172,-0.027826550864388958,0.0205889949382485,-0.0015051495774886692
0.10135548561811447,0.2746107578277588,9.75491714477539,0.0006286576390266418,-0.017587274312973022,0.014074325561523438,-0.1125731368475271,-0.014305117515184294,0.007247937947081011
0.08936712145805359,0.29694128036499023,9.742074012756348,0.009902872145175934,0.008551299571990967,-0.0026197433471679688,-0.0190734766800325,0.04041203151883701,-0.04746918774156715
0.10145610570907593,0.2921205163002014,9.746638298034668,0.01475542038679123,0.007877379655838013,-0.0071315765380859375,0.0008283205194227183,0.046730013197005,-0.026808199007609147
0.08660930395126343,0.2934505045413971,9.75726318359375,-0.011032119393348694,0.005506575107574463,0.013757705688476562,-0.05329758025940944,-0.0008996206240446433,-0.040381672528595494
0.1228630468249321,0.2908354103565216,9.764363288879395,0.02937781810760498,0.0027118325233459473,0.02018451690673828,-0.012002256537512348,0.046730013197005,0.061211821836323704
0.0943218469619751,0.2762678563594818,9.74514102935791,-0.004064448177814484,-0.004420816898345947,-0.008321762084960938,-0.05814912232380768,-0.014305117515184294,-0.05378716608468184
0.0943218469619751,0.2762678563594818,9.74514102935791,-0.003972634673118591,-0.015709608793258667,0.0058765411376953125,-0.11576334211802551,0.046730013197005,-0.04109698810180888
0.08327709138393402,0.289161741733551,9.750503540039062,-0.008451879024505615,0.013421565294265747,0.012532234191894531,-0.0190734766800325,0.09984402545236373,0.007247937947081011
0.0976804718375206,0.28393590450286865,9.736007690429688,0.0038950666785240173,-0.000799030065536499,-0.008861541748046875,-0.01508850152636641,-0.10785022778912856,0.035773009056236
0.0976804718375206,0.28393590450286865,9.736007690429688,-0.0034264251589775085,-0.0031752586364746094,-0.010938644409179688,-0.01508850152636641,-0.10785022778912856,0.035773009056236
0.091237872838974,0.3033514618873596,9.75576400756836,0.0035682842135429382,0.010349839925765991,0.005127906799316406,0.04196162735173035,0.03803145379398303,0.015946490679996372
0.09547550976276398,0.2952904999256134,9.746447563171387,0.010733991861343384,0.002566218376159668,0.01636219024658203,-0.05275511382892233,-0.014305117515184294,-0.026433712542022043
0.0943218469619751,0.3014989495277405,9.751655578613281,-0.0032271593809127808,0.0164964497089386,0.004652976989746094,-0.11182531117469004,0.00035408260946301454,0.05362385519440978
0.07386910170316696,0.30466988682746887,9.731202125549316,-0.0030603930354118347,0.004425257444381714,0.0045223236083984375,-0.07118561891204805,0.046730013197005,-0.04486422429525437
0.10283643752336502,0.29224923253059387,9.75640869140625,-0.0020833760499954224,0.013276875019073486,0.011900901794433594,0.04291094360508278,0.046730013197005,-0.05378716608468184
0.09911283850669861,0.28163644671440125,9.725305557250977,0.002390943467617035,-0.008028537034988403,-0.021223068237304688,-0.029397654456050564,0.03640582541582702,-0.0030762398289370515
0.08317893743515015,0.3115081191062927,9.73924732208252,0.0023034438490867615,-0.0006867647171020508,-0.02063751220703125,0.021387463395532165,-0.014305117515184294,-0.05378716608468184
0.10263124108314514,0.280600368976593,9.744468688964844,0.0003212392330169678,0.005625814199447632,-0.0013303756713867188,-0.04997213190725948,-0.014305117515184294,0.03738437341140366
0.10884679108858109,0.30250611901283264,9.761015892028809,0.013906441628932953,0.01537102460861206,0.01737499237060547,0.04196162735173035,-0.023831910726243036,-0.0442603728736231
0.11436442285776138,0.2865159213542938,9.737061500549316,-0.0005787387490272522,0.003229886293411255,0.0005931854248046875,-0.057957263377239075,-0.0753401948665207,0.057207396651778944
0.09422769397497177,0.2807975709438324,9.731341361999512,-0.005837693810462952,0.0009799599647521973,-0.013091087341308594,0.012643747370751416,-0.011905753435059473,0.03896516199786493
0.10186120867729187,0.2941378653049469,9.751315116882324,0.005851425230503082,0.010720938444137573,0.00632476806640625,0.05063545399943747,-0.005631290867477173,0.007247937947081011
0.08760937303304672,0.2823939025402069,9.731966018676758,-0.008207648992538452,-0.02701050043106079,0.0038242340087890625,0.05403743515484595,0.046730013197005,-0.0906706611803201
0.10578036308288574,0.2890644669532776,9.733429908752441,0.0017806142568588257,0.003995776176452637,-0.014434814453125,-0.04738753229643112,0.046730013197005,-0.021066131009530833
0.09911283850669861,0.2753589451313019,9.729825019836426,0.0014499202370643616,-0.01460176706314087,-0.016172409057617188,0.03422862591165943,0.046730013197005,0.014980939387151932
0.08582502603530884,0.28620630502700806,9.759654998779297,0.0014834702014923096,0.002139061689376831,0.0005779266357421875,-0.0190734766800325,-0.0016361804868151493,0.01991687164039685
0.0956031084060669,0.2873844802379608,9.734246253967285,-0.012270256876945496,-0.0026454031467437744,-0.0046234130859375,0.04763962897580674,-0.04766165366783739,0.06828304197884386
0.11156933009624481,0.28623849153518677,9.726947784423828,0.015747033059597015,0.00006827712059020996,-0.018032073974609375,-0.18822826079770225,0.046730013197005,0.1153676180329879
0.08741584420204163,0.2886519730091095,9.734097480773926,-0.0009158328175544739,-0.011445403099060059,-0.0035619735717773438,0.014689629151008243,-0.048068189995691984,0.007247937947081011
0.08501845598220825,0.2833734154701233,9.750096321105957,-0.010107532143592834,0.0002377331256866455,0.013136863708496094,0.04196162735173035,-0.04837086609350139,0.04131370653571795
0.11792711913585663,0.2976883351802826,9.736783981323242,0.023237384855747223,0.009661257266998291,-0.005824089050292969,0.04196162735173035,0.0403717974357574,-0.047428953658487545
0.1016661748290062,0.2964719235897064,9.73799991607666,-0.003050476312637329,0.013981372117996216,-0.010318756103515625,-0.09838439268239085,-0.014305117515184294,-0.03953406873095939
0.10185439884662628,0.28623926639556885,9.75439167022705,-0.000961892306804657,-0.0025325417518615723,0.013333320617675781,-0.0015753190990399721,-0.04916246100592207,0.04210530144813862
0.10185439884662628,0.28623926639556885,9.75439167022705,0.010685473680496216,-0.0003038644790649414,0.008310317993164062,-0.0015753190990399721,-0.04916246100592207,0.04210530144813862
0.10586152970790863,0.285868376493454,9.714215278625488,0.008038625121116638,-0.002795964479446411,-0.03150653839111328,0.09184467331508876,-0.014305117515184294,-0.04821113705047962
0.09971168637275696,0.29239821434020996,9.757643699645996,0.0006932839751243591,0.004415929317474365,0.018148422241210938,-0.11062706654260236,-0.014305117515184294,0.007247937947081011
0.09376293420791626,0.29226526618003845,9.753066062927246,-0.00874144583940506,-0.0028833746910095215,0.008032798767089844,-0.029924672919625805,-0.039397051400949235,-0.01784400260879054
0.10088731348514557,0.2899142801761627,9.758220672607422,0.0005263760685920715,-0.004760950803756714,0.012501716613769531,-0.03489576997492571,0.10776511722876785,-0.03796487278978863
0.10088731348514557,0.2899142801761627,9.758220672607422,0.003021933138370514,0.004717707633972168,0.014479637145996094,-0.03489576997492571,0.10776511722876785,-0.03796487278978863
0.09911283850669861,0.29185912013053894,9.749687194824219,0.0007384493947029114,-0.00751262903213501,-0.004878044128417969,0.05378632565124881,0.05855470482641685,0.031853134143096595
0.10390377044677734,0.29927074909210205,9.754050254821777,0.005354717373847961,0.011358290910720825,0.009229660034179688,-0.0190734766800325,-0.010305568178572422,-0.04978761674806997
0.09522797167301178,0.30173438787460327,9.7401704788208,-0.0064308419823646545,0.015382707118988037,-0.0099029541015625,0.0693479378395576,0.046730013197005,0.007247937947081011
0.11071643978357315,0.289255291223526,9.739304542541504,0.007065802812576294,-0.008228540420532227,-0.009560585021972656,-0.0801085540313689,-0.0753401948665207,0.007247937947081011
0.10150828957557678,0.28898149728775024,9.74513053894043,0.0017824247479438782,-0.008171498775482178,0.036828041076660156,-0.0016623239696782987,-0.014305117515184294,0.03346073655813545
0.10150828957557678,0.28898149728775024,9.74513053894043,0.001705847680568695,0.003732919692993164,-0.015432357788085938,-0.0016623239696782987,-0.014305117515184294,0.03346073655813545
0.10806628316640854,0.29239821434020996,9.727700233459473,-0.000786609947681427,0.003692150115966797,-0.016860008239746094,-0.042087198778795444,0.06974374196587456,0.022255584441104752
0.08971961587667465,0.28751295804977417,9.737377166748047,-0.01010163128376007,-0.0010375380516052246,-0.007076263427734375,-0.0190734766800325,-0.014305117515184294,-0.056191526074658556
0.08928023278713226,0.2868923842906952,9.73631763458252,-0.011946991086006165,-0.0008554458618164062,-0.009084701538085938,-0.0190734766800325,0.02851397205175372,-0.02918413100320833
0.10455629974603653,0.2886977195739746,9.745345115661621,0.0021161139011383057,0.006308317184448242,0.019357681274414062,-0.0024470753527157402,-0.014305117515184294,0.007247937947081011
0.09678048640489578,0.2940358519554138,9.76571273803711,-0.0026216208934783936,0.0062649548053741455,0.02114582061767578,-0.0801085540313689,-0.014305117515184294,-0.05700546584422722
0.09746310114860535,0.28254514932632446,9.744153022766113,-0.0025814250111579895,0.002198159694671631,-0.0053119659423828125,-0.038075062951007974,-0.014305117515184294,-0.049756847546271854
0.10209303349256516,0.2956349849700928,9.753793716430664,-0.004979729652404785,0.009099960327148438,-0.0008859634399414062,-0.040507650832163886,0.02529582070208044,0.04684885448649926
0.09218484163284302,0.30395567417144775,9.758809089660645,-0.007194392383098602,0.01596692204475403,0.013108253479003906,-0.07846229167841072,-0.014305117515184294,0.007247937947081011
0.10299578309059143,0.27809107303619385,9.738638877868652,-0.000280231237411499,-0.007593393325805664,-0.015484809875488281,0.08320974672913899,0.02694301853749087,0.04849605065438303
0.09911564737558365,0.2804320752620697,9.744499206542969,0.0022781938314437866,0.0019383430480957031,0.02450084686279297,0.04196162735173035,-0.014305117515184294,0.06821137835341162
0.09911564737558365,0.2804320752620697,9.744499206542969,-0.00014106929302215576,-0.007499724626541138,-0.001796722412109375,0.04196162735173035,-0.014305117515184294,0.06821137835341162
0.09590990841388702,0.2875537574291229,9.751627922058105,-0.00217515230178833,0.005082160234451294,0.007537841796875,-0.1610340493802816,0.046730013197005,-0.05378716608468184
0.11109021306037903,0.2782522737979889,9.749458312988281,0.011740796267986298,0.009423106908798218,0.01890087127685547,-0.07866379559913932,0.04600763398089021,0.06756066943283567
0.11109021306037903,0.2782522737979889,9.749458312988281,0.011488839983940125,-0.009336084127426147,0.0020685195922851562,-0.07866379559913932,0.04600763398089021,0.06756066943283567
0.10139189660549164,0.28221189975738525,9.747701644897461,0.004410088062286377,-0.008885860443115234,-0.0003833770751953125,-0.0801085540313689,0.028362007012827546,0.007247937947081011
0.1011483296751976,0.30210018157958984,9.730636596679688,-0.011528782546520233,0.01937812566757202,0.004231452941894531,-0.07705135068670062,-0.014305117515184294,0.005719336274746869
0.1011483296751976,0.30210018157958984,9.730636596679688,0.002740994095802307,0.014315009117126465,-0.016849517822265625,-0.07705135068670062,-0.014305117515184294,0.005719336274746869
0.0951654314994812,0.2974001169204712,9.757340431213379,-0.014181055128574371,0.006505370140075684,0.018685340881347656,0.019825444489075205,-0.03644129370773282,0.007247937947081011
0.11018451303243637,0.2961929738521576,9.757935523986816,-0.01115071028470993,-0.01708155870437622,-0.011704444885253906,-0.0190734766800325,0.04442234974257289,0.004940281162755512
0.11018451303243637,0.2961929738521576,9.757935523986816,0.012525543570518494,0.009043008089065552,0.011906623840332031,-0.0190734766800325,0.04442234974257289,0.004940281162755512
0.09972125291824341,0.2867099642753601,9.746560096740723,0.010275639593601227,-0.0003794729709625244,-0.00492095947265625,-0.03438097114666245,0.0238662100819652,0.007247937947081011
0.09947727620601654,0.29934173822402954,9.746864318847656,0.007240675389766693,0.006297022104263306,0.00000858306884765625,0.04196162735173035,0.04363476356422563,0.004152688314301639
0.09947727620601654,0.29934173822402954,9.746864318847656,0.0001300126314163208,0.010710418224334717,0.0000095367431640625,0.04196162735173035,0.04363476356422563,0.004152688314301639
0.09404560178518295,0.30079153180122375,9.731958389282227,-0.014160007238388062,0.019826561212539673,-0.01597118377685547,-0.0190734766800325,-0.014305117515184294,0.044572907389004074
0.09686916321516037,0.31049928069114685,9.726823806762695,-0.02533431351184845,0.005333930253982544,-0.02484607696533203,0.1029967313834932,-0.07147159973300928,0.007247937947081011
