Accelerometer_Gx,Accelerometer_Gy,Accelerometer_Gz,Accelerometer_X,Accelerometer_Y,Accelerometer_Z,Gyroscope_Z,Gyroscope_X,Gyroscope_Y
0.05564124509692192,-0.050469771027565,9.854391098022461,0.010099999606609344,-0.002099999925121665,0.029500000178813934,0.866000005031034,-3.5159999578227357,0.07699999753589991
0.035012807697057724,-0.05182967707514763,9.847590446472168,-0.012899999506771564,-0.0030999998562037945,0.029500000178813934,-0.8810000075828812,-5.195999816742793,-0.05799999875029794
0.04623682424426079,-0.04614105448126793,9.86900520324707,-0.013199999928474426,0.008200000040233135,0.04910000041127205,-0.8819999899660533,-0.2959999881021219,-0.128999995265459
0.040797196328639984,-0.036075834184885025,9.853719711303711,-0.010499999858438969,0.017999999225139618,0.029500000178813934,-0.6969999940671738,1.842999975584884,-0.0329999989439571
0.04042370244860649,-0.051245495676994324,9.868363380432129,-0.0032999999821186066,-0.0008999999845400453,0.04910000041127205,0.09200000008774706,1.2940000422698372,-0.0659999978879142
0.05290227755904198,-0.04272213205695152,9.857550621032715,0.010699999518692493,0.0072999997064471245,0.03929999843239784,-0.014999999216793838,-3.286999936651487,0.06800000267489824
0.04369897022843361,-0.03872860595583916,9.85727310180664,-0.008299999870359898,0.006300000008195639,0.03929999843239784,-0.5620000244614024,1.3670000369018758,-0.10299999973573276
0.04519294947385788,-0.04428315535187721,9.860577583312988,-0.00419999985024333,0.0066999997943639755,0.03929999843239784,0.43499999396228783,-0.22800001210765014,0.02800000031671026
0.03843172639608383,-0.039111677557229996,9.871503829956055,-0.00419999985024333,0.004600000102072954,0.04910000041127205,-0.6339999833494159,-0.2839999860606442,0.03999999902313467
0.04582501947879791,-0.04974193498492241,9.856507301330566,-0.004399999976158142,-0.003700000001117587,0.03929999843239784,0.20999999570522035,0.2899999870813831,-0.20899999998183494
0.033518824726343155,-0.05431964993476868,9.861324310302734,-0.01269999984651804,-0.0044999998062849045,0.03929999843239784,-0.8410000185649065,0.0539999991814898,-0.24399999704266945
0.042243294417858124,-0.03208230063319206,9.857732772827148,-0.002199999988079071,0.017099998891353607,0.03929999843239784,0.23399998644796255,-1.5860000207979912,0.12499999903170415
0.039801210165023804,-0.05926128104329109,9.84654712677002,-0.005399999674409628,-0.012899999506771564,0.029500000178813934,0.013000000266153095,2.0009999668904386,-0.03400000133744912
0.04209006577730179,-0.034466926008462906,9.851641654968262,0.00029999998514540493,0.01599999889731407,0.029500000178813934,-0.03599999945432653,-1.2539999998910096,-0.07600000181251451
0.03589387238025665,-0.044254425913095474,9.862627029418945,-0.012299999594688416,0.0058999997563660145,0.03929999843239784,0.26600000967885407,-1.5310000292281694,0.05900000114378995
0.041362229734659195,-0.045767560601234436,9.838330268859863,-0.006300000008195639,0.004799999762326479,0.019700000062584877,0.257999990530918,1.521999974336208,-0.03400000133744912
0.04527914524078369,-0.04765418916940689,9.855731010437012,-0.0011999999405816197,0.003700000001117587,0.03929999843239784,0.03699999851276524,1.569999982502119,0.07999999804626934
0.042521022260189056,-0.04101746529340744,9.856833457946777,0.0026000000070780516,0.0032999999821186066,0.03929999843239784,-0.43799999447265725,1.0489999828027163,0.057000003026912535
0.05057511478662491,-0.0372154675424099,9.84841537475586,0.015199999324977398,0.013899999670684338,0.029500000178813934,-0.44699999600376555,-0.36199999933024934,0.007999999971379599
0.03190034255385399,-0.04543237388134003,9.86125659942627,-0.005399999674409628,0.0050999997183680534,0.03929999843239784,-0.1830000044521087,-1.118000047902066,-0.04900000055424296
0.029199684038758278,-0.04852567985653877,9.867472648620605,-0.007999999448657036,-0.004399999976158142,0.04910000041127205,-0.11400000605382507,-1.472999983787125,-0.046999999102312236
0.03919786959886551,-0.041649531573057175,9.875995635986328,-0.012299999594688416,-0.004100000020116568,0.03929999843239784,-0.5380000203784471,-1.090000007564716,-0.017999999727163266
0.048190489411354065,-0.031478963792324066,9.846672058105469,0.0011999999405816197,0.016499999910593033,0.029500000178813934,-0.3399999866940647,0.25299999857377775,0.010999999647985701
0.03097139298915863,-0.047788266092538834,9.860509872436523,-0.01730000041425228,0.007400000002235174,0.03929999843239784,-0.4870000117021667,0.5350000198680775,0.015999999942759198
0.05042188614606857,-0.035319264978170395,9.853633880615234,0.0037999998312443495,0.01809999905526638,0.029500000178813934,-0.2839999860606442,1.3080000090776593,-0.1620000008795227
0.04677312448620796,-0.046888045966625214,9.868496894836426,-0.0016999999061226845,0.008799999952316284,0.04910000041127205,0.36199999933024934,-1.1539999473047935,-0.09600000299160849
0.05450160428881645,-0.04593036696314812,9.856908798217773,0.0052999998442828655,0.007499999832361937,0.03929999843239784,0.01400000015835513,-1.4489999797041697,-0.0019999999928448997
0.037426162511110306,-0.04729985073208809,9.850445747375488,-0.017999999225139618,0.007199999876320362,0.029500000178813934,0.09600000299160849,1.278000003973965,-0.038000000906257256
0.04268382489681244,-0.05364927276968956,9.854706764221191,-0.0044999998062849045,-0.003000000026077032,0.03929999843239784,0.28799999563461226,-0.8410000185649065,0.0539999991814898
0.04374685138463974,-0.04243483021855354,9.85340404510498,-0.006599999964237213,0.005699999630451202,0.029500000178813934,0.19600000221697184,-0.8320000170337981,-0.004999999877891834
0.036880284547805786,-0.0325898751616478,9.870038986206055,-0.018400000408291817,0.014699999243021011,0.04910000041127205,0.13700000107318186,0.859000021627123,0.0039999999856897995
0.04932055622339249,-0.03961925208568573,9.852302551269531,0.003700000001117587,0.004299999680370092,0.029500000178813934,0.048000001495804245,-0.9980000274872889,0.04600000004387353
0.04472368583083153,-0.03307829052209854,9.864992141723633,-0.008499999530613422,0.013700000010430813,0.04910000041127205,0.10999999647985702,1.5440000136528191,-0.08100000043976135
0.043967120349407196,-0.0509486123919487,9.847418785095215,-0.004100000020116568,-0.006199999712407589,0.029500000178813934,-0.04500000098543482,-0.6200000165415938,0.019999999511567335
0.032666489481925964,-0.04114196076989174,9.853231430053711,-0.015399999916553497,0.003499999875202775,0.029500000178813934,-0.024000000747902123,0.2050000037480801,-0.10100000161885533
0.037167586386203766,-0.053400274366140366,9.84882640838623,-0.014499999582767487,-0.006199999712407589,0.029500000178813934,-0.2810000122307012,0.08700000146050021,-0.09600000299160849
0.03643017262220383,-0.03118208236992359,9.865882873535156,-0.0139999995008111,0.013899999670684338,0.04910000041127205,0.1629999966029081,-0.4759999920438612,-0.11400000605382507
0.041457995772361755,-0.05025908350944519,9.856267929077148,-0.005200000014156103,-0.006099999882280827,0.03929999843239784,0.2770000026567332,-1.6160000259016853,-0.08299999855663877
0.04837245121598244,-0.045863326638936996,9.853222846984863,0.00029999998514540493,0.00279999990016222,0.029500000178813934,-0.14699999832767557,0.3879999948599756,0.04500000098543482
0.049301404505968094,-0.0421762578189373,9.865556716918945,0.00139999995008111,0.0030999998562037945,0.04910000041127205,0.0039999999856897995,1.452000033575392,0.06800000267489824
0.039159562438726425,-0.06498821079730988,9.870796203613281,-0.00419999985024333,-0.016300000250339508,0.04910000041127205,-0.1749999986443858,-0.06099999926066736,0.0039999999856897995
0.05132210999727249,-0.05013458430767059,9.86616039276123,0.004100000020116568,-0.004600000102072954,0.04910000041127205,0.0019999999928448997,-0.5249999825929442,-0.021000000237532696
0.03677493706345558,-0.04049073904752731,9.857867240905762,-0.016300000250339508,0.004799999762326479,0.03929999843239784,-0.05099999867112037,0.2039999946844815,0.021000000237532696
0.04801810905337334,-0.050469771027565,9.851019859313965,0.0024999999441206455,-0.0031999999191612005,0.029500000178813934,-0.0859999990670082,-1.3649999654138256,0.010999999647985701
0.04842033237218857,-0.03974374756217003,9.86823844909668,-0.010199999436736107,0.006000000052154064,0.029500000178813934,-0.10100000161885533,0.02800000031671026,-0.01700000066872456
0.04320097714662552,-0.04128561541438103,9.86099910736084,-0.00019999999494757503,0.004699999932199717,0.04910000041127205,-0.09399999820462447,1.5389999950152524,0.01400000015835513
0.03428496792912483,-0.05241386592388153,9.863909721374512,-0.013100000098347664,-0.005699999630451202,0.03929999843239784,0.3019999891228608,1.2179999937665764,-0.14900000311465958
0.05077622830867767,-0.048468220978975296,9.852273941040039,0.009499999694526196,-0.006199999712407589,0.029500000178813934,0.12700000381868817,0.6960000116840017,-0.029999998433587676
0.03483084589242935,-0.038948871195316315,9.854410171508789,-0.008200000040233135,0.0032999999821186066,0.029500000178813934,-0.12499999903170415,0.3510000063523703,0.02800000031671026
0.04938759282231331,-0.03928406164050102,9.859877586364746,0.012199999764561653,0.0037999998312443495,0.03929999843239784,0.024000000747902123,-0.5769999736523967,0.1070000026395942
0.03770388662815094,-0.04431188479065895,9.849899291992188,-0.008700000122189522,0.0037999998312443495,0.029500000178813934,-0.09200000008774706,0.8009999761860788,0.08299999855663877
0.040701426565647125,-0.039724595844745636,9.86109447479248,0.0030999998562037945,0.004100000020116568,0.03929999843239784,-0.1529999993484144,0.5330000017408804,0.09800000110848592
0.0235780980437994,-0.048544835299253464,9.857339859008789,-0.01489999983459711,-0.005200000014156103,0.03929999843239784,-0.0659999978879142,0.1079999983629796,-0.0009999999964224499
0.0430094376206398,-0.04677312448620796,9.858843803405762,0.003499999875202775,0.0032999999821186066,0.03929999843239784,-0.2929999875917525,0.5390000027616192,0.014999999216793838
0.03784754127264023,-0.053237468004226685,9.856277465820312,-0.004100000020116568,-0.0050999997183680534,0.03929999843239784,-0.13400000056281244,-0.5889999756938744,-0.12599999475508955
0.03797203674912453,-0.03584598749876022,9.862703323364258,-0.005200000014156103,0.014999999664723873,0.03929999843239784,0.05200000106461238,-1.3370000317981814,-0.007000000079177565
0.04526956379413605,-0.04066311940550804,9.846757888793945,0.0010999999940395355,0.005200000014156103,0.029500000178813934,0.12799999954207358,-0.8720000060517729,0.10199999734224074
0.03727293387055397,-0.049540821462869644,9.841882705688477,-0.010799999348819256,-0.004799999762326479,0.019700000062584877,0.012000000373951061,-0.9180000494513394,0.008999999863581633
0.04183149337768555,-0.037742193788290024,9.852571487426758,-0.0032999999821186066,0.014699999243021011,0.029500000178813934,-0.4190000090272685,0.9889999725953277,0.010999999647985701
0.050555963069200516,-0.04985685646533966,9.852169036865234,0.009499999694526196,-0.003499999875202775,0.029500000178813934,-0.20899999998183494,-1.180000022875799,0.07699999753589991
0.056675542145967484,-0.03976290300488472,9.864091873168945,0.0066999997943639755,0.0066999997943639755,0.03929999843239784,-0.2839999860606442,0.08100000043976135,-0.049999999612681666
0.04689761996269226,-0.04649539664387703,9.846853256225586,-0.00279999990016222,0.007400000002235174,0.029500000178813934,0.22400000253368207,1.2379999615951374,0.18199999538851008
0.04822879657149315,-0.042837053537368774,9.850674629211426,0.010300000198185444,0.006799999624490738,0.029500000178813934,0.08400000095013078,0.1930000017066024,-0.07999999804626934
0.040107667446136475,-0.050469771027565,9.856718063354492,0.000699999975040555,-0.002300000051036477,0.03929999843239784,-0.3510000063523703,0.36800000035098823,-0.007000000079177565
0.04099830985069275,-0.03682282194495201,9.846307754516602,0.0018999999156221747,0.017899999395012856,0.029500000178813934,-0.4199999914104407,0.5990000129690077,0.05799999875029794
0.05656062066555023,-0.03781880810856819,9.846260070800781,0.013100000098347664,0.01860000006854534,0.029500000178813934,0.21999999295971404,0.14799999405106096,-0.1509999945614304
0.0373208150267601,-0.03905421867966652,9.854515075683594,-0.006000000052154064,0.007899999618530273,0.029500000178813934,-0.20999999570522035,-0.2729999930827651,-0.1189999980109653
0.03452438861131668,-0.05337154492735863,9.8514404296875,-0.0066999997943639755,-0.00139999995008111,0.029500000178813934,0.0969999987149939,-0.3669999912873896,-0.04200000047506539
0.03378697484731674,-0.037569813430309296,9.842841148376465,-0.007599999662488699,0.01759999990463257,0.019700000062584877,-0.48299997544777223,1.1399999804969714,0.02600000053230619
0.04163995757699013,-0.04507802799344063,9.858710289001465,0.00559999980032444,-0.0004999999655410647,0.03929999843239784,-0.3510000063523703,0.7020000127047406,0.14300000209392072
0.03592260181903839,-0.034256238490343094,9.85134506225586,0.0037999998312443495,0.008899999782443047,0.03929999843239784,0.26699999206202624,-1.6389999408797629,-0.09099999769425504
0.053831230849027634,-0.03518518805503845,9.867002487182617,0.010999999940395355,0.01850000023841858,0.04910000041127205,-0.3349999947369245,-1.1630000021967546,-0.03400000133744912
0.044350191950798035,-0.04656243696808815,9.846355438232422,-0.0018999999156221747,0.009499999694526196,0.029500000178813934,-0.21899999723632863,1.4789999848078639,-0.043999998591942806
0.03530968725681305,-0.042358215898275375,9.864762306213379,-0.0071000000461936,0.009999999776482582,0.04910000041127205,0.10999999647985702,0.11200000126684104,-0.048000001495804245
0.035367149859666824,-0.0462176688015461,9.853346824645996,-0.0044999998062849045,0.0064999996684491634,0.029500000178813934,-0.7159999795125626,-0.19600000221697184,-0.16400000566650674
0.05570828542113304,-0.04322970658540726,9.856353759765625,0.013799999840557575,0.009200000204145908,0.03929999843239784,0.0969999987149939,-0.6080000145001161,-0.0429999995335041
0.04902367293834686,-0.050584692507982254,9.852800369262695,0.011599999852478504,-0.00029999998514540493,0.029500000178813934,-0.14099999730693671,0.7009999769607155,-0.017999999727163266
0.03794331103563309,-0.03702393174171448,9.854629516601562,-0.006399999838322401,0.019899999722838402,0.03929999843239784,0.21999999295971404,0.8570000034999258,-0.07600000181251451
0.0501154288649559,-0.04642836004495621,9.876398086547852,0.01549999974668026,0.009599999524652958,0.05889999866485596,0.07300000130214508,-0.8889999733699644,-0.0019999999928448997
0.04919605702161789,-0.040222588926553726,9.856152534484863,0.013100000098347664,0.009499999694526196,0.03929999843239784,0.7219999805333015,-1.031999962123672,-0.09500000059811649
0.037828389555215836,-0.04118026793003082,9.861869812011719,-0.009399999864399433,0.007599999662488699,0.03929999843239784,-0.13799999679656727,0.363000008393848,-0.15900000036915327
0.05274904891848564,-0.054252609610557556,9.850674629211426,0.010999999940395355,-0.0016999999061226845,0.029500000178813934,-0.014999999216793838,-1.0720000045024995,-0.12100000279794933
0.03547249361872673,-0.0527203232049942,9.858710289001465,-0.011500000022351742,-0.0015999999595806003,0.03929999843239784,0.3459999877148036,-1.8140000595860677,0.021000000237532696
0.05554547905921936,-0.04797980189323425,9.856976509094238,0.003000000026077032,-0.0026000000070780516,0.03929999843239784,0.31099999065396905,1.4449999434497751,-0.012000000373951061
0.05427176132798195,-0.04630386084318161,9.873516082763672,0.006899999920278788,0.006300000008195639,0.04910000041127205,0.03999999902313467,2.5369999157808354,-0.01400000015835513
0.04528871923685074,-0.04563348367810249,9.864465713500977,0.003999999724328518,0.006199999712407589,0.04910000041127205,0.14900000311465958,0.3849999943496062,0.03899999996469596
0.0414675734937191,-0.04757757484912872,9.873611450195312,0.004999999888241291,0.005699999630451202,0.04910000041127205,-0.7930000103989956,-0.3579999897562813,-0.05799999875029794
0.04329674690961838,-0.04414907842874527,9.861027717590332,0.0038999998942017555,0.007799999788403511,0.03929999843239784,-0.5900000114378995,0.8620000221374924,0.019000000453128628
0.04918648302555084,-0.04881298542022705,9.873955726623535,0.01599999889731407,-0.00029999998514540493,0.05889999866485596,-0.28799999563461226,-0.969999987149939,0.024000000747902123
0.024756046012043953,-0.042453981935977936,9.86087417602539,-0.01599999889731407,0.010199999436736107,0.03929999843239784,-0.7239999986604987,-0.16999999334703236,-0.043999998591942806
0.04453215003013611,-0.031028853729367256,9.860356330871582,0.0026000000070780516,0.023899998515844345,0.03929999843239784,-0.49600001323327503,1.6350000113470742,-0.0329999989439571
0.05000050738453865,-0.04826710373163223,9.863450050354004,0.016899999231100082,0.005499999970197678,0.03929999843239784,-0.14900000311465958,-0.057000003026912535,-0.0539999991814898
0.05855259671807289,-0.0383838415145874,9.86616039276123,0.019999999552965164,0.011799999512732029,0.04910000041127205,0.6960000116840017,-0.03400000133744912,-0.12599999475508955
0.04071100801229477,-0.050105854868888855,9.861764907836914,0.019999999552965164,0.011799999512732029,0.04910000041127205,0.6960000116840017,-0.03400000133744912,-0.12599999475508955
0.045365333557128906,-0.035673607140779495,9.862569808959961,-0.002300000051036477,0.023599999025464058,0.03929999843239784,-0.18400000017549412,1.1140000116476716,0.03899999996469596
0.04737646505236626,-0.03394020348787308,9.867339134216309,0.001500000013038516,0.02449999935925007,0.04910000041127205,0.27500001120996237,1.5190000271866915,-0.1400000015835513
0.04540364071726799,-0.030722396448254585,9.865988731384277,0.006199999712407589,0.023899998515844345,0.04910000041127205,-0.5840000104171607,-2.5369999157808354,-0.07799999992939192
0.04938759282231331,-0.052385132759809494,9.859601020812988,0.008599999360740185,0.006199999712407589,0.03929999843239784,-0.2039999946844815,2.0839999987976103,-0.05799999875029794
0.0502399280667305,-0.051149725914001465,9.870622634887695,0.013799999840557575,0.0066999997943639755,0.04910000041127205,0.08499999667351618,-0.2699999925723957,-0.1199999937343507
0.03818272799253464,-0.045039720833301544,9.867300033569336,-0.006199999712407589,0.016300000250339508,0.04910000041127205,0.1319999957758284,1.4780000024246918,-0.0019999999928448997
0.0548655241727829,-0.04450342059135437,9.865202903747559,0.017400000244379044,0.01589999906718731,0.04910000041127205,0.1939999974299878,-4.720999860442957,-0.09500000059811649
0.04307647794485092,-0.038824375718832016,9.869751930236816,-0.005200000014156103,0.01529999915510416,0.04910000041127205,-0.5829999746731356,2.759000060269879,-0.22299999347008345
0.030157363042235374,-0.042549751698970795,9.8630952835083,-0.006399999838322401,0.016999999061226845,0.03929999843239784,-0.7020000127047406,-2.15300006389696,-0.029999998433587676
0.039159562438726425,-0.043852198868989944,9.885380744934082,-0.006899999920278788,0.017999999225139618,0.06879999488592148,-0.2639999915516568,2.9229999458744667,-0.09099999769425504
0.04910028725862503,-0.05189671739935875,9.857043266296387,0.010799999348819256,0.008799999952316284,0.03929999843239784,-1.0919999723310605,1.2400000330831875,0.08899999957737763
0.03516603633761406,-0.04050031676888466,9.849381446838379,-0.0052999998442828655,0.02149999886751175,0.029500000178813934,0.5080000152747527,-3.5649999483718187,-0.03599999945432653
0.0364876314997673,-0.045815445482730865,9.859926223754883,-0.016200000420212746,0.01979999989271164,0.039400000125169754,0.9149999955801171,-3.182000078871116,-0.12700000381868817
0.03913083299994469,-0.04149630293250084,9.870536804199219,-0.013899999670684338,0.017400000244379044,0.04919999837875366,0.5620000244614024,2.033000043482183,0.038000000906257256
0.04107492417097092,-0.04199429601430893,9.86179256439209,-0.008299999870359898,0.015699999406933784,0.039400000125169754,0.7350000183188042,0.5849999928003328,0.006000000186975531
0.04514506831765175,-0.04033751040697098,9.867137908935547,-0.006599999964237213,0.013599999248981476,0.04910000041127205,0.16699999283666295,0.21200000049220435,-0.019000000453128628
0.05159026011824608,-0.038211461156606674,9.879865646362305,0.003700000001117587,0.02279999852180481,0.05889999866485596,0.6999999945775432,2.8230000000099564,-0.02800000031671026
0.043402086943387985,-0.02732262946665287,9.861170768737793,0.0026000000070780516,0.03019999898970127,0.03929999843239784,0.9490000369382059,-0.48299997544777223,-0.15399999507179982
0.03663128614425659,-0.0432392843067646,9.872164726257324,-0.008200000040233135,0.008200000040233135,0.04910000041127205,1.1680000208343213,0.4679999728959251,-0.04200000047506539
0.038517918437719345,-0.04219541326165199,9.869455337524414,0.00279999990016222,0.004900000058114529,0.04910000041127205,0.43799999447265725,-3.879999948599756,-0.024000000747902123
0.038517918437719345,-0.04219541326165199,9.869455337524414,0.00279999990016222,0.004900000058114529,0.04910000041127205,0.43799999447265725,-3.879999948599756,-0.024000000747902123
0.045767560601234436,-0.0472806952893734,9.87495231628418,-0.011500000022351742,0.006300000008195639,0.05889999866485596,-1.1690000032174934,2.795000066394312,-0.05200000106461238
0.039896976202726364,-0.026910828426480293,9.85264778137207,-0.00279999990016222,0.02929999865591526,0.029500000178813934,1.5329999939945136,2.5589999550974465,0.015999999942759198
0.04196557030081749,-0.055583786219358444,9.85646915435791,0.0031999999191612005,-0.003700000001117587,0.03929999843239784,0.015999999942759198,-2.9280000712337393,-0.05799999875029794
0.04829583689570427,-0.049540821462869644,9.861371994018555,0.004999999888241291,-0.0037999998312443495,0.03929999843239784,-1.361000035881137,2.2050000015955598,-0.035000000395887826
0.04139095917344093,-0.06104256957769394,9.880170822143555,0.0013000000035390258,-0.00989999994635582,0.05889999866485596,0.33000000277978425,4.666999957978013,-0.18099999966512467
0.05388868972659111,-0.043564897030591965,9.85499382019043,0.023799998685717583,0.008700000122189522,0.03929999843239784,-0.8350000175441675,-4.112000130363933,-0.029999998433587676
0.04220498725771904,-0.05960604548454285,9.875382423400879,0.002699999837204814,-0.008599999360740185,0.05889999866485596,0.5829999746731356,3.9669999100396165,-0.03100000082707969
0.045317452400922775,-0.045221682637929916,9.859954833984375,0.013499999418854713,0.00930000003427267,0.03929999843239784,-0.37400000137172706,-4.594000176789386,-0.038000000906257256
0.04914817586541176,-0.05154237523674965,9.862262725830078,0.010599999688565731,0.0004999999655410647,0.03929999843239784,1.6950000215544627,3.3670000214091425,0
0.05176264047622681,-0.04074931517243385,9.869694709777832,0.01979999989271164,0.005699999630451202,0.04910000041127205,-1.3289999592893924,1.5529999618230745,0.05300000012305109
0.043967120349407196,-0.052049946039915085,9.856133460998535,0.014099999330937862,-0.00039999998989515007,0.03929999843239784,1.0619999672273661,-5.2969999584338865,-0.038000000906257256
0.050699613988399506,-0.044656649231910706,9.873093605041504,0.00930000003427267,0.006300000008195639,0.04910000041127205,0.5020000142540139,4.958999936506166,-0.03999999902313467
0.04554729536175728,-0.041697416454553604,9.869100570678711,0.012999999336898327,0.004900000058114529,0.04910000041127205,-2.0029999316567833,2.0080000570160554,-0.009999999755783667
0.05239471048116684,-0.045365333557128906,9.877758026123047,0.028199998661875725,0.010400000028312206,0.05889999866485596,-0.7369999830851486,-2.5939999788387076,-0.13400000056281244
0.04801810905337334,-0.04551856219768524,9.868823051452637,0.020999999716877937,0.012299999594688416,0.04910000041127205,0.40599999792219216,-2.046000027906833,-0.10299999973573276
0.0393415205180645,-0.056407392024993896,9.869799613952637,-0.0139999995008111,0.01119999960064888,0.03929999843239784,0.2259999939804529,5.149000004403465,-0.05099999867112037
0.041170693933963776,-0.0386328399181366,9.866390228271484,-0.001500000013038516,-0.0038999998942017555,0.04910000041127205,0.2259999939804529,5.149000004403465,-0.05099999867112037
0.03324109688401222,-0.029937097802758217,9.868295669555664,0.014999999664723873,0.012600000016391277,0.04899999871850014,0.5630000068445746,5.673999933635557,-0.06500000216452881
0.029305029660463333,-0.0406343899667263,9.862760543823242,0.030399998649954796,0.0011999999405816197,0.03920000046491623,0.5990000129690077,7.172999779550276,-0.06500000216452881
0.04802768677473068,-0.03793372958898544,9.855558395385742,0.06939999759197235,0.009399999864399433,0.03929999843239784,2.1060000381142214,5.398999869064742,-0.05999999686717535
0.05504748597741127,-0.04393838718533516,9.867855072021484,0.08389999717473984,-0.006099999882280827,0.04910000041127205,1.6849999842793295,-3.8940001288509896,0.010999999647985701
0.04397669434547424,-0.03488830476999283,9.867252349853516,0.06309999525547028,-0.0009999999310821295,0.04910000041127205,0.8949999743907032,-7.6880003118374685,-0.1199999937343507
0.05409938097000122,-0.0364876314997673,9.862789154052734,0.051500000059604645,-0.003399999812245369,0.03920000046491623,-1.2739999677195706,-7.085999818110415,0.021999999295971403
0.05562209337949753,-0.035625722259283066,9.859140396118164,0.02929999865591526,0.00039999998989515007,0.03920000046491623,-2.585999906329919,4.260000084394354,-0.019999999511567335
0.05388868972659111,-0.04559517651796341,9.863133430480957,0.03920000046491623,-0.0030999998562037945,0.03920000046491623,1.3250000297567037,2.980999991315511,-0.01700000066872456
0.059586890041828156,-0.03495534509420395,9.86743450164795,0.05739999935030937,0.002699999837204814,0.04899999871850014,1.3579999820099147,-6.375000177400537,-0.07099999651516105
0.055267754942178726,-0.05290227755904198,9.875832557678223,0.030899999663233757,-0.02019999921321869,0.058799996972084045,-1.502000006507647,3.776999842142317,-0.02899999937514897
0.04697423428297043,-0.05186798423528671,9.876723289489746,0.031199999153614044,-0.01599999889731407,0.058799996972084045,2.4590000092329363,-0.6339999833494159,-0.008999999863581633
0.04424484819173813,-0.05395573005080223,9.858881950378418,0.029199998825788498,-0.022699998691678047,0.03920000046491623,-2.0139999513150886,-3.8280000109011563,-0.057000003026912535
0.04514506831765175,-0.052595820277929306,9.871973991394043,0.01850000023841858,-0.017099998891353607,0.04899999871850014,1.6989999510871514,4.4109997721308805,-0.05200000106461238
0.045623909682035446,-0.05488467961549759,9.865853309631348,0.03189999982714653,-0.022199999541044235,0.04899999871850014,-2.170999960237471,-4.966000026631783,-0.06500000216452881
0.035156454890966415,-0.045087605714797974,9.872137069702148,0.009999999776482582,-0.0071000000461936,0.04899999871850014,2.378999924475281,-1.488000039699825,-0.012000000373951061
0.04665820300579071,-0.03575022146105766,9.872998237609863,0.015599999576807022,-0.0037999998312443495,0.04899999871850014,-1.306000044311315,3.783999932267934,0.13400000056281244
0.04682100564241409,-0.05639781430363655,9.87015438079834,0.02579999901354313,-0.019700000062584877,0.04899999871850014,-1.041000017015633,-7.707000190561152,-0.09099999769425504
0.05019204318523407,-0.04776911064982414,9.862099647521973,0.014399999752640724,-0.00699999975040555,0.03920000046491623,1.8360000989026788,5.496999850162908,0.05799999875029794
0.04636131972074509,-0.05096776410937309,9.860462188720703,0.021399999037384987,-0.022299999371170998,0.03920000046491623,-0.5219999820825748,8.868999783487912,0.10199999734224074
0.052289362996816635,-0.043852198868989944,9.857014656066895,0.05219999700784683,-0.01119999960064888,0.03920000046491623,-2.9640000773581723,0.433000002515517,-0.02600000053230619
0.039322368800640106,-0.055890243500471115,9.869626998901367,0.04339999705553055,-0.012799999676644802,0.04899999871850014,-0.9109999593257225,-7.988000149431,0.02800000031671026
0.04511633515357971,-0.03715800866484642,9.861812591552734,0.021299999207258224,0.009200000204145908,0.03920000046491623,0.8819999899660533,-8.26599994770792,-0.05300000012305109
0.04391923546791077,-0.028356924653053284,9.877374649047852,-0.0013000000035390258,0.016599999740719795,0.05889999866485596,1.459000016979303,-4.958000167566406,-0.023000000021936765
0.03797203674912453,-0.04686889424920082,9.868698120117188,-0.026499999687075615,-0.007400000002235174,0.04910000041127205,2.068000067223444,-6.16899996448566,0.03100000082707969
0.038067806512117386,-0.037569813430309296,9.867989540100098,-0.041200000792741776,-0.0024999999441206455,0.04919999837875366,2.7620000074193958,1.1459999815177102,-0.05900000114378995
0.027341783046722412,-0.04199429601430893,9.878361701965332,-0.04779999703168869,-0.01979999989271164,0.05900000035762787,2.3629999929011145,-5.51499995994683,-0.010999999647985701
0.04575798287987709,-0.037550657987594604,9.87907886505127,-0.04309999942779541,-0.01640000008046627,0.05909999832510948,1.031999962123672,-9.65199986333348,-0.057000003026912535
0.04463749751448631,-0.03404554724693298,9.86229133605957,-0.06929999589920044,-0.028999999165534973,0.05929999798536301,-2.784000046736007,-0.29800000622931916,-0.008999999863581633
0.054750602692365646,-0.043181825429201126,9.88278579711914,-0.08579999953508377,-0.014099999330937862,0.05959999933838844,-2.5929999964555352,6.778999890391267,-0.10900000075647161
0.04118026793003082,-0.04611232504248619,9.868555068969727,-0.07660000026226044,-0.00699999975040555,0.04959999769926071,2.55600000794793,-0.007000000079177565,-0.07600000181251451
0.04547068104147911,-0.04435976967215538,9.86792278289795,-0.07620000094175339,-0.013899999670684338,0.04959999769926071,-0.9099999769425504,-8.706999649206256,-0.01700000066872456
0.05162856727838516,-0.037244200706481934,9.868718147277832,-0.08980000019073486,-0.001500000013038516,0.049799997359514236,-2.373000030176248,2.661000079171713,0.05999999686717535
0.03664086014032364,-0.0586579404771328,9.864675521850586,-0.1006999984383583,-0.023599999025464058,0.049799997359514236,1.083000024160805,3.794000182986479,-0.14699999832767557
0.03177584335207939,-0.045346178114414215,9.864293098449707,-0.09109999984502792,-0.0064999996684491634,0.04959999769926071,-2.59499996122188,0.0009999999964224499,0.10400000212922476
0.04410119727253914,-0.032216377556324005,9.866878509521484,-0.08079999685287476,0.010400000028312206,0.04969999939203262,1.962000013616489,3.9079998822154,0.08700000146050021
0.05244259163737297,-0.0529693178832531,9.855846405029297,-0.05989999696612358,-0.014499999582767487,0.03969999775290489,-1.8299999911602343,-8.67299982129158,-0.1509999945614304
0.050584692507982254,-0.038968026638031006,9.860098838806152,-0.08320000022649765,0.00029999998514540493,0.03999999910593033,1.070000039736155,3.5269999774810414,0.07099999651516105
0.046524129807949066,-0.04689761996269226,9.881674766540527,-0.08169999718666077,-0.002899999963119626,0.05949999764561653,-2.411000001067025,4.779000119327413,-0.007999999971379599
0.046437934041023254,-0.03764642775058746,9.867596626281738,-0.0697999969124794,0.012600000016391277,0.0494999997317791,-0.363000008393848,-4.7299999153349175,-0.07600000181251451
0.04416823014616966,-0.040366239845752716,9.874377250671387,-0.08229999989271164,0.0037999998312443495,0.05949999764561653,0.0039999999856897995,2.325000022010337,0.02600000053230619
0.045767560601234436,-0.04391923546791077,9.865968704223633,-0.0754999965429306,0.003700000001117587,0.04959999769926071,-1.591000039435558,5.272999954350931,0.03100000082707969
0.035156454890966415,-0.04666777700185776,9.87308406829834,-0.07039999961853027,0.008100000210106373,0.0494999997317791,-1.1579999835591879,-4.6189999498121015,-0.048000001495804245
0.045911211520433426,-0.039159562438726425,9.878849983215332,-0.07289999723434448,0.01119999960064888,0.05939999967813492,1.1010000272230216,-5.463000022248231,-0.008999999863581633
0.053400274366140366,-0.0477403849363327,9.864982604980469,-0.07759999483823776,0.008200000040233135,0.049799997359514236,1.8809999464756615,1.0590000200778498,-0.0659999978879142
0.04450342059135437,-0.03672705590724945,9.862751007080078,-0.08410000056028366,0.012799999676644802,0.03989999741315842,2.1920000171709098,3.0469998958219326,-0.07000000079177565
0.04696466028690338,-0.037617698311805725,9.868555068969727,-0.07530000060796738,0.0066999997943639755,0.04959999769926071,1.488000039699825,6.8289998633235225,-0.02600000053230619
0.05386953800916672,-0.04424484819173813,9.86028003692627,-0.04639999940991402,-0.0071000000461936,0.03959999978542328,0.1930000017066024,2.8409998963504672,0.07399999702553048
0.04183149337768555,-0.041103653609752655,9.868420600891113,-0.0471000000834465,-0.007699999958276749,0.049300000071525574,-1.2040000269587545,4.2999998066080645,-0.004999999877891834
0.0439479686319828,-0.03476380929350853,9.858661651611328,-0.0364999994635582,0.004900000058114529,0.039400000125169754,0.9080000121762061,3.800000077285512,-0.004999999877891834
0.045317452400922775,-0.03831680119037628,9.859149932861328,-0.02589999884366989,-0.0072999997064471245,0.039400000125169754,2.2730000843117373,-0.8930000096243589,0.03599999945432653
0.03236960619688034,-0.046313438564538956,9.868305206298828,-0.03790000081062317,-0.013499999418854713,0.04919999837875366,1.5740000187565135,-2.047000010290005,-0.1939999974299878
0.034658461809158325,-0.031976956874132156,9.860692024230957,-0.043299999088048935,-0.007999999448657036,0.039400000125169754,0.16999999334703236,-4.0180000787984556,0.06200000165415938
0.043545741587877274,-0.03203441947698593,9.866667747497559,-0.029199998825788498,-0.0066999997943639755,0.04919999837875366,0.38100001145606455,1.6780000008754183,-0.09999999922536333
0.046696510165929794,-0.04986643046140671,9.87330436706543,-0.02449999935925007,-0.027300000190734863,0.04910000041127205,0.03699999851276524,1.2259999595536597,-0.06299999737754478
0.04794149473309517,-0.038565799593925476,9.873161315917969,-0.011099999770522118,-0.017500000074505806,0.04910000041127205,-0.6200000165415938,0.06099999926066736,-0.04500000098543482
0.04907156154513359,-0.038240186870098114,9.862683296203613,-0.010900000110268593,-0.006000000052154064,0.03929999843239784,2.5719999395220965,0.5570000058238358,-0.013000000266153095
0.04441722854971886,-0.03933194652199745,9.878131866455078,-0.01899999938905239,-0.02279999852180481,0.05889999866485596,-1.3070000266944872,-4.476000121140953,0.01400000015835513
0.04141968861222267,-0.04813303053379059,9.874090194702148,-0.031099999323487282,-0.02889999933540821,0.05900000035762787,0.3409999957576634,-1.8089999342267953,0.023000000021936765
0.04479072615504265,-0.0447811484336853,9.872529029846191,-0.035999998450279236,-0.019899999722838402,0.04919999837875366,0.7939999927821677,-4.001999933780877,-0.0039999999856897995
0.04480987787246704,-0.05077622830867767,9.879606246948242,-0.046699997037649155,-0.03179999813437462,0.05909999832510948,0.5620000244614024,0.9219999789840281,-0.03599999945432653
0.039820361882448196,-0.03987782448530197,9.859705924987793,-0.04399999976158142,-0.023399999365210533,0.03949999809265137,-0.27500001120996237,4.524999898246625,0.021999999295971403
0.03331771120429039,-0.05706819146871567,9.869732856750488,-0.04129999876022339,-0.03229999914765358,0.04919999837875366,0.9159999779632892,-1.9419999390662224,0.06399999977103679
0.046811431646347046,-0.060582879930734634,9.856861114501953,-0.03659999743103981,-0.044499997049570084,0.039400000125169754,-0.8009999761860788,-1.1149999940308437,-0.007999999971379599
0.037809234112501144,-0.038163572549819946,9.86589241027832,-0.04919999837875366,-0.01269999984651804,0.04919999837875366,1.2319999605743985,-2.3090000904361707,0.05200000106461238
0.04471411183476448,-0.04249228909611702,9.862176895141602,-0.04559999704360962,-0.02579999901354313,0.03949999809265137,-0.8320000170337981,-0.3750000104353257,-0.10199999734224074
0.05850471183657646,-0.056244585663080215,9.864849090576172,-0.026799999177455902,-0.03319999948143959,0.049300000071525574,1.4539999983417362,0.15200000362502902,-0.11500000177721047
0.03367205336689949,-0.0531991608440876,9.869349479675293,-0.05549999698996544,-0.03749999776482582,0.049300000071525574,0.7020000127047406,-1.7279999738076737,0.029999998433587676
0.049253515899181366,-0.04416823014616966,9.879088401794434,-0.039799999445676804,-0.02929999865591526,0.05909999832510948,1.3769999674553033,-8.680999680356956,-0.029999998433587676
0.03675578162074089,-0.032216377556324005,9.872451782226562,-0.08299999684095383,-0.023099999874830246,0.0494999997317791,-1.1039999743725382,4.724999789975645,-0.07000000079177565
0.04377558454871178,-0.04210921749472618,9.881473541259766,-0.05999999865889549,-0.02969999983906746,0.05920000001788139,-0.9320000162591615,-0.859000021627123,-0.006000000186975531
0.043756432831287384,-0.05465483292937279,9.874454498291016,-0.06199999898672104,-0.03680000081658363,0.05920000001788139,0.4799999749374028,1.083000024160805,-0.0429999995335041
0.04955039918422699,-0.0446758046746254,9.862722396850586,-0.04859999939799309,-0.0284000001847744,0.03959999978542328,1.5449999960359913,-1.869999926817356,-0.004999999877891834
0.03552995249629021,-0.0476350374519825,9.871696472167969,-0.07239999622106552,-0.03189999982714653,0.04939999803900719,-2.510999946931536,4.9640000618654385,-0.11699999322398127
0.05052723363041878,-0.05771941319108009,9.865862846374512,-0.039000000804662704,-0.044499997049570084,0.049300000071525574,0.5099999800410971,-3.9799998944642665,-0.21999999295971404
0.034562695771455765,-0.06116706505417824,9.864360809326172,-0.06920000165700912,-0.04569999873638153,0.04939999803900719,-0.8209999973754926,9.755999738730678,0.057000003026912535
0.049828123301267624,-0.07149086147546768,9.864053726196289,-0.022699998691678047,-0.05309999734163284,0.039400000125169754,0.3280000113330135,3.7859998970342787,-0.13799999679656727
0.04403415694832802,-0.04949294030666351,9.859121322631836,-0.020600000396370888,-0.034299999475479126,0.03929999843239784,1.1839999524084877,-0.8669999874142063,-0.048000001495804245
0.04665820300579071,-0.0531991608440876,9.861764907836914,-0.022499999031424522,-0.03700000047683716,0.03929999843239784,1.550000014673558,-5.282000009242893,0.1400000015835513
0.03538630157709122,-0.058025870472192764,9.859619140625,-0.04659999907016754,-0.05079999938607216,0.039400000125169754,-1.355000034860398,6.080000038279455,0.010999999647985701
0.05575616657733917,-0.047500960528850555,9.872137069702148,-0.010199999436736107,-0.027300000190734863,0.04910000041127205,-2.8629999356670783,3.1649999514703655,-0.19499999315337319
0.03694731742143631,-0.06147352233529091,9.871628761291504,-0.00139999995008111,-0.009499999694526196,0.05889999866485596,-0.4630000076192113,-1.5740000187565135,0.0019999999928448997
0.03509899601340294,-0.050508078187704086,9.867223739624023,-0.012799999676644802,-0.03219999745488167,0.04910000041127205,1.3229999582686536,-9.104999894784777,-0.029999998433587676
0.040720582008361816,-0.04876509681344032,9.871447563171387,-0.03150000050663948,-0.02459999918937683,0.04919999837875366,0.690999993046435,-6.8540000632330615,-0.09200000008774706
0.05073792114853859,-0.059989117085933685,9.884424209594727,-0.040300000458955765,-0.03619999811053276,0.06889999657869339,-1.59200002181873,4.208000146695754,-0.128999995265459
0.0316321924328804,-0.05210740491747856,9.880324363708496,-0.04829999804496765,-0.021900000050663948,0.05900000035762787,-2.362000010517942,1.5310000292281694,0.09300000248123906
0.03558741509914398,-0.05850471183657646,9.880620956420898,-0.04339999705553055,-0.024299999698996544,0.05900000035762787,-3.2349999989528873,5.66200014503749,-0.1719999981340164
0.04914817586541176,-0.0464475117623806,9.867510795593262,-0.010099999606609344,0.003000000026077032,0.04919999837875366,-3.1429999121537544,6.1379998702770875,0.06800000267489824
0.03688985854387283,-0.05506663769483566,9.872567176818848,-0.012799999676644802,0.0018999999156221747,0.04910000041127205,1.8850000894517618,-1.8770000169429728,-0.0659999978879142
0.03762727230787277,-0.045087605714797974,9.870882034301758,-0.017799999564886093,0.006599999964237213,0.04910000041127205,-1.8329999383097506,-1.7219999727869348,-0.03699999851276524
0.037713468074798584,-0.04717535153031349,9.870268821716309,-0.02239999920129776,0.011599999852478504,0.04919999837875366,-2.700000032445663,1.2569999470405262,-0.1189999980109653
0.03699520602822304,-0.0614926740527153,9.859054565429688,-0.01889999955892563,-0.0004999999655410647,0.039400000125169754,2.790999923418212,2.5449999882896246,0.12799999954207358
0.05431006848812103,-0.05506663769483566,9.861151695251465,0.007599999662488699,0.001500000013038516,0.03929999843239784,-0.9339999810255059,-5.4720000771401915,-0.017999999727163266
0.04479072615504265,-0.06748775392770767,9.86005973815918,-0.016999999061226845,-0.015399999916553497,0.039400000125169754,-0.9080000121762061,7.818000156083968,-0.01400000015835513
0.047864880412817,-0.06738241761922836,9.857090950012207,0.004399999976158142,-0.012899999506771564,0.03929999843239784,3.3560000017508367,-6.290000180727021,0.0429999995335041
0.05536352097988129,-0.05570828542113304,9.862425804138184,-0.002899999963119626,-0.0023999998811632395,0.03929999843239784,-1.7399999758491513,10.788000341184585,0.07099999651516105
0.04403415694832802,-0.05037400498986244,9.865978240966797,0.016699999570846558,0.002300000051036477,0.04910000041127205,-2.3319998986925423,2.3210000924776484,-0.09999999922536333
0.03718674182891846,-0.040462009608745575,9.876331329345703,0.013199999928474426,0.018400000408291817,0.05889999866485596,2.7480000406115734,3.5710000561142636,0.10299999973573276
0.039724595844745636,-0.037857115268707275,9.886884689331055,0.03280000016093254,0.02070000022649765,0.06870000064373016,-2.3140000023520315,8.74799956724655,-0.08899999957737763
0.04545152559876442,-0.03318363428115845,9.873726844787598,0.056599996984004974,0.026999998837709427,0.05889999866485596,-1.1949999720667932,-6.512000111772653,-0.048000001495804245
0.038450878113508224,-0.0663481131196022,9.87041187286377,0.03869999945163727,0.0007999999797903001,0.04910000041127205,1.5949999689682466,-9.928000123730877,0.03899999996469596
0.03378697484731674,-0.06817728281021118,9.860567092895508,0.0015999999595806003,-0.013299999758601189,0.03929999843239784,-2.302000000310554,12.647000248343636,0.08899999957737763
0.03973417356610298,-0.05406107380986214,9.858020782470703,0.045899998396635056,0.01249999925494194,0.03929999843239784,-2.842000092177051,5.26300013051921,-0.0749999994190225
0.03664086014032364,-0.05240428447723389,9.854830741882324,0.05040000006556511,0.02019999921321869,0.039400000125169754,-2.6049999984970134,-4.387999963874509,-0.07699999753589991
0.042837053537368774,-0.06437529623508453,9.869254112243652,0.04800000041723251,0.017500000074505806,0.04919999837875366,-2.7179999287861736,-7.223999948309115,0.06200000165415938
0.04549941048026085,-0.050153736025094986,9.84638500213623,0.028099998831748962,0.034699998795986176,0.029600000008940697,0.33300000329015367,-7.560000005470491,0.006000000186975531
0.05431964993476868,-0.059969961643218994,9.849851608276367,0.0072999997064471245,0.03370000049471855,0.03949999809265137,1.2400000330831875,-10.251999538520542,-0.03100000082707969
0.04801810905337334,-0.06342719495296478,9.846624374389648,-0.025999998673796654,0.013899999670684338,0.02979999966919422,-2.5310000214818027,6.695999858484096,0.04900000055424296
0.04485776275396347,-0.04151545837521553,9.860788345336914,-0.017500000074505806,0.040300000458955765,0.03949999809265137,-4.3250000065176035,0.7500000208706514,-0.21999999295971404
0.03871902823448181,-0.05076665058732033,9.8529634475708,-0.01549999974668026,0.04230000078678131,0.02979999966919422,-1.7219999727869348,11.78499963923676,0
0.04180276021361351,-0.05356308072805405,9.869369506835938,0.02070000022649765,0.04739999771118164,0.04939999803900719,2.595999943605052,4.5079999842892855,-0.04600000004387353
0.0571160763502121,-0.059299588203430176,9.869292259216309,0.04129999876022339,0.031300000846385956,0.049300000071525574,3.6939998102351455,-12.353999647102075,0.024999999806340833
0.045844174921512604,-0.06540001928806305,9.855932235717773,-0.002300000051036477,0.020999999716877937,0.03949999809265137,-0.04500000098543482,-11.868000098030755,-0.11599999750059588
0.038259342312812805,-0.06497863680124283,9.8811674118042,-0.044599998742341995,0.020999999716877937,0.05929999798536301,-2.4269999326411917,14.901000240488278,0.019000000453128628
0.04003105312585831,-0.06254612654447556,9.858144760131836,0.006000000052154064,0.02759999968111515,0.03949999809265137,3.0329999290141108,-8.927999811312127,-0.041000001416626686
0.027475858107209206,-0.05453033745288849,9.867463111877441,-0.04099999740719795,0.027899999171495438,0.049300000071525574,-4.528999827779313,2.994999958123333,-0.09300000248123906
0.03559699282050133,-0.05341942980885506,9.858585357666016,-0.024000000208616257,0.038599997758865356,0.03959999978542328,0.48299997544777223,2.191000034787738,0.015999999942759198
0.05096776410937309,-0.05366842821240425,9.846997261047363,0.0015999999595806003,0.03720000013709068,0.02969999983906746,-3.7449999789939845,8.795999575412461,-0.11599999750059588
0.046246398240327835,-0.05395573005080223,9.845369338989258,0.01589999906718731,0.04729999974370003,0.02979999966919422,2.5369999157808354,1.264000037166143,0.22700000304405152
0.05170518159866333,-0.056455276906490326,9.844833374023438,0.029099998995661736,0.04019999876618385,0.019899999722838402,4.502000089990252,12.79399957966065,0.021999999295971403
0.04516422376036644,-0.04743392392992973,9.847371101379395,0.05869999900460243,0.035999998450279236,0.029600000008940697,1.0619999672273661,-15.617000433444252,-0.14399999781730613
0.03644932433962822,-0.06381984055042267,9.856554985046387,0.011399999260902405,0.013700000010430813,0.039400000125169754,1.9069999153249613,9.6699999731174,-0.1199999937343507
0.03728250786662102,-0.05892609432339668,9.85171890258789,0.03779999911785126,0.00839999970048666,0.029600000008940697,-2.0320000610990108,17.76499930476488,0.024000000747902123
0.04551856219768524,-0.04810430109500885,9.8638334274292,0.09609999507665634,0.02369999885559082,0.03959999978542328,-0.5900000114378995,-6.638000026486463,-0.19499999315337319
0.05412811413407326,-0.044896069914102554,9.851373672485352,0.08749999850988388,0.03500000014901161,0.02969999983906746,3.1999999752116266,0.9039999759218116,0.12499999903170415
0.04978024214506149,-0.04860229417681694,9.872797012329102,0.08999999612569809,0.01529999915510416,0.049300000071525574,3.6500001584887465,13.908999787134904,0.08100000043976135
0.04847779497504234,-0.05076665058732033,9.866275787353516,0.12299999594688416,0.006399999838322401,0.04939999803900719,4.17199992712791,-16.53000035753632,0.0659999978879142
0.04608359560370445,-0.07604942470788956,9.864542007446289,0.14749999344348907,-0.026799999177455902,0.04969999939203262,0.021999999295971403,18.239000772785428,-0.08899999957737763
0.036458905786275864,-0.06075526028871536,9.856392860412598,0.1808999925851822,-0.016999999061226845,0.0405999980866909,-3.3199999956264037,15.318000364790482,-0.14799999405106096
0.04638047516345978,-0.04707000404596329,9.86344051361084,0.1808999925851822,-0.016999999061226845,0.0405999980866909,-0.6709999718570212,43.329999509603454,0.06299999737754478
0.04225287213921547,-0.05952943116426468,9.848194122314453,0.2425999939441681,0.013899999670684338,0.041600000113248825,-1.2590000185285763,17.84699914084547,0.06800000267489824
0.038498762995004654,-0.05305550992488861,9.845109939575195,0.37869998812675476,0.008899999782443047,0.0357000008225441,5.973999771229089,5.751999840183457,-0.14900000311465958
0.04673481732606888,-0.04682100564241409,9.85090446472168,0.3933999836444855,0.0023999998811632395,0.03619999811053276,2.8599999885175618,-4.567999781053262,-0.03999999902313467
0.04588248208165169,-0.06176082789897919,9.863201141357422,0.3797999918460846,-0.024899998679757118,0.045499999076128006,-4.620000145638685,-10.260000251359566,-0.1419999930303221
0.04791276529431343,-0.06001785025000572,9.850894927978516,0.35679998993873596,-0.010699999518692493,0.03460000082850456,0.8949999743907032,-2.081000051648094,-0.006000000186975531
0.0459686741232872,-0.05149449035525322,9.84033203125,0.3407999873161316,-0.003000000026077032,0.02459999918937683,-0.283000003677472,-37.95700046316166,-0.007000000079177565
0.04350743442773819,-0.05225105583667755,9.859580993652344,0.23579999804496765,-0.002199999988079071,0.0414000004529953,0.7829999731238623,-70.97199706179309,-0.2150000010025738
0.04244440793991089,-0.04552813991904259,9.850234031677246,0.0405999980866909,0.005399999674409628,0.029399998486042023,5.5240000148387916,26.262999434236978,0.06700000028140622
0.03578852862119675,-0.05382165685296059,9.846882820129395,0.10199999809265137,-0.01939999870955944,0.02969999983906746,2.5489999178223135,-39.98999943942678,-0.1719999981340164
0.052567094564437866,-0.06580223888158798,9.858278274536133,0.011599999852478504,-0.03619999811053276,0.03920000046491623,1.5740000187565135,-13.79499966101916,0.06399999977103679
0.04592078924179077,-0.057336341589689255,9.863029479980469,-0.03619999811053276,-0.03059999831020832,0.039400000125169754,-1.5409999597815969,-32.54099854570546,-0.2549999900205486
0.04744350165128708,-0.06319735199213028,9.869464874267578,-0.12549999356269836,-0.03610000014305115,0.050200000405311584,-4.770999833375212,5.7409998205251505,0.07600000181251451
0.04739561676979065,-0.050153736025094986,9.85754108428955,-0.10969999432563782,-0.013199999928474426,0.04019999876618385,3.2660000931614594,21.37300063004722,-0.007999999971379599
0.04488649219274521,-0.05030696466565132,9.863402366638184,-0.0510999970138073,-0.02199999988079071,0.03949999809265137,7.9629999495214605,39.193998948269744,0.03899999996469596
0.06151182949542999,-0.05104437842965126,9.85526180267334,0.07569999992847443,-0.043800000101327896,0.03920000046491623,-4.681000138229246,54.64799862471894,-0.06700000028140622
0.037569813430309296,-0.053994037210941315,9.852264404296875,0.19569998979568481,-0.030799999833106995,0.03099999949336052,-10.195999671289254,-31.246998716879038,-0.18099999966512467
0.0376751609146595,-0.07561846822500229,9.849381446838379,0.10989999771118164,-0.02239999920129776,0.029899999499320984,-2.0430000807573165,-7.390000012123458,-0.07600000181251451
0.039561789482831955,-0.061339445412158966,9.837620735168457,0.09919999539852142,-0.006899999920278788,0.019899999722838402,5.300999887966576,23.602000422282323,0.09899999683187131
0.0423007532954216,-0.060372188687324524,9.845044136047363,0.16339999437332153,-0.021399999037384987,0.030299998819828033,4.014999918205527,9.004000179980505,0.06500000216452881
0.03789542242884636,-0.0639922246336937,9.846882820129395,0.1808999925851822,-0.03370000049471855,0.030700000002980232,14.526000656939775,34.5549993507942,-0.015999999942759198
0.05575616657733917,-0.05363012105226517,9.843520164489746,0.28279998898506165,-0.05859999731183052,0.022599998861551285,-5.7459999458844235,-11.25000031305977,0.23499999551156117
0.04473326355218887,-0.06618531048297882,9.849123001098633,0.24149999022483826,-0.05249999836087227,0.031700000166893005,3.233000034186543,-13.16599985638987,0.1199999937343507
0.048209644854068756,-0.07407660037279129,9.850253105163574,0.21459999680519104,-0.07099999487400055,0.030899999663233757,2.0259999533565662,8.26100024923547,0.28199999461387343
0.03019567020237446,-0.04879382997751236,9.86851692199707,0.22669999301433563,-0.0568000003695488,0.041200000792741776,-7.749999646480967,24.260000356353842,-0.02899999937514897
0.036602552980184555,-0.0543866828083992,9.8494873046875,0.22369998693466187,-0.06379999965429306,0.0510999970138073,15.299999401232913,16.541000377194624,-0.0009999999964224499
0.04414907842874527,-0.048707637935876846,9.857684135437012,0.3434999883174896,-0.08410000056028366,0.04429999738931656,-14.173000258934238,-20.358000368437477,0.3439999962680328
0.03348051756620407,-0.046763546764850616,9.853202819824219,0.27709999680519104,-0.03529999777674675,0.03280000016093254,-14.515999552447584,-15.08299916865973,0.05999999686717535
0.03950433060526848,-0.04829583689570427,9.865326881408691,0.24469999969005585,-0.005200000014156103,0.05139999836683273,0.8570000034999258,2.5579999727142746,0.06800000267489824
0.028921956196427345,-0.06420291215181351,9.851633071899414,0.2418999969959259,-0.01759999990463257,0.03189999982714653,15.976000298862,6.503999825820452,0.1390000058601659
0.05675215646624565,-0.057738568633794785,9.861822128295898,0.27629998326301575,-0.05570000037550926,0.041999999433755875,13.952999865768128,4.513000109648559,-0.59999999535218
0.05167644843459129,-0.06071695312857628,9.857560157775879,0.28769999742507935,-0.09369999915361404,0.042399998754262924,-0.3190000098019052,-8.726000381703585,-0.5020000142540139
0.04978024214506149,-0.05452075973153114,9.847821235656738,0.2629999816417694,-0.0828000009059906,0.03199999779462814,10.305999867872309,-7.560999774410251,-1.1949999720667932
0.058686673641204834,-0.057786453515291214,9.845426559448242,0.25119999051094055,-0.12049999833106995,0.031700000166893005,2.0070000746328835,12.070000381412944,0.07699999753589991
0.050153736025094986,-0.05017289146780968,9.840657234191895,0.2735999822616577,-0.11589999496936798,0.022699998691678047,0.47899999255423065,-12.08799963742322,-1.3469999623516091
0.0438426211476326,-0.05101565271615982,9.831645965576172,0.22989998757839203,-0.11679999530315399,0.01209999993443489,0.6099999792664604,0.3379999952472939,1.780000018227979
0.04220498725771904,-0.06834966689348221,9.856707572937012,0.22999998927116394,-0.13779999315738678,0.04149999842047691,1.6369999761134186,-3.0610000760731664,0.9750000057875057
0.032858025282621384,-0.05607220530509949,9.848835945129395,0.210999995470047,-0.12239999324083328,0.031599998474121094,9.129000325754555,12.26000002242342,0.03400000133744912
0.04511633515357971,-0.05339069664478302,9.848989486694336,0.25360000133514404,-0.1469999998807907,0.032499998807907104,-1.962000013616489,13.475000175762187,0.07399999702553048
0.04713704437017441,-0.06134902685880661,9.856966972351074,0.29420000314712524,-0.15029999613761902,0.043299999088048935,-6.455000048714781,-3.3900000431089254,-0.5219999820825748
0.033921051770448685,-0.057221420109272,9.866496086120605,0.27549999952316284,-0.12459999322891235,0.05269999802112579,0.9610000389796836,6.085000163638727,0.07099999651516105
0.045298296958208084,-0.0631590411067009,9.853470802307129,0.3010999858379364,-0.13660000264644623,0.03350000083446503,3.008999924931155,-9.491000351765232,-1.6650000164507686
0.03338475152850151,-0.053448159247636795,9.860184669494629,0.2644999921321869,-0.13449999690055847,0.04270000010728836,2.1229999520715603,4.921000179058801,4.402999913065503
0.035415031015872955,-0.05465483292937279,9.856995582580566,0.2768999934196472,-0.14019998908042908,0.04309999942779541,-2.5229999489730135,-5.487999795270946,-1.8799999640924894
0.03191949799656868,-0.06554366648197174,9.86158275604248,0.25920000672340393,-0.14169999957084656,0.042500000447034836,1.9569998882572166,8.39100009348197,0.035000000395887826
0.04056735336780548,-0.06406883895397186,9.855731010437012,0.2883000075817108,-0.14589999616146088,0.04309999942779541,-2.9009999065578556,-3.848000085451423,-0.31699999167470794
0.04974193498492241,-0.03789542242884636,9.847620010375977,0.28669998049736023,-0.10809999704360962,0.032899998128414154,5.747999910650767,1.8079999518436232,0.25100000712700693
0.03204399347305298,-0.06496905535459518,9.845148086547852,0.2710999846458435,-0.15289999544620514,0.03309999778866768,-0.26300000916848465,2.2809999433771146,-0.06899999839828364
0.056053049862384796,-0.06347507238388062,9.837142944335938,0.28630000352859497,-0.1516999900341034,0.033299997448921204,0.6639999884531101,-6.146999925169049,-0.7530000213810208
0.03319321200251579,-0.07720821350812912,9.835916519165039,0.27629998326301575,-0.15320000052452087,0.023000000044703484,4.628000004704063,-0.6570000050491991,0.6230000170519632
0.04281790181994438,-0.05613924190402031,9.833503723144531,0.24889999628067017,-0.15619999170303345,0.012899999506771564,1.0650000210985886,4.343999885241287,0.12700000381868817
0.04395754262804985,-0.05604347214102745,9.848960876464844,0.25999999046325684,-0.15860000252723694,0.03280000016093254,-2.980999991315511,4.539000078497858,0.0019999999928448997
0.03170880675315857,-0.050201620906591415,9.861917495727539,0.26179999113082886,-0.14999999105930328,0.042799998074769974,-3.0339999113972826,1.073999969268844,-0.283000003677472
0.04167826473712921,-0.051312532275915146,9.853346824645996,0.27410000562667847,-0.14010000228881836,0.032899998128414154,-1.2960000070361817,1.8819999288588338,-0.31099999065396905
0.043612778186798096,-0.06071695312857628,9.850061416625977,0.2777999937534332,-0.14639998972415924,0.032999999821186066,-1.3159999748647426,5.625999925469646,-0.2890000046982109
0.025445574894547462,-0.06684611737728119,9.849889755249023,0.2727999985218048,-0.14229999482631683,0.033299997448921204,-1.6880000381505518,6.462000138840398,-0.12299999424472013
0.028902802616357803,-0.06092764809727669,9.848845481872559,0.2994000017642975,-0.1371999979019165,0.033799998462200165,-2.4649999035319694,-1.031999962123672,-0.1620000008795227
0.04203260317444801,-0.061981093138456345,9.857426643371582,0.30550000071525574,-0.12999999523162842,0.04339999705553055,1.5060000427620417,3.0760000252641606,0.031999999885518396
0.042521022260189056,-0.0730997696518898,9.836395263671875,0.3130999803543091,-0.14350000023841858,0.024000000208616257,1.9260000074920558,0.650000021645288,0.18799999640924894
0.03862326219677925,-0.07134721428155899,9.841318130493164,0.3138999938964844,-0.14839999377727509,0.02410000003874302,-2.9359999302991167,-4.506999788462702,-0.20200000323771067
0.05161898955702782,-0.0486980639398098,9.847227096557617,0.31049999594688416,-0.12029999494552612,0.03350000083446503,-1.6979999687039793,-3.9669999100396165,-0.2469999975530389
0.052002061158418655,-0.06370491534471512,9.844239234924316,0.2987000048160553,-0.1251000016927719,0.02329999953508377,2.6339999144958295,2.0839999987976103,0.1509999945614304
0.038307227194309235,-0.053208738565444946,9.850013732910156,0.2936999797821045,-0.12209999561309814,0.033299997448921204,1.5459999784191636,-4.570999941646191,0.21299999621558977
0.04473326355218887,-0.04826710373163223,9.84579086303711,0.28029999136924744,-0.125900000333786,0.032999999821186066,-2.917000051575434,-3.3670000214091425,-0.13300000483942703
0.05374504253268242,-0.053802501410245895,9.853711128234863,0.2800999879837036,-0.11759999394416809,0.032600000500679016,1.9470000644254948,1.5449999960359913,0.019000000453128628
0.062172628939151764,-0.04966532066464424,9.848941802978516,0.29319998621940613,-0.1224999949336052,0.03280000016093254,-2.4320000580004644,0.1199999937343507,-0.22100000202331266
0.06318777054548264,-0.05465483292937279,9.849698066711426,0.29269999265670776,-0.11549999564886093,0.03269999846816063,1.9999999845072665,1.7039999697247181,0.09899999683187131
0.052806511521339417,-0.06669288873672485,9.844449996948242,0.28669998049736023,-0.13040000200271606,0.023000000044703484,-1.9090000935347173,0.6709999718570212,0.10900000075647161
0.04008851200342178,-0.05066130682826042,9.854103088378906,0.27789998054504395,-0.11499999463558197,0.03280000016093254,1.6919999676832405,0.45300002370493087,0.09600000299160849
0.040059782564640045,-0.060554150491952896,9.854227066040039,0.2782999873161316,-0.1290999948978424,0.032899998128414154,0.6660000065803073,2.8289998943089896,-0.0009999999964224499
0.029697677120566368,-0.05506663769483566,9.85908317565918,0.27539998292922974,-0.12079999595880508,0.042899999767541885,-2.1550000286633044,-0.6179999984143966,-0.20800000425844953
0.04827668517827988,-0.053189586848020554,9.847122192382812,0.28439998626708984,-0.11659999936819077,0.03269999846816063,0.5240000002097721,2.992999993356989,-0.029999998433587676
0.03895844891667366,-0.05670427158474922,9.851728439331055,0.28200000524520874,-0.11759999394416809,0.032899998128414154,1.8469999051175727,1.7910000378862845,0.2890000046982109
0.04291366785764694,-0.04476199299097061,9.84939193725586,0.28200000524520874,-0.11759999394416809,0.032899998128414154,-0.14300000209392072,3.1999999752116266,0.1070000026395942
0.049722783267498016,-0.05622543394565582,9.845044136047363,0.30379998683929443,-0.1216999962925911,0.033299997448921204,-1.974999998041139,1.9269999898752281,-0.13300000483942703
0.04578671231865883,-0.06071695312857628,9.849295616149902,0.29839998483657837,-0.1256999969482422,0.033399999141693115,-1.1359999442425768,-0.59999999535218,-0.06500000216452881
0.04568136855959892,-0.059184666723012924,9.847639083862305,0.29589998722076416,-0.12219999730587006,0.033299997448921204,-2.0350000082485273,1.3630000006474812,-0.10400000212922476
0.039513904601335526,-0.04363192990422249,9.840408325195312,0.2992999851703644,-0.09600000083446503,0.023499999195337296,-1.2410000154663596,-1.122999959817927,-0.13499999628619785
0.04191768169403076,-0.05966350436210632,9.838186264038086,0.29569998383522034,-0.11229999363422394,0.023399999365210533,-0.6429999848805241,-0.4849999935749695,0.04200000047506539
0.032101456075906754,-0.06282385438680649,9.845924377441406,0.28380000591278076,-0.11019999533891678,0.03309999778866768,0.1390000058601659,2.6500000595134074,0.0039999999856897995
0.039657559245824814,-0.053706735372543335,9.858881950378418,0.29999998211860657,-0.10049999505281448,0.04309999942779541,0.4420000040466253,1.5360000478657359,-0.0969999987149939
0.0469263531267643,-0.05379292368888855,9.860912322998047,0.3033999800682068,-0.1013999953866005,0.04319999739527702,1.5810000021604245,-1.2869999521442204,0.13799999679656727
0.05075707659125328,-0.053898271173238754,9.8450345993042,0.30879998207092285,-0.10539999604225159,0.033299997448921204,0.47299999153349176,-1.6079999533928964,-0.13700000107318186
0.04441722854971886,-0.060745686292648315,9.845436096191406,0.2937999963760376,-0.10639999806880951,0.03319999948143959,0.9930000088497223,1.7419999406154956,0.15200000362502902
0.04441722854971886,-0.060745686292648315,9.845436096191406,0.29319998621940613,-0.1119999960064888,0.03309999778866768,0.9930000088497223,1.7419999406154956,0.15200000362502902
0.04472368583083153,-0.05491340905427933,9.839756965637207,0.2970999777317047,-0.1046999990940094,0.023399999365210533,0.015999999942759198,0.16999999334703236,-0.13600000534979648
0.02836650051176548,-0.06591715663671494,9.839929580688477,0.1639000028371811,-0.06749999523162842,0.020800000056624413,0.8690000055414034,-1.1389999981137993,0.03699999851276524
0.03584598749876022,-0.04707958176732063,9.856287002563477,0.21939998865127563,-0.0737999975681305,0.04129999876022339,-0.46600000812958076,1.7979999145684897,-0.08400000095013078
0.05064215511083603,-0.06761226058006287,9.843578338623047,0.26019999384880066,-0.10869999974966049,0.022199999541044235,0.6849999920256962,-0.5410000208888165,-0.10199999734224074
0.033470939844846725,-0.06723876297473907,9.852446556091309,0.2506999969482422,-0.11539999395608902,0.03229999914765358,-0.41600000851689906,1.7459999768698902,-0.006000000186975531
0.04118026793003082,-0.06083187833428383,9.851009368896484,0.2733999788761139,-0.10779999941587448,0.032600000500679016,-0.6630000060699379,1.1490000353889325,-0.14300000209392072
0.03919786959886551,-0.05175306275486946,9.85708236694336,0.282399982213974,-0.0982000008225441,0.04259999841451645,0.8219999797586648,0.10600000024610218,0.19099999691961836
0.04315309226512909,-0.05991250276565552,9.856401443481445,0.28630000352859497,-0.11149999499320984,0.04270000010728836,0.3439999962680328,-0.8059999948236455,-0.007999999971379599
0.037359122186899185,-0.060056157410144806,9.845962524414062,0.2766999900341034,-0.11339999735355377,0.032999999821186066,-0.12499999903170415,-0.9169999603464615,-0.11400000605382507
0.037359122186899185,-0.060056157410144806,9.845962524414062,0.2766999900341034,-0.11339999735355377,0.032999999821186066,-0.12499999903170415,-0.9169999603464615,-0.11400000605382507
0.05187756195664406,-0.058025870472192764,9.856689453125,0.29189997911453247,-0.11159999668598175,0.04259999841451645,-0.4139999903897018,0.5480000042927274,-0.015999999942759198
0.04908113554120064,-0.04997177794575691,9.853288650512695,0.2939999997615814,-0.1005999967455864,0.032899998128414154,0.25400000763737635,0.5519999871862691,0.05999999686717535
0.04569094628095627,-0.056292470544576645,9.862961769104004,0.2854999899864197,-0.10130000114440918,0.04270000010728836,-0.4879999940853389,0.6639999884531101,-0.07600000181251451
0.0376751609146595,-0.056455276906490326,9.85205364227295,0.27730000019073486,-0.09989999979734421,0.032899998128414154,0.006000000186975531,1.060999984844194,0.03400000133744912
0.04315309226512909,-0.06040092185139656,9.858144760131836,0.2895999848842621,-0.1096000000834465,0.042799998074769974,1.073999969268844,-0.6609999879427407,0.09399999820462447
0.03376782312989235,-0.05262455344200134,9.860270500183105,0.2775000035762787,-0.10260000079870224,0.042799998074769974,-0.0539999991814898,0.5579999882070079,0
0.03869987651705742,-0.048353299498558044,9.83002758026123,0.28849998116493225,-0.1021999940276146,0.013399999588727951,-0.4019999883482241,-0.9550000379589447,-0.12700000381868817
0.040299203246831894,-0.05583278089761734,9.837295532226562,0.2856000065803528,-0.10099999606609344,0.023099999874830246,-0.7909999922717983,0.2159999967259592,-0.023000000021936765
0.04382346570491791,-0.058073755353689194,9.853346824645996,0.2854999899864197,-0.10839999467134476,0.032899998128414154,-0.2710000016359943,-0.7140000147462182,-0.07799999992939192
0.037828389555215836,-0.05136999115347862,9.85651683807373,0.27309998869895935,-0.09759999811649323,0.04259999841451645,-0.09999999922536333,-1.1670000384511492,-0.10600000024610218
0.04410119727253914,-0.057096924632787704,9.857474327087402,0.2789999842643738,-0.09709999710321426,0.042500000447034836,-0.1939999974299878,0.6380000196038104,0.017999999727163266
0.04526956379413605,-0.06222051382064819,9.852924346923828,0.2800999879837036,-0.10610000044107437,0.03269999846816063,-0.19900000272734125,-0.7360000007019765,-0.007000000079177565
0.04398627579212189,-0.05334281548857689,9.85641098022461,0.27730000019073486,-0.09549999982118607,0.042500000447034836,0.03699999851276524,-1.3430000328189202,0.0859999990670082
0.03826892003417015,-0.05951027572154999,9.85607624053955,0.26319998502731323,-0.10520000010728836,0.042399998754262924,-0.17700000343136985,-0.035000000395887826,-0.0749999994190225
0.04243483021855354,-0.06729622185230255,9.856085777282715,0.19449999928474426,-0.08159999549388885,0.0405999980866909,-0.28199999461387343,1.2280000310417098,-0.08200000283325337
0.04114196076989174,-0.04789361357688904,9.859992980957031,0.20999999344348907,-0.0802999958395958,0.041099999099969864,-0.6900000106632628,1.3959999529006921,-0.13700000107318186
0.03892971947789192,-0.04916732758283615,9.859465599060059,0.25209999084472656,-0.0786999985575676,0.04179999977350235,-0.3510000063523703,0.8200000149923204,-0.049999999612681666
0.03415089473128319,-0.05887820944190025,9.844985961914062,0.25189998745918274,-0.09059999883174896,0.03219999745488167,-1.0590000200778498,1.19999999070436,-0.017999999727163266
0.04710831493139267,-0.06038176640868187,9.855789184570312,0.26999998092651367,-0.08989999443292618,0.0421999990940094,-0.7570000042745624,1.3639999830306535,-0.21299999621558977
0.04139095917344093,-0.057930104434490204,9.853595733642578,0.27709999680519104,-0.08919999748468399,0.032600000500679016,-0.19099999691961836,-0.14399999781730613,0.007000000079177565
0.0444268062710762,-0.060630764812231064,9.836271286010742,0.27879998087882996,-0.08969999849796295,0.02279999852180481,0.6020000134793773,-1.1740000218550601,-0.024999999806340833
0.036171600222587585,-0.06423164159059525,9.848366737365723,0.2671000063419342,-0.09189999848604202,0.032600000500679016,0.6039999782457216,-1.2969999894193538,0.01700000066872456
0.044963106513023376,-0.05369715392589569,9.849688529968262,0.27410000562667847,-0.08410000056028366,0.032499998807907104,-0.06099999926066736,-0.6870000101528934,0.04600000004387353
0.0489279069006443,-0.05366842821240425,9.85313606262207,0.28209999203681946,-0.08410000056028366,0.032499998807907104,-0.37400000137172706,1.1279999784554937,-0.1400000015835513
0.04886086657643318,-0.06519889831542969,9.83810043334961,0.2847999930381775,-0.09309999644756317,0.022699998691678047,0.26000000865811523,-0.6059999963729188,-0.007000000079177565
0.037617698311805725,-0.047002967447042465,9.849544525146484,0.2628999948501587,-0.07440000027418137,0.032499998807907104,0.007999999971379599,-1.640000029984641,0.019999999511567335
0.04143884405493736,-0.05498044937849045,9.850837707519531,0.26899999380111694,-0.08410000056028366,0.03240000084042549,-0.5179999991890332,1.3479999447347812,-0.17899999487814064
0.045508988201618195,-0.06390602886676788,9.863594055175781,0.27230000495910645,-0.09239999949932098,0.04230000078678131,0.41199999894293104,-1.1599999483255323,-0.01400000015835513
0.03779008239507675,-0.055009178817272186,9.843233108520508,0.2587999999523163,-0.0835999995470047,0.022599998861551285,-0.19799999366374263,1.611999989647291,0.08899999957737763
0.03948517516255379,-0.047022122889757156,9.862828254699707,0.2724999785423279,-0.0731000006198883,0.04230000078678131,0.5330000017408804,-1.9759999804243111,-0.08899999957737763
0.04592078924179077,-0.06874231994152069,9.848750114440918,0.26639997959136963,-0.10409999638795853,0.03229999914765358,-0.06399999977103679,1.492999951615686,-0.05600000063342052
0.05167644843459129,-0.04403415694832802,9.854659080505371,0.2797999978065491,-0.07459999620914459,0.0421999990940094,-0.30700000776042746,-0.28699998657101367,-0.06500000216452881
0.04742434620857239,-0.0603051520884037,9.856488227844238,0.26919999718666077,-0.093299999833107,0.0421999990940094,0.36199999933024934,-1.514999990932297,-0.03999999902313467
0.040605660527944565,-0.04623682424426079,9.848491668701172,0.26499998569488525,-0.0746999979019165,0.03229999914765358,-0.24800000661663751,1.4489999797041697,0.05600000063342052
0.05806417763233185,-0.04139095917344093,9.851191520690918,0.28859999775886536,-0.07400000095367432,0.03240000084042549,-0.8179999968651231,-0.4939999951060778,0.006000000186975531
0.040912117809057236,-0.06060203164815903,9.841730117797852,0.2676999866962433,-0.09139999747276306,0.022599998861551285,-0.2589999995945166,-1.2729999853363985,-0.023000000021936765
0.048784252256155014,-0.07288907468318939,9.850875854492188,0.27399998903274536,-0.10049999505281448,0.03229999914765358,0.37400000137172706,-1.6659999988339407,-0.05999999686717535
0.04364151135087013,-0.04144842177629471,9.859859466552734,0.2595999836921692,-0.07209999859333038,0.041999999433755875,0.5639999892277469,0.6510000040284603,-0.006000000186975531
0.045250412076711655,-0.05104437842965126,9.865442276000977,0.2613999843597412,-0.08349999785423279,0.05179999768733978,0.1620000008795227,1.1190000302852383,-0.05499999823992851
0.04569094628095627,-0.059088896960020065,9.856191635131836,0.26440000534057617,-0.09369999915361404,0.04209999740123749,-0.12700000381868817,0.733000000191607,-0.057000003026912535
0.041362229734659195,-0.05824613943696022,9.847485542297363,0.27649998664855957,-0.08349999785423279,0.03229999914765358,0.2959999881021219,0.9529999664708946,0.010999999647985701
0.04923436418175697,-0.04998135194182396,9.857407569885254,0.2689000070095062,-0.094200000166893,0.03240000084042549,0.5470000219095553,0.06399999977103679,-0.035000000395887826
0.04932055622339249,-0.05006754770874977,9.86207103729248,0.28129997849464417,-0.0851999968290329,0.04230000078678131,0.3750000104353257,-0.29500000571894974,0.06899999839828364
0.032925061881542206,-0.05491340905427933,9.862502098083496,0.26100000739097595,-0.0876999944448471,0.04230000078678131,0.07300000130214508,-1.5479999431855078,-0.11200000126684104
0.04533660411834717,-0.0419464148581028,9.87477970123291,0.26100000739097595,-0.0876999944448471,0.04230000078678131,-0.3379999952472939,-0.545000003782358,-0.10199999734224074
0.038470033556222916,-0.0630345419049263,9.865548133850098,0.26479998230934143,-0.09690000116825104,0.051899999380111694,-0.3540000068627397,1.1219999774347549,0.024000000747902123
0.03900633379817009,-0.06060203164815903,9.86001205444336,0.2678000032901764,-0.09589999914169312,0.0421999990940094,0.7009999769607155,-0.4109999898793324,-0.06500000216452881
0.050651729106903076,-0.06254612654447556,9.849218368530273,0.27649998664855957,-0.09779999405145645,0.03240000084042549,-0.19499999315337319,-1.2019999554707044,-0.11400000605382507
0.03995443880558014,-0.05641696974635124,9.860078811645508,0.26339998841285706,-0.08749999850988388,0.04209999740123749,-0.5119999981682943,1.2389999439783097,0.04600000004387353
0.041103653609752655,-0.06116706505417824,9.855789184570312,0.2671999931335449,-0.09569999575614929,0.0421999990940094,0.38999998630674637,-1.2539999998910096,0.04500000098543482
0.04873637109994888,-0.049847278743982315,9.852312088012695,0.27399998903274536,-0.0867999941110611,0.03229999914765358,-0.30700000776042746,1.15899996594236,-0.19499999315337319
0.0479893796145916,-0.05485595017671585,9.867290496826172,0.27709999680519104,-0.085999995470047,0.05199999734759331,0.46099998949201404,-0.7200000157669572,-0.09500000059811649
0.041362229734659195,-0.05559336394071579,9.86616039276123,0.2653000056743622,-0.08720000088214874,0.051899999380111694,-0.3540000068627397,1.2019999554707044,-0.11200000126684104
0.03770388662815094,-0.05727888271212578,9.861726760864258,0.2587999999523163,-0.08630000054836273,0.0421999990940094,-0.1610000051561373,-0.9719999519162833,0.021000000237532696
0.04096957668662071,-0.05462610721588135,9.868114471435547,0.2655999958515167,-0.08579999953508377,0.051899999380111694,-0.04200000047506539,0.25100000712700693,-0.038000000906257256
0.04377558454871178,-0.058073755353689194,9.865001678466797,0.2662000060081482,-0.09549999982118607,0.05199999734759331,-0.3989999878378547,0.14699999832767557,-0.1189999980109653
0.038900990039110184,-0.05969223752617836,9.872078895568848,0.26659998297691345,-0.09429999440908432,0.05199999734759331,0.021000000237532696,-1.0129999766782831,0.02800000031671026
0.04034708812832832,-0.06215347722172737,9.866705894470215,0.2637999951839447,-0.09439999610185623,0.051899999380111694,0.18400000017549412,-0.7620000229121291,-0.019000000453128628
0.03563529998064041,-0.06526593863964081,9.863038063049316,0.25189998745918274,-0.09489999711513519,0.041999999433755875,0.023000000021936765,0.6380000196038104,-0.023000000021936765
0.04306689649820328,-0.0492822490632534,9.861467361450195,0.2635999917984009,-0.08509999513626099,0.04209999740123749,-0.10600000024610218,0.7149999971293904,0
0.0396958664059639,-0.06060203164815903,9.872509956359863,0.2653000056743622,-0.09470000118017197,0.051899999380111694,-0.36199999933024934,0.9060000474098617,-0.14900000311465958
0.04495352879166603,-0.06120537221431732,9.866294860839844,0.2676999866962433,-0.09369999915361404,0.05199999734759331,-0.40599999792219216,0.42899999294154895,-0.09899999683187131
0.04343082010746002,-0.05564124509692192,9.849143028259277,0.2689000070095062,-0.08269999921321869,0.03240000084042549,-0.23399998644796255,0.5129999805514666,-0.007999999971379599
0.03919786959886551,-0.045652639120817184,9.86136245727539,0.2703000009059906,-0.07229999452829361,0.0421999990940094,-0.4519999879609058,0.2549999900205486,-0.03899999996469596
0.047596730291843414,-0.05609135702252388,9.868008613586426,0.2708999812602997,-0.08079999685287476,0.05199999734759331,-0.27500001120996237,0.4510000055777336,0.04600000004387353
0.045259989798069,-0.0622013583779335,9.862090110778809,0.2721000015735626,-0.08989999443292618,0.04230000078678131,-0.012000000373951061,0.8530000206063841,0.0329999989439571
0.047213658690452576,-0.05791094899177551,9.868574142456055,0.274399995803833,-0.08980000019073486,0.05209999904036522,0.15999999609253868,0.4190000090272685,-0.11699999322398127
0.043852198868989944,-0.05324704572558403,9.862386703491211,0.27549999952316284,-0.08049999922513962,0.042399998754262924,0.26600000967885407,-0.6879999925360656,0.035000000395887826
0.04099830985069275,-0.06274724006652832,9.879730224609375,0.2735999822616577,-0.0811999961733818,0.05209999904036522,-0.1390000058601659,0.5789999917795939,-0.038000000906257256
0.04258805885910988,-0.04996220022439957,9.857684135437012,0.27129998803138733,-0.09099999815225601,0.06189999729394913,-0.1390000058601659,0.5789999917795939,-0.038000000906257256
0.062028978019952774,-0.061004262417554855,9.853950500488281,0.29330000281333923,-0.09079999476671219,0.032499998807907104,0.09600000299160849,-0.4510000055777336,-0.07399999702553048
0.04511633515357971,-0.05257666856050491,9.867032051086426,0.27239999175071716,-0.0811999961733818,0.05209999904036522,-0.009999999755783667,0.46900000863995017,-0.019999999511567335
0.058025870472192764,-0.06109045073390007,9.857608795166016,0.29330000281333923,-0.09099999815225601,0.04230000078678131,0.27899999410350396,-0.3450000053316314,-0.03400000133744912
0.05359181389212608,-0.06028600037097931,9.857369422912598,0.282399982213974,-0.0916999951004982,0.04230000078678131,-0.3100000082707969,0.11500000177721047,-0.023000000021936765
0.045010991394519806,-0.06381026655435562,9.846212387084961,0.2728999853134155,-0.09079999476671219,0.032499998807907104,-0.07399999702553048,-0.4270000014947782,-0.05600000063342052
0.040701426565647125,-0.05095818638801575,9.865030288696289,0.271699994802475,-0.08079999685287476,0.05209999904036522,-0.13100000005244303,0.35899999881987993,-0.06500000216452881
0.03417004644870758,-0.05405149981379509,9.853059768676758,0.262800008058548,-0.0803999975323677,0.032499998807907104,0.007999999971379599,-0.26200000010488605,0.03400000133744912
0.03343263268470764,-0.06376238167285919,9.850244522094727,0.2619999945163727,-0.09019999951124191,0.032499998807907104,-0.035000000395887826,0.03699999851276524,-0.014999999216793838
0.0472806952893734,-0.05363012105226517,9.869828224182129,0.27160000801086426,-0.08020000159740448,0.05209999904036522,-0.26900001018922354,0.7829999731238623,-0.09300000248123906
0.046102747321128845,-0.055507171899080276,9.858470916748047,0.2733999788761139,-0.07959999889135361,0.04230000078678131,-0.06299999737754478,-0.3890000039235742,-0.05499999823992851
0.04552813991904259,-0.058475982397794724,9.859313011169434,0.27230000495910645,-0.08919999748468399,0.04230000078678131,0.10199999734224074,-0.4109999898793324,-0.09399999820462447
0.0574704185128212,-0.055057063698768616,9.868268013000488,0.2906999886035919,-0.07959999889135361,0.05199999734759331,0.012000000373951061,0.04900000055424296,0.029999998433587676
0.043612778186798096,-0.056579772382974625,9.882057189941406,0.2709999978542328,-0.07959999889135361,0.061799999326467514,-0.12299999424472013,0.28600000418784144,-0.03899999996469596
0.04981854930520058,-0.051504068076610565,9.871752738952637,0.281499981880188,-0.07919999957084656,0.05209999904036522,-0.09800000110848592,0.2920000052085803,-0.10999999647985702
0.044062890112400055,-0.06571605056524277,9.855711936950684,0.27239999175071716,-0.08869999647140503,0.04230000078678131,-0.26300000916848465,0.325000010822644,-0.03699999851276524
0.033164482563734055,-0.06011361628770828,9.859590530395508,0.26339998841285706,-0.08799999952316284,0.04230000078678131,-0.2680000011256249,0.27200001069959295,0.015999999942759198
0.03923618048429489,-0.04163037985563278,9.851881980895996,0.27390000224113464,-0.06759999692440033,0.032499998807907104,0.12199999852133472,0.10499999785261017,0.0019999999928448997
0.04307647794485092,-0.06256527453660965,9.859322547912598,0.2736999988555908,-0.08739999681711197,0.04230000078678131,0.06299999737754478,-0.25599999908414717,0.0329999989439571
0.033068712800741196,-0.04895663633942604,9.857789993286133,0.2630999982357025,-0.07769999653100967,0.04230000078678131,0.15599999985878385,-0.23300000406479038,-0.05300000012305109
0.033518824726343155,-0.05483679473400116,9.864474296569824,0.2624000012874603,-0.07809999585151672,0.05209999904036522,0.05799999875029794,-0.15800000464576788,-0.009999999755783667
0.04673481732606888,-0.060985106974840164,9.855865478515625,0.27129998803138733,-0.08799999952316284,0.0421999990940094,-0.08700000146050021,0.16800000190026157,-0.05600000063342052
0.03559699282050133,-0.04900452122092247,9.859198570251465,0.26159998774528503,-0.07779999822378159,0.0421999990940094,-0.11299999699022645,0.2589999995945166,0.021999999295971403
0.04297113046050072,-0.045652639120817184,9.861007690429688,0.2719999849796295,-0.06759999692440033,0.04230000078678131,0.07699999753589991,-0.03999999902313467,0
0.04338293522596359,-0.05068046227097511,9.856689453125,0.27140000462532043,-0.07750000059604645,0.0421999990940094,0.01700000066872456,-0.17899999487814064,-0.041000001416626686
0.03595133125782013,-0.060908492654561996,9.873448371887207,0.26080000400543213,-0.08729999512434006,0.05199999734759331,-0.09600000299160849,0.029999998433587676,-0.03899999996469596
0.049914319068193436,-0.05372588708996773,9.871810913085938,0.2800999879837036,-0.0771000012755394,0.05199999734759331,-0.07600000181251451,-0.035000000395887826,-0.05600000063342052
0.05258624628186226,-0.05635950714349747,9.866572380065918,0.27889999747276306,-0.0754999965429306,0.05199999734759331,-0.035000000395887826,-0.4070000069857908,0.01400000015835513
0.047951072454452515,-0.052097827196121216,9.858412742614746,0.27889999747276306,-0.0754999965429306,0.05199999734759331,-0.2360000045751598,0.283000003677472,0.0009999999964224499
0.037052664905786514,-0.05308423936367035,9.863546371459961,0.25849997997283936,-0.07479999959468842,0.0421999990940094,-0.26200000010488605,-0.22700000304405152,-0.009999999755783667
0.0408833883702755,-0.06564901024103165,9.870660781860352,0.26759999990463257,-0.08389999717473984,0.051899999380111694,0.11500000177721047,-0.02800000031671026,0.0030000000934877653
0.04130476713180542,-0.05792052671313286,9.867463111877441,0.2671000063419342,-0.08399999886751175,0.051899999380111694,-0.10299999973573276,-0.07099999651516105,-0.07199999890865307
0.05481764301657677,-0.04761588200926781,9.86518383026123,0.27629998326301575,-0.06399999558925629,0.051899999380111694,-0.0539999991814898,-0.04900000055424296,-0.12799999954207358
0.034064702689647675,-0.04518337547779083,9.874961853027344,0.25609999895095825,-0.06379999965429306,0.0616999976336956,0.12400000330831876,-0.1800000039417393,-0.05900000114378995
0.03824976831674576,-0.06213432177901268,9.863105773925781,0.25519999861717224,-0.08349999785423279,0.04209999740123749,-0.10999999647985702,0.006000000186975531,-0.0659999978879142
0.0441969633102417,-0.05448245257139206,9.856085777282715,0.2644999921321869,-0.07319999486207962,0.04209999740123749,-0.1079999983629796,0.0019999999928448997,-0.07600000181251451
0.03326982632279396,-0.0433637797832489,9.853500366210938,0.2540000081062317,-0.06300000101327896,0.03219999745488167,-0.15399999507179982,0.1400000015835513,0.03100000082707969
0.04028962552547455,-0.055957283824682236,9.861180305480957,0.2636999785900116,-0.0722000002861023,0.041999999433755875,-0.07900000232288394,0.07900000232288394,-0.08100000043976135
0.03995443880558014,-0.059845466166734695,9.85713005065918,0.26339998841285706,-0.08159999549388885,0.041999999433755875,-0.04900000055424296,0.049999999612681666,-0.01400000015835513
0.04210921749472618,-0.049607861787080765,9.867587089538574,0.2630999982357025,-0.07159999758005142,0.05179999768733978,-0.024999999806340833,0.048000001495804245,-0.12400000330831876
0.03973417356610298,-0.061032988131046295,9.871216773986816,0.26269999146461487,-0.0811999961733818,0.05179999768733978,-0.0969999987149939,-0.2639999915516568,-0.049999999612681666
0.044943954795598984,-0.05626374110579491,9.871744155883789,0.26190000772476196,-0.07099999487400055,0.05179999768733978,-0.06899999839828364,-0.05799999875029794,-0.038000000906257256
0.040960002690553665,-0.05675215646624565,9.872040748596191,0.2611999809741974,-0.07069999724626541,0.05179999768733978,0.23499999551156117,0.2050000037480801,-0.008999999863581633
0.040605660527944565,-0.05594770610332489,9.860577583312988,0.26170000433921814,-0.07129999995231628,0.041999999433755875,-0.13300000483942703,0.008999999863581633,-0.06500000216452881
0.043497856706380844,-0.06929777562618256,9.868630409240723,0.2611999809741974,-0.09039999544620514,0.05179999768733978,-0.02600000053230619,-0.07000000079177565,-0.14600000260429016
0.037052664905786514,-0.05281608924269676,9.87069034576416,0.2507999837398529,-0.0705999955534935,0.05179999768733978,-0.3450000053316314,-0.17100000241063099,-0.1180000022875799
0.04552813991904259,-0.06335058063268661,9.876532554626465,0.2599000036716461,-0.07939999550580978,0.06149999797344208,-0.1180000022875799,-0.09099999769425504,-0.07099999651516105
0.047146622091531754,-0.06240247189998627,9.861543655395508,0.2590999901294708,-0.07889999449253082,0.04189999774098396,0.0039999999856897995,0.06399999977103679,0.046999999102312236
0.04762545973062515,-0.04862144961953163,9.854687690734863,0.2586999833583832,-0.06889999657869339,0.04189999774098396,-0.024999999806340833,-0.0329999989439571,-0.023000000021936765
0.044752418994903564,-0.044685378670692444,9.86971378326416,0.2581000030040741,-0.05889999866485596,0.05169999971985817,-0.041000001416626686,0.10199999734224074,-0.06099999926066736
0.04736688733100891,-0.05650315806269646,9.856689453125,0.25779998302459717,-0.06839999556541443,0.04189999774098396,-0.17599999436777122,-0.12299999424472013,-0.023000000021936765
0.0483437180519104,-0.05568913370370865,9.860136985778809,0.26659998297691345,-0.06780000030994415,0.04189999774098396,0.09800000110848592,-0.22299999347008345,-0.0039999999856897995
0.04315309226512909,-0.052097827196121216,9.862061500549316,0.25599998235702515,-0.06799999624490738,0.04179999977350235,0.0039999999856897995,0.18799999640924894,-0.03599999945432653
0.03917871415615082,-0.043306320905685425,9.857244491577148,0.26569998264312744,-0.06790000200271606,0.04179999977350235,0.10400000212922476,0.1930000017066024,-0.09300000248123906
0.03593217954039574,-0.05316085368394852,9.87108325958252,0.24619999527931213,-0.06729999929666519,0.05159999802708626,-0.31999999218507735,-0.07900000232288394,-0.07000000079177565
0.04142926633358002,-0.06021896004676819,9.867673873901367,0.2556000053882599,-0.07620000094175339,0.05159999802708626,-0.12799999954207358,0.038000000906257256,0.024000000747902123
0.04324885830283165,-0.05879201367497444,9.871725082397461,0.25509998202323914,-0.07569999992847443,0.05159999802708626,-0.041000001416626686,-0.048000001495804245,0.007999999971379599
0.05890693888068199,-0.06779421120882034,9.859389305114746,0.27390000224113464,-0.08509999513626099,0.04179999977350235,0.01700000066872456,-0.10600000024610218,-0.0429999995335041
0.047998953610658646,-0.044254425913095474,9.861515998840332,0.26319998502731323,-0.05559999868273735,0.04179999977350235,0.06899999839828364,-0.0269999995907449,-0.06099999926066736
0.033825282007455826,-0.05152321979403496,9.869397163391113,0.24300000071525574,-0.06549999862909317,0.05159999802708626,0.19799999366374263,0.06200000165415938,-0.06200000165415938
0.03331771120429039,-0.04914817586541176,9.84736156463623,0.24229998886585236,-0.06579999625682831,0.03189999982714653,0.08700000146050021,-0.023000000021936765,-0.02800000031671026
0.05315127968788147,-0.05436753109097481,9.850300788879395,0.26100000739097595,-0.06579999625682831,0.03189999982714653,-0.09000000197086964,0.11099999887334903,-0.04900000055424296
0.04186980053782463,-0.05768110603094101,9.861448287963867,0.250900000333786,-0.07519999891519547,0.04169999808073044,-0.2039999946844815,-0.10499999785261017,0.03899999996469596
0.04779784381389618,-0.061100028455257416,9.867721557617188,0.25040000677108765,-0.07449999451637268,0.051500000059604645,-0.015999999942759198,-0.06500000216452881,-0.06200000165415938
0.03644932433962822,-0.06265147030353546,9.864580154418945,0.23979999125003815,-0.07429999858140945,0.051500000059604645,0.010999999647985701,-0.10600000024610218,-0.04500000098543482
0.04099830985069275,-0.05115929991006851,9.861477851867676,0.24869999289512634,-0.06439999490976334,0.04169999808073044,-0.024999999806340833,-0.009999999755783667,-0.038000000906257256
0.048401180654764175,-0.061176642775535583,9.869464874267578,0.2578999996185303,-0.07400000095367432,0.051500000059604645,0.14300000209392072,0.019999999511567335,-0.03599999945432653
0.03757939115166664,-0.0679953321814537,9.86339282989502,0.23770000040531158,-0.08389999717473984,0.041600000113248825,-0.19499999315337319,-0.1610000051561373,-0.007000000079177565
0.04389050602912903,-0.06598419696092606,9.880477905273438,0.2467999905347824,-0.07349999994039536,0.06119999662041664,-0.03599999945432653,0.01700000066872456,-0.023000000021936765
0.043900080025196075,-0.05654146522283554,9.859045028686523,0.24619999527931213,-0.06340000033378601,0.041600000113248825,-0.1180000022875799,-0.3399999866940647,-0.07699999753589991
0.0415920726954937,-0.051666874438524246,9.860548973083496,0.2449999898672104,-0.06300000101327896,0.041600000113248825,-0.043999998591942806,-0.149999998838045,-0.11200000126684104
0.04172614589333534,-0.0632835403084755,9.861037254333496,0.24390000104904175,-0.07249999791383743,0.041600000113248825,-0.031999999885518396,0.05900000114378995,0.021000000237532696
0.042262446135282516,-0.0665971115231514,9.861495971679688,0.2433999925851822,-0.0722000002861023,0.04149999842047691,-0.05300000012305109,0.08799999718388561,-0.10100000161885533
0.04114196076989174,-0.05838979035615921,9.85793399810791,0.24300000071525574,-0.07189999520778656,0.04149999842047691,-0.04500000098543482,-0.1390000058601659,-0.07799999992939192
0.05341942980885506,-0.06901046633720398,9.8529634475708,0.2514999806880951,-0.0811999961733818,0.031700000166893005,-0.0039999999856897995,-0.19000000119623298,0.019999999511567335
0.0430094376206398,-0.05798756331205368,9.865586280822754,0.24049998819828033,-0.07129999995231628,0.05130000039935112,-0.10299999973573276,0.13300000483942703,-0.10199999734224074
0.03926490619778633,-0.0627855435013771,9.865326881408691,0.2402999997138977,-0.07079999893903732,0.05130000039935112,-0.24899998899980968,-0.11400000605382507,-0.03699999851276524
0.031555578112602234,-0.05900270864367485,9.844047546386719,0.23969998955726624,-0.06019999831914902,0.031599998474121094,-0.11099999887334903,0.0859999990670082,-0.049999999612681666
0.034466926008462906,-0.06134902685880661,9.868171691894531,0.22929999232292175,-0.06879999488592148,0.05119999870657921,-0.1529999993484144,-0.15699999558216926,-0.05300000012305109
0.053706735372543335,-0.054616525769233704,9.875239372253418,0.24799999594688416,-0.05849999934434891,0.060999996960163116,-0.04200000047506539,0.004999999877891834,-0.05099999867112037
0.04931097850203514,-0.06066907197237015,9.877135276794434,0.2474999874830246,-0.06799999624490738,0.060999996960163116,-0.2069999951948509,-0.010999999647985701,-0.07900000232288394
0.038565799593925476,-0.06587885320186615,9.869138717651367,0.23709999024868011,-0.06719999760389328,0.05119999870657921,-0.15999999609253868,0.23099998593759313,0.023000000021936765
0.038000769913196564,-0.051197610795497894,9.866610527038574,0.22759999334812164,-0.05689999833703041,0.05119999870657921,-0.09600000299160849,0.07999999804626934,-0.08299999855663877
0.04161122441291809,-0.04916732758283615,9.882009506225586,0.23709999024868011,-0.056599996984004974,0.060999996960163116,-0.23300000406479038,0.009999999755783667,-0.046999999102312236
0.03664086014032364,-0.0531991608440876,9.85966682434082,0.22709999978542328,-0.055799998342990875,0.0414000004529953,-0.2069999951948509,0.08899999957737763,-0.07799999992939192
0.04661031812429428,-0.06179913505911827,9.869119644165039,0.2368999868631363,-0.06499999761581421,0.05119999870657921,-0.06700000028140622,0.02600000053230619,-0.17899999487814064
0.04201345145702362,-0.05516240745782852,9.86900520324707,0.23639999330043793,-0.05480000004172325,0.05119999870657921,0.10299999973573276,-0.09399999820462447,-0.0269999995907449
0.03812526538968086,-0.049703627824783325,9.864091873168945,0.2255999892950058,-0.054899998009204865,0.0414000004529953,-0.08799999718388561,0.06800000267489824,-0.041000001416626686
0.03998316824436188,-0.0559285506606102,9.877260208129883,0.23510000109672546,-0.054499998688697815,0.060999996960163116,-0.01700000066872456,0.07199999890865307,-0.05600000063342052
0.03651636466383934,-0.058284446597099304,9.85930347442627,0.2247999906539917,-0.0640999972820282,0.04129999876022339,-0.15599999985878385,-0.2929999875917525,0.06700000028140622
0.034543540328741074,-0.04832456633448601,9.84887409210205,0.22379998862743378,-0.05379999801516533,0.03150000050663948,0.05900000114378995,-0.14099999730693671,-0.029999998433587676
0.03568318113684654,-0.0549708716571331,9.87379264831543,0.22280000150203705,-0.05379999801516533,0.0608999989926815,0,0.024000000747902123,0.0269999995907449
0.04493437707424164,-0.05239471048116684,9.860203742980957,0.23199999332427979,-0.053700000047683716,0.04129999876022339,-0.10100000161885533,-0.029999998433587676,-0.012000000373951061
0.05492299050092697,-0.04187937453389168,9.872356414794922,0.2410999983549118,-0.04349999874830246,0.0510999970138073,0.1719999981340164,0.09999999922536333,-0.06899999839828364
0.040864236652851105,-0.05986462160944939,9.870010375976562,0.23099999129772186,-0.06340000033378601,0.0510999970138073,0.11400000605382507,-0.10199999734224074,-0.1390000058601659
0.04504929855465889,-0.05964435264468193,9.8628568649292,0.22999998927116394,-0.06350000202655792,0.041200000792741776,-0.4879999940853389,-0.10600000024610218,-0.1509999945614304
0.03569275885820389,-0.0606594942510128,9.874454498291016,0.21959999203681946,-0.06199999898672104,0.06079999729990959,-0.11699999322398127,-0.04200000047506539,-0.12499999903170415
0.05260540172457695,-0.05600516498088837,9.866992950439453,0.23849999904632568,-0.05179999768733978,0.050999999046325684,-0.014999999216793838,-0.0269999995907449,0.09099999769425504
0.03926490619778633,-0.06376238167285919,9.868593215942383,0.2280000001192093,-0.061400000005960464,0.050999999046325684,-0.041000001416626686,-0.07399999702553048,-0.12299999424472013
0.04104619100689888,-0.046265553683042526,9.861190795898438,0.22699999809265137,-0.04149999842047691,0.041200000792741776,-0.06299999737754478,0.035000000395887826,-0.048000001495804245
0.04907156154513359,-0.036966472864151,9.868908882141113,0.23629999160766602,-0.03150000050663948,0.050999999046325684,-0.09500000059811649,0.13300000483942703,0.046999999102312236
0.0475105382502079,-0.05162856727838516,9.862836837768555,0.22630000114440918,-0.060499999672174454,0.050999999046325684,-0.038000000906257256,-0.03400000133744912,-0.0329999989439571
0.04742434620857239,-0.04683058708906174,9.854591369628906,0.2255999892950058,-0.05009999871253967,0.041099999099969864,-0.023000000021936765,-0.22400000253368207,-0.0329999989439571
0.04686889424920082,-0.04737646505236626,9.869885444641113,0.22360000014305115,-0.03989999741315842,0.05089999735355377,-0.017999999727163266,-0.02899999937514897,-0.11699999322398127
0.04104619100689888,-0.05414726585149765,9.847485542297363,0.22259999811649323,-0.04939999803900719,0.031300000846385956,-0.043999998591942806,-0.024999999806340833,-0.04200000047506539
0.03743573650717735,-0.051906291395425797,9.869254112243652,0.21209999918937683,-0.04910000041127205,0.05089999735355377,-0.13700000107318186,0.041000001416626686,-0.13000000432905762
0.05499960482120514,-0.0441969633102417,9.869129180908203,0.22689999639987946,-0.03819999843835831,0.05079999938607216,0.057000003026912535,-0.10100000161885533,-0.013000000266153095
0.03535757213830948,-0.05189671739935875,9.864973068237305,0.20260000228881836,-0.0471000000834465,0.05069999769330025,-0.1509999945614304,0.07999999804626934,-0.07600000181251451
0.04961743578314781,-0.04850652813911438,9.862741470336914,0.21679998934268951,-0.045499999076128006,0.04079999774694443,0.08899999957737763,0.004999999877891834,-0.09500000059811649
0.04429273307323456,-0.057853490114212036,9.872682571411133,0.20269998908042908,-0.0543999969959259,0.05049999803304672,-0.03400000133744912,-0.013000000266153095,-0.0539999991814898
0.05542098358273506,-0.05295974388718605,9.869062423706055,0.20819999277591705,-0.04360000044107437,0.05040000006556511,0.06200000165415938,0.08499999667351618,-0.021000000237532696
0.03584598749876022,-0.059155937284231186,9.874424934387207,0.18549999594688416,-0.05260000005364418,0.06019999831914902,0.23199999500119176,-0.17899999487814064,-0.06299999737754478
0.0454898327589035,-0.06652049720287323,9.869694709777832,0.19460000097751617,-0.053199999034404755,0.05040000006556511,-0.07699999753589991,0.21200000049220435,0
0.049224790185689926,-0.061435215175151825,9.8722505569458,0.2044999897480011,-0.052799999713897705,0.05040000006556511,-0.05099999867112037,-0.03899999996469596,-0.046999999102312236
0.04231990873813629,-0.06631939113140106,9.855951309204102,0.1939999908208847,-0.05249999836087227,0.0405999980866909,-0.18400000017549412,-0.09000000197086964,-0.07300000130214508
0.048286259174346924,-0.05207867547869682,9.854418754577637,0.20269998908042908,-0.04209999740123749,0.030700000002980232,-0.09999999922536333,-0.0009999999964224499,-0.08400000095013078
0.04807556793093681,-0.05527732893824577,9.8794527053833,0.20229999721050262,-0.04169999808073044,0.060099996626377106,-0.34899998822517303,0.04900000055424296,0.09399999820462447
0.04368939250707626,-0.03860410675406456,9.860893249511719,0.1923999935388565,-0.030799999833106995,0.04050000011920929,-0.20599999947146552,-0.1070000026395942,-0.02899999937514897
0.03962882608175278,-0.05942408740520477,9.874454498291016,0.19189999997615814,-0.049799997359514236,0.060099996626377106,0.16699999283666295,0.06899999839828364,-0.0329999989439571
0.0434882827103138,-0.05996038764715195,9.86033821105957,0.19139999151229858,-0.05009999871253967,0.04050000011920929,-0.06299999737754478,0.06399999977103679,-0.08200000283325337
0.04142926633358002,-0.05182967707514763,9.878341674804688,0.19119998812675476,-0.03999999910593033,0.060099996626377106,-0.22700000304405152,0.05900000114378995,-0.06200000165415938
0.044963106513023376,-0.052739474922418594,9.879510879516602,0.19110000133514404,-0.039400000125169754,0.060099996626377106,-0.12199999852133472,-0.1180000022875799,-0.07399999702553048
0.041055772453546524,-0.06227797269821167,9.867578506469727,0.19029998779296875,-0.0486999973654747,0.0502999983727932,0.06700000028140622,0.2680000011256249,-0.04200000047506539
0.045221682637929916,-0.0637432262301445,9.876819610595703,0.1907999962568283,-0.04879999905824661,0.060099996626377106,-0.13799999679656727,0.12499999903170415,0.06899999839828364
0.03869029879570007,-0.05898355320096016,9.883647918701172,0.1906999945640564,-0.04829999804496765,0.06989999860525131,-0.11099999887334903,0.07900000232288394,0.05900000114378995
0.04768292233347893,-0.05890693888068199,9.877193450927734,0.19049999117851257,-0.0478999987244606,0.060099996626377106,-0.22199999774669807,0.013000000266153095,0.008999999863581633
0.04964616894721985,-0.06042007356882095,9.876599311828613,0.19949999451637268,-0.04690000042319298,0.060099996626377106,0.029999998433587676,0.21200000049220435,-0.03400000133744912
0.03254198655486107,-0.04507802799344063,9.857789993286133,0.17989999055862427,-0.02719999849796295,0.04050000011920929,-0.0030000000934877653,0.08499999667351618,-0.041000001416626686
0.04445553570985794,-0.06057330220937729,9.872576713562012,0.18940000236034393,-0.046699997037649155,0.0502999983727932,-0.12400000330831876,-0.06500000216452881,-0.0659999978879142
0.043785158544778824,-0.0558040551841259,9.861764907836914,0.18859998881816864,-0.036399997770786285,0.04050000011920929,0.02899999937514897,-0.023000000021936765,-0.06200000165415938
0.039753325283527374,-0.06118621677160263,9.860002517700195,0.18789999186992645,-0.04609999805688858,0.04050000011920929,-0.11099999887334903,0.02899999937514897,-0.1400000015835513
0.03508942201733589,-0.04950251430273056,9.849353790283203,0.17739999294281006,-0.03579999879002571,0.03059999831020832,0.09200000008774706,0.07999999804626934,-0.01400000015835513
0.03960009664297104,-0.045556869357824326,9.878045082092285,0.18699999153614044,-0.026200000196695328,0.060099996626377106,-0.24599998848944027,0.02899999937514897,-0.03400000133744912
0.041668687015771866,-0.06056372448801994,9.871465682983398,0.18679998815059662,-0.045099999755620956,0.050200000405311584,-0.07399999702553048,0.19999999845072666,-0.08100000043976135
0.02663310058414936,-0.048563987016677856,9.858010292053223,0.1671999990940094,-0.0348999984562397,0.04039999842643738,-0.08700000146050021,0.1629999966029081,-0.0969999987149939
0.04051946848630905,-0.04279874637722969,9.85869026184082,0.186599999666214,-0.024799998849630356,0.04039999842643738,0.23000000355442093,-0.06500000216452881,0.023000000021936765
0.04144842177629471,-0.05678088590502739,9.868114471435547,0.18609999120235443,-0.035099998116493225,0.050200000405311584,-0.1199999937343507,0.006000000186975531,-0.038000000906257256
0.0401747040450573,-0.057403381913900375,9.871456146240234,0.18559999763965607,-0.034699998795986176,0.050200000405311584,-0.12599999475508955,0.0009999999964224499,-0.021999999295971403
0.044867340475320816,-0.04998135194182396,9.869319915771484,0.1850999891757965,-0.034299999475479126,0.050200000405311584,0.007000000079177565,0.057000003026912535,0.043999998591942806
0.04248271510004997,-0.0701596811413765,9.84988021850586,0.18439999222755432,-0.053700000047683716,0.03059999831020832,-0.10499999785261017,-0.08799999718388561,-0.05799999875029794
0.03592260181903839,-0.04781699925661087,9.845407485961914,0.1736999899148941,-0.023899998515844345,0.03059999831020832,-0.05499999823992851,0.1199999937343507,-0.08799999718388561
0.04689761996269226,-0.053898271173238754,9.867108345031738,0.1832999885082245,-0.033399999141693115,0.050200000405311584,-0.029999998433587676,0,0.017999999727163266
0.046409204602241516,-0.04393838718533516,9.85859489440918,0.1825999915599823,-0.023499999195337296,0.04039999842643738,-0.19099999691961836,-0.03400000133744912,-0.12499999903170415
0.03623863682150841,-0.05905058979988098,9.861726760864258,0.19200000166893005,-0.032600000500679016,0.04039999842643738,-0.1729999938574018,0.14900000311465958,-0.14900000311465958
0.03213018923997879,-0.040864236652851105,9.864762306213379,0.171999990940094,-0.021800000220537186,0.050200000405311584,-0.10999999647985702,0.007000000079177565,0.08700000146050021
0.03213018923997879,-0.040864236652851105,9.864762306213379,0.171999990940094,-0.021800000220537186,0.050200000405311584,-0.10999999647985702,0.007000000079177565,0.08700000146050021
0.04772122949361801,-0.057029884308576584,9.853960037231445,0.181099995970726,-0.031099999323487282,0.030499998480081558,-0.06399999977103679,-0.06399999977103679,-0.08200000283325337
0.04567179083824158,-0.050843264907598495,9.860893249511719,0.18019999563694,-0.030899999663233757,0.040300000458955765,-0.19699999794035722,0.0030000000934877653,-0.06200000165415938
0.05472187325358391,-0.04435976967215538,9.863784790039062,0.18940000236034393,-0.020399998873472214,0.040300000458955765,-0.07300000130214508,-0.024000000747902123,-0.048000001495804245
0.04148672893643379,-0.05396530404686928,9.860979080200195,0.18869999051094055,-0.029899999499320984,0.040300000458955765,-0.12700000381868817,-0.06299999737754478,-0.057000003026912535
0.034399889409542084,-0.05862921103835106,9.873774528503418,0.16869999468326569,-0.039000000804662704,0.05989999696612358,-0.043999998591942806,-0.07699999753589991,0.012000000373951061
0.04847779497504234,-0.05078580603003502,9.856822967529297,0.1873999983072281,-0.02889999933540821,0.040300000458955765,-0.07999999804626934,-0.0039999999856897995,-0.04500000098543482
0.041745301336050034,-0.05566040053963661,9.849937438964844,0.17679999768733978,-0.028599999845027924,0.030499998480081558,0.06700000028140622,0.05799999875029794,-0.07099999651516105
0.03786669671535492,-0.05021119862794876,9.853614807128906,0.1664000004529953,-0.028699999675154686,0.030499998480081558,0.014999999216793838,-0.007999999971379599,-0.010999999647985701
0.0516572967171669,-0.07057148963212967,9.85641098022461,0.18539999425411224,-0.04809999838471413,0.040300000458955765,0.11400000605382507,-0.0539999991814898,-0.10499999785261017
0.04472368583083153,-0.05744168907403946,9.858920097351074,0.17479999363422394,-0.028699999675154686,0.040300000458955765,-0.11200000126684104,-0.012000000373951061,-0.013000000266153095
0.04085465520620346,-0.058543018996715546,9.84189224243164,0.1736999899148941,-0.03799999877810478,0.020600000396370888,-0.13100000005244303,0.021999999295971403,-0.1180000022875799
0.04480987787246704,-0.046121902763843536,9.84464168548584,0.1727999895811081,-0.017899999395012856,0.020600000396370888,-0.0659999978879142,-0.06099999926066736,-0.1079999983629796
0.0390925258398056,-0.058610059320926666,9.85708236694336,0.171999990940094,-0.03720000013709068,0.04019999876618385,-0.03599999945432653,0.04200000047506539,-0.13600000534979648
0.03664086014032364,-0.05341942980885506,9.853480339050293,0.1712999939918518,-0.007699999958276749,0.030399998649954796,-0.049999999612681666,0.05099999867112037,-0.12400000330831876
0.03664086014032364,-0.05341942980885506,9.853480339050293,0.16099999845027924,-0.026999998837709427,0.030399998649954796,-0.1930000017066024,-0.13100000005244303,-0.12700000381868817
0.029486987739801407,-0.05187756195664406,9.867769241333008,0.15969999134540558,-0.026200000196695328,0.04999999701976776,-0.1070000026395942,-0.008999999863581633,-0.041000001416626686
0.03265691176056862,-0.04968447610735893,9.867032051086426,0.15969999134540558,-0.026200000196695328,0.04999999701976776,-0.029999998433587676,-0.017999999727163266,-0.038000000906257256
0.03936067596077919,-0.053496044129133224,9.852627754211426,0.15919999778270721,-0.02579999901354313,0.04999999701976776,-0.12700000381868817,0.0019999999928448997,0.041000001416626686
0.045221682637929916,-0.05106353387236595,9.859457015991211,0.16759999096393585,-0.025200000032782555,0.04019999876618385,-0.12599999475508955,-0.0429999995335041,-0.09600000299160849
0.0464475117623806,-0.04556644707918167,9.852551460266113,0.16669999063014984,-0.01489999983459711,0.030299998819828033,-0.20999999570522035,-0.05900000114378995,0.0030000000934877653
0.043306320905685425,-0.04720408096909523,9.85592269897461,0.16599999368190765,-0.014299999922513962,0.04010000079870224,-0.11599999750059588,-0.1319999957758284,-0.1400000015835513
0.0445513054728508,-0.052500054240226746,9.848021507263184,0.16489998996257782,-0.02369999885559082,0.030299998819828033,-0.11500000177721047,-0.1830000044521087,-0.09099999769425504
0.05159026011824608,-0.05225105583667755,9.841059684753418,0.17379999160766602,-0.02319999970495701,0.020499998703598976,-0.019999999511567335,0.04900000055424296,0.0539999991814898
0.04886086657643318,-0.04694550856947899,9.851785659790039,0.17309999465942383,-0.013299999758601189,0.030299998819828033,-0.07099999651516105,0.07300000130214508,-0.07199999890865307
0.01829170063138008,-0.055650826543569565,9.848596572875977,0.13349999487400055,-0.02279999852180481,0.030299998819828033,-0.021000000237532696,-0.1849999958988795,-0.02899999937514897
0.034802116453647614,-0.05816952511668205,9.847935676574707,0.15189999341964722,-0.03240000084042549,0.030299998819828033,-0.13799999679656727,0.1199999937343507,0.07799999992939192
0.03778050094842911,-0.0486980639398098,9.839029312133789,0.15129999816417694,-0.022099999710917473,0.020499998703598976,0.03100000082707969,-0.02800000031671026,-0.046999999102312236
0.041362229734659195,-0.04919605702161789,9.853164672851562,0.16030000150203705,-0.02199999988079071,0.030299998819828033,0.15599999985878385,-0.0859999990670082,-0.08899999957737763
0.03788584843277931,-0.05350561812520027,9.858355522155762,0.14970000088214874,-0.02239999920129776,0.04010000079870224,-0.05099999867112037,0.24399999704266945,-0.03899999996469596
0.0319865345954895,-0.03575979545712471,9.858116149902344,0.14999999105930328,-0.0024999999441206455,0.04010000079870224,-0.017999999727163266,-0.14099999730693671,-0.029999998433587676
0.037119701504707336,-0.04968447610735893,9.856229782104492,0.14899998903274536,-0.02199999988079071,0.03999999910593033,-0.20299999896109608,-0.6020000134793773,0.021999999295971403
0.044541727751493454,-0.05312254652380943,9.849736213684082,0.15649999678134918,-0.021199999377131462,0.03019999898970127,-0.03100000082707969,0.18400000017549412,-0.0269999995907449
0.040011897683143616,-0.057642798870801926,9.850253105163574,0.15619999170303345,-0.030799999833106995,0.03019999898970127,0.06899999839828364,0.2890000046982109,0.023000000021936765
0.029735984280705452,-0.05698200315237045,9.851240158081055,0.1467999964952469,-0.020999999716877937,0.03019999898970127,0.0009999999964224499,-0.1749999986443858,-0.049999999612681666
0.0387381836771965,-0.05671384930610657,9.845321655273438,0.15539999306201935,-0.020899999886751175,0.03019999898970127,0.017999999727163266,0.17400000292100043,-0.01700000066872456
0.04243483021855354,-0.060908492654561996,9.849496841430664,0.1551000028848648,-0.03059999831020832,0.03019999898970127,-0.128999995265459,-0.05799999875029794,0.06099999926066736
0.0312778502702713,-0.04749138653278351,9.831023216247559,0.1437000036239624,-0.010499999858438969,0.010599999688565731,-0.2770000026567332,-0.1749999986443858,-0.04200000047506539
0.045010991394519806,-0.056675542145967484,9.844747543334961,0.1525999903678894,-0.019500000402331352,0.020399998873472214,-0.024999999806340833,-0.05900000114378995,-0.019000000453128628
0.04966532066464424,-0.056761734187603,9.836835861206055,0.16120000183582306,-0.019299998879432678,0.02029999904334545,-0.23000000355442093,-0.0329999989439571,0.05600000063342052
0.036880284547805786,-0.04521210491657257,9.839278221130371,0.1410999894142151,-0.008799999952316284,0.02029999904334545,0.0969999987149939,0.11299999699022645,0.12499999903170415
0.03706223890185356,-0.053515199571847916,9.84228515625,0.14980000257492065,-0.008999999612569809,0.010499999858438969,0.13499999628619785,-0.14499999354069154,-0.02899999937514897
0.0433637797832489,-0.06396349519491196,9.845369338989258,0.1404999941587448,-0.018799999728798866,0.02029999904334545,0.06500000216452881,-0.13700000107318186,0.038000000906257256
0.03892971947789192,-0.06620446592569351,9.8494873046875,0.1492999941110611,-0.02879999950528145,0.03009999915957451,-0.015999999942759198,-0.04500000098543482,-0.11200000126684104
0.029659369960427284,-0.06497863680124283,9.85384464263916,0.13759998977184296,-0.028599999845027924,0.03009999915957451,-0.09999999922536333,-0.18900000547284757,-0.11500000177721047
0.044493842869997025,-0.05001965910196304,9.848750114440918,0.14639998972415924,-0.018400000408291817,0.03009999915957451,-0.006000000186975531,-0.010999999647985701,-0.012000000373951061
0.049895163625478745,-0.058475982397794724,9.845340728759766,0.15539999306201935,-0.028099998831748962,0.03009999915957451,0.03599999945432653,-0.0269999995907449,-0.0009999999964224499
0.03611414134502411,-0.0505942702293396,9.84424877166748,0.13490000367164612,-0.018199998885393143,0.02029999904334545,0.09399999820462447,0.023000000021936765,-0.041000001416626686
0.035108573734760284,-0.05040273442864418,9.850167274475098,0.13429999351501465,-0.018400000408291817,0.03009999915957451,-0.09899999683187131,-0.12299999424472013,-0.06500000216452881
0.03505111485719681,-0.059845466166734695,9.854122161865234,0.13319998979568481,-0.027799999341368675,0.03009999915957451,-0.08400000095013078,-0.16599999711327754,-0.010999999647985701
0.02576160989701748,-0.061416059732437134,9.846949577331543,0.12239999324083328,-0.027400000020861626,0.029999999329447746,0.0269999995907449,-0.1509999945614304,0.04500000098543482
0.03395935893058777,-0.053285352885723114,9.845751762390137,0.13109999895095825,-0.01759999990463257,0.029999999329447746,0.0429999995335041,0.008999999863581633,0.015999999942759198
0.05025908350944519,-0.054750602692365646,9.83330249786377,0.1492999941110611,-0.017500000074505806,0.010400000028312206,-0.017999999727163266,-0.006000000186975531,0.007999999971379599
0.053256623446941376,-0.053610965609550476,9.851834297180176,0.148499995470047,-0.017400000244379044,0.029999999329447746,0.029999998433587676,-0.1070000026395942,0.09999999922536333
0.04727111756801605,-0.05586151406168938,9.851067543029785,0.13769999146461487,-0.017400000244379044,0.029999999329447746,0.19200000598321698,0.16899999762364695,0.09200000008774706
0.04637089744210243,-0.04969405010342598,9.842113494873047,0.13779999315738678,-0.017799999564886093,0.02019999921321869,0.07399999702553048,-0.038000000906257256,0.017999999727163266
0.04057693108916283,-0.03919786959886551,9.843022346496582,0.13669998943805695,-0.008200000040233135,0.02019999921321869,0.021000000237532696,0.015999999942759198,0.007000000079177565
0.04891832917928696,-0.06038176640868187,9.848021507263184,0.14579999446868896,-0.027699999511241913,0.029999999329447746,0.03400000133744912,-0.1930000017066024,0.021000000237532696
0.041457995772361755,-0.05122634023427963,9.84300422668457,0.13459999859333038,-0.017799999564886093,0.02019999921321869,-0.1390000058601659,-0.04600000004387353,-0.02800000031671026
0.036554671823978424,-0.04031835496425629,9.841193199157715,0.12379999458789825,-0.007599999662488699,0.020099999383091927,0.057000003026912535,0.11599999750059588,0.019999999511567335
0.03262818232178688,-0.04187937453389168,9.842744827270508,0.12319999933242798,-0.007699999958276749,0.020099999383091927,0.04600000004387353,-0.07199999890865307,-0.010999999647985701
0.03982993960380554,-0.054616525769233704,9.843109130859375,0.13189999759197235,-0.017500000074505806,0.020099999383091927,0.006000000186975531,0.0659999978879142,-0.0009999999964224499
0.046437934041023254,-0.058284446597099304,9.852887153625488,0.1314999908208847,-0.02719999849796295,0.029899999499320984,0.12799999954207358,-0.0019999999928448997,0.12100000279794933
0.048401180654764175,-0.06745903193950653,9.837142944335938,0.140299990773201,-0.03709999844431877,0.020099999383091927,-0.08899999957737763,0.13000000432905762,0.0009999999964224499
0.03359543904662132,-0.056761734187603,9.84250545501709,0.12019999325275421,-0.017099998891353607,0.020099999383091927,-0.07699999753589991,-0.16400000566650674,-0.05200000106461238
0.043497856706380844,-0.055909398943185806,9.850435256958008,0.12889999151229858,-0.01679999940097332,0.029899999499320984,-0.041000001416626686,-0.015999999942759198,-0.03699999851276524
0.048305410891771317,-0.04608359560370445,9.830276489257812,0.12729999423027039,-0.006300000008195639,0.010199999436736107,-0.22800001210765014,0.07900000232288394,0.021999999295971403
0.035673607140779495,-0.06734410673379898,9.832286834716797,0.10759999603033066,-0.03500000014901161,0.010199999436736107,0.012000000373951061,0.05099999867112037,-0.021999999295971403
0.04068227484822273,-0.045039720833301544,9.83553409576416,0.11669999361038208,-0.00559999980032444,0.019999999552965164,0.07099999651516105,-0.08799999718388561,0.0030000000934877653
0.031086314469575882,-0.055009178817272186,9.840130805969238,0.10599999874830246,-0.01549999974668026,0.019999999552965164,0.09200000008774706,0.012000000373951061,-0.13300000483942703
0.049751508980989456,-0.04388092830777168,9.84681510925293,0.125,-0.0058999997563660145,0.02979999966919422,-0.02800000031671026,0.22199999774669807,0.02899999937514897
0.05068046227097511,-0.043306320905685425,9.842045783996582,0.12479999661445618,-0.005799999926239252,0.019999999552965164,-0.007999999971379599,-0.13799999679656727,-0.035000000395887826
0.03981078788638115,-0.05670427158474922,9.844095230102539,0.11389999836683273,-0.01549999974668026,0.019999999552965164,0.009999999755783667,-0.1509999945614304,0.02600000053230619
0.036698322743177414,-0.06472006440162659,9.845100402832031,0.1030999943614006,-0.025200000032782555,0.02979999966919422,0.013000000266153095,-0.0269999995907449,0.03100000082707969
0.035041533410549164,-0.04990473762154579,9.855998992919922,0.10269999504089355,-0.00559999980032444,0.03959999978542328,-0.049999999612681666,-0.20299999896109608,0.02800000031671026
0.04568136855959892,-0.05907932296395302,9.84272575378418,0.10260000079870224,-0.01549999974668026,0.03959999978542328,0.023000000021936765,-0.08799999718388561,0.017999999727163266
0.0357789508998394,-0.058763287961483,9.846518516540527,0.11109999567270279,-0.02499999850988388,0.019899999722838402,-0.041000001416626686,-0.0659999978879142,0.12700000381868817
0.034371159970760345,-0.0607839934527874,9.860740661621094,0.0973999947309494,-0.02410000003874302,0.03949999809265137,-0.03699999851276524,-0.0749999994190225,-0.0969999987149939
0.03578852862119675,-0.04539406672120094,9.832612991333008,0.08999999612569809,-0.003999999724328518,0.009999999776482582,0.07900000232288394,0.05799999875029794,0.035000000395887826
0.0584089420735836,-0.04837245121598244,9.845215797424316,0.11539999395608902,-0.013599999248981476,0.029600000008940697,0.07699999753589991,0.01700000066872456,-0.18199999538851008
0.04744350165128708,-0.055746592581272125,9.840274810791016,0.09160000085830688,-0.013199999928474426,0.01979999989271164,0.035000000395887826,0.006000000186975531,0
0.040509890764951706,-0.06036261469125748,9.824933052062988,0.07979999482631683,-0.020099999383091927,0.00009999999747378752,0.019999999511567335,-0.16699999283666295,-0.014999999216793838
0.03809653967618942,-0.058945246040821075,9.834586143493652,0.065700002014637,-0.01899999938905239,0.00989999994635582,0.11200000126684104,-0.06500000216452881,-0.11099999887334903
0.04601655527949333,-0.05796841159462929,9.848089218139648,0.07329999655485153,-0.018799999728798866,0.029500000178813934,0.04500000098543482,0.015999999942759198,-0.006000000186975531
0.03071282058954239,-0.048382025212049484,9.831683158874512,0.06019999831914902,-0.008700000122189522,0.00989999994635582,-0.019000000453128628,0.04200000047506539,-0.04500000098543482
0.0431339368224144,-0.057384226471185684,9.838043212890625,0.06780000030994415,-0.008299999870359898,0.019700000062584877,0.021999999295971403,-0.07199999890865307,0.017999999727163266
0.041103653609752655,-0.05199248343706131,9.849994659423828,0.06589999794960022,-0.008200000040233135,0.029500000178813934,0.26300000916848465,0.16599999711327754,-0.1419999930303221
0.040845081210136414,-0.05874413251876831,9.842065811157227,0.06619999557733536,-0.01860000006854534,0.019700000062584877,0.048000001495804245,-0.10499999785261017,0.04200000047506539
0.036363136023283005,-0.04781699925661087,9.835916519165039,0.05590000003576279,0.0007999999797903001,0.019700000062584877,0.08200000283325337,-0.07900000232288394,-0.009999999755783667
0.03859453275799751,-0.05815037339925766,9.846843719482422,0.06529999524354935,-0.01889999955892563,0.029500000178813934,-0.015999999942759198,0.01700000066872456,0.05999999686717535
0.03936067596077919,-0.058543018996715546,9.845100402832031,0.06509999930858612,-0.018799999728798866,0.029500000178813934,0.03899999996469596,0.024000000747902123,-0.1400000015835513
