Accelerometer_Gx,Accelerometer_Gy,Accelerometer_Gz,Accelerometer_X,Accelerometer_Y,Accelerometer_Z,Gyroscope_Z,Gyroscope_X,Gyroscope_Y
0.040462009608745575,-0.04689761996269226,9.883418083190918,-0.002699999837204814,0.008299999870359898,0.05889999866485596,-0.2780000117203318,0.06399999977103679,0.009999999755783667
0.045508988201618195,-0.04826710373163223,9.884270668029785,0.011599999852478504,-0.011899999342858791,0.06870000064373016,0.4210000004740393,0.06399999977103679,0.149999998838045
0.02509123459458351,-0.04594951868057251,9.883868217468262,-0.008100000210106373,-0.0015999999595806003,0.06870000064373016,-0.34800000584200086,-4.204999986102826,0.21999999295971404
0.037857115268707275,-0.02758120372891426,9.873908042907715,-0.00930000003427267,0.018299998715519905,0.05889999866485596,0.5810000099067912,-3.8909999682580616,-0.09099999769425504
0.03723462298512459,-0.0405290462076664,9.876522064208984,-0.018400000408291817,-0.003000000026077032,0.05889999866485596,-0.5009999785099888,-2.1109999500300827,-0.035000000395887826
0.039159562438726425,-0.03328897804021835,9.882335662841797,-0.01269999984651804,0.007599999662488699,0.05889999866485596,-0.8930000096243589,1.8260000616275454,-0.18900000547284757
0.03367205336689949,-0.047663770616054535,9.88313102722168,-0.015799999237060547,0,0.05889999866485596,0.7290000172980654,2.6990000500624904,0.10299999973573276
0.03959051892161369,-0.03431369736790657,9.880745887756348,0.0023999998811632395,0.007199999876320362,0.05889999866485596,1.082000041777633,-2.3710000654099037,-0.017999999727163266
0.03005201928317547,-0.043785158544778824,9.871294021606445,-0.012600000016391277,-0.005699999630451202,0.04910000041127205,-0.635000019093441,0.04500000098543482,-0.05900000114378995
0.043047744780778885,-0.03919786959886551,9.889680862426758,-0.0017999999690800905,-0.0038999998942017555,0.06870000064373016,-0.2469999975530389,1.7459999768698902,0.012000000373951061
0.03834553435444832,-0.052193596959114075,9.856325149536133,0.003399999812245369,-0.01269999984651804,0.03920000046491623,0.14499999354069154,-2.246999902019026,-0.09899999683187131
0.047002967447042465,-0.042664673179388046,9.888991355895996,-0.002300000051036477,-0.003000000026077032,0.06870000064373016,0.09500000059811649,2.5650000628398915,-0.05600000063342052
0.03357628732919693,-0.042597636580467224,9.861611366271973,-0.0037999998312443495,-0.0030999998562037945,0.03920000046491623,-0.13799999679656727,-2.812999962734823,0.01400000015835513
0.04569094628095627,-0.043287165462970734,9.869138717651367,-0.00139999995008111,-0.0024999999441206455,0.04910000041127205,0.08700000146050021,1.631999957475852,0.02800000031671026
0.03571191430091858,-0.04031835496425629,9.892621040344238,-0.006899999920278788,-0.0024999999441206455,0.06870000064373016,-0.47299999153349176,-0.9299999447711114,0.004999999877891834
0.035319264978170395,-0.04284663498401642,9.876944541931152,-0.009099999442696571,-0.0009999999310821295,0.05889999866485596,0.7480000027434541,-1.3250000297567037,-0.031999999885518396
0.0505942702293396,-0.0345914252102375,9.87636947631836,0.00699999975040555,0.0066999997943639755,0.05889999866485596,-0.21100000476881897,3.1010000117302883,-0.017999999727163266
0.043756432831287384,-0.03922659903764725,9.879520416259766,0.005699999630451202,-0.0023999998811632395,0.05889999866485596,-0.5009999785099888,-0.8630000045206646,-0.03999999902313467
0.0232237558811903,-0.04466622695326805,9.87842845916748,-0.01589999906718731,-0.0009999999310821295,0.05889999866485596,0.1390000058601659,-2.2809999433771146,-0.03699999851276524
0.036315251141786575,-0.04219541326165199,9.892439842224121,-0.012000000104308128,-0.0013000000035390258,0.06870000064373016,0.5600000063342052,-1.3759999850721312,-0.07999999804626934
0.03593217954039574,-0.03758896514773369,9.871829986572266,-0.01529999915510416,0.006799999624490738,0.04910000041127205,0.2050000037480801,0.38100001145606455,0.057000003026912535
0.04414907842874527,-0.04093126952648163,9.877279281616211,-0.004100000020116568,0.015799999237060547,0.05889999866485596,0.2800000031671026,1.9240000427257116,-0.15900000036915327
0.04583459720015526,-0.03568318113684654,9.882105827331543,0.005699999630451202,0.005200000014156103,0.05889999866485596,-0.06299999737754478,1.9350000623840171,0.06399999977103679
0.042425256222486496,-0.042310334742069244,9.886520385742188,0.010999999940395355,-0.004399999976158142,0.06859999895095825,-0.3379999952472939,1.9279999722584003,-0.06500000216452881
0.04281790181994438,-0.04238694906234741,9.864513397216797,0.016099998727440834,-0.003499999875202775,0.04899999871850014,-0.10100000161885533,1.6520000320261186,-0.08700000146050021
0.043402086943387985,-0.04723281040787697,9.853806495666504,0.02029999904334545,-0.0031999999191612005,0.029399998486042023,0.3439999962680328,0.9999999922536332,0.057000003026912535
0.03693774342536926,-0.03505111485719681,9.8806791305542,0.013199999928474426,0.005399999674409628,0.058799996972084045,0.4879999940853389,-0.014999999216793838,0.013000000266153095
0.03798161819577217,-0.04737646505236626,9.867415428161621,0.012799999676644802,-0.005499999970197678,0.04899999871850014,0.27200001069959295,-0.8810000075828812,0.035000000395887826
0.04143884405493736,-0.03869987651705742,9.890188217163086,0.019700000062584877,-0.006099999882280827,0.06859999895095825,0.2140000052791884,-0.9239999437503725,-0.19499999315337319
0.04845863953232765,-0.05207867547869682,9.869579315185547,0.026499999687075615,-0.016300000250339508,0.04899999871850014,-0.008999999863581633,1.625999956455113,-0.017999999727163266
0.05521029233932495,-0.047903187572956085,9.868803977966309,0.030299998819828033,-0.016099998727440834,0.04899999871850014,0.23900000508552924,0.007000000079177565,0.043999998591942806
0.0524904802441597,-0.04064396768808365,9.867366790771484,0.029600000008940697,-0.0066999997943639755,0.04899999871850014,-0.2800000031671026,-0.07699999753589991,-0.021999999295971403
0.03205357491970062,-0.04326801374554634,9.883359909057617,0.009200000204145908,-0.005799999926239252,0.06859999895095825,0.10999999647985702,1.1339999794762325,-0.06099999926066736
0.04141968861222267,-0.04879382997751236,9.878582000732422,0.02149999886751175,-0.015699999406933784,0.058799996972084045,0.3570000073731091,-1.2299999958080543,-0.03699999851276524
0.025723302736878395,-0.03272394835948944,9.879156112670898,-0.0017999999690800905,0.003000000026077032,0.058799996972084045,-0.006000000186975531,0.6900000106632628,-0.08400000095013078
0.0433637797832489,-0.04590163379907608,9.869560241699219,0.019199999049305916,-0.0064999996684491634,0.04899999871850014,0.18099999966512467,-0.6810000091321545,-0.015999999942759198
0.04389050602912903,-0.041410114616155624,9.86792278289795,0.016699999570846558,-0.006799999624490738,0.04899999871850014,0.3849999943496062,1.8380000636690232,0
0.029276298359036446,-0.04129519313573837,9.881091117858887,0.010900000110268593,-0.007599999662488699,0.058799996972084045,-0.4019999883482241,-0.775000007336779,0.021999999295971403
0.026393678039312363,-0.049253515899181366,9.86797046661377,-0.0011999999405816197,-0.016099998727440834,0.04899999871850014,0.1400000015835513,-0.5410000208888165,-0.007999999971379599
0.031028853729367256,-0.045987825840711594,9.866984367370605,0.0066999997943639755,-0.006399999838322401,0.04899999871850014,-0.14399999781730613,0.6200000165415938,-0.09300000248123906
0.05096776410937309,-0.03314532712101936,9.869991302490234,0.027699999511241913,0.0037999998312443495,0.04899999871850014,0.007999999971379599,-0.2780000117203318,0.0039999999856897995
0.04322970658540726,-0.024133551865816116,9.877145767211914,0.01679999940097332,0.013599999248981476,0.058799996972084045,0.15800000464576788,-1.0629999496105385,0.07199999890865307
0.040107667446136475,-0.04502056911587715,9.874176025390625,0.013499999418854713,-0.006300000008195639,0.058799996972084045,-0.007000000079177565,0.023000000021936765,-0.07000000079177565
0.0515327975153923,-0.03440946713089943,9.870355606079102,0.016999999061226845,0.0024999999441206455,0.04899999871850014,0.19600000221697184,-0.9450000006838114,0.035000000395887826
0.039964016526937485,-0.05207867547869682,9.862348556518555,0.005699999630451202,-0.01719999872148037,0.03920000046491623,0.3750000104353257,-0.12100000279794933,-0.02899999937514897
0.04189852997660637,-0.04258805885910988,9.890178680419922,0.006199999712407589,-0.017899999395012856,0.03920000046491623,-0.09500000059811649,0.15699999558216926,0.019000000453128628
0.04189852997660637,-0.04258805885910988,9.890178680419922,0.0052999998442828655,-0.006199999712407589,0.06870000064373016,0.3510000063523703,-0.14099999730693671,-0.07099999651516105
0.044867340475320816,-0.038709454238414764,9.88736343383789,-0.0038999998942017555,0.0023999998811632395,0.04899999871850014,0.257999990530918,0.6320000185830715,0.05499999823992851
0.045700524002313614,-0.04104619100689888,9.877460479736328,0.009499999694526196,-0.007799999788403511,0.058799996972084045,-0.021999999295971403,-0.07999999804626934,0.09800000110848592
0.04656243696808815,-0.027313053607940674,9.87341022491455,0.0066999997943639755,0.008499999530613422,0.04899999871850014,0.27500001120996237,-0.20599999947146552,-0.08299999855663877
0.0432392843067646,-0.031316157430410385,9.871053695678711,0.00699999975040555,-0.0011999999405816197,0.04899999871850014,-0.3849999943496062,1.118000047902066,0.0269999995907449
0.036382291465997696,-0.05046019330620766,9.885275840759277,0.0008999999845400453,-0.019199999049305916,0.06859999895095825,0.03400000133744912,-0.6709999718570212,0.024999999806340833
0.049895163625478745,-0.03571191430091858,9.867673873901367,0.01899999938905239,0.000699999975040555,0.04899999871850014,0.4190000090272685,-0.7969999932925372,-0.0039999999856897995
0.03415089473128319,-0.03439031168818474,9.874262809753418,-0.0023999998811632395,0,0.058799996972084045,0.18099999966512467,0.08499999667351618,0.03400000133744912
0.0423007532954216,-0.05485595017671585,9.867090225219727,0.005499999970197678,-0.014699999243021011,0.04899999871850014,-0.05200000106461238,0.9039999759218116,-0.046999999102312236
0.03483084589242935,-0.03595133125782013,9.887229919433594,-0.000699999975040555,0.003999999724328518,0.06859999895095825,0.04200000047506539,0.733000000191607,-0.15599999985878385
0.04774995893239975,-0.03741658478975296,9.88251781463623,0.01119999960064888,0.0031999999191612005,0.058799996972084045,-0.18700000068586353,-0.7420000017227153,0.0269999995907449
0.042521022260189056,-0.0408833883702755,9.874147415161133,0.009499999694526196,-0.006599999964237213,0.058799996972084045,-0.2899999870813831,0.4769999744270334,0.0009999999964224499
0.025742456316947937,-0.04720408096909523,9.860136985778809,-0.008499999530613422,-0.006199999712407589,0.03920000046491623,-0.15200000362502902,-1.0150000481663333,-0.07000000079177565
0.04093126952648163,-0.03749319911003113,9.888455390930176,0.00839999970048666,0.003700000001117587,0.06859999895095825,0.2360000045751598,-1.200999973087532,0.06800000267489824
0.04779784381389618,-0.047453079372644424,9.88552474975586,0.005200000014156103,-0.006899999920278788,0.06870000064373016,-0.20999999570522035,-0.39200000443394367,-0.04600000004387353
0.045911211520433426,-0.035606566816568375,9.872682571411133,0.00419999985024333,0.0031999999191612005,0.04899999871850014,0.07000000079177565,0.8750000065621423,0.035000000395887826
0.04279874637722969,-0.031957805156707764,9.870326042175293,0.006599999964237213,0.002899999963119626,0.04899999871850014,-0.12799999954207358,-0.927999980004767,0.07699999753589991
0.03575979545712471,-0.04458003491163254,9.875659942626953,-0.00559999980032444,-0.0064999996684491634,0.05889999866485596,-0.19600000221697184,1.3419999437140424,-0.0329999989439571
0.05182967707514763,-0.032197222113609314,9.882172584533691,0.01759999990463257,0.003700000001117587,0.058799996972084045,0.10400000212922476,0.38000000239246595,-0.008999999863581633
0.0472806952893734,-0.038048651069402695,9.87380313873291,0.008899999782443047,0.0032999999821186066,0.058799996972084045,0.046999999102312236,-1.2239999947873152,-0.01700000066872456
0.03874776139855385,-0.03968628868460655,9.88148307800293,0.0058999997563660145,-0.0064999996684491634,0.058799996972084045,-0.1729999938574018,-0.12199999852133472,0.007999999971379599
0.03143107891082764,-0.0344860814511776,9.877939224243164,-0.0030999998562037945,0.002699999837204814,0.058799996972084045,-0.3139999911643385,-0.3570000073731091,0.0039999999856897995
0.04191768169403076,-0.041199423372745514,9.882067680358887,0.0052999998442828655,-0.0058999997563660145,0.058799996972084045,0.4519999879609058,-0.5480000042927274,0.049999999612681666
0.0342370830476284,-0.03135446459054947,9.87157154083252,-0.006099999882280827,0.002699999837204814,0.04899999871850014,0.12499999903170415,-0.021000000237532696,0.09999999922536333
0.04103661701083183,-0.04697423428297043,9.879788398742676,0.002699999837204814,-0.00559999980032444,0.05889999866485596,-0.07000000079177565,-1.1980000259380155,0.08799999718388561
0.049349285662174225,-0.050441041588783264,9.868268013000488,0.009599999524652958,-0.01549999974668026,0.04910000041127205,-0.09800000110848592,1.067999968248105,-0.021999999295971403
0.030368054285645485,-0.0370909720659256,9.886482238769531,-0.006899999920278788,0.004100000020116568,0.06870000064373016,-0.1939999974299878,-1.8179999891187564,0.008999999863581633
0.028021736070513725,-0.04143884405493736,9.88541030883789,-0.011799999512732029,-0.005200000014156103,0.04910000041127205,-0.1400000015835513,1.7829999653774955,0
0.050986919552087784,-0.04083550348877907,9.873064994812012,-0.016599999740719795,-0.004100000020116568,0.06870000064373016,0.38300000290283537,-0.6930000111736323,0.043999998591942806
0.03857537731528282,-0.038900990039110184,9.862875938415527,0.004699999932199717,-0.005200000014156103,0.03920000046491623,-0.03599999945432653,-1.3349999603101312,-0.0329999989439571
0.03672705590724945,-0.031086314469575882,9.87113094329834,-0.00930000003427267,0.0044999998062849045,0.04910000041127205,-0.16599999711327754,2.0790000868817495,0.02800000031671026
0.045221682637929916,-0.04258805885910988,9.877586364746094,0.005699999630451202,-0.004900000058114529,0.05889999866485596,0.057000003026912535,0.08400000095013078,0.004999999877891834
0.0325898751616478,-0.027437550947070122,9.870977401733398,-0.002699999837204814,0.010400000028312206,0.04899999871850014,-0.3980000054546825,0.5720000083756829,-0.09800000110848592
0.03336559608578682,-0.040605660527944565,9.884336471557617,-0.001500000013038516,-0.00699999975040555,0.06859999895095825,0.14600000260429016,-1.359999946776259,-0.0969999987149939
0.038996756076812744,-0.03346136584877968,9.883063316345215,0.0044999998062849045,0.003000000026077032,0.058799996972084045,0.25400000763737635,0.1830000044521087,0.13499999628619785
0.03981078788638115,-0.04382346570491791,9.886405944824219,0.004600000102072954,-0.006899999920278788,0.06870000064373016,0.41300000800652964,-1.3920000233680034,0.02800000031671026
0.045058876276016235,-0.0323408767580986,9.874262809753418,0.0004999999655410647,0.002099999925121665,0.05889999866485596,0.2570000081477458,-0.6450000030077214,-0.043999998591942806
0.03569275885820389,-0.03759854659438133,9.871973991394043,-0.011099999770522118,0.0015999999595806003,0.04910000041127205,-0.4810000106814279,-1.5949999689682466,-0.021999999295971403
0.03031059354543686,-0.03787627071142197,9.871379852294922,-0.016099998727440834,0.0032999999821186066,0.04910000041127205,0.20200000323771067,0.149999998838045,0.019000000453128628
0.03937982767820358,-0.038019925355911255,9.895187377929688,-0.0058999997563660145,0.002899999963119626,0.07849999517202377,0.038000000906257256,2.0479999926731773,-0.010999999647985701
0.04497268423438072,-0.052500054240226746,9.871696472167969,-0.00039999998989515007,-0.016499999910593033,0.04910000041127205,-0.4889999764685111,2.790999923418212,0.10299999973573276
0.035510800778865814,-0.031335312873125076,9.894881248474121,-0.0024999999441206455,0.004399999976158142,0.07849999517202377,-0.27500001120996237,-1.7149999893830237,-0.03999999902313467
0.038307227194309235,-0.0334039032459259,9.870384216308594,0.0024999999441206455,0.005200000014156103,0.04910000041127205,-0.17799999915475526,-2.1239999344547322,-0.04600000004387353
0.042664673179388046,-0.04924394190311432,9.857168197631836,-0.0032999999821186066,-0.013700000010430813,0.03929999843239784,0.1419999930303221,-0.3690000094145868,-0.041000001416626686
0.03514688089489937,-0.04333505406975746,9.875632286071777,-0.0139999995008111,-0.00419999985024333,0.05889999866485596,0.5750000088860524,-1.4350000128963476,-0.057000003026912535
0.028807034716010094,-0.036554671823978424,9.87553596496582,-0.017899999395012856,0.0038999998942017555,0.05889999866485596,-0.26699999206202624,-0.7350000183188042,-0.1189999980109653
0.027782315388321877,-0.02509123459458351,9.8804292678833,-0.029600000008940697,0.014499999582767487,0.05889999866485596,-0.2250000115972807,-0.4420000040466253,0.023000000021936765
0.03233129903674126,-0.04704127460718155,9.891212463378906,-0.020800000056624413,-0.004399999976158142,0.06870000064373016,-0.5519999871862691,-2.387999979367242,-0.07900000232288394
0.020695479586720467,-0.04519294947385788,9.875085830688477,-0.03700000047683716,-0.002899999963119626,0.05889999866485596,-0.42500001004800736,-3.0500000564148606,0.03899999996469596
0.04303817078471184,-0.036458905786275864,9.873581886291504,-0.025499999523162842,0.007899999618530273,0.04919999837875366,-0.6149999979040272,0.5799999741627662,-0.05600000063342052
0.04424484819173813,-0.03328897804021835,9.878217697143555,-0.013899999670684338,-0.00989999994635582,0.06879999488592148,-0.14900000311465958,0.4500000231945614,-0.05799999875029794
0.04424484819173813,-0.03328897804021835,9.878217697143555,-0.022199999541044235,0.009999999776482582,0.05900000035762787,-0.07000000079177565,0.2570000081477458,-0.1419999930303221
0.03229299187660217,-0.05388868972659111,9.886253356933594,-0.031099999323487282,-0.00930000003427267,0.06879999488592148,-1.3159999748647426,1.2019999554707044,-0.04600000004387353
0.02592441625893116,-0.04412034898996353,9.887650489807129,-0.03830000013113022,-0.007999999448657036,0.06879999488592148,1.2479999988702708,-0.12700000381868817,-0.0659999978879142
0.039370253682136536,-0.05755661055445671,9.87816047668457,-0.02539999969303608,-0.017999999225139618,0.05900000035762787,-0.07799999992939192,0.733000000191607,-0.01700000066872456
0.04254017770290375,-0.03407428041100502,9.873860359191895,-0.023099999874830246,0.011500000022351742,0.05900000035762787,0.7360000007019765,1.6849999842793295,0.10100000161885533
0.04163995757699013,-0.04909071326255798,9.872117042541504,-0.018299998715519905,-0.009999999776482582,0.04910000041127205,-1.4789999848078639,-0.12499999903170415,-0.0429999995335041
0.03663128614425659,-0.045939940959215164,9.877623558044434,-0.028199998661875725,0.004299999680370092,0.05900000035762787,0.38100001145606455,-1.0249999787197608,-0.128999995265459
0.05120718851685524,-0.037454891949892044,9.870565414428711,-0.010799999348819256,0.013199999928474426,0.04919999837875366,-0.8069999772068176,1.090000007564716,-0.07199999890865307
0.025129541754722595,-0.03440946713089943,9.878198623657227,-0.03700000047683716,0.01529999915510416,0.05900000035762787,0.7780000078471484,-0.8609999863934674,-0.057000003026912535
0.047405194491147995,-0.03280056267976761,9.889939308166504,-0.019500000402331352,0.013100000098347664,0.06879999488592148,0.42599999243117953,2.658999900961957,0.006000000186975531
0.03172796219587326,-0.05114014819264412,9.88038158416748,-0.021800000220537186,-0.007599999662488699,0.05889999866485596,-0.1070000026395942,0.06500000216452881,0.02600000053230619
0.033566705882549286,-0.05668511986732483,9.867568016052246,-0.015699999406933784,-0.0052999998442828655,0.04910000041127205,0.17599999436777122,-3.8180001870694347,-0.0749999994190225
0.036573827266693115,-0.04823837801814079,9.872625350952148,-0.027300000190734863,-0.006300000008195639,0.04919999837875366,0.5889999756938744,-4.3719998188569305,0.04500000098543482
0.04729027301073074,-0.04109407961368561,9.879463195800781,-0.030299998819828033,0.00139999995008111,0.05900000035762787,0.7059999955982822,-0.9260000152384226,-0.06299999737754478
0.04068227484822273,-0.03417004644870758,9.862358093261719,-0.033399999141693115,0.008999999612569809,0.039400000125169754,0.4489999874505363,2.268999941335637,0.05099999867112037
0.02957317978143692,-0.03867114707827568,9.869579315185547,-0.03739999979734421,-0.002099999925121665,0.04919999837875366,-0.017999999727163266,1.1010000272230216,-0.06899999839828364
0.034869153052568436,-0.0665779560804367,9.861822128295898,-0.03449999913573265,-0.021800000220537186,0.039400000125169754,-0.19900000272734125,3.4390000336580084,-0.05099999867112037
0.024650702252984047,-0.04413950443267822,9.87690544128418,-0.03500000014901161,-0.0016999999061226845,0.05889999866485596,-0.0009999999964224499,1.0059999932743722,0.0749999994190225
0.038307227194309235,-0.06554366648197174,9.870431900024414,-0.012600000016391277,-0.021399999037384987,0.04910000041127205,0.7480000027434541,3.6179998684535906,-0.07300000130214508
0.04061523824930191,-0.03242706507444382,9.87113094329834,-0.002699999837204814,0.0058999997563660145,0.04910000041127205,0.985000043062639,1.6170000082848577,0.0269999995907449
0.03116292878985405,-0.0515327975153923,9.884021759033203,-0.008100000210106373,-0.016300000250339508,0.06870000064373016,0.9060000474098617,1.9039999681754447,0.05900000114378995
0.031766269356012344,-0.055631671100854874,9.881568908691406,-0.002199999988079071,-0.019099999219179153,0.058799996972084045,0.49900001374364444,-4.28499985741707,0.023000000021936765
0.05242343991994858,-0.04722323641180992,9.877211570739746,0.0071000000461936,-0.010400000028312206,0.05889999866485596,-0.5260000183369693,-0.8050000124404733,-0.013000000266153095
0.043967120349407196,-0.05945281684398651,9.877249717712402,-0.004799999762326479,-0.02850000001490116,0.05889999866485596,0.6129999797768299,4.1499998878112985,0.1180000022875799
0.030990546569228172,-0.056675542145967484,9.871417999267578,0.007799999788403511,-0.010599999688565731,0.058799996972084045,-1.1209999950515825,-1.041000017015633,-0.049999999612681666
0.029496565461158752,-0.02921883761882782,9.87685775756836,-0.0024999999441206455,-0.02410000003874302,0.04899999871850014,0.390999995370345,4.256999923801426,0.09800000110848592
0.042166680097579956,-0.03952348232269287,9.874970436096191,-0.006099999882280827,-0.0005999999702908099,0.058799996972084045,0.17400000292100043,-1.9110000583010616,-0.015999999942759198
0.034323275089263916,-0.046131476759910583,9.876139640808105,-0.0026000000070780516,-0.011500000022351742,0.058799996972084045,-0.7440000198499125,5.056000148664572,-0.03999999902313467
0.03490746021270752,-0.05903143808245659,9.876656532287598,0.011099999770522118,-0.028999999165534973,0.058799996972084045,0.1390000058601659,-2.1589999581959933,-0.15999999609253868
0.04249228909611702,-0.06042007356882095,9.864849090576172,0.014999999664723873,-0.029199998825788498,0.04899999871850014,-0.5279999831033136,4.646999883427746,0.15900000036915327
0.039772480726242065,-0.056934114545583725,9.864657402038574,0.029199998825788498,-0.01759999990463257,0.04899999871850014,-1.683000019512985,-4.192000001678177,-0.12799999954207358
0.038067806512117386,-0.04068227484822273,9.872299194335938,0.00930000003427267,-0.003700000001117587,0.04899999871850014,1.3240000473735316,1.851000048093673,-0.009999999755783667
0.03922659903764725,-0.05672342702746391,9.8633451461792,0.024000000208616257,-0.016999999061226845,0.03920000046491623,-0.17400000292100043,5.071999866795327,0.1849999958988795
0.04453215003013611,-0.05146576091647148,9.873199462890625,0.03779999911785126,-0.01640000008046627,0.04899999871850014,-1.550000014673558,-1.083000024160805,-0.05099999867112037
0.044369347393512726,-0.06922116130590439,9.877403259277344,0.03460000082850456,-0.031599998474121094,0.058799996972084045,0.3989999878378547,-6.355999871790031,-0.10999999647985702
0.03884352743625641,-0.052883125841617584,9.868496894836426,0.01489999983459711,-0.013100000098347664,0.04899999871850014,2.183999944662121,-0.5260000183369693,0.09800000110848592
0.03727293387055397,-0.0643274113535881,9.863920211791992,0.003700000001117587,-0.0279999990016222,0.03920000046491623,1.6950000215544627,4.515000074414902,-0.038000000906257256
0.03878606855869293,-0.053754616528749466,9.873543739318848,0.025699999183416367,-0.022699998691678047,0.04899999871850014,1.0710000221193274,5.618000066404269,0.10900000075647161
0.032216377556324005,-0.0517817959189415,9.879576683044434,0.031199999153614044,-0.025499999523162842,0.058799996972084045,-1.339999978947698,4.544999972796891,0.02899999937514897
0.02656606212258339,-0.035108573734760284,9.87292194366455,0.03359999880194664,-0.002099999925121665,0.04899999871850014,-0.46099998949201404,7.039000005771088,-0.015999999942759198
0.0344860814511776,-0.04244440793991089,9.87047004699707,0.0625,-0.010499999858438969,0.04910000041127205,0.67699997287776,4.31099982626637,0.006000000186975531
0.044943954795598984,-0.04983770474791527,9.86740493774414,0.08370000123977661,-0.02199999988079071,0.04910000041127205,0.3510000063523703,5.862999805706273,0.15399999507179982
0.041457995772361755,-0.04057693108916283,9.860979080200195,0.09939999878406525,-0.013100000098347664,0.039400000125169754,2.165000065938438,0.8620000221374924,0.009999999755783667
0.0316321924328804,-0.050632577389478683,9.866783142089844,0.09149999916553497,-0.028699999675154686,0.049300000071525574,1.138000015730627,-6.179999984143965,-0.009999999755783667
0.04959828034043312,-0.05441541597247124,9.86441707611084,0.09359999746084213,-0.031599998474121094,0.04910000041127205,-1.1339999794762325,-6.486999911863114,-0.15999999609253868
0.03933194652199745,-0.06120537221431732,9.856554985046387,0.06560000032186508,-0.03819999843835831,0.03920000046491623,-2.31799993188472,-2.2390000429536485,0.02899999937514897
0.049349285662174225,-0.06276638805866241,9.859399795532227,0.06879999488592148,-0.031599998474121094,0.03920000046491623,1.0040000285080277,7.098000033595305,0.24899998899980968
0.031249120831489563,-0.04597824811935425,9.864781379699707,0.06809999793767929,-0.014599999412894249,0.04910000041127205,0.9380000172799003,-6.473999927438464,-0.23399998644796255
0.03277183324098587,-0.06002742424607277,9.864091873168945,0.04989999905228615,-0.03659999743103981,0.03920000046491623,-1.151000000155277,0.8359999999273398,-0.09999999922536333
0.035252224653959274,-0.052547939121723175,9.86312484741211,0.06159999966621399,-0.03319999948143959,0.05889999866485596,-0.5519999871862691,-7.257999776223792,-0.149999998838045
0.04685931280255318,-0.05856217071413994,9.849736213684082,0.05819999799132347,-0.030499998480081558,0.03929999843239784,2.200000089679699,3.6850001822300076,0.2039999946844815
0.04752011597156525,-0.051341261714696884,9.860950469970703,0.057499997317790985,-0.03460000082850456,0.03920000046491623,-2.289999998269076,-4.8660000807672725,-0.0749999994190225
0.03846045583486557,-0.05362053960561752,9.873189926147461,0.043800000101327896,-0.028099998831748962,0.04899999871850014,2.226000058528999,1.77199994571919,0.07600000181251451
0.045298296958208084,-0.054616525769233704,9.85694694519043,0.04829999804496765,-0.03399999812245369,0.03920000046491623,-2.085999963563955,3.7040000609536903,0.07799999992939192
0.040845081210136414,-0.06020938605070114,9.869148254394531,0.05939999967813492,-0.03720000013709068,0.04899999871850014,-1.7190000256374183,-7.401000031781764,-0.21299999621558977
0.031239543110132217,-0.06155013665556908,9.879979133605957,0.03150000050663948,-0.032899998128414154,0.058799996972084045,2.76399997218574,-1.4919999692325139,-0.04900000055424296
0.041745301336050034,-0.043354205787181854,9.868209838867188,0.03700000047683716,-0.020600000396370888,0.04899999871850014,-0.06800000267489824,9.002999557267099,0.13100000005244303
0.031172506511211395,-0.07017884403467178,9.852849006652832,0.04169999808073044,-0.03989999741315842,0.029399998486042023,-2.006000092249711,-5.58800016802228,-0.23300000406479038
0.03220680356025696,-0.05514325201511383,9.865326881408691,0.03819999843835831,-0.016599999740719795,0.04899999871850014,0.6080000145001161,-8.856000225950083,-0.21999999295971404
0.04813303053379059,-0.03779008239507675,9.86028003692627,0.033299997448921204,0.00139999995008111,0.03920000046491623,0.9459999830669835,-6.028999869520616,-0.31600000929153577
0.03666001558303833,-0.03230256959795952,9.8623685836792,-0.002899999963119626,-0.0009999999310821295,0.03920000046491623,2.700000032445663,-2.4779998879566194,-0.015999999942759198
0.03666001558303833,-0.03230256959795952,9.8623685836792,-0.002899999963119626,-0.0009999999310821295,0.03920000046491623,2.700000032445663,-2.4779998879566194,-0.015999999942759198
0.0444268062710762,-0.0539078451693058,9.870757102966309,-0.01589999906718731,-0.03350000083446503,0.04910000041127205,0.5799999741627662,-9.148999973417999,-0.09500000059811649
0.041841067373752594,-0.02621171995997429,9.864551544189453,-0.04099999740719795,-0.00559999980032444,0.04919999837875366,0.6029999958625494,-8.169000162436339,-0.2399999874687014
0.04234864190220833,-0.05480806529521942,9.866323471069336,-0.06319999694824219,-0.0364999994635582,0.04939999803900719,-1.2059999917250988,-7.356999953148542,-0.007000000079177565
0.03380613029003143,-0.04127603769302368,9.872653007507324,-0.09299999475479126,-0.02319999970495701,0.04959999769926071,-2.091000088923227,1.2170000113834043,-0.06099999926066736
0.041055772453546524,-0.03809653967618942,9.867280960083008,-0.0794999971985817,-0.007599999662488699,0.04959999769926071,0.739999983595518,7.217999627123259,0.23399998644796255
0.03214934095740318,-0.0632643848657608,9.864810943603516,-0.06929999589920044,-0.03889999911189079,0.04939999803900719,2.489999889998097,3.6720001978053576,-0.05499999823992851
0.041525036096572876,-0.054683566093444824,9.875382423400879,-0.04779999703168869,-0.03659999743103981,0.05909999832510948,-0.46099998949201404,-6.575999838069318,-0.1189999980109653
0.03054043836891651,-0.05585193634033203,9.869425773620605,-0.0731000006198883,-0.03529999777674675,0.04939999803900719,-0.7290000172980654,7.818000156083968,0.16999999334703236
0.05025908350944519,-0.04762545973062515,9.868793487548828,-0.03179999813437462,-0.023399999365210533,0.04919999837875366,2.6280000201967963,-1.4280000294924364,-0.0539999991814898
0.030224401503801346,-0.059491124004125595,9.858911514282227,-0.054999999701976776,-0.04999999701976776,0.03949999809265137,-1.1039999743725382,-3.233000034186543,-0.0659999978879142
0.050747498869895935,-0.042741287499666214,9.85379695892334,-0.04389999806880951,-0.02719999849796295,0.02969999983906746,1.9429999214493945,-1.2410000154663596,0.12700000381868817
0.03431369736790657,-0.05316085368394852,9.85700511932373,-0.06709999591112137,-0.042799998074769974,0.03959999978542328,-2.347000061326948,1.5469999608023357,-0.014999999216793838
0.038000769913196564,-0.06477751582860947,9.876455307006836,-0.06300000101327896,-0.046699997037649155,0.05909999832510948,2.0269999357397386,4.4879999097390195,0.06500000216452881
0.04140053689479828,-0.025100810453295708,9.858834266662598,-0.0405999980866909,-0.012899999506771564,0.039400000125169754,-1.4470000149378253,3.190999920319665,0.05099999867112037
0.035434186458587646,-0.05459737405180931,9.861649513244629,-0.0414000004529953,-0.038100000470876694,0.039400000125169754,-0.8089999953340149,-7.549999754751946,-0.1930000017066024
0.04815218225121498,-0.042118798941373825,9.869378089904785,-0.0421999990940094,-0.025999998673796654,0.049300000071525574,1.8459999227344006,3.6599999823204685,0.04600000004387353
0.03966713324189186,-0.055267754942178726,9.8707857131958,-0.04050000011920929,-0.04129999876022339,0.04919999837875366,-0.32700000226941484,0.9610000389796836,0.10199999734224074
0.030655359849333763,-0.05313212424516678,9.872137069702148,-0.04779999703168869,-0.040300000458955765,0.04919999837875366,-0.8140000139715816,-5.483000096798497,-0.2770000026567332
0.04459919035434723,-0.06123410537838936,9.860883712768555,-0.05269999802112579,-0.04769999906420708,0.03949999809265137,-0.43499999396228783,-5.801000044175951,-0.18400000017549412
0.046629469841718674,-0.05964435264468193,9.86851692199707,-0.06830000132322311,-0.04619999974966049,0.0494999997317791,1.0129999766782831,-4.735999809633951,-0.11500000177721047
0.03659297898411751,-0.052030790597200394,9.854965209960938,-0.09070000052452087,-0.039000000804662704,0.039799999445676804,1.634000028963902,0.6759999904945878,0.26600000967885407
0.03462015464901924,-0.06137775257229805,9.876331329345703,-0.08259999752044678,-0.05309999734163284,0.05929999798536301,1.4340000305131753,-2.4550000797002474,-0.021000000237532696
0.033643320202827454,-0.06291962414979935,9.869598388671875,-0.08889999985694885,-0.0568000003695488,0.04959999769926071,1.7240000442749848,0.04600000004387353,0.09300000248123906
0.03604710102081299,-0.061789557337760925,9.857426643371582,-0.08829999715089798,-0.06119999662041664,0.039799999445676804,1.1039999743725382,4.313999986859298,0.0429999995335041
0.032570719718933105,-0.05391742289066315,9.861276626586914,-0.07609999924898148,-0.05419999733567238,0.03969999775290489,0.6870000101528934,-1.9950000725914057,0.004999999877891834
0.029372066259384155,-0.04967489466071129,9.862846374511719,-0.08179999887943268,-0.0559999980032444,0.03969999775290489,-1.7879999840150622,-5.651999894318946,-0.0659999978879142
0.035913024097681046,-0.0549708716571331,9.860692024230957,-0.09489999711513519,-0.051500000059604645,0.03989999741315842,-1.339999978947698,-2.515000089907636,0.038000000906257256
0.034323275089263916,-0.049732357263565063,9.864829063415527,-0.10130000114440918,-0.04749999940395355,0.04969999939203262,0.31699999167470794,-0.7840000088678873,0.017999999727163266
0.02936249040067196,-0.049722783267498016,9.884873390197754,-0.10300000011920929,-0.04809999838471413,0.06939999759197235,0.606999978756091,-3.9000000231500227,-0.13000000432905762
0.036363136023283005,-0.047568000853061676,9.885611534118652,-0.11319999396800995,-0.039799999445676804,0.06949999928474426,-0.37200000992495624,-3.9160001681676007,-0.1319999957758284
0.028280310332775116,-0.04167826473712921,9.87674331665039,-0.13319998979568481,-0.03849999979138374,0.05979999899864197,0.4429999864297975,3.8760000190670674,0.14699999832767557
0.03255156800150871,-0.035060688853263855,9.867635726928711,-0.11219999939203262,-0.02969999983906746,0.04989999905228615,1.4739999661702972,-0.9790000420419002,-0.015999999942759198
0.03622906282544136,-0.05032612010836601,9.874578475952148,-0.11429999768733978,-0.05309999734163284,0.059699997305870056,-1.8679999620510117,6.3000000045587425,-0.0329999989439571
0.03855622559785843,-0.06096595525741577,9.873294830322266,-0.0867999941110611,-0.0575999990105629,0.04969999939203262,-0.0009999999964224499,4.092000055813666,-0.019000000453128628
0.03168007731437683,-0.05381207540631294,9.876799583435059,-0.08489999920129776,-0.04749999940395355,0.05939999967813492,-0.46199997187518627,1.9600000488501446,-0.2770000026567332
0.04372769966721535,-0.04303817078471184,9.866227149963379,-0.06920000165700912,-0.03629999980330467,0.0494999997317791,1.0369999807612387,1.7689999985696734,-0.15699999558216926
0.034917037934064865,-0.052193596959114075,9.865337371826172,-0.0737999975681305,-0.0486999973654747,0.04939999803900719,-0.5459999861655302,3.9290001525922507,0.10499999785261017
0.04051946848630905,-0.04742434620857239,9.872413635253906,-0.052799999713897705,-0.03720000013709068,0.049300000071525574,-2.316999949501548,3.323999925159092,-0.021999999295971403
0.02511996403336525,-0.05877286195755005,9.868449211120605,-0.06300000101327896,-0.050200000405311584,0.049300000071525574,1.4840000034454306,1.1289999608386658,-0.0429999995335041
0.028404807671904564,-0.06456683576107025,9.874156951904297,-0.05949999764561653,-0.053999997675418854,0.05900000035762787,-0.29800000622931916,-0.5530000229302942,0.15399999507179982
0.038115691393613815,-0.06009446457028389,9.87504768371582,-0.0510999970138073,-0.05289999768137932,0.05900000035762787,1.2880000412490984,2.0739999615224773,-0.07099999651516105
0.04518337547779083,-0.057547032833099365,9.875277519226074,-0.035999998450279236,-0.05570000037550926,0.05900000035762787,-1.1750000042382323,0.4579999889816446,-0.0009999999964224499
0.028376078233122826,-0.04725196585059166,9.86997127532959,-0.054099999368190765,-0.03269999846816063,0.04919999837875366,-0.9920000264665501,-1.621000044539252,-0.05499999823992851
0.03337517008185387,-0.06106172129511833,9.87592887878418,-0.048499997705221176,-0.04939999803900719,0.05900000035762787,-0.0749999994190225,-2.8629999356670783,-0.13400000056281244
0.026393678039312363,-0.055842362344264984,9.870509147644043,-0.06589999794960022,-0.03909999877214432,0.049300000071525574,-1.6590000154300297,-6.183000144736893,-0.10199999734224074
0.03589387238025665,-0.06449979543685913,9.867156028747559,-0.07270000129938126,-0.044199999421834946,0.04939999803900719,-1.3279999769062203,-1.2199999585329209,0.014999999216793838
0.03897760435938835,-0.06135860085487366,9.872462272644043,-0.06589999794960022,-0.040300000458955765,0.0494999997317791,-0.3310000118433829,2.219999950786554,-0.05200000106461238
0.03796246275305748,-0.06235458701848984,9.873045921325684,-0.06939999759197235,-0.03920000046491623,0.04939999803900719,1.0359999983780663,-2.9089999790666448,0.09099999769425504
0.042339060455560684,-0.046715665608644485,9.878495216369629,-0.0867999941110611,-0.032099999487400055,0.03969999775290489,1.842999975584884,6.333000063533659,0.1800000039417393
0.03339432552456856,-0.0560338981449604,9.867339134216309,-0.06969999521970749,-0.01899999938905239,0.05929999798536301,-0.7530000213810208,4.2019998255098985,0.05099999867112037
0.029467834159731865,-0.044254425913095474,9.88001823425293,-0.04999999701976776,-0.021699998527765274,0.05900000035762787,-0.5600000063342052,-5.052999988071644,-0.02600000053230619
0.05043146386742592,-0.0580546036362648,9.861649513244629,-0.04399999976158142,-0.03959999978542328,0.03949999809265137,1.1200000126684104,6.091000057937761,0.19799999366374263
0.025464728474617004,-0.05737464874982834,9.87171459197998,-0.05649999901652336,-0.03269999846816063,0.04919999837875366,-1.2600000009117485,4.805999857116473,-0.07699999753589991
0.042923249304294586,-0.04897578805685043,9.872634887695312,-0.023499999195337296,-0.029099998995661736,0.04910000041127205,-2.585999906329919,6.209000113586193,-0.19900000272734125
0.03508942201733589,-0.05187756195664406,9.860270500183105,-0.023499999195337296,-0.029099998995661736,0.04910000041127205,-1.5980000228394688,-1.2299999958080543,0.03899999996469596
0.04677312448620796,-0.04564306139945984,9.872931480407715,-0.00699999975040555,-0.0072999997064471245,0.04910000041127205,0.669999989473849,-9.89899999428865,-0.10100000161885533
0.03847961127758026,-0.042339060455560684,9.87171459197998,-0.033900000154972076,-0.009099999442696571,0.04919999837875366,0.09399999820462447,-7.079000154871622,0.1800000039417393
0.04018428176641464,-0.05975927412509918,9.864858627319336,-0.053199999034404755,-0.02879999950528145,0.04939999803900719,1.4890000220829973,-1.2940000422698372,-0.2050000037480801
0.034371159970760345,-0.05601474270224571,9.88459587097168,-0.06629999727010727,-0.023000000044703484,0.0689999982714653,1.820999936268273,-5.677999863168246,-0.06200000165415938
0.028347346931695938,-0.059653930366039276,9.8779878616333,-0.093299999833107,-0.03830000013113022,0.05929999798536301,1.1219999774347549,-7.114000178612883,-0.041000001416626686
0.03926490619778633,-0.05333323776721954,9.884069442749023,-0.09049999713897705,-0.031099999323487282,0.06929999589920044,-1.352999963372348,4.153000048404227,-0.11299999699022645
0.02623087354004383,-0.04966532066464424,9.871121406555176,-0.09839999675750732,-0.02719999849796295,0.04959999769926071,-2.2779999962275985,3.4089999218326086,-0.18400000017549412
0.029611486941576004,-0.04867890849709511,9.860989570617676,-0.07889999449253082,-0.020899999886751175,0.03969999775290489,-1.488000039699825,9.268999566945952,-0.06500000216452881
0.02926672250032425,-0.0632835403084755,9.874242782592773,-0.053199999034404755,-0.026499999687075615,0.05909999832510948,-0.18400000017549412,0.20800000425844953,0.17400000292100043
0.04273171350359917,-0.05779602751135826,9.862990379333496,-0.042500000447034836,-0.02579999901354313,0.03949999809265137,2.1540000462801325,-2.7960000487774845,0.0269999995907449
0.04891832917928696,-0.05649358406662941,9.859447479248047,-0.03920000046491623,-0.0210999995470047,0.03949999809265137,-2.352999955625981,7.955999859395844,-0.24299998797907083
0.04955997318029404,-0.052308518439531326,9.863958358764648,-0.01719999872148037,-0.014599999412894249,0.039400000125169754,0.5249999825929442,8.141999570873631,0.15800000464576788
0.030128633603453636,-0.06828263401985168,9.862990379333496,-0.014299999922513962,-0.035499997437000275,0.03929999843239784,1.2100000279794934,-10.054000038444688,-0.12400000330831876
0.04186980053782463,-0.05767153203487396,9.863784790039062,-0.03189999982714653,-0.02889999933540821,0.039400000125169754,-0.48599997595814165,9.189999891458292,-0.18900000547284757
0.04296155646443367,-0.055765748023986816,9.86997127532959,-0.003499999875202775,-0.017500000074505806,0.04910000041127205,1.0030000461248556,-10.711000203576447,0.01700000066872456
0.04287536069750786,-0.04901409521698952,9.87838077545166,-0.028999999165534973,-0.01979999989271164,0.05900000035762787,-2.6010000689643245,7.221999556655947,0.007000000079177565
0.043900080025196075,-0.050536807626485825,9.876532554626465,-0.009099999442696571,-0.012600000016391277,0.05889999866485596,1.7659999446984511,-10.05099987785176,-0.20599999947146552
0.03398808836936951,-0.04912902042269707,9.874990463256836,-0.04639999940991402,-0.01730000041425228,0.05900000035762787,1.6369999761134186,-4.846999775156767,-0.0329999989439571
0.03708139434456825,-0.05597643554210663,9.877116203308105,-0.05949999764561653,-0.021699998527765274,0.05909999832510948,-2.7490000229947458,4.783999817799861,0.0429999995335041
0.04050031676888466,-0.057144805788993835,9.879539489746094,-0.03480000048875809,-0.003399999812245369,0.05900000035762787,1.1479999462840547,-6.850000133700373,0
0.0380294993519783,-0.04886086657643318,9.87059497833252,-0.050999999046325684,-0.01589999906718731,0.05909999832510948,0.5420000032719886,-3.0319999466309384,0.3559999983095105
0.04553771764039993,-0.05758533999323845,9.87864875793457,-0.06889999657869339,-0.01730000041425228,0.04939999803900719,-2.5739999042884407,8.155999751124865,-0.049999999612681666
0.0319865345954895,-0.06929777562618256,9.87047004699707,-0.02419999986886978,-0.03009999915957451,0.04910000041127205,-1.4290000118756088,-7.31399964345508,-0.12499999903170415
0.03362416848540306,-0.05406107380986214,9.859160423278809,-0.04399999976158142,-0.0064999996684491634,0.039400000125169754,0.26699999206202624,-7.973999969179767,-0.1180000022875799
0.03642059862613678,-0.051647718995809555,9.864484786987305,-0.065700002014637,-0.007199999876320362,0.04939999803900719,-1.1419999452633156,-10.394000025138753,-0.18400000017549412
0.04237736761569977,-0.058830320835113525,9.862262725830078,-0.08410000056028366,-0.013799999840557575,0.03989999741315842,0.8200000149923204,-7.079999923811382,-0.0429999995335041
0.03778050094842911,-0.04483860731124878,9.8445463180542,-0.11549999564886093,0.0031999999191612005,0.020600000396370888,1.3649999654138256,-10.179999953158498,-0.10999999647985702
0.03714843466877937,-0.05149449035525322,9.884413719177246,-0.1394999921321869,-0.00969999935477972,0.06989999860525131,-0.7149999971293904,-12.396000187855776,-0.30400000725005805
0.034160468727350235,-0.03903506323695183,9.88571548461914,-0.17509999871253967,0.002099999925121665,0.0705999955534935,-2.8190000704772675,9.624000356604657,-0.14300000209392072
0.029649794101715088,-0.045365333557128906,9.877030372619629,-0.14989998936653137,0.00930000003427267,0.06030000001192093,-1.80200005754459,13.06100021205291,0.049999999612681666
0.039657559245824814,-0.04165910929441452,9.884490013122559,-0.1039000004529953,0.014299999922513962,0.06960000097751617,0.2399999874687014,4.142999797685682,-0.07999999804626934
0.035721488296985626,-0.05602432042360306,9.863727569580078,-0.10189999639987946,0.0037999998312443495,0.03999999910593033,0.24599998848944027,-11.937000376573517,0.23499999551156117
0.04185064882040024,-0.058610059320926666,9.871638298034668,-0.12429999560117722,-0.006599999964237213,0.0502999983727932,-1.1329999970930602,-8.357000265567292,-0.2250000115972807
0.0316321924328804,-0.05103480443358421,9.864934921264648,-0.15649999678134918,0.006199999712407589,0.05069999769330025,-2.1390000970891383,10.209999851540488,0.06299999737754478
0.04732858017086983,-0.050249505788087845,9.866084098815918,-0.11829999834299088,0.012000000104308128,0.050200000405311584,1.621000044539252,-9.725000071408928,-0.09300000248123906
0.04156334325671196,-0.04865017533302307,9.85771369934082,-0.1444000005722046,0.007599999662488699,0.04079999774694443,-2.83300003728509,11.063999747808337,-0.149999998838045
0.04130476713180542,-0.05139872431755066,9.86992359161377,-0.1136000007390976,0.01529999915510416,0.050200000405311584,2.6079999456465295,-7.107999857427027,-0.07999999804626934
0.03937982767820358,-0.07206546515226364,9.867827415466309,-0.13259999454021454,-0.011399999260902405,0.05040000006556511,-0.10299999973573276,-1.7560000141450236,-0.23699998695833197
0.03628652170300484,-0.06863696873188019,9.855645179748535,-0.14669999480247498,-0.011099999770522118,0.040699999779462814,2.108999985263738,-13.073999769590737,0.12799999954207358
0.03399766609072685,-0.036382291465997696,9.867587089538574,-0.18199999630451202,0.022199999541044235,0.0510999970138073,-4.084999965688049,19.385999562747546,-0.08100000043976135
0.04996220022439957,-0.05132210999727249,9.867347717285156,-0.1087999939918518,0.013799999840557575,0.050200000405311584,0.48199999306460006,4.160999907469605,-0.2499999980634083
0.044560883194208145,-0.04796064645051956,9.87336254119873,-0.10669999569654465,0.012399999424815178,0.05009999871253967,4.21900016635406,5.106000121596828,0.1610000051561373
0.030990546569228172,-0.05343858152627945,9.875420570373535,-0.10209999978542328,0.0007999999797903001,0.05959999933838844,-0.41499999945330046,-0.7059999955982822,0.06800000267489824
0.037761349231004715,-0.04886086657643318,9.875066757202148,-0.10359999537467957,0.001999999862164259,0.059699997305870056,-3.349999894008392,1.4890000220829973,-0.1180000022875799
0.024727316573262215,-0.05843767523765564,9.873888969421387,-0.10889999568462372,0.0013000000035390258,0.05959999933838844,2.600000086581152,-12.821999940163117,-0.0039999999856897995
0.0409887321293354,-0.03922659903764725,9.890217781066895,-0.10929999500513077,0.006000000052154064,0.06960000097751617,3.835000101026773,15.592999148700827,0.12199999852133472
0.025129541754722595,-0.051695603877305984,9.874272346496582,-0.10929999500513077,0.006000000052154064,0.06960000097751617,0.9200000142176837,-20.86599910305176,0.004999999877891834
0.04593036696314812,-0.0670567974448204,9.87374496459961,-0.08579999953508377,-0.0142000000923872,0.05929999798536301,2.4330000403836363,17.526999655588494,0.15200000362502902
0.045125916600227356,-0.047405194491147995,9.873045921325684,-0.07459999620914459,-0.013499999418854713,0.0494999997317791,1.820999936268273,13.564999870908151,0.5600000063342052
0.04498226195573807,-0.051791369915008545,9.861659049987793,-0.03709999844431877,-0.028299998492002487,0.039400000125169754,-0.6789999910049573,-14.236999985230904,0.019000000453128628
0.043143514543771744,-0.050508078187704086,9.87041187286377,-0.07580000162124634,-0.02630000002682209,0.04959999769926071,3.634999782410929,2.0710000143729608,0.20899999998183494
0.03537672385573387,-0.047970227897167206,9.870221138000488,-0.07959999889135361,-0.03619999811053276,0.0494999997317791,-4.596999910495491,-17.589000697779287,-0.06299999737754478
0.03933194652199745,-0.05957731604576111,9.87015438079834,-0.12370000034570694,-0.03179999813437462,0.050200000405311584,-3.3900000431089254,-24.647000582274057,-0.3600000078834786
0.03571191430091858,-0.050843264907598495,9.869953155517578,-0.19209998846054077,-0.013799999840557575,0.05130000039935112,0.7560000218913903,-3.3900000431089254,0.007000000079177565
0.04410119727253914,-0.060228537768125534,9.85805892944336,-0.19110000133514404,-0.025599999353289604,0.04169999808073044,4.628999773643824,23.980000166423753,0.1629999966029081
0.04566221684217453,-0.0549708716571331,9.887382507324219,-0.12489999830722809,-0.028299998492002487,0.0697999969124794,5.926000189950001,-15.296999240639984,-0.09600000299160849
0.03566402941942215,-0.0562828928232193,9.875210762023926,-0.1761000007390976,-0.044499997049570084,0.06069999933242798,-0.05499999823992851,-24.661999677691405,-0.2890000046982109
0.03703351318836212,-0.04938759282231331,9.873400688171387,-0.2513999938964844,-0.044199999421834946,0.05269999802112579,3.800999846225273,37.06400104050668,0.4139999903897018
0.02531149983406067,-0.05244259163737297,9.869032859802246,-0.17189998924732208,-0.05309999734163284,0.05069999769330025,1.041000017015633,7.370000364460015,-0.19099999691961836
0.03274310380220413,-0.03760812059044838,9.871207237243652,-0.1412999927997589,-0.03629999980330467,0.0502999983727932,2.253000009761471,37.44700048312056,0.23300000406479038
0.023731326684355736,-0.047357309609651566,9.868908882141113,-0.04809999838471413,-0.05209999904036522,0.04919999837875366,0.14699999832767557,-12.983000305505012,-0.0039999999856897995
0.0447811484336853,-0.06049668788909912,9.873908042907715,-0.06359999626874924,-0.07189999520778656,0.05929999798536301,3.3319999976678814,32.646999666529474,0.08400000095013078
0.03450523316860199,-0.049722783267498016,9.871533393859863,0.027300000190734863,-0.0722000002861023,0.04899999871850014,-8.627999973718596,-73.69800069162605,-0.14799999405106096
0.03333686292171478,-0.05333323776721954,9.87281608581543,-0.14880000054836273,-0.05130000039935112,0.05040000006556511,2.091000088923227,15.14999990932297,0.13799999679656727
0.03391147404909134,-0.044350191950798035,9.849209785461426,-0.10700000077486038,-0.0471000000834465,0.03019999898970127,8.575000267080236,26.678000020659663,0.4100000074961602
0.03404554724693298,-0.05316085368394852,9.866888999938965,-0.03359999880194664,-0.08009999990463257,0.04919999837875366,-4.208000146695754,32.20900012562407,0.05799999875029794
0.04471411183476448,-0.06675992161035538,9.8702974319458,0.06439999490976334,-0.07819999754428864,0.04910000041127205,-6.680999909293101,-24.908999808646577,0.09600000299160849
0.04895663633942604,-0.050469771027565,9.864197731018066,-0.002300000051036477,-0.047599997371435165,0.04910000041127205,-1.1409999628801435,-5.849999821281623,-0.23199999500119176
0.03379655256867409,-0.05101565271615982,9.87047004699707,-0.03579999879002571,-0.04470000043511391,0.04910000041127205,-0.27500001120996237,6.721000058393635,0.2469999975530389
0.03829764947295189,-0.04996220022439957,9.868555068969727,-0.01730000041425228,-0.043699998408555984,0.04910000041127205,9.094999644066231,34.014000557205,0.04200000047506539
0.03941813483834267,-0.05827486887574196,9.87238597869873,0.08559999614953995,-0.07819999754428864,0.04919999837875366,3.671000001978774,13.911999947727834,0.18199999538851008
0.03503195941448212,-0.06192363426089287,9.872308731079102,0.11379999667406082,-0.08810000121593475,0.0494999997317791,1.1359999442425768,-6.603999771684962,-0.29999999767609
0.03855622559785843,-0.05591897666454315,9.86664867401123,0.16589999198913574,-0.11949999630451202,0.0502999983727932,13.878000119813155,9.7479998796653,-1.0220000315702444
0.03649721294641495,-0.04445553570985794,9.886032104492188,0.16589999198913574,-0.11949999630451202,0.0502999983727932,22.642000258964107,10.863999856079317,-0.5029999966371861
0.03611414134502411,-0.06370491534471512,9.886741638183594,0.21169999241828918,-0.22839999198913574,0.07209999859333038,3.5490000167976525,7.282000207193571,0.3860000034132048
0.0440724641084671,-0.057853490114212036,9.86295223236084,0.24089999496936798,-0.23759999871253967,0.043299999088048935,-10.007999568158299,-15.217000649986211,-0.23699998695833197
0.04796064645051956,-0.05964435264468193,9.863248825073242,0.20839999616146088,-0.20960000157356262,0.041999999433755875,-1.1080000106269328,-7.138000182695838,-0.19699999794035722
0.038565799593925476,-0.057451263070106506,9.853509902954102,0.20839999616146088,-0.20960000157356262,0.041999999433755875,11.941000306106206,11.329999757487192,-0.8290000165234287
0.03121081367135048,-0.0617225207388401,9.877835273742676,0.19909998774528503,-0.2378999888896942,0.06229999661445618,-1.0499999651858885,-0.9930000088497223,-1.8860000718349341
0.044398076832294464,-0.06339845806360245,9.858498573303223,0.20569999516010284,-0.23429998755455017,0.042500000447034836,7.374000293992704,7.596000225038336,-1.1980000259380155
0.04597824811935425,-0.056675542145967484,9.863182067871094,0.22589999437332153,-0.24390000104904175,0.043299999088048935,9.123000004568699,17.49899929508603,-0.8099999777171871
0.03639186546206474,-0.05158068239688873,9.859370231628418,0.2692999839782715,-0.2712000012397766,0.045099999755620956,-7.0350000762384,2.2740000666949096,-1.3029999904400926
0.03615244850516319,-0.045796290040016174,9.865346908569336,0.27410000562667847,-0.24369999766349792,0.05460000038146973,6.5939999478532405,9.414000214157092,-1.4069999725589977
0.040059782564640045,-0.05192544683814049,9.857531547546387,0.3089999854564667,-0.27070000767707825,0.045899998396635056,5.082000117513871,-0.23399998644796255,-0.05799999875029794
0.04023216664791107,-0.047146622091531754,9.868842124938965,0.3075000047683716,-0.27390000224113464,0.0559999980032444,5.370999935449097,-6.392999860297636,-3.190999920319665
0.03754108399152756,-0.046457089483737946,9.880218505859375,0.27950000762939453,-0.28759998083114624,0.06560000032186508,-7.601999692450546,-6.554999994579291,4.186999876318904
0.033777397125959396,-0.05022077634930611,9.860548973083496,0.2581000030040741,-0.2733999788761139,0.04490000009536743,1.9230000603425395,-4.389000159701093,0.6650000241971352
0.03368162736296654,-0.04296155646443367,9.870660781860352,0.2467999905347824,-0.26739999651908875,0.054499998688697815,4.740000166053463,0.13600000534979648,-3.1110000490054217
0.04474284127354622,-0.06025726720690727,9.879587173461914,0.2563000023365021,-0.29889997839927673,0.06459999829530716,5.828999977791595,1.7200000080205904,-1.5939999865850745
0.03343263268470764,-0.04993347078561783,9.865653038024902,0.25049999356269836,-0.30410000681877136,0.055299997329711914,-2.5359999333976635,7.013000036921788,7.500000208706514
0.047261543571949005,-0.0381539985537529,9.870556831359863,0.27809998393058777,-0.27719998359680176,0.05549999698996544,0.019000000453128628,-1.4499999620873418,-1.0499999651858885
0.041055772453546524,-0.06299623847007751,9.880075454711914,0.2733999788761139,-0.30559998750686646,0.06520000100135803,-3.8630000346424174,-3.9000000231500227,5.1739997774261814
0.04057693108916283,-0.054587800055742264,9.870038986206055,0.2615000009536743,-0.2847000062465668,0.05480000004172325,4.374999979449859,-3.8520000149841116,-2.449999954340975
0.036171600222587585,-0.0540323443710804,9.867146492004395,0.24049998819828033,-0.2955999970436096,0.05480000004172325,-0.08200000283325337,6.536999884795368,0.03599999945432653
0.03182372823357582,-0.060793567448854446,9.859246253967285,0.25759997963905334,-0.3042999804019928,0.045399997383356094,-0.6399999843701547,-8.41200036385882,0.8200000149923204
0.04120900109410286,-0.05227978900074959,9.849678993225098,0.2434999942779541,-0.29189997911453247,0.03500000014901161,1.3440000152020926,-0.7579999866577346,0.4769999744270334
0.03489788621664047,-0.05088157206773758,9.8640718460083,0.23089998960494995,-0.2945999801158905,0.04479999840259552,-4.942999791488589,-3.0689999351385437,-1.7819999829943234
0.026719290763139725,-0.05006754770874977,9.852973937988281,0.21199999749660492,-0.2800999879837036,0.03439999744296074,-0.5990000129690077,-2.259999886443676,-1.8179999891187564
0.041716571897268295,-0.048832137137651443,9.862846374511719,0.2248999923467636,-0.2775000035762787,0.04399999976158142,1.939999974299878,4.591999785136219,0.1930000017066024
0.03639186546206474,-0.05951027572154999,9.849113464355469,0.22689999639987946,-0.29170000553131104,0.03460000082850456,2.918000033958606,5.697000168778752,1.080999952672755
0.0428849421441555,-0.0515327975153923,9.867328643798828,0.2514999806880951,-0.2890999913215637,0.05469999834895134,-2.450999936724147,0.690999993046435,-0.8989999572842449
0.04263594374060631,-0.04477157071232796,9.87292194366455,0.2410999983549118,-0.28039997816085815,0.05419999733567238,-1.6389999408797629,-3.5779999327964687,-0.3600000078834786
0.026048913598060608,-0.0376751609146595,9.882795333862305,0.21199999749660492,-0.24869999289512634,0.06359999626874924,-1.9909999296153054,-5.93099988842245,-0.42599999243117953
0.042904093861579895,-0.056292470544576645,9.871332168579102,0.21469999849796295,-0.2619999945163727,0.05329999700188637,-2.844000056943395,-5.032000144581617,-0.5609999887173774
0.03988740220665932,-0.05196375399827957,9.865537643432617,0.20029999315738678,-0.2533999979496002,0.052799999713897705,-2.241999990103165,2.967000024507689,-0.26600000967885407
0.03796246275305748,-0.05092945694923401,9.8677978515625,0.19900000095367432,-0.24569998681545258,0.052799999713897705,-1.300000043290576,4.273000068819004,-0.0859999990670082
0.028586769476532936,-0.05076665058732033,9.870671272277832,0.1987999975681305,-0.241799995303154,0.05289999768137932,0.22199999774669807,-0.40400000647542134,0.28600000418784144
0.033921051770448685,-0.059155937284231186,9.872844696044922,0.20679999887943268,-0.2514999806880951,0.05289999768137932,2.183999944662121,4.485000176032914,0.5189999815722054
0.03723462298512459,-0.04743392392992973,9.861132621765137,0.21849998831748962,-0.23709999024868011,0.04339999705553055,0.6930000111736323,-3.3430000173261867,-0.47899999255423065
0.042425256222486496,-0.04746265336871147,9.857627868652344,0.21849998831748962,-0.23829999566078186,0.04319999739527702,-2.5180000370571527,-3.6089998135616295,-0.2680000011256249
0.03938940912485123,-0.044943954795598984,9.855567932128906,0.20679999887943268,-0.2298000007867813,0.042799998074769974,1.5060000427620417,2.968000006890861,0.46000000710884187
0.039015911519527435,-0.052806511521339417,9.853462219238281,0.21319998800754547,-0.24249999225139618,0.03319999948143959,1.653999996792463,2.6699999206202625,0.3150000002279371
0.03693774342536926,-0.04064396768808365,9.870221138000488,0.210099995136261,-0.23649999499320984,0.05299999937415123,-2.1280000774308325,0.7350000183188042,-0.30799999014359963
0.03201526775956154,-0.03779008239507675,9.875277519226074,0.21149998903274536,-0.22019998729228973,0.06269999593496323,2.0129999689319162,3.2479999833775373,0.26699999206202624
0.03225468471646309,-0.030013712123036385,9.873601913452148,0.21969999372959137,-0.22499999403953552,0.053199999034404755,-1.5000000417413029,-4.1550000131705715,-0.13400000056281244
0.0382784940302372,-0.05846640467643738,9.874914169311523,0.20629999041557312,-0.249099999666214,0.06260000169277191,1.0859999713103217,4.574999871178879,-0.07999999804626934
0.028921956196427345,-0.05276820436120033,9.871399879455566,0.2166999876499176,-0.24120000004768372,0.05299999937415123,-1.9140000054505781,-2.226000058528999,-0.09399999820462447
0.045202530920505524,-0.05681919306516647,9.876532554626465,0.21979999542236328,-0.2352999895811081,0.06260000169277191,0.5069999795307276,-3.069999917521716,-0.10600000024610218
0.029391219839453697,-0.05163814127445221,9.872021675109863,0.20099999010562897,-0.23600000143051147,0.05260000005364418,-1.4710000190207806,0.06200000165415938,0.07699999753589991
0.03236003220081329,-0.05152321979403496,9.858317375183105,0.2004999965429306,-0.2312999963760376,0.04270000010728836,-1.5659999462477245,-2.0230000062070497,-0.2929999875917525
0.032762255519628525,-0.04914817586541176,9.866016387939453,0.19370000064373016,-0.22579999268054962,0.052299998700618744,0.3770000018820965,-2.4029999285582364,-0.05300000012305109
0.023396139964461327,-0.05848555639386177,9.862473487854004,0.17759999632835388,-0.23579999804496765,0.042399998754262924,1.1659999493462712,2.1560000110464768,0.13700000107318186
0.021107282489538193,-0.06272808462381363,9.860116958618164,0.18289999663829803,-0.23829999566078186,0.042500000447034836,-0.019999999511567335,0.9839999539577611,0.14499999354069154
0.038134846836328506,-0.04823837801814079,9.859073638916016,0.20469999313354492,-0.22779999673366547,0.03280000016093254,-0.26300000916848465,3.833000136260429,0.09600000299160849
0.03667916730046272,-0.05424303561449051,9.867644309997559,0.20479999482631683,-0.2263999879360199,0.04270000010728836,-1.8199999538851008,-2.055000082798794,-0.2399999874687014
0.04421611875295639,-0.046715665608644485,9.859465599060059,0.20579999685287476,-0.2222999930381775,0.05249999836087227,-0.9049999583049837,-1.4950000231037361,-0.09300000248123906
0.055057063698768616,-0.04095042496919632,9.856689453125,0.21449999511241913,-0.203699991106987,0.04230000078678131,-1.882999911242006,0.13600000534979648,-0.07000000079177565
0.03431369736790657,-0.045039720833301544,9.858287811279297,0.1946999877691269,-0.1979999989271164,0.0421999990940094,-0.30700000776042746,-0.4229999919208101,-0.11500000177721047
0.040222588926553726,-0.044752418994903564,9.875679969787598,0.202799990773201,-0.1964999884366989,0.0616999976336956,0.07300000130214508,1.9110000583010616,0.12199999852133472
0.04080677404999733,-0.042655099183321,9.871638298034668,0.20809999108314514,-0.19619999825954437,0.05199999734759331,-0.8780000070725118,1.4859999682117748,0.18400000017549412
0.02713109366595745,-0.04213795065879822,9.882307052612305,0.1914999932050705,-0.19349999725818634,0.061799999326467514,0.941999946812589,-0.6029999958625494,-0.03599999945432653
0.047788266092538834,-0.044848185032606125,9.870115280151367,0.20889998972415924,-0.19550000131130219,0.05199999734759331,-1.2580000361454042,-2.5699999747557523,-0.321000001248676
0.02807919681072235,-0.038211461156606674,9.87059497833252,0.1816999912261963,-0.1816999912261963,0.05179999768733978,-0.9639999861292001,-0.7009999769607155,0.17899999487814064
0.0418219156563282,-0.050057969987392426,9.86436939239502,0.1987999975681305,-0.19820000231266022,0.05169999971985817,-0.1800000039417393,2.219999950786554,0.0019999999928448997
0.054875101894140244,-0.06417418271303177,9.865556716918945,0.2141999900341034,-0.2069000005722046,0.05179999768733978,-0.9130000308137727,-0.6380000196038104,-0.1939999974299878
0.04616978392004967,-0.05680961534380913,9.871341705322266,0.2020999938249588,-0.19409999251365662,0.05169999971985817,-0.07600000181251451,0.969999987149939,-0.14300000209392072
0.046935927122831345,-0.04800853505730629,9.858010292053223,0.20419999957084656,-0.19329999387264252,0.04189999774098396,0.029999998433587676,1.118000047902066,-0.10600000024610218
0.03538630157709122,-0.04866933077573776,9.864044189453125,0.19689999520778656,-0.19290000200271606,0.041999999433755875,-0.6639999884531101,0.2589999995945166,-0.009999999755783667
0.037828389555215836,-0.06262274086475372,9.866534233093262,0.19699999690055847,-0.20029999315738678,0.05179999768733978,-0.283000003677472,-2.743999897635473,-0.14099999730693671
0.04334462806582451,-0.049847278743982315,9.856861114501953,0.1987999975681305,-0.1891999989748001,0.04179999977350235,0.7089999961086516,0.9000000463891228,0.09999999922536333
0.03922659903764725,-0.03984909504652023,9.869914054870605,0.20069999992847443,-0.18079999089241028,0.05159999802708626,-0.4999999961268166,0.2039999946844815,-0.1509999945614304
0.04255932942032814,-0.057432111352682114,9.869292259216309,0.20069999992847443,-0.18869999051094055,0.05159999802708626,-0.34899998822517303,1.3730000379226146,0.13400000056281244
0.02184469625353813,-0.0362577885389328,9.863632202148438,0.1842999905347824,-0.16759999096393585,0.04179999977350235,-0.11200000126684104,0.669999989473849,-0.019999999511567335
0.03146938607096672,-0.04556644707918167,9.886117935180664,0.19539999961853027,-0.17669999599456787,0.07129999995231628,-0.3150000002279371,1.0309999797404998,-0.1199999937343507
0.03398808836936951,-0.06402094662189484,9.881837844848633,0.19769999384880066,-0.19489999115467072,0.06149999797344208,-0.06500000216452881,-0.5579999882070079,-0.06899999839828364
0.03359543904662132,-0.04479072615504265,9.868851661682129,0.19569998979568481,-0.17459999024868011,0.05159999802708626,-0.06700000028140622,-1.1349999618594047,0.08100000043976135
0.031478963792324066,-0.05246174708008766,9.876867294311523,0.19209998846054077,-0.18379999697208405,0.061400000005960464,-0.32299999269544677,-0.8260000160130593,-0.28799999563461226
0.03303040564060211,-0.05657019838690758,9.874195098876953,0.17919999361038208,-0.17249999940395355,0.051500000059604645,-0.19499999315337319,0.6639999884531101,-0.024000000747902123
0.04034708812832832,-0.059251703321933746,9.875239372253418,0.18940000236034393,-0.1824999898672104,0.06129999831318855,0.1830000044521087,0.5780000093964218,0.05300000012305109
0.03982993960380554,-0.058897361159324646,9.865738868713379,0.20069999992847443,-0.19119998812675476,0.06129999831318855,0.2399999874687014,-0.6889999749192377,-0.021000000237532696
0.04743392392992973,-0.04873637109994888,9.867328643798828,0.19919998943805695,-0.18150000274181366,0.051500000059604645,0.5930000119482689,0.5780000093964218,-0.10900000075647161
0.03751235082745552,-0.06171294301748276,9.865020751953125,0.19039998948574066,-0.19249999523162842,0.051500000059604645,0.363000008393848,0.03899999996469596,-0.09899999683187131
0.033873166888952255,-0.043277591466903687,9.862549781799316,0.1899999976158142,-0.17339999973773956,0.04169999808073044,0.20099999417411205,1.38199998609287,0.04200000047506539
0.04049073904752731,-0.05054638534784317,9.856554985046387,0.2035999894142151,-0.1832999885082245,0.04179999977350235,-0.4590000247256697,0.21999999295971404,0.05600000063342052
0.04080677404999733,-0.06142564117908478,9.867712020874023,0.2035999894142151,-0.1914999932050705,0.05159999802708626,-0.10100000161885533,-1.138000015730627,0.006000000186975531
0.052883125841617584,-0.04813303053379059,9.869254112243652,0.20979999005794525,-0.1809999942779541,0.051500000059604645,0.4679999728959251,0.0030000000934877653,-0.07900000232288394
0.04867890849709511,-0.052547939121723175,9.871782302856445,0.20919999480247498,-0.1817999929189682,0.051500000059604645,-0.07600000181251451,2.064999906630516,-0.1800000039417393
0.037502776831388474,-0.06768887490034103,9.877317428588867,0.1947999894618988,-0.20069999992847443,0.061400000005960464,-0.564999971610919,1.0880000427983718,-0.16500000138989213
0.023597251623868942,-0.03877649083733559,9.875555992126465,0.18779999017715454,-0.16899999976158142,0.061400000005960464,-0.325000010822644,0.21700000578955783,-0.08899999957737763
0.028471847996115685,-0.050536807626485825,9.876302719116211,0.18779999017715454,-0.17759999632835388,0.061400000005960464,-0.551000004803097,0.18099999966512467,-0.25100000712700693
0.04154418781399727,-0.057336341589689255,9.870048522949219,0.20739999413490295,-0.17559999227523804,0.051500000059604645,-0.16500000138989213,-1.3870000047304367,-0.09099999769425504
0.04011724516749382,-0.06704722344875336,9.881818771362305,0.20309999585151672,-0.19429999589920044,0.06129999831318855,0.024999999806340833,-1.2280000310417098,-0.06099999926066736
0.028826188296079636,-0.04482903331518173,9.870393753051758,0.18949998915195465,-0.16449999809265137,0.05139999836683273,0.17400000292100043,-0.3319999942265551,0.1319999957758284
0.04474284127354622,-0.05882074683904648,9.861525535583496,0.19769999384880066,-0.1841999888420105,0.041600000113248825,-0.3319999942265551,-0.6549999869220019,-0.10999999647985702
0.03389231860637665,-0.05890693888068199,9.862129211425781,0.1859000027179718,-0.18289999663829803,0.04149999842047691,-0.4639999900023835,-0.7759999897199512,-0.1180000022875799
0.0414675734937191,-0.04463749751448631,9.864962577819824,0.1930999904870987,-0.1615999937057495,0.05119999870657921,-0.5840000104171607,0.6600000055595685,-0.13600000534979648
0.04822879657149315,-0.0574704185128212,9.87113094329834,0.20419999957084656,-0.17909999191761017,0.05119999870657921,0.25100000712700693,0.42500001004800736,0.06899999839828364
0.04877467826008797,-0.048046842217445374,9.861381530761719,0.20479999482631683,-0.1695999950170517,0.0414000004529953,0.06299999737754478,-0.4240000009844087,0.02899999937514897
0.041457995772361755,-0.053706735372543335,9.857339859008789,0.1931999921798706,-0.16929998993873596,0.0414000004529953,-0.3379999952472939,-1.4840000034454306,-0.0019999999928448997
0.04111323133111,-0.04540364071726799,9.868430137634277,0.1891999989748001,-0.1582999974489212,0.0510999970138073,-0.11699999322398127,1.144999999134538,-0.05200000106461238
0.039398983120918274,-0.05816952511668205,9.872587203979492,0.19179999828338623,-0.17710000276565552,0.05119999870657921,0.4669999905127529,0.13100000005244303,-0.06899999839828364
0.03534799441695213,-0.050555963069200516,9.873563766479492,0.19169999659061432,-0.15839999914169312,0.05119999870657921,0.6410000201141798,0.9800000244250723,-0.0329999989439571
0.03145023435354233,-0.053553506731987,9.8663330078125,0.1832999885082245,-0.16689999401569366,0.05119999870657921,-0.46099998949201404,-1.0199999600821943,-0.15699999558216926
0.025550920516252518,-0.05220317468047142,9.872730255126953,0.18599998950958252,-0.16859999299049377,0.05130000039935112,0.44699999600376555,0.1419999930303221,0.10100000161885533
0.03667916730046272,-0.06224924325942993,9.878753662109375,0.18359999358654022,-0.17839999496936798,0.060999996960163116,-0.2589999995945166,0.40400000647542134,-0.14300000209392072
0.04276043921709061,-0.054616525769233704,9.88149356842041,0.19449999928474426,-0.1678999960422516,0.060999996960163116,0.6369999838597853,-1.5049999536571637,0.07900000232288394
0.03190034255385399,-0.05559336394071579,9.875325202941895,0.18060000240802765,-0.1695999950170517,0.060999996960163116,0.08899999957737763,1.0590000200778498,-0.038000000906257256
0.03424666076898575,-0.05650315806269646,9.876245498657227,0.18369999527931213,-0.16990000009536743,0.060999996960163116,-0.690999993046435,1.109999975393277,-0.09399999820462447
0.034064702689647675,-0.06444232910871506,9.866074562072754,0.18649999797344208,-0.17790000140666962,0.05130000039935112,-0.019000000453128628,-1.6040000238602077,-0.11599999750059588
0.04440765455365181,-0.04694550856947899,9.871983528137207,0.19200000166893005,-0.1581999957561493,0.05119999870657921,0.7690000063160402,-0.43999998591942807,-0.05099999867112037
0.03447650372982025,-0.039801210165023804,9.857799530029297,0.20059999823570251,-0.17009998857975006,0.05119999870657921,0.2549999900205486,1.0439999641651496,-0.03699999851276524
0.04051946848630905,-0.06345592439174652,9.865777015686035,0.18379999697208405,-0.16099999845027924,0.0414000004529953,-0.6750000081114157,0.8500000200960147,-0.04500000098543482
0.043354205787181854,-0.051551952958106995,9.86735725402832,0.1964000016450882,-0.18159998953342438,0.05130000039935112,-0.7560000218913903,0.5089999976579249,-0.041000001416626686
0.04668693244457245,-0.05750872567296028,9.869837760925293,0.20009998977184296,-0.1776999980211258,0.05130000039935112,-0.5729999907588551,1.2069999741082709,-0.09200000008774706
0.04668693244457245,-0.05750872567296028,9.869837760925293,0.20009998977184296,-0.1776999980211258,0.05130000039935112,-0.5729999907588551,1.2069999741082709,-0.09200000008774706
0.04877467826008797,-0.04511633515357971,9.886099815368652,0.21639999747276306,-0.15549999475479126,0.07099999487400055,-0.09500000059811649,1.5060000427620417,-0.06800000267489824
0.027198132127523422,-0.040979158133268356,9.897199630737305,0.1915999948978424,-0.15519998967647552,0.08089999854564667,0.13400000056281244,0.6879999925360656,0.008999999863581633
0.034352004528045654,-0.05322789400815964,9.871389389038086,0.20309999585151672,-0.16529999673366547,0.051500000059604645,0.6720000076010463,-0.3669999912873896,-0.024999999806340833
0.040605660527944565,-0.05725972726941109,9.88094711303711,0.2117999941110611,-0.1671999990940094,0.06129999831318855,-0.3559999983095105,-0.8960000101347283,-0.006000000186975531
0.03139277175068855,-0.054875101894140244,9.878983497619629,0.1995999962091446,-0.16619999706745148,0.06129999831318855,-0.7110000142358488,-0.02600000053230619,-0.128999995265459
0.03139277175068855,-0.054875101894140244,9.878983497619629,0.1995999962091446,-0.16619999706745148,0.06129999831318855,-0.7110000142358488,-0.02600000053230619,-0.128999995265459
0.04185064882040024,-0.06020938605070114,9.861563682556152,0.2190999984741211,-0.16419999301433563,0.05139999836683273,0.35499998924591186,-1.1680000208343213,0.057000003026912535
0.04156334325671196,-0.04858314245939255,9.868736267089844,0.2092999964952469,-0.16519999504089355,0.05139999836683273,-0.4840000111917973,0.5810000099067912,-0.05099999867112037
0.027188554406166077,-0.04011724516749382,9.868114471435547,0.19129998981952667,-0.15410000085830688,0.051500000059604645,0.5140000162954916,0.8260000160130593,0.021999999295971403
0.0345914252102375,-0.05149449035525322,9.846116065979004,0.20340000092983246,-0.16529999673366547,0.03189999982714653,-0.4630000076192113,-0.7110000142358488,-0.05999999686717535
0.03931279480457306,-0.04678269848227501,9.85936164855957,0.21119999885559082,-0.1542000025510788,0.04169999808073044,0.3439999962680328,-0.17400000292100043,0.08100000043976135
0.04122815281152725,-0.049607861787080765,9.851585388183594,0.21069999039173126,-0.16499999165534973,0.03189999982714653,-0.30700000776042746,-0.1849999958988795,0.0269999995907449
0.03900633379817009,-0.04317224398255348,9.858345985412598,0.2101999968290329,-0.15429998934268951,0.041600000113248825,0.49099999459570837,-0.29500000571894974,0.15500000413539844
0.039609674364328384,-0.049914319068193436,9.872653007507324,0.2093999981880188,-0.16539999842643738,0.05139999836683273,-0.08499999667351618,0.8979999749010726,-0.009999999755783667
0.04558560252189636,-0.04981854930520058,9.886377334594727,0.2117999941110611,-0.16519999504089355,0.07109999656677246,-0.42500001004800736,-0.6390000019869825,-0.16800000190026157
0.02893153391778469,-0.05184883251786232,9.851479530334473,0.20029999315738678,-0.1639999896287918,0.03179999813437462,0.12700000381868817,-0.9339999810255059,-0.0329999989439571
0.03344221040606499,-0.0514274537563324,9.873237609863281,0.19739998877048492,-0.16439999639987946,0.05139999836683273,0.18600000496247812,0.5560000234406636,-0.024000000747902123
0.041343074291944504,-0.054750602692365646,9.89384651184082,0.2084999978542328,-0.1648000031709671,0.08079999685287476,-0.05499999823992851,0.9490000369382059,0.038000000906257256
0.0344860814511776,-0.05528690665960312,9.866840362548828,0.2012999951839447,-0.16459999978542328,0.051500000059604645,-0.2549999900205486,0.5300000012305109,-0.02899999937514897
0.036861129105091095,-0.04997177794575691,9.852370262145996,0.20269998908042908,-0.1639000028371811,0.03189999982714653,-0.19699999794035722,0.09200000008774706,-0.14600000260429016
0.02905603125691414,-0.06395391374826431,9.873496055603027,0.2028999924659729,-0.17319999635219574,0.051500000059604645,-0.023000000021936765,0.07300000130214508,-0.07600000181251451
0.03997359052300453,-0.05156152695417404,9.859533309936523,0.21279999613761902,-0.1630999892950058,0.04169999808073044,-0.26200000010488605,-0.7780000078471484,0.035000000395887826
0.034256238490343094,-0.06165548413991928,9.868842124938965,0.20109999179840088,-0.17229999601840973,0.05139999836683273,-0.28499999512424284,0.0969999987149939,-0.10100000161885533
0.032503679394721985,-0.06205770745873451,9.872213363647461,0.2012999951839447,-0.15189999341964722,0.05139999836683273,-0.1319999957758284,0.4579999889816446,-0.06299999737754478
0.03214934095740318,-0.051149725914001465,9.870699882507324,0.20059999823570251,-0.16990000009536743,0.05139999836683273,-0.27200001069959295,0.4010000059650519,0.007999999971379599
0.044685378670692444,-0.04752011597156525,9.863746643066406,0.20179998874664307,-0.15969999134540558,0.05139999836683273,0.28600000418784144,0.5969999948418105,0.13799999679656727
0.03627694398164749,-0.05861963331699371,9.876483917236328,0.2043999880552292,-0.16929998993873596,0.06129999831318855,0.10999999647985702,-0.3150000002279371,-0.11200000126684104
0.027600357308983803,-0.06118621677160263,9.872021675109863,0.19370000064373016,-0.1695999950170517,0.051500000059604645,-0.1079999983629796,-0.1629999966029081,-0.04200000047506539
0.04753926768898964,-0.05507621914148331,9.867951393127441,0.2126999944448471,-0.15929999947547913,0.05139999836683273,-0.09300000248123906,0.1189999980109653,0.06899999839828364
0.04032793268561363,-0.0598263144493103,9.874665260314941,0.21279999613761902,-0.16869999468326569,0.06119999662041664,0.04500000098543482,-0.3819999938392367,-0.07799999992939192
0.035625722259283066,-0.05075707659125328,9.87325668334961,0.20179998874664307,-0.1589999943971634,0.05139999836683273,-0.07600000181251451,-0.021000000237532696,-0.02899999937514897
0.025158271193504333,-0.05402276664972305,9.87002944946289,0.19179999828338623,-0.15869998931884766,0.05139999836683273,0.12799999954207358,-0.004999999877891834,-0.05499999823992851
0.044187385588884354,-0.050728343427181244,9.863497734069824,0.2110999971628189,-0.15879999101161957,0.041600000113248825,-0.1180000022875799,-0.04600000004387353,0.0030000000934877653
0.034936193376779556,-0.04372769966721535,9.877039909362793,0.20099999010562897,-0.1485999971628189,0.06119999662041664,0.08299999855663877,-0.26200000010488605,-0.07199999890865307
0.040960002690553665,-0.05412811413407326,9.86339282989502,0.20999999344348907,-0.15860000252723694,0.041600000113248825,-0.23000000355442093,0.3399999866940647,0.04200000047506539
0.051197610795497894,-0.045154642313718796,9.867539405822754,0.20999999344348907,-0.15860000252723694,0.041600000113248825,0.13799999679656727,-0.34899998822517303,0.02899999937514897
0.04278917238116264,-0.04653370380401611,9.860634803771973,0.2101999968290329,-0.14829999208450317,0.041600000113248825,0.1419999930303221,0.18799999640924894,-0.09399999820462447
0.05030696466565132,-0.04229117929935455,9.87336254119873,0.22049999237060547,-0.14869999885559082,0.05139999836683273,-0.19699999794035722,0.15200000362502902,-0.22299999347008345
0.030186094343662262,-0.05528690665960312,9.864973068237305,0.2012999951839447,-0.15789999067783356,0.05139999836683273,-0.14499999354069154,-0.24399999704266945,-0.149999998838045
0.040586505085229874,-0.054846372455358505,9.86425495147705,0.21040000021457672,-0.1573999971151352,0.05139999836683273,0.07300000130214508,-0.23000000355442093,-0.013000000266153095
0.058351483196020126,-0.04837245121598244,9.875420570373535,0.22919999063014984,-0.15760000050067902,0.06119999662041664,0.18799999640924894,-0.12799999954207358,-0.05200000106461238
0.04552813991904259,-0.03561614453792572,9.871829986572266,0.2092999964952469,-0.13840000331401825,0.05139999836683273,0.09600000299160849,0.16899999762364695,-0.11200000126684104
0.034016817808151245,-0.05402276664972305,9.871322631835938,0.1996999979019165,-0.15809999406337738,0.05139999836683273,-0.05099999867112037,0.09999999922536333,-0.10100000161885533
0.038450878113508224,-0.0497610904276371,9.878016471862793,0.2094999998807907,-0.15779998898506165,0.06119999662041664,0.007000000079177565,0.2250000115972807,-0.0539999991814898
0.04009808972477913,-0.05554547905921936,9.87122631072998,0.210099995136261,-0.15770000219345093,0.05139999836683273,-0.13000000432905762,0.05499999823992851,-0.1079999983629796
0.03113419935107231,-0.05231809616088867,9.873860359191895,0.20019999146461487,-0.15719999372959137,0.06119999662041664,0.05900000114378995,0.13799999679656727,-0.05300000012305109
0.044943954795598984,-0.058734554797410965,9.876436233520508,0.2101999968290329,-0.16699999570846558,0.06119999662041664,-0.0539999991814898,0.2250000115972807,0.004999999877891834
0.042051758617162704,-0.056790463626384735,9.881368637084961,0.21079999208450317,-0.15699999034404755,0.06119999662041664,0.038000000906257256,0.0019999999928448997,-0.08899999957737763
0.032905906438827515,-0.05405149981379509,9.877699851989746,0.20069999992847443,-0.15689998865127563,0.06119999662041664,-0.043999998591942806,-0.24800000661663751,-0.06099999926066736
0.037502776831388474,-0.06323565542697906,9.852178573608398,0.19999998807907104,-0.1665000021457672,0.031700000166893005,-0.30400000725005805,0.05999999686717535,0.14900000311465958
0.03146938607096672,-0.05819825455546379,9.85428524017334,0.20009998977184296,-0.1656000018119812,0.031700000166893005,-0.07799999992939192,0.12400000330831876,-0.0659999978879142
0.051389146596193314,-0.060228537768125534,9.85575008392334,0.20009998977184296,-0.15529999136924744,0.04149999842047691,0.10199999734224074,-0.03899999996469596,-0.0659999978879142
0.042262446135282516,-0.05194459855556488,9.872614860534668,0.2094999998807907,-0.15549999475479126,0.05130000039935112,-0.11200000126684104,0.24800000661663751,-0.012000000373951061
0.043277591466903687,-0.05490383133292198,9.86789321899414,0.2094999998807907,-0.15549999475479126,0.05130000039935112,0.1319999957758284,-0.015999999942759198,0.01700000066872456
0.048161763697862625,-0.06956592202186584,9.858929634094238,0.21949999034404755,-0.17479999363422394,0.04149999842047691,-0.1180000022875799,0.07600000181251451,0.013000000266153095
0.049540821462869644,-0.04710831493139267,9.865959167480469,0.21930000185966492,-0.14479999244213104,0.05130000039935112,0.09999999922536333,0.0009999999964224499,-0.11099999887334903
0.03539587929844856,-0.05206909775733948,9.864790916442871,0.19939999282360077,-0.15459999442100525,0.05130000039935112,0.08799999718388561,0.15200000362502902,0.021000000237532696
0.035721488296985626,-0.048046842217445374,9.877336502075195,0.1995999962091446,-0.15469999611377716,0.06109999865293503,-0.2780000117203318,-0.3469999967784022,-0.04200000047506539
0.046150632202625275,-0.05345773696899414,9.864398002624512,0.20839999616146088,-0.15379999577999115,0.05130000039935112,0.02600000053230619,-0.12299999424472013,0.012000000373951061
0.040414124727249146,-0.04877467826008797,9.87526798248291,0.2076999992132187,-0.15369999408721924,0.06109999865293503,-0.11500000177721047,0.14600000260429016,-0.057000003026912535
0.030454246327280998,-0.04222413897514343,9.88207721710205,0.1981000006198883,-0.14339999854564667,0.06109999865293503,-0.02899999937514897,-0.05900000114378995,-0.01400000015835513
0.031670499593019485,-0.0574704185128212,9.878582000732422,0.19759999215602875,-0.16269999742507935,0.06109999865293503,-0.01400000015835513,-0.019000000453128628,-0.09500000059811649
0.01706586964428425,-0.04736688733100891,9.879156112670898,0.1776999980211258,-0.1428000032901764,0.06109999865293503,-0.06099999926066736,0.23399998644796255,-0.029999998433587676
0.03624821454286575,-0.05456864461302757,9.868247985839844,0.19789999723434448,-0.15240000188350677,0.05130000039935112,0.1079999983629796,0.010999999647985701,-0.021999999295971403
0.027102364227175713,-0.05776729807257652,9.861123085021973,0.18769998848438263,-0.1621999889612198,0.0414000004529953,0.13600000534979648,0.08700000146050021,0.019000000453128628
0.036880284547805786,-0.056340355426073074,9.868229866027832,0.19739998877048492,-0.15240000188350677,0.05119999870657921,-0.05200000106461238,0.007999999971379599,-0.07300000130214508
0.04118984565138817,-0.047663770616054535,9.869330406188965,0.2069000005722046,-0.14219999313354492,0.05119999870657921,-0.1419999930303221,0.2069999951948509,0.021999999295971403
0.03893929719924927,-0.03762727230787277,9.854256629943848,0.20739999413490295,-0.13199999928474426,0.031599998474121094,-0.12100000279794933,-0.0009999999964224499,-0.1180000022875799
0.04163995757699013,-0.06556282192468643,9.868880271911621,0.2069999873638153,-0.1606999933719635,0.05119999870657921,-0.05200000106461238,0.008999999863581633,-0.08700000146050021
0.036363136023283005,-0.04748180881142616,9.858786582946777,0.19679999351501465,-0.14069999754428864,0.0414000004529953,-0.01700000066872456,0.2710000016359943,0.02899999937514897
0.056771308183670044,-0.04687846824526787,9.859734535217285,0.21699999272823334,-0.1404999941587448,0.0414000004529953,-0.057000003026912535,0.13600000534979648,0
0.03170880675315857,-0.06365703791379929,9.855510711669922,0.1973000019788742,-0.15959998965263367,0.0414000004529953,-0.05900000114378995,-0.04900000055424296,-0.019000000453128628
0.03447650372982025,-0.04073973372578621,9.871284484863281,0.19679999351501465,-0.1395999938249588,0.05119999870657921,0.017999999727163266,0.05300000012305109,0.05200000106461238
0.032312143594026566,-0.06343676894903183,9.864197731018066,0.1964999884366989,-0.1589999943971634,0.05119999870657921,-0.325000010822644,0.31699999167470794,-0.07600000181251451
0.038900990039110184,-0.05568913370370865,9.872567176818848,0.20719999074935913,-0.14800000190734863,0.05119999870657921,-0.06399999977103679,-0.07000000079177565,-0.04200000047506539
0.03359543904662132,-0.04388092830777168,9.878610610961914,0.19689999520778656,-0.13779999315738678,0.060999996960163116,-0.006000000186975531,-0.09999999922536333,0.05300000012305109
0.03603752702474594,-0.04747223109006882,9.87602424621582,0.19629999995231628,-0.13759998977184296,0.060999996960163116,-0.13600000534979648,0.19600000221697184,-0.008999999863581633
0.044206537306308746,-0.049636587500572205,9.87761402130127,0.20659999549388885,-0.1468999981880188,0.05119999870657921,-0.008999999863581633,0.10600000024610218,-0.0429999995335041
0.03860410675406456,-0.05333323776721954,9.873132705688477,0.20600000023841858,-0.14649999141693115,0.060999996960163116,0.16999999334703236,0.0039999999856897995,-0.013000000266153095
0.04163037985563278,-0.05266286060214043,9.84811782836914,0.2053999900817871,-0.1460999995470047,0.03150000050663948,0.07000000079177565,0.13300000483942703,0.14699999832767557
0.04301901534199715,-0.05313212424516678,9.866677284240723,0.2052999883890152,-0.1459999978542328,0.0510999970138073,-0.10499999785261017,0.021999999295971403,-0.04600000004387353
0.04037581756711006,-0.03535757213830948,9.8457612991333,0.20469999313354492,-0.1256999969482422,0.03150000050663948,0.05900000114378995,-0.03599999945432653,0.0039999999856897995
0.04173572361469269,-0.035156454890966415,9.855865478515625,0.20419999957084656,-0.12549999356269836,0.04129999876022339,0.1610000051561373,0.015999999942759198,-0.015999999942759198
0.02241930365562439,-0.05462610721588135,9.862712860107422,0.18410000205039978,-0.1451999992132187,0.04129999876022339,0.0009999999964224499,0.09899999683187131,-0.019999999511567335
0.04156334325671196,-0.050910305231809616,9.86180305480957,0.20349998772144318,-0.14489999413490295,0.04129999876022339,-0.10900000075647161,-0.17400000292100043,0.08299999855663877
0.038163572549819946,-0.04153461009263992,9.86441707611084,0.19280000030994415,-0.13449999690055847,0.0510999970138073,-0.09399999820462447,0.08700000146050021,-0.1199999937343507
0.04069185256958008,-0.05564124509692192,9.86792278289795,0.20239999890327454,-0.1437000036239624,0.0510999970138073,-0.021000000237532696,-0.05600000063342052,-0.029999998433587676
0.03354755416512489,-0.05815994739532471,9.867635726928711,0.18930000066757202,-0.1508999913930893,0.050999999046325684,0.01400000015835513,-0.13700000107318186,0.021000000237532696
0.02891238033771515,-0.04364151135087013,9.875526428222656,0.18609999120235443,-0.12950000166893005,0.06069999933242798,-0.09200000008774706,0.09200000008774706,-0.04500000098543482
0.04506845027208328,-0.05237555876374245,9.876311302185059,0.19339999556541443,-0.1370999962091446,0.06069999933242798,0.03400000133744912,0.05499999823992851,0.06299999737754478
0.04050031676888466,-0.06496905535459518,9.87113094329834,0.19039998948574066,-0.14459998905658722,0.05079999938607216,0.0429999995335041,0.048000001495804245,-0.04200000047506539
0.03947559744119644,-0.052614975720644,9.885869026184082,0.1881999969482422,-0.13329999148845673,0.07029999792575836,-0.0030000000934877653,-0.06800000267489824,-0.007999999971379599
0.0439479686319828,-0.05101565271615982,9.855817794799805,0.18439999222755432,-0.1306999921798706,0.04079999774694443,0.03599999945432653,-0.035000000395887826,-0.04200000047506539
0.0296210628002882,-0.0527203232049942,9.870967864990234,0.17159999907016754,-0.12870000302791595,0.050599999725818634,-0.17700000343136985,-0.019000000453128628,0.12499999903170415
0.03798161819577217,-0.049224790185689926,9.8623685836792,0.16830000281333923,-0.1256999969482422,0.040699999779462814,0.03699999851276524,0.05600000063342052,-0.057000003026912535
0.045767560601234436,-0.04133350029587746,9.857522010803223,0.17489999532699585,-0.11379999667406082,0.0405999980866909,0.024000000747902123,0.021999999295971403,-0.03599999945432653
0.04212837293744087,-0.03627694398164749,9.865068435668945,0.17219999432563782,-0.10239999741315842,0.05040000006556511,0.06399999977103679,0.03899999996469596,0.0019999999928448997
0.0322355292737484,-0.049588706344366074,9.860663414001465,0.15940000116825104,-0.11989999562501907,0.04050000011920929,0.043999998591942806,0.15699999558216926,-0.14699999832767557
0.03622906282544136,-0.04450342059135437,9.863996505737305,0.15680000185966492,-0.10819999873638153,0.04050000011920929,-0.10199999734224074,0.1509999945614304,-0.008999999863581633
0.03369120880961418,-0.04504929855465889,9.856315612792969,0.15429998934268951,-0.10589999705553055,0.04039999842643738,0.09600000299160849,0,-0.05999999686717535
0.04209006577730179,-0.04518337547779083,9.868908882141113,0.1615999937057495,-0.10449999570846558,0.050200000405311584,-0.07699999753589991,-0.0039999999856897995,-0.015999999942759198
0.03111504577100277,-0.03967671096324921,9.87504768371582,0.14970000088214874,-0.10289999842643738,0.05989999696612358,-0.15599999985878385,-0.09099999769425504,-0.08700000146050021
0.04841075837612152,-0.05376419425010681,9.873581886291504,0.1665000021457672,-0.11050000041723251,0.05009999871253967,-0.009999999755783667,0.010999999647985701,0.05300000012305109
0.03537672385573387,-0.04689761996269226,9.86943531036377,0.14469999074935913,-0.09919999539852142,0.04999999701976776,-0.05099999867112037,0.06099999926066736,-0.11299999699022645
0.034821268171072006,-0.06707596033811569,9.880266189575195,0.13300000131130219,-0.09749999642372131,0.04999999701976776,-0.14300000209392072,-0.21700000578955783,-0.0659999978879142
0.04043327644467354,-0.04305732250213623,9.870393753051758,0.15219999849796295,-0.09640000015497208,0.04999999701976776,-0.017999999727163266,0.2250000115972807,-0.05300000012305109
0.04636131972074509,-0.04888959974050522,9.869272232055664,0.15279999375343323,-0.10610000044107437,0.04999999701976776,0.0269999995907449,0.13700000107318186,-0.05300000012305109
0.02163400687277317,-0.05684792250394821,9.865423202514648,0.13329999148845673,-0.10599999874830246,0.04999999701976776,-0.06700000028140622,0.007999999971379599,0.004999999877891834
0.04633259028196335,-0.04985685646533966,9.86523151397705,0.1525999903678894,-0.10559999942779541,0.04999999701976776,0.10999999647985702,-0.0030000000934877653,0.057000003026912535
0.03149811923503876,-0.04528871923685074,9.864091873168945,0.14249999821186066,-0.0957999974489212,0.04019999876618385,-0.09000000197086964,0.128999995265459,-0.013000000266153095
0.033020827919244766,-0.056598927825689316,9.852982521057129,0.14239999651908875,-0.10509999841451645,0.030399998649954796,0.1419999930303221,-0.029999998433587676,-0.041000001416626686
0.04618893936276436,-0.05916551128029823,9.859293937683105,0.1516999900341034,-0.11499999463558197,0.04019999876618385,0.014999999216793838,0.16400000566650674,-0.09099999769425504
0.037445317953825,-0.05123591795563698,9.848108291625977,0.1419999897480011,-0.10489999502897263,0.030399998649954796,-0.05200000106461238,0.043999998591942806,0.04900000055424296
0.04373727738857269,-0.04929182305932045,9.866141319274902,0.15160000324249268,-0.10459999740123749,0.04999999701976776,0.049999999612681666,-0.19699999794035722,-0.008999999863581633
0.04251144453883171,-0.04810430109500885,9.856143951416016,0.15070000290870667,-0.10439999401569366,0.04010000079870224,0.05499999823992851,-0.13300000483942703,-0.06500000216452881
0.03251326084136963,-0.05855259671807289,9.872749328613281,0.14019998908042908,-0.11419999599456787,0.04989999905228615,-0.17899999487814064,-0.27500001120996237,-0.0269999995907449
0.02438254840672016,-0.04241567477583885,9.878552436828613,0.12960000336170197,-0.09399999678134918,0.059699997305870056,-0.14600000260429016,0.0329999989439571,0
0.03803907707333565,-0.044867340475320816,9.869550704956055,0.13920000195503235,-0.093299999833107,0.04989999905228615,0.038000000906257256,-0.149999998838045,0.038000000906257256
0.0334039032459259,-0.04564306139945984,9.882172584533691,0.13859999179840088,-0.09319999814033508,0.059699997305870056,-0.06399999977103679,0.29399999665535115,-0.05499999823992851
0.03985866904258728,-0.052950166165828705,9.876340866088867,0.14919999241828918,-0.10279999673366547,0.059699997305870056,-0.14499999354069154,-0.11699999322398127,-0.019999999511567335
0.03812526538968086,-0.055219866335392,9.855769157409668,0.1386999934911728,-0.10209999978542328,0.04010000079870224,-0.06399999977103679,0.024999999806340833,0.019999999511567335
0.042923249304294586,-0.06446148455142975,9.863775253295898,0.14819999039173126,-0.11149999499320984,0.04010000079870224,-0.1319999957758284,0.09500000059811649,-0.041000001416626686
0.040960002690553665,-0.04837245121598244,9.853462219238281,0.14800000190734863,-0.10089999437332153,0.030299998819828033,-0.16999999334703236,0.08400000095013078,-0.0659999978879142
0.054233454167842865,-0.06382941454648972,9.863737106323242,0.15760000050067902,-0.10999999940395355,0.04010000079870224,-0.0429999995335041,-0.26699999206202624,-0.08799999718388561
0.03697605058550835,-0.04163995757699013,9.844047546386719,0.1371999979019165,-0.09019999951124191,0.020499998703598976,-0.05099999867112037,0.004999999877891834,-0.0030000000934877653
0.04204218462109566,-0.0464475117623806,9.850894927978516,0.14649999141693115,-0.08980000019073486,0.030299998819828033,-0.13400000056281244,0.08899999957737763,0.031999999885518396
0.037119701504707336,-0.048563987016677856,9.859169006347656,0.13660000264644623,-0.09889999777078629,0.04010000079870224,-0.03699999851276524,-0.11400000605382507,0.019999999511567335
0.04206133633852005,-0.0494067445397377,9.850846290588379,0.14559999108314514,-0.09849999845027924,0.03019999898970127,0.19200000598321698,0.19099999691961836,-0.1419999930303221
0.0547410286962986,-0.05077622830867767,9.856908798217773,0.155799999833107,-0.09889999777078629,0.04010000079870224,-0.19099999691961836,-0.048000001495804245,-0.049999999612681666
0.0328197181224823,-0.047663770616054535,9.849333763122559,0.1356000006198883,-0.08819999545812607,0.03019999898970127,-0.043999998591942806,0.2469999975530389,0.004999999877891834
0.03189076483249664,-0.055267754942178726,9.861477851867676,0.13609999418258667,-0.09779999405145645,0.03999999910593033,-0.08100000043976135,-0.09200000008774706,-0.11099999887334903
0.03729208931326866,-0.058188680559396744,9.859246253967285,0.13609999418258667,-0.09779999405145645,0.03999999910593033,-0.13799999679656727,0.0659999978879142,-0.017999999727163266
0.03940856084227562,-0.05510494485497475,9.858881950378418,0.1354999989271164,-0.1070999950170517,0.03999999910593033,-0.12400000330831876,0.09099999769425504,-0.03400000133744912
0.03833595663309097,-0.05422388017177582,9.857311248779297,0.14489999413490295,-0.09609999507665634,0.03999999910593033,-0.009999999755783667,0.1719999981340164,0.11400000605382507
0.032972946763038635,-0.05362053960561752,9.857263565063477,0.13509999215602875,-0.0957999974489212,0.03999999910593033,0.15200000362502902,-0.08899999957737763,-0.11299999699022645
0.033451784402132034,-0.04943547770380974,9.852685928344727,0.13439999520778656,-0.09589999914169312,0.03019999898970127,0.014999999216793838,-0.05200000106461238,-0.09099999769425504
0.034658461809158325,-0.05547844246029854,9.85051155090332,0.13379999995231628,-0.09559999406337738,0.03019999898970127,0.11200000126684104,-0.02800000031671026,-0.07399999702553048
0.03280056267976761,-0.05503791198134422,9.850224494934082,0.13319998979568481,-0.09549999982118607,0.03019999898970127,-0.26900001018922354,-0.10499999785261017,-0.021999999295971403
0.040720582008361816,-0.054587800055742264,9.86420726776123,0.14270000159740448,-0.09459999948740005,0.049799997359514236,0.16800000190026157,0.05099999867112037,-0.007999999971379599
0.03346136584877968,-0.06236416473984718,9.847236633300781,0.13259999454021454,-0.10449999570846558,0.03019999898970127,0.0019999999928448997,0.07600000181251451,-0.049999999612681666
0.037071820348501205,-0.03485957533121109,9.847064018249512,0.1322999894618988,-0.07479999959468842,0.03019999898970127,-0.10299999973573276,0.015999999942759198,-0.0969999987149939
0.04679227992892265,-0.03370078280568123,9.861764907836914,0.14169999957084656,-0.07429999858140945,0.03999999910593033,-0.06299999737754478,-0.407999989368963,-0.06700000028140622
0.03414131700992584,-0.05240428447723389,9.862693786621094,0.13079999387264252,-0.09359999746084213,0.03999999910593033,-0.13000000432905762,-0.0429999995335041,-0.09399999820462447
0.027753585949540138,-0.051101841032505035,9.852503776550293,0.12039999663829803,-0.09290000051259995,0.03009999915957451,-0.09999999922536333,0.02600000053230619,-0.03100000082707969
0.037809234112501144,-0.04429273307323456,9.855789184570312,0.1298999935388565,-0.08259999752044678,0.03989999741315842,0.1180000022875799,0.11200000126684104,-0.03999999902313467
0.04239652305841446,-0.04334462806582451,9.862061500549316,0.1395999938249588,-0.08269999921321869,0.03989999741315842,0.15699999558216926,-0.041000001416626686,-0.021000000237532696
0.03810611367225647,-0.042951975017786026,9.867395401000977,0.12929999828338623,-0.08289999514818192,0.04969999939203262,0.013000000266153095,-0.0329999989439571,0.0030000000934877653
0.036602552980184555,-0.04382346570491791,9.85499382019043,0.12879998981952667,-0.08269999921321869,0.03989999741315842,0.10100000161885533,0.1509999945614304,-0.09500000059811649
0.02720770798623562,-0.05210740491747856,9.846364974975586,0.11899999529123306,-0.09239999949932098,0.03009999915957451,0.010999999647985701,-0.06899999839828364,0.06299999737754478
0.04985685646533966,-0.054185573011636734,9.85805892944336,0.1477999985218048,-0.09219999611377716,0.03989999741315842,-0.02800000031671026,0.012000000373951061,0.046999999102312236
0.03521391749382019,-0.03826892003417015,9.84953498840332,0.12770000100135803,-0.0722000002861023,0.03009999915957451,-0.1070000026395942,-0.021000000237532696,0.035000000395887826
0.03908294811844826,-0.04935886338353157,9.843568801879883,0.13669998943805695,-0.09099999815225601,0.02029999904334545,-0.0539999991814898,0.08200000283325337,0.0019999999928448997
0.032762255519628525,-0.05523902177810669,9.845359802246094,0.1265999972820282,-0.09049999713897705,0.03009999915957451,0.09300000248123906,-0.14699999832767557,-0.08499999667351618
0.048094723373651505,-0.050469771027565,9.84300422668457,0.14000000059604645,-0.08720000088214874,0.02019999921321869,0.0429999995335041,-0.02600000053230619,0.009999999755783667
0.042243294417858124,-0.04556644707918167,9.845857620239258,0.11749999970197678,-0.07559999823570251,0.039799999445676804,-0.10999999647985702,-0.05499999823992851,0.006000000186975531
0.03145981207489967,-0.04678269848227501,9.860164642333984,0.1233999952673912,-0.0731000006198883,0.029899999499320984,-0.041000001416626686,0.0030000000934877653,-0.06899999839828364
0.04818091541528702,-0.05340985208749771,9.857331275939941,0.11089999973773956,-0.07119999825954437,0.03969999775290489,-0.15500000413539844,0.015999999942759198,-0.019000000453128628
0.031249120831489563,-0.05360138788819313,9.864302635192871,0.10589999705553055,-0.0771000012755394,0.04939999803900719,-0.05099999867112037,0.09600000299160849,-0.10600000024610218
0.027571626007556915,-0.04935886338353157,9.859284400939941,0.094200000166893,-0.07530000060796738,0.03959999978542328,-0.06800000267489824,-0.03899999996469596,-0.05999999686717535
0.026843789964914322,-0.06498821079730988,9.842045783996582,0.09079999476671219,-0.08190000057220459,0.019999999552965164,-0.038000000906257256,0.048000001495804245,-0.03400000133744912
0.03116292878985405,-0.04698381572961807,9.851191520690918,0.09809999912977219,-0.060499999672174454,0.02969999983906746,0.12700000381868817,-0.07199999890865307,-0.08499999667351618
0.018502390012145042,-0.057499147951602936,9.865691184997559,0.07689999788999557,-0.07899999618530273,0.049300000071525574,-0.05900000114378995,0.004999999877891834,-0.03899999996469596
0.0332985557615757,-0.04198472201824188,9.854486465454102,0.0940999984741211,-0.05769999697804451,0.02969999983906746,-0.021999999295971403,-0.019999999511567335,-0.057000003026912535
0.041314344853162766,-0.044848185032606125,9.845283508300781,0.10119999945163727,-0.056199997663497925,0.02969999983906746,0.10499999785261017,-0.06700000028140622,0.03100000082707969
0.03308786824345589,-0.047453079372644424,9.84218978881836,0.08810000121593475,-0.05460000038146973,0.01979999989271164,-0.1419999930303221,-0.1620000008795227,-0.05200000106461238
0.035415031015872955,-0.04852567985653877,9.84740924835205,0.08549999445676804,-0.06239999830722809,0.029600000008940697,-0.15399999507179982,0.049999999612681666,-0.09399999820462447
0.04781699925661087,-0.04968447610735893,9.858144760131836,0.09349999576807022,-0.06079999729990959,0.039400000125169754,-0.048000001495804245,0.06200000165415938,0.015999999942759198
0.03601837158203125,-0.04206133633852005,9.849937438964844,0.08179999887943268,-0.04959999769926071,0.029600000008940697,-0.05900000114378995,0.05799999875029794,-0.02899999937514897
0.02942952699959278,-0.04614105448126793,9.852714538574219,0.07999999821186066,-0.04820000007748604,0.029600000008940697,0.06099999926066736,-0.010999999647985701,0.07699999753589991
0.03264733403921127,-0.04082592949271202,9.8408203125,0.07739999890327454,-0.046799998730421066,0.01979999989271164,-0.21899999723632863,-0.13300000483942703,-0.13600000534979648
0.03643017262220383,-0.061100028455257416,9.856191635131836,0.07699999958276749,-0.065700002014637,0.039400000125169754,0.10900000075647161,-0.07199999890865307,-0.0009999999964224499
0.03847961127758026,-0.036966472864151,9.8616304397583,0.08639999479055405,-0.0364999994635582,0.039400000125169754,0.1189999980109653,0.07399999702553048,-0.03100000082707969
0.029745562002062798,-0.05570828542113304,9.86295223236084,0.07660000026226044,-0.056299999356269836,0.039400000125169754,0.13300000483942703,-0.08200000283325337,-0.008999999863581633
0.027945121750235558,-0.049636587500572205,9.867290496826172,0.06639999896287918,-0.05649999901652336,0.04919999837875366,0.09000000197086964,-0.15500000413539844,-0.0539999991814898
0.03603752702474594,-0.05151364579796791,9.851651191711426,0.07559999823570251,-0.056599996984004974,0.029500000178813934,-0.11400000605382507,-0.26500000061525547,-0.049999999612681666
0.03867114707827568,-0.041553765535354614,9.850262641906738,0.08460000157356262,-0.04639999940991402,0.029500000178813934,-0.2399999874687014,-0.15399999507179982,0
0.03746446967124939,-0.04977066442370415,9.853787422180176,0.07449999451637268,-0.05559999868273735,0.029500000178813934,-0.007000000079177565,-0.18099999966512467,-0.008999999863581633
0.035960908979177475,-0.04535575956106186,9.842639923095703,0.07369999587535858,-0.04559999704360962,0.019700000062584877,0.014999999216793838,0.023000000021936765,0.009999999755783667
0.040222588926553726,-0.06127241253852844,9.851459503173828,0.09299999475479126,-0.0551999993622303,0.029500000178813934,0.15599999985878385,-0.20200000323771067,-0.015999999942759198
0.03319321200251579,-0.04483860731124878,9.858125686645508,0.08299999684095383,-0.06499999761581421,0.029500000178813934,0.04500000098543482,0.0539999991814898,-0.08499999667351618
0.03714843466877937,-0.056388236582279205,9.863967895507812,0.07259999960660934,-0.04580000042915344,0.03929999843239784,0.06800000267489824,-0.18400000017549412,-0.18700000068586353
0.022457610815763474,-0.045346178114414215,9.837620735168457,0.062199998646974564,-0.045899998396635056,0.019700000062584877,-0.01700000066872456,-0.03100000082707969,0.004999999877891834
0.031766269356012344,-0.04081634804606438,9.861400604248047,0.07180000096559525,-0.04569999873638153,0.03929999843239784,0.08499999667351618,0.0859999990670082,0
0.03499365225434303,-0.048563987016677856,9.846786499023438,0.07180000096559525,-0.05549999698996544,0.029500000178813934,0.05600000063342052,-0.16999999334703236,-0.038000000906257256
0.03434243053197861,-0.03371993452310562,9.867835998535156,0.07109999656677246,-0.035999998450279236,0.04910000041127205,-0.07699999753589991,-0.06399999977103679,0.021000000237532696
0.04222413897514343,-0.0489279069006443,9.861324310302734,0.08049999922513962,-0.055299997329711914,0.03929999843239784,-0.1189999980109653,-0.0539999991814898,-0.18199999538851008
0.05366842821240425,-0.051168881356716156,9.862042427062988,0.08989999443292618,-0.05480000004172325,0.03929999843239784,-0.07699999753589991,0.006000000186975531,-0.16400000566650674
0.03874776139855385,-0.059280432760715485,9.855510711669922,0.07989999651908875,-0.06419999897480011,0.03929999843239784,0.03400000133744912,0.11200000126684104,0.021000000237532696
0.047788266092538834,-0.04952166602015495,9.844890594482422,0.07989999651908875,-0.05429999902844429,0.019700000062584877,-0.057000003026912535,0.09500000059811649,-0.013000000266153095
0.03125869855284691,-0.03883394971489906,9.867807388305664,0.07019999623298645,-0.044199999421834946,0.04910000041127205,-0.08700000146050021,-0.14300000209392072,-0.07099999651516105
0.041668687015771866,-0.050469771027565,9.845887184143066,0.07930000126361847,-0.053599998354911804,0.029500000178813934,-0.09600000299160849,-0.10900000075647161,-0.1749999986443858
0.03699520602822304,-0.03854664787650108,9.860605239868164,0.0689999982714653,-0.04339999705553055,0.03929999843239784,0.13700000107318186,-0.010999999647985701,-0.038000000906257256
0.04810430109500885,-0.04355531558394432,9.855031967163086,0.08669999986886978,-0.042799998074769974,0.03929999843239784,0.08100000043976135,0.3439999962680328,-0.0659999978879142
0.04188895598053932,-0.030109480023384094,9.849381446838379,0.07779999822378159,-0.03319999948143959,0.029500000178813934,0.02800000031671026,-0.10999999647985702,0.0859999990670082
0.03933194652199745,-0.041812337934970856,9.857656478881836,0.07729999721050262,-0.0429999977350235,0.03929999843239784,-0.04500000098543482,0.06800000267489824,0.0039999999856897995
0.041649531573057175,-0.05186798423528671,9.868056297302246,0.07729999721050262,-0.05249999836087227,0.04910000041127205,-0.13000000432905762,-0.05200000106461238,-0.09500000059811649
0.030186094343662262,-0.05992208048701286,9.866504669189453,0.06719999760389328,-0.061799999326467514,0.04910000041127205,0.013000000266153095,-0.007000000079177565,-0.08299999855663877
0.04096957668662071,-0.05462610721588135,9.851920127868652,0.07669999450445175,-0.051899999380111694,0.029500000178813934,-0.014999999216793838,0.26600000967885407,0.010999999647985701
0.02827073261141777,-0.05416642129421234,9.865374565124512,0.05779999867081642,-0.05179999768733978,0.04910000041127205,-0.15500000413539844,0.03999999902313467,0.0030000000934877653
0.02986048348248005,-0.03028186224400997,9.881568908691406,0.06759999692440033,-0.031599998474121094,0.05889999866485596,0.10900000075647161,0.0429999995335041,-0.07600000181251451
0.034208353608846664,-0.047002967447042465,9.86304759979248,0.06749999523162842,-0.041600000113248825,0.03929999843239784,0.08299999855663877,-0.24500000610626807,-0.0009999999964224499
0.034035973250865936,-0.05364927276968956,9.873601913452148,0.06679999828338623,-0.05159999802708626,0.04910000041127205,0.021999999295971403,-0.14900000311465958,0.07000000079177565
0.03362416848540306,-0.04012681916356087,9.847102165222168,0.07599999755620956,-0.051500000059604645,0.04910000041127205,-0.20299999896109608,-0.13499999628619785,-0.07099999651516105
0.048065993934869766,-0.04723281040787697,9.86104679107666,0.06610000133514404,-0.0421999990940094,0.029500000178813934,-0.031999999885518396,-0.04600000004387353,-0.046999999102312236
0.03552995249629021,-0.04317224398255348,9.858287811279297,0.08529999852180481,-0.0414000004529953,0.03929999843239784,0.12400000330831876,0.0969999987149939,-0.004999999877891834
0.036880284547805786,-0.03756023943424225,9.862587928771973,0.06549999862909317,-0.031700000166893005,0.03929999843239784,-0.05099999867112037,0.10999999647985702,0.13400000056281244
0.0370909720659256,-0.037071820348501205,9.85598087310791,0.06560000032186508,-0.03139999881386757,0.03929999843239784,-0.1620000008795227,0.06099999926066736,-0.07300000130214508
0.03011905588209629,-0.050910305231809616,9.868162155151367,0.06560000032186508,-0.05049999803304672,0.04910000041127205,-0.029999998433587676,-0.07900000232288394,-0.048000001495804245
0.02941037341952324,-0.05069003626704216,9.854122161865234,0.06509999930858612,-0.050200000405311584,0.029500000178813934,0.09999999922536333,-0.09500000059811649,-0.021000000237532696
0.03923618048429489,-0.05896440148353577,9.860164642333984,0.07440000027418137,-0.060099996626377106,0.03929999843239784,-0.08100000043976135,0.10999999647985702,-0.13700000107318186
0.03179499879479408,-0.042856208980083466,9.861381530761719,0.06469999998807907,-0.04010000079870224,0.03929999843239784,-0.05600000063342052,-0.09399999820462447,0.10400000212922476
0.03153642639517784,-0.044656649231910706,9.867424964904785,0.06430000066757202,-0.039799999445676804,0.04910000041127205,-0.1529999993484144,-0.10999999647985702,-0.10100000161885533
0.040912117809057236,-0.047951072454452515,9.867156028747559,0.07360000163316727,-0.04910000041127205,0.04910000041127205,0.2379999960219306,-0.4390000035362559,0.0009999999964224499
0.0598263144493103,-0.047998953610658646,9.85340404510498,0.09189999848604202,-0.04969999939203262,0.029500000178813934,0.06500000216452881,0.18700000068586353,-0.1189999980109653
0.03917871415615082,-0.04800853505730629,9.87036418914795,0.07270000129938126,-0.049799997359514236,0.04910000041127205,-0.04900000055424296,-0.008999999863581633,-0.05900000114378995
0.031153352931141853,-0.05525817349553108,9.860864639282227,0.06260000169277191,-0.0494999997317791,0.03929999843239784,0.10299999973573276,-0.1199999937343507,-0.13700000107318186
0.04639962688088417,-0.06158844381570816,9.86299991607666,0.07189999520778656,-0.05939999967813492,0.03929999843239784,-0.32899999371618566,0.09800000110848592,-0.017999999727163266
0.031201235949993134,-0.0373208150267601,9.852245330810547,0.06229999661445618,-0.028999999165534973,0.029500000178813934,0.20899999998183494,-0.1719999981340164,0.09200000008774706
0.025435999035835266,-0.032953791320323944,9.866965293884277,0.051899999380111694,-0.029500000178813934,0.04910000041127205,-0.024000000747902123,-0.04500000098543482,0.01700000066872456
0.03963840380311012,-0.047644615173339844,9.857378959655762,0.07119999825954437,-0.03920000046491623,0.03929999843239784,-0.006000000186975531,0.08799999718388561,0.009999999755783667
0.04141968861222267,-0.04241567477583885,9.857905387878418,0.07119999825954437,-0.039000000804662704,0.03929999843239784,-0.19699999794035722,-0.01700000066872456,-0.08700000146050021
0.043469127267599106,-0.04320097714662552,9.86207103729248,0.07099999487400055,-0.03830000013113022,0.03929999843239784,0.021999999295971403,-0.019000000453128628,0.0019999999928448997
0.027475858107209206,-0.0387381836771965,9.862942695617676,0.0510999970138073,-0.03830000013113022,0.03929999843239784,0.05900000114378995,0.17100000241063099,0.0039999999856897995
0.0326952189207077,-0.05090072751045227,9.873457908630371,0.06129999831318855,-0.04809999838471413,0.04910000041127205,-0.14399999781730613,0.057000003026912535,-0.0429999995335041
0.04781699925661087,-0.053256623446941376,9.85494613647461,0.07099999487400055,-0.047599997371435165,0.03929999843239784,-0.048000001495804245,0.08899999957737763,-0.06800000267489824
0.03768473491072655,-0.04279874637722969,9.863382339477539,0.06119999662041664,-0.03759999945759773,0.03929999843239784,-0.09500000059811649,-0.06700000028140622,-0.08299999855663877
0.03594175726175308,-0.042166680097579956,9.87918472290039,0.06079999729990959,-0.04699999839067459,0.03929999843239784,0.06500000216452881,0.07099999651516105,0.0659999978879142
0.03129700571298599,-0.04943547770380974,9.858604431152344,0.0608999989926815,-0.03720000013709068,0.05889999866485596,-0.3100000082707969,-0.13799999679656727,-0.128999995265459
0.044062890112400055,-0.05241386592388153,9.87281608581543,0.06069999933242798,-0.047199998050928116,0.03929999843239784,-0.029999998433587676,0.012000000373951061,0.019999999511567335
0.029544448480010033,-0.056934114545583725,9.867117881774902,0.06019999831914902,-0.04609999805688858,0.04910000041127205,-0.024999999806340833,0.09399999820462447,-0.024000000747902123
0.039063792675733566,-0.05431964993476868,9.86574935913086,0.07000000029802322,-0.045899998396635056,0.04910000041127205,-0.06700000028140622,0.19099999691961836,-0.04900000055424296
0.03047339990735054,-0.05161898955702782,9.862818717956543,0.060499999672174454,-0.04559999704360962,0.03929999843239784,-0.2039999946844815,-0.05900000114378995,-0.08100000043976135
0.04168783873319626,-0.04888959974050522,9.867788314819336,0.07000000029802322,-0.04479999840259552,0.04910000041127205,0.0039999999856897995,-0.10499999785261017,-0.05600000063342052
0.02692040428519249,-0.05705861747264862,9.867415428161621,0.04989999905228615,-0.04470000043511391,0.04910000041127205,0.06099999926066736,0.03400000133744912,-0.10999999647985702
0.02407609112560749,-0.05366842821240425,9.868985176086426,0.04989999905228615,-0.04479999840259552,0.04910000041127205,-0.02899999937514897,-0.04200000047506539,-0.0329999989439571
0.04307647794485092,-0.04734773188829422,9.866466522216797,0.06920000165700912,-0.03480000048875809,0.04910000041127205,0.03999999902313467,-0.07999999804626934,-0.03899999996469596
0.04212837293744087,-0.04298070818185806,9.864542007446289,0.06879999488592148,-0.03480000048875809,0.04910000041127205,-0.24599998848944027,0.035000000395887826,-0.07600000181251451
0.04291366785764694,-0.05718311294913292,9.861400604248047,0.06879999488592148,-0.033900000154972076,0.04910000041127205,-0.049999999612681666,-0.06899999839828364,0.031999999885518396
0.028194118291139603,-0.05146576091647148,9.862386703491211,0.048499997705221176,-0.04319999739527702,0.03929999843239784,0.07000000079177565,0.029999998433587676,-0.019999999511567335
0.028194118291139603,-0.05146576091647148,9.862386703491211,0.048499997705221176,-0.04319999739527702,0.03929999843239784,0.07000000079177565,0.029999998433587676,-0.019999999511567335
0.034371159970760345,-0.05056554079055786,9.86464786529541,0.05819999799132347,-0.043299999088048935,0.04910000041127205,-0.038000000906257256,-0.04200000047506539,0.048000001495804245
0.040845081210136414,-0.0606594942510128,9.878677368164062,0.06769999861717224,-0.05260000005364418,0.05889999866485596,0.06500000216452881,0.0009999999964224499,-0.046999999102312236
0.040845081210136414,-0.0606594942510128,9.878677368164062,0.06769999861717224,-0.05260000005364418,0.05889999866485596,0.06500000216452881,0.0009999999964224499,-0.046999999102312236
0.04028962552547455,-0.03938940912485123,9.860194206237793,0.0575999990105629,-0.04270000010728836,0.029399998486042023,0,0.0009999999964224499,-0.0039999999856897995
0.042741287499666214,-0.033423058688640594,9.861276626586914,0.06769999861717224,-0.02290000021457672,0.03929999843239784,-0.20800000425844953,0.02899999937514897,-0.05799999875029794
0.039944861084222794,-0.05007712170481682,9.8638334274292,0.06759999692440033,-0.04179999977350235,0.03929999843239784,-0.15599999985878385,-0.0039999999856897995,-0.0269999995907449
0.026173412799835205,-0.04193683713674545,9.877490043640137,0.04779999703168869,-0.03150000050663948,0.05889999866485596,-0.06700000028140622,-0.03100000082707969,-0.007999999971379599
0.03828807547688484,-0.04822879657149315,9.872539520263672,0.05739999935030937,-0.04099999740719795,0.04910000041127205,0.02899999937514897,0.01700000066872456,-0.06299999737754478
0.038824375718832016,-0.03777092695236206,9.869062423706055,0.06700000166893005,-0.021399999037384987,0.04910000041127205,-0.04900000055424296,-0.08499999667351618,-0.03699999851276524
0.039044640958309174,-0.05018246918916702,9.876446723937988,0.06659999489784241,-0.040699999779462814,0.05889999866485596,-0.14099999730693671,0.09300000248123906,-0.12299999424472013
0.04592078924179077,-0.05631162226200104,9.85656452178955,0.06659999489784241,-0.04019999876618385,0.03920000046491623,0.013000000266153095,0.01700000066872456,0.017999999727163266
0.04429273307323456,-0.04638047516345978,9.8613920211792,0.06659999489784241,-0.04019999876618385,0.03920000046491623,-0.1189999980109653,-0.19000000119623298,-0.07300000130214508
0.03954263776540756,-0.048065993934869766,9.861371994018555,0.065700002014637,-0.03959999978542328,0.03920000046491623,0.16500000138989213,0.06899999839828364,0.03599999945432653
0.03303998336195946,-0.04053862392902374,9.855913162231445,0.05590000003576279,-0.03009999915957451,0.03920000046491623,0.031999999885518396,0.038000000906257256,-0.15800000464576788
0.044254425913095474,-0.05268201604485512,9.863085746765137,0.06560000032186508,-0.03989999741315842,0.03920000046491623,-0.08400000095013078,-0.1930000017066024,-0.009999999755783667
0.02144247107207775,-0.047165773808956146,9.875085830688477,0.04529999941587448,-0.02979999966919422,0.05889999866485596,-0.07799999992939192,0.06700000028140622,-0.021000000237532696
0.04193683713674545,-0.04564306139945984,9.87863826751709,0.0648999959230423,-0.029500000178813934,0.05889999866485596,0.013000000266153095,-0.043999998591942806,0.06200000165415938
0.030396783724427223,-0.04521210491657257,9.873908042907715,0.05480000004172325,-0.029399998486042023,0.05889999866485596,0.1749999986443858,0.0030000000934877653,-0.0269999995907449
0.03844130411744118,-0.040605660527944565,9.86571979522705,0.06439999490976334,-0.02979999966919422,0.04899999871850014,-0.1419999930303221,-0.09099999769425504,-0.03699999851276524
0.033633746206760406,-0.051408298313617706,9.874731063842773,0.05419999733567238,-0.03909999877214432,0.05889999866485596,0.03599999945432653,0.019000000453128628,0.0329999989439571
0.040979158133268356,-0.04590163379907608,9.866897583007812,0.06390000134706497,-0.02929999865591526,0.04899999871850014,0.01700000066872456,0.08700000146050021,-0.03699999851276524
0.039494749158620834,-0.04983770474791527,9.864713668823242,0.06399999558925629,-0.03909999877214432,0.04899999871850014,-0.043999998591942806,0.15999999609253868,0.10400000212922476
