Accelerometer_Gx,Accelerometer_Gy,Accelerometer_Gz,Accelerometer_X,Accelerometer_Y,Accelerometer_Z,Gyroscope_Z,Gyroscope_X,Gyroscope_Y
0.03959051892161369,-0.037742193788290024,9.854371070861816,-0.0026000000070780516,0.007999999448657036,0.029500000178813934,0.15900000036915327,0.07600000181251451,-0.0009999999964224499
0.034371159970760345,-0.03440946713089943,9.842524528503418,-0.01269999984651804,0.002099999925121665,0.019600000232458115,-0.14699999832767557,-5.433000123866242,0.0039999999856897995
0.042951975017786026,-0.04428315535187721,9.84807014465332,-0.012799999676644802,-0.006399999838322401,0.029500000178813934,-1.3370000317981814,4.646000114487985,-0.27500001120996237
0.03729208931326866,-0.036411017179489136,9.843253135681152,-0.0050999997183680534,0.00699999975040555,0.019600000232458115,-0.15800000464576788,3.4140000471918808,-0.009999999755783667
0.03665044158697128,-0.03325067088007927,9.847764015197754,0.004299999680370092,0.0064999996684491634,0.029399998486042023,0.6979999764503461,-1.488000039699825,-0.1180000022875799
0.04141968861222267,-0.04391923546791077,9.856267929077148,0.010099999606609344,-0.005200000014156103,0.03920000046491623,-1.0419999993988052,0.726000016787696,0.09500000059811649
0.05192544683814049,-0.0408833883702755,9.855175971984863,0.020899999886751175,-0.002300000051036477,0.03920000046491623,0.8960000101347283,-0.20800000425844953,-0.03899999996469596
0.036008793860673904,-0.058638785034418106,9.838244438171387,0,-0.02329999953508377,0.019600000232458115,-0.8020000119301038,-0.7510000032538235,0.13400000056281244
0.05601474270224571,-0.046102747321128845,9.8462495803833,0.016499999910593033,-0.000699999975040555,0.029399998486042023,0.24599998848944027,-0.22400000253368207,-0.01400000015835513
0.037952885031700134,-0.053448159247636795,9.856833457946777,-0.00419999985024333,-0.010400000028312206,0.03920000046491623,-0.45400000608810304,1.9779999451906554,-0.06299999737754478
0.03585556522011757,-0.047022122889757156,9.844047546386719,0.000699999975040555,0.0010999999940395355,0.019600000232458115,-0.11699999322398127,-2.7360000385700958,0.07600000181251451
0.035817258059978485,-0.04552813991904259,9.859542846679688,-0.0066999997943639755,0.0015999999595806003,0.03929999843239784,0.6140000155208549,0.9630000037460279,-0.007000000079177565
0.03218764811754227,-0.04618893936276436,9.843559265136719,-0.003999999724328518,0.00009999999747378752,0.019600000232458115,-0.8690000055414034,1.2509999460197874,-0.0009999999964224499
0.039801210165023804,-0.05736507475376129,9.84042739868164,0.009399999864399433,-0.006599999964237213,0.019600000232458115,-0.2289999944908223,-1.8179999891187564,0.05300000012305109
0.0477403849363327,-0.03908294811844826,9.856171607971191,0.004799999762326479,0.003700000001117587,0.03929999843239784,0.49199997697888054,-1.9240000427257116,0.03100000082707969
0.04199429601430893,-0.04588248208165169,9.84725570678711,-0.0004999999655410647,0.0023999998811632395,0.029500000178813934,0.5519999871862691,0.11400000605382507,0.046999999102312236
0.040864236652851105,-0.03533841669559479,9.845464706420898,-0.00019999999494757503,0.010499999858438969,0.029500000178813934,0.11400000605382507,1.1959999544499653,0.07000000079177565
0.03618117421865463,-0.054702721536159515,9.833464622497559,-0.0066999997943639755,-0.00930000003427267,0.009800000116229057,0.24599998848944027,1.8530000128600175,0.007999999971379599
0.045844174921512604,-0.05176264047622681,9.844966888427734,0.008599999360740185,-0.00989999994635582,0.029399998486042023,-0.29999999767609,1.5229999567193802,-0.02800000031671026
0.03409343212842941,-0.052385132759809494,9.828083038330078,0.0023999998811632395,-0.008899999782443047,0.009800000116229057,-0.08200000283325337,1.7389999934659792,-0.0429999995335041
0.0479893796145916,-0.039944861084222794,9.838531494140625,0.026200000196695328,0.0011999999405816197,0.019600000232458115,-0.34299998720443414,1.7560000141450236,-0.12100000279794933
0.04080677404999733,-0.05917508900165558,9.837946891784668,0.020600000396370888,-0.016999999061226845,0.019600000232458115,0.2780000117203318,1.3949999705175198,-0.11099999887334903
0.03787627071142197,-0.04741477221250534,9.852436065673828,0.0139999995008111,0.001999999862164259,0.029399998486042023,0.7299999996812375,0.19699999794035722,0.128999995265459
0.04474284127354622,-0.038948871195316315,9.850292205810547,0.0139999995008111,0.009499999694526196,0.03920000046491623,-0.08100000043976135,-1.2580000361454042,0.11099999887334903
0.04474284127354622,-0.038948871195316315,9.850292205810547,0.019099999219179153,-0.0011999999405816197,0.029399998486042023,-0.08100000043976135,-1.2580000361454042,0.11099999887334903
0.02798342891037464,-0.043421242386102676,9.84664249420166,0.014999999664723873,-0.010599999688565731,0.029399998486042023,0.46099998949201404,-0.6080000145001161,-0.06099999926066736
0.04293282330036163,-0.027734432369470596,9.852398872375488,-0.0018999999156221747,0.00009999999747378752,0.029399998486042023,0.3130000087811663,-1.1120000468813271,0.20999999570522035
0.04111323133111,-0.05157110467553139,9.840839385986328,0.01549999974668026,0.018299998715519905,0.029399998486042023,-0.05499999823992851,2.011000004165572,-0.24299998797907083
0.03598963841795921,-0.033633746206760406,9.846719741821289,0.006300000008195639,0.007599999662488699,0.029399998486042023,0.18700000068586353,-1.5879999855643354,0.057000003026912535
0.03966713324189186,-0.03829764947295189,9.841864585876465,0.011399999260902405,0.00699999975040555,0.019600000232458115,-0.26300000916848465,0.7440000198499125,-0.02800000031671026
0.05414726585149765,-0.034677617251873016,9.834212303161621,0.022699998691678047,0.007499999832361937,0.009800000116229057,0.22800001210765014,-0.15599999985878385,0.14499999354069154
0.03704308718442917,-0.04587290436029434,9.838473320007324,0.0023999998811632395,-0.002899999963119626,0.019600000232458115,-0.08499999667351618,0.7709999710823845,0.029999998433587676
0.039580944925546646,-0.037952885031700134,9.84681510925293,0.0142000000923872,0.00699999975040555,0.029399998486042023,-0.09600000299160849,-1.8599998895422227,0.049999999612681666
0.03489788621664047,-0.05067088454961777,9.849869728088379,-0.00019999999494757503,-0.012299999594688416,0.029399998486042023,0.49000001221253614,0.3789999933288673,0.06200000165415938
0.04347870126366615,-0.04485776275396347,9.858192443847656,0.010300000198185444,-0.0037999998312443495,0.03920000046491623,-0.09600000299160849,0.796000010909365,-0.07699999753589991
0.04588248208165169,-0.03708139434456825,9.855242729187012,0.012199999764561653,0.006199999712407589,0.03920000046491623,0.07900000232288394,-0.29500000571894974,0.15200000362502902
0.03878606855869293,-0.046294283121824265,9.846364974975586,0.011099999770522118,-0.003700000001117587,0.029399998486042023,0.06099999926066736,0.07099999651516105,-0.02800000031671026
0.04636131972074509,-0.05033569782972336,9.850646018981934,0.007899999618530273,-0.009499999694526196,0.029399998486042023,0.257999990530918,-0.17700000343136985,0.05099999867112037
0.03628652170300484,-0.05301720276474953,9.854103088378906,-0.001500000013038516,-0.011299999430775642,0.029399998486042023,-0.2469999975530389,0.5540000053134664,-0.05499999823992851
0.03244622051715851,-0.04488649219274521,9.849113464355469,0.00039999998989515007,-0.0015999999595806003,0.029399998486042023,-0.22100000202331266,1.9039999681754447,0.0039999999856897995
0.04376600682735443,-0.052739474922418594,9.854792594909668,0.015699999406933784,-0.011099999770522118,0.03920000046491623,-0.08400000095013078,1.6350000113470742,-0.1529999993484144
0.03092350997030735,-0.04381389170885086,9.848491668701172,0.010400000028312206,-0.00139999995008111,0.029399998486042023,-0.05499999823992851,-0.13600000534979648,0.05300000012305109
0.03769431263208389,-0.050488926470279694,9.84108829498291,0.006199999712407589,-0.006799999624490738,0.019600000232458115,-0.1729999938574018,-0.08200000283325337,-0.0969999987149939
0.03682282194495201,-0.04542279615998268,9.842113494873047,0.0037999998312443495,0.002099999925121665,0.019600000232458115,-0.07600000181251451,-0.23699998695833197,0.05999999686717535
0.03242706507444382,-0.04860229417681694,9.83553409576416,0.004900000058114529,-0.008299999870359898,0.019600000232458115,0.004999999877891834,1.5610000343318635,0.12700000381868817
0.04689761996269226,-0.06275681406259537,9.847227096557617,0.019999999552965164,-0.01860000006854534,0.029399998486042023,0.43699998540905866,0.08100000043976135,-0.08499999667351618
0.048899173736572266,-0.046294283121824265,9.847734451293945,0.030499998480081558,-0.0005999999702908099,0.029399998486042023,0.048000001495804245,-0.013000000266153095,-0.05799999875029794
0.043306320905685425,-0.056646812707185745,9.842093467712402,0.012899999506771564,-0.0064999996684491634,0.019600000232458115,-0.13700000107318186,0.29899998861249133,0.04200000047506539
0.04158249497413635,-0.032503679394721985,9.840666770935059,0.016200000420212746,0.011899999342858791,0.019600000232458115,0.13799999679656727,-0.49199997697888054,-0.006000000186975531
0.03936067596077919,-0.031622614711523056,9.84736156463623,0.016499999910593033,0.010400000028312206,0.029399998486042023,0.24500000610626807,-0.8480000019688174,0.017999999727163266
0.039303213357925415,-0.04500141367316246,9.850109100341797,0.015199999324977398,-0.000699999975040555,0.029399998486042023,0.26200000010488605,0.021999999295971403,-0.021000000237532696
0.033537980169057846,-0.04203260317444801,9.841462135314941,0.015799999237060547,-0.0017999999690800905,0.029399998486042023,-0.015999999942759198,-1.4069999725589977,0.02800000031671026
0.05014416202902794,-0.06287173926830292,9.859915733337402,0.010599999688565731,-0.002199999988079071,0.019600000232458115,-0.015999999942759198,-1.4069999725589977,0.02800000031671026
0.038661569356918335,-0.052174441516399384,9.85989761352539,0.015199999324977398,-0.01209999993443489,0.03920000046491623,-0.13000000432905762,0.8500000200960147,0.013000000266153095
0.03544376417994499,-0.049253515899181366,9.843817710876465,0.007699999958276749,-0.011699999682605267,0.019600000232458115,-0.3280000113330135,-0.40299999741182274,0.10900000075647161
0.04073973372578621,-0.036363136023283005,9.829298973083496,0.016200000420212746,0.008799999952316284,0.009800000116229057,-0.02899999937514897,-0.3130000087811663,-0.0539999991814898
0.031124621629714966,-0.04008851200342178,9.841279983520508,0.0052999998442828655,-0.0007999999797903001,0.019600000232458115,0.3999999969014533,0.8420000009480786,0.10999999647985702
0.0331740565598011,-0.05227021127939224,9.843856811523438,0.007199999876320362,-0.011500000022351742,0.019600000232458115,-0.21700000578955783,-0.0009999999964224499,-0.08700000146050021
0.04258805885910988,-0.04270298033952713,9.836922645568848,0.01679999940097332,-0.0010999999940395355,0.019600000232458115,0.37299999230812847,-0.1930000017066024,-0.015999999942759198
0.04842033237218857,-0.04717535153031349,9.843253135681152,0.02589999884366989,-0.002099999925121665,0.019600000232458115,-0.0039999999856897995,0.6249999818183075,-0.024000000747902123
0.030588321387767792,-0.032120607793331146,9.830314636230469,0.007699999958276749,0.007599999662488699,0.009800000116229057,0.17599999436777122,0.03699999851276524,0.0009999999964224499
0.04163037985563278,-0.041410114616155624,9.846412658691406,0.012199999764561653,-0.0017999999690800905,0.029399998486042023,-0.19799999366374263,1.1260000136891493,0.013000000266153095
0.041055772453546524,-0.05277778208255768,9.839259147644043,0.01679999940097332,-0.01119999960064888,0.019600000232458115,-0.19900000272734125,-0.1719999981340164,-0.08499999667351618
0.03213976323604584,-0.03134488686919212,9.853509902954102,0.007400000002235174,0.008700000122189522,0.029399998486042023,0.3759999928184979,-0.21899999723632863,0.05200000106461238
0.05896440148353577,-0.044867340475320816,9.831645965576172,0.03669999912381172,-0.002199999988079071,0.009800000116229057,-0.5300000012305109,0.5600000063342052,0.09500000059811649
0.04129519313573837,-0.040912117809057236,9.863201141357422,0.018799999728798866,-0.0007999999797903001,0.03920000046491623,-0.12400000330831876,-0.07699999753589991,-0.0019999999928448997
0.051264647394418716,-0.04413950443267822,9.854888916015625,0.020999999716877937,-0.00029999998514540493,0.03920000046491623,-0.6140000155208549,1.6859999666625016,-0.10400000212922476
0.04011724516749382,-0.05017289146780968,9.833600044250488,0.018199998885393143,-0.008499999530613422,0.009800000116229057,0.03599999945432653,0.42899999294154895,-0.13400000056281244
0.037359122186899185,-0.05141787603497505,9.863009452819824,0.010999999940395355,-0.008599999360740185,0.03920000046491623,-0.25100000712700693,0.59999999535218,0.017999999727163266
0.03386358916759491,-0.04251144453883171,9.85486888885498,0.013599999248981476,0.0017999999690800905,0.03920000046491623,0.3450000053316314,-1.1339999794762325,-0.008999999863581633
0.042453981935977936,-0.04210921749472618,9.846566200256348,0.020800000056624413,0.0008999999845400453,0.029399998486042023,-0.11599999750059588,-0.7360000007019765,0.0749999994190225
0.027791893109679222,-0.04111323133111,9.843147277832031,-0.000699999975040555,0.0011999999405816197,0.019600000232458115,-0.12199999852133472,1.459000016979303,-0.0969999987149939
0.04956955462694168,-0.04365108534693718,9.847515106201172,0.03219999745488167,0.001500000013038516,0.029399998486042023,0.10900000075647161,0.15900000036915327,0.06800000267489824
0.04408204182982445,-0.03983951732516289,9.83761215209961,0.014299999922513962,0.000699999975040555,0.019600000232458115,-0.3280000113330135,-1.0979999733517993,0.16999999334703236
0.039494749158620834,-0.04559517651796341,9.841471672058105,0.013899999670684338,0.0016999999061226845,0.019600000232458115,0.6600000055595685,-0.9459999830669835,0.008999999863581633
0.03844130411744118,-0.04355531558394432,9.844182014465332,0.012999999336898327,0,0.019600000232458115,0.09899999683187131,0.9299999447711114,0.09800000110848592
0.033968932926654816,-0.038498762995004654,9.851489067077637,0.007199999876320362,-0.00009999999747378752,0.03920000046491623,0.1800000039417393,0.8789999894556839,0.08700000146050021
0.03947559744119644,-0.045508988201618195,9.847821235656738,0.011799999512732029,-0.0013000000035390258,0.029399998486042023,0.7410000193395431,0.16699999283666295,-0.05900000114378995
0.05180094763636589,-0.04942589998245239,9.830170631408691,0.03480000048875809,-0.013499999418854713,0.009800000116229057,-0.09200000008774706,0.1849999958988795,-0.03999999902313467
0.028586769476532936,-0.04254017770290375,9.860146522521973,0.004399999976158142,-0.0024999999441206455,0.03920000046491623,-0.057000003026912535,-2.023999988590222,0.0269999995907449
0.05078580603003502,-0.03781880810856819,9.84473705291748,0.004399999976158142,-0.0024999999441206455,0.03920000046491623,0.7549999861473652,-2.4460000248082863,0.012000000373951061
0.04204218462109566,-0.03910209983587265,9.850282669067383,0.012600000016391277,-0.004600000102072954,0.029399998486042023,-0.11099999887334903,2.560999919863791,-0.048000001495804245
0.04376600682735443,-0.04137180745601654,9.839527130126953,0.019700000062584877,-0.004299999680370092,0.019600000232458115,-0.5099999800410971,2.617999982921663,0.11099999887334903
0.04752969369292259,-0.04797980189323425,9.842352867126465,0.026799999177455902,-0.012799999676644802,0.019600000232458115,-0.2589999995945166,1.0710000221193274,-0.05900000114378995
0.04073973372578621,-0.04102703928947449,9.853337287902832,0.029600000008940697,-0.002199999988079071,0.029399998486042023,-0.5540000053134664,-3.6370001740640965,-0.029999998433587676
0.04310520738363266,-0.04852567985653877,9.840140342712402,0.018199998885393143,-0.010300000198185444,0.019600000232458115,-0.9920000264665501,0.6540000045388297,-0.031999999885518396
0.04317224398255348,-0.046131476759910583,9.841854095458984,0.019600000232458115,0.0017999999690800905,0.019600000232458115,-0.4759999920438612,0.9109999593257225,-0.04500000098543482
0.03583640977740288,-0.03803907707333565,9.837946891784668,0.01209999993443489,0.012899999506771564,0.019600000232458115,-0.4169999909000712,-2.006000092249711,-0.0539999991814898
0.03720589354634285,-0.04793192073702812,9.843443870544434,0.0064999996684491634,-0.005499999970197678,0.019600000232458115,-0.31999999218507735,-2.3199998966510647,0.014999999216793838
0.03158430755138397,-0.0584089420735836,9.837908744812012,0.00009999999747378752,-0.014399999752640724,0.019600000232458115,-0.6709999718570212,0.19600000221697184,0.019000000453128628
0.028548462316393852,-0.04212837293744087,9.834299087524414,-0.009099999442696571,0.007199999876320362,0.009800000116229057,-0.35899999881987993,0.20099999417411205,0.11500000177721047
0.040366239845752716,-0.0453844889998436,9.828840255737305,0.010900000110268593,0.008100000210106373,0.009800000116229057,0.5420000032719886,2.959999934382072,-0.02800000031671026
0.03918829187750816,-0.061502255499362946,9.842352867126465,0.01889999955892563,-0.012899999506771564,0.019600000232458115,0.8840000080932506,-3.5019999910149138,0.02899999937514897
0.030559591948986053,-0.05031654238700867,9.83967113494873,-0.0004999999655410647,-0.005499999970197678,0.019600000232458115,-0.2469999975530389,-2.755999899676951,-0.0009999999964224499
0.05021119862794876,-0.04526956379413605,9.842955589294434,0.011399999260902405,0.004900000058114529,0.019700000062584877,-0.7420000017227153,3.428999996382875,-0.019999999511567335
0.04704127460718155,-0.03395935893058777,9.85123062133789,0.010900000110268593,0.016699999570846558,0.029500000178813934,0.14799999405106096,-1.6729999822378516,-0.05300000012305109
0.04210921749472618,-0.04213795065879822,9.861736297607422,0.006199999712407589,0.006399999838322401,0.03929999843239784,-0.9860000254458112,-0.8179999968651231,0.041000001416626686
0.04073015972971916,-0.0469263531267643,9.83962345123291,0.0038999998942017555,0.009099999442696571,0.019700000062584877,1.2950000246530096,-0.5530000229302942,-0.013000000266153095
0.02661394700407982,-0.047788266092538834,9.85117244720459,-0.017099998891353607,0.005499999970197678,0.029500000178813934,-0.8549999853727285,1.2100000279794934,0.04900000055424296
0.029094340279698372,-0.03974374756217003,9.835504531860352,-0.003999999724328518,0.007699999958276749,0.019700000062584877,1.2650000195493152,0.585999975183505,0.035000000395887826
0.03773261979222298,-0.03910209983587265,9.843769073486328,0.007499999832361937,-0.0058999997563660145,0.029500000178813934,0.7450000022330847,-2.4629999387656247,-0.12199999852133472
0.0368419773876667,-0.048755522817373276,9.841882705688477,-0.00559999980032444,0.0052999998442828655,0.019700000062584877,0.09899999683187131,0.8219999797586648,0.03999999902313467
0.036008793860673904,-0.04246356338262558,9.840628623962402,-0.012299999594688416,-0.0064999996684491634,0.019700000062584877,-0.46099998949201404,-0.815999978737926,-0.19000000119623298
0.044493842869997025,-0.03633440285921097,9.847829818725586,-0.002300000051036477,0.0139999995008111,0.029500000178813934,-0.23699998695833197,-4.415000128550393,0.021000000237532696
0.03651636466383934,-0.04102703928947449,9.840991973876953,-0.02410000003874302,0.004799999762326479,0.019700000062584877,0.9790000420419002,1.3930000057511756,0.0539999991814898
0.036296095699071884,-0.03878606855869293,9.848328590393066,-0.02019999921321869,0.002099999925121665,0.029500000178813934,0.9269999976215948,2.874999937708556,0.0019999999928448997
0.03646847978234291,-0.03897760435938835,9.844257354736328,-0.012199999764561653,-0.00039999998989515007,0.019700000062584877,-0.0969999987149939,2.8289998943089896,-0.06299999737754478
0.03892971947789192,-0.05490383133292198,9.839690208435059,0.0052999998442828655,-0.00989999994635582,0.019600000232458115,-1.4319999590251251,3.820000151835779,0.02800000031671026
0.0373208150267601,-0.04549941048026085,9.8469877243042,0.006000000052154064,0.003700000001117587,0.029399998486042023,-0.8819999899660533,0.7369999830851486,-0.10100000161885533
0.05081453546881676,-0.035127729177474976,9.8427734375,0.02759999968111515,0.01589999906718731,0.019600000232458115,-0.325000010822644,3.458999894764864,0.01400000015835513
0.034802116453647614,-0.04575798287987709,9.847715377807617,0.017400000244379044,0.006899999920278788,0.029399998486042023,-0.9740000234043334,4.341000151535182,0.03899999996469596
0.03035847656428814,-0.05625416338443756,9.863814353942871,0.029099998995661736,-0.00019999999494757503,0.03929999843239784,0.24299998797907083,3.4089999218326086,-0.007999999971379599
0.05193502455949783,-0.047453079372644424,9.845598220825195,0.05779999867081642,0.008799999952316284,0.029500000178813934,1.1159999764140158,2.1009999127549492,0.0019999999928448997
0.027887661010026932,-0.04448426887392998,9.836309432983398,0.033900000154972076,0.005699999630451202,0.019700000062584877,0.5579999882070079,-0.739999983595518,-0.04200000047506539
0.04059608280658722,-0.05490383133292198,9.843185424804688,0.0510999970138073,-0.00559999980032444,0.019600000232458115,-0.9109999593257225,-4.762999974309834,-0.008999999863581633
0.0357789508998394,-0.05247132480144501,9.8279390335083,0.0279999990016222,-0.0030999998562037945,0.009800000116229057,-1.6309999750926798,2.9119999262161613,-0.023000000021936765
0.03284844756126404,-0.0516572967171669,9.825363159179688,0.0357000008225441,0.0013000000035390258,0,-0.7729999892095818,4.698999821126345,-0.049999999612681666
0.03575979545712471,-0.05644569918513298,9.828198432922363,0.049799997359514236,0.003700000001117587,0.00989999994635582,1.0689999506312773,-5.392999974765709,0.021000000237532696
0.04789361357688904,-0.047778692096471786,9.832919120788574,0.05609999969601631,0.010900000110268593,0.00989999994635582,-0.7429999841058874,2.3889999617504145,0.010999999647985701
0.03421793133020401,-0.038422148674726486,9.839737892150879,0.04309999942779541,0.012999999336898327,0.019700000062584877,1.1980000259380155,1.660999980196374,0.12700000381868817
0.05793968215584755,-0.0606594942510128,9.84184455871582,0.0762999951839447,-0.009599999524652958,0.019700000062584877,-2.5520000784152415,-1.9539999411077,-0.05799999875029794
0.03808695822954178,-0.04379473999142647,9.839057922363281,0.041099999099969864,0.01679999940097332,0.019700000062584877,1.9230000603425395,-1.3899999518799533,0.09300000248123906
0.028615498915314674,-0.05156152695417404,9.84681510925293,0.02719999849796295,0.0016999999061226845,0.029500000178813934,-1.9850000353162722,2.3480000437101203,-0.09099999769425504
0.050651729106903076,-0.05806417763233185,9.842065811157227,0.06260000169277191,-0.0026000000070780516,0.019700000062584877,1.6689999459834572,0.5699999902484857,0.08799999718388561
0.037330396473407745,-0.04096957668662071,9.845253944396973,0.04439999908208847,0.011699999682605267,0.029500000178813934,-0.9320000162591615,6.5939999478532405,-0.023000000021936765
0.029745562002062798,-0.0407588891685009,9.85673713684082,0.06960000097751617,0.013899999670684338,0.029500000178813934,0.8960000101347283,-2.9709999540403778,0.017999999727163266
0.037617698311805725,-0.0507187694311142,9.85167121887207,0.05849999934434891,0.016899999231100082,0.039400000125169754,2.2299999880616874,3.674000162571702,0.024000000747902123
0.04042370244860649,-0.044254425913095474,9.836491584777832,0.06929999589920044,0.008200000040233135,0.019700000062584877,-1.8160000243524121,4.360999799198625,-0.012000000373951061
0.04187937453389168,-0.057690683752298355,9.849831581115723,0.06929999589920044,0.008200000040233135,0.019700000062584877,-2.2309999704448598,3.118999908070799,-0.07799999992939192
0.0319865345954895,-0.04796064645051956,9.851747512817383,0.07939999550580978,0.00930000003427267,0.02969999983906746,-1.6780000008754183,-2.0070000746328835,0.0009999999964224499
0.04530787095427513,-0.04642836004495621,9.842918395996094,0.08309999853372574,0.023599999025464058,0.019899999722838402,-1.1680000208343213,-5.690999847592895,0.03999999902313467
0.045250412076711655,-0.04964616894721985,9.83962345123291,0.06700000166893005,0.016899999231100082,0.01979999989271164,-1.5240000458242582,-6.178000019377621,0.05499999823992851
0.03923618048429489,-0.0427795946598053,9.823657989501953,0.04959999769926071,0.030700000002980232,0.00019999999494757503,0.014999999216793838,-3.1860000084038043,-0.024000000747902123
0.03929363936185837,-0.045317452400922775,9.83432674407959,0.039400000125169754,0.030499998480081558,0.00989999994635582,-2.298000070777865,-0.5789999917795939,0.014999999216793838
0.029803022742271423,-0.045365333557128906,9.850214958190918,0.027899999171495438,0.03579999879002571,0.029600000008940697,-2.3549999203923253,-3.0669999703721995,-0.08299999855663877
0.0428849421441555,-0.03399766609072685,9.845407485961914,0.028999999165534973,0.05179999768733978,0.029600000008940697,-1.904999950558617,8.247999837923999,0.15800000464576788
0.03777092695236206,-0.043210551142692566,9.8341064453125,0.04149999842047691,0.04699999839067459,0.010099999606609344,1.472000001403953,3.483999881230991,-0.08200000283325337
0.03350924700498581,-0.05397488549351692,9.844440460205078,0.05069999769330025,0.032899998128414154,0.019899999722838402,1.5939999865850745,-3.9539999256149665,0.08100000043976135
0.028289886191487312,-0.045039720833301544,9.856612205505371,0.0284000001847744,0.03749999776482582,0.039400000125169754,-2.2779999962275985,-5.522000050072447,-0.0019999999928448997
0.04094085097312927,-0.04038539528846741,9.842830657958984,0.03460000082850456,0.04270000010728836,0.01979999989271164,-2.8450000393265675,5.958000053098333,0.03899999996469596
0.042808327823877335,-0.04473326355218887,9.868084907531738,0.03619999811053276,0.04129999876022339,0.04919999837875366,-1.1970000435548434,-0.08299999855663877,-0.07999999804626934
0.02526361681520939,-0.05406107380986214,9.86295223236084,0.016200000420212746,0.03449999913573265,0.03949999809265137,1.221000047637799,7.4349998596964415,0.06899999839828364
0.03619075566530228,-0.04273171350359917,9.839642524719238,0.0486999973654747,0.040300000458955765,0.019899999722838402,-1.8659999972846673,-8.206999919883703,-0.035000000395887826
0.02698744274675846,-0.032091882079839706,9.850234031677246,0.01899999938905239,0.05419999733567238,0.02969999983906746,3.090999974455155,1.3389999965645258,0.09000000197086964
0.040078938007354736,-0.05049850046634674,9.841509819030762,0.041999999433755875,0.02589999884366989,0.01979999989271164,-3.2289998912104427,0.5380000203784471,0.01400000015835513
0.0421762578189373,-0.03481169044971466,9.83646297454834,0.043299999088048935,0.053999997675418854,0.019899999722838402,3.2359999813360596,-0.01400000015835513,-0.1070000026395942
0.02746628224849701,-0.0513029545545578,9.83690357208252,0.023399999365210533,0.025299999862909317,0.01979999989271164,-1.8250000792443732,10.087999866359365,0.11200000126684104
0.03516603633761406,-0.045010991394519806,9.849994659423828,0.06399999558925629,0.030700000002980232,0.019899999722838402,-2.8049998902260342,-1.6489999781548963,-0.07199999890865307
0.04175487905740738,-0.051858410239219666,9.832717895507812,0.059699997305870056,0.04699999839067459,0.02979999966919422,3.8310001714940842,1.7329999924452402,0.08700000146050021
0.0441969633102417,-0.0402800478041172,9.843789100646973,0.050999999046325684,0.03309999778866768,0.01979999989271164,-2.4550000797002474,9.9980001712134,0.01700000066872456
0.03344221040606499,-0.04303817078471184,9.84299373626709,0.0681999996304512,0.03959999978542328,0.019899999722838402,-2.798999995927001,9.59999992563488,0.004999999877891834
0.046696510165929794,-0.04564306139945984,9.848184585571289,0.1039000004529953,0.04699999839067459,0.029999999329447746,-3.5149999754395638,2.9449999851910778,0.03400000133744912
0.022687455639243126,-0.04239652305841446,9.843117713928223,0.09179999679327011,0.056299999356269836,0.02029999904334545,-2.980999991315511,-0.7249999810436709,-0.12499999903170415
0.03818272799253464,-0.03620990738272667,9.834136009216309,0.09910000115633011,0.0738999992609024,0.010499999858438969,-2.6199999476880076,-3.9689998748059607,0.046999999102312236
0.04461834207177162,-0.052806511521339417,9.845914840698242,0.09749999642372131,0.06109999865293503,0.03009999915957451,-3.7249999044437176,6.584000124021519,0.10100000161885533
0.045939940959215164,-0.05113057419657707,9.845359802246094,0.11490000039339066,0.07099999487400055,0.030399998649954796,-2.905000049533956,8.327000367185304,0
0.03145023435354233,-0.05359181389212608,9.850387573242188,0.13009999692440033,0.0794999971985817,0.030700000002980232,-1.891999966133967,7.0769997632184545,0.1419999930303221
0.05104437842965126,-0.036315251141786575,9.84860610961914,0.16589999198913574,0.10319999605417252,0.03099999949336052,1.0359999983780663,7.530999876028263,0.16800000190026157
0.03837426379323006,-0.050584692507982254,9.84397029876709,0.17579999566078186,0.08020000159740448,0.021399999037384987,3.589000165898186,-7.039000005771088,0.01400000015835513
0.042999863624572754,-0.04575798287987709,9.848270416259766,0.15569999814033508,0.07970000058412552,0.030799999833106995,-2.6990000500624904,-9.584999976443886,-0.0969999987149939
0.03399766609072685,-0.05485595017671585,9.841835021972656,0.11879999935626984,0.07679999619722366,0.020800000056624413,-1.9059999329417892,4.1169998288363825,0.14499999354069154
0.04842991381883621,-0.03539587929844856,9.850521087646484,0.14880000054836273,0.10109999775886536,0.030700000002980232,1.2100000279794934,7.7899997955815,-0.05300000012305109
0.040979158133268356,-0.0437181256711483,9.834586143493652,0.15950000286102295,0.08749999850988388,0.011299999430775642,-1.083000024160805,-7.327000054766554,-0.035000000395887826
0.04239652305841446,-0.03701435774564743,9.825220108032227,0.13859999179840088,0.09969999641180038,0.0013000000035390258,0.08400000095013078,9.92400019419819,-0.013000000266153095
0.04575798287987709,-0.044187385588884354,9.834039688110352,0.1648000031709671,0.08919999748468399,0.011399999260902405,2.510999946931536,-6.512000111772653,-0.04500000098543482
0.03903506323695183,-0.03824976831674576,9.846508979797363,0.1460999995470047,0.09160000085830688,0.030700000002980232,-0.39299998681711584,7.8269997840891055,0.07000000079177565
0.031220389530062675,-0.03940856084227562,9.839881896972656,0.15689998865127563,0.08229999989271164,0.021199999377131462,-0.43999998591942807,-7.290999835198709,-0.049999999612681666
0.029946673661470413,-0.05412811413407326,9.850617408752441,0.13609999418258667,0.07319999486207962,0.030700000002980232,1.320000011119137,5.313999872391226,-0.02600000053230619
0.03325067088007927,-0.0428849421441555,9.855894088745117,0.14980000257492065,0.07899999618530273,0.0405999980866909,-2.540000076373764,-7.704000029968223,0.04200000047506539
0.028787881135940552,-0.050412312150001526,9.84126091003418,0.12789998948574066,0.07559999823570251,0.020800000056624413,1.9759999804243111,-3.944000101783245,-0.08700000146050021
0.03492661193013191,-0.05125506967306137,9.837132453918457,0.11629999428987503,0.0697999969124794,0.020600000396370888,2.2299999880616874,4.594999945729146,0.03899999996469596
0.02203623205423355,-0.041007883846759796,9.838799476623535,0.11840000003576279,0.0731000006198883,0.02070000022649765,-1.0509999475690606,2.1920000171709098,0.02600000053230619
0.028242003172636032,-0.05162856727838516,9.837381362915039,0.14319999516010284,0.0754999965429306,0.020800000056624413,2.3559999027754976,-5.9289999236561055,-0.021999999295971403
0.029113493859767914,-0.03675578162074089,9.826234817504883,0.11809999495744705,0.06870000064373016,0.020800000056624413,1.359999946776259,-4.504000054756597,-0.024999999806340833
0.03618117421865463,-0.05173391103744507,9.836318969726562,0.09799999743700027,0.05779999867081642,0.020399998873472214,2.4340000227668086,-4.406999842598192,0.0269999995907449
0.04142926633358002,-0.0380294993519783,9.828465461730957,0.09510000050067902,0.07029999792575836,0.010400000028312206,1.9919999119984775,-0.23699998695833197,-0.07099999651516105
0.038259342312812805,-0.05632119998335838,9.831348419189453,0.08410000056028366,0.04490000009536743,0.010300000198185444,0.19099999691961836,-2.8139999451179953,0.09300000248123906
0.029582755640149117,-0.051791369915008545,9.82850456237793,0.07589999586343765,0.044099997729063034,0.010300000198185444,0.7859999736342317,-6.588000053554207,-0.05099999867112037
0.040586505085229874,-0.035558685660362244,9.829950332641602,0.06719999760389328,0.06119999662041664,0.010199999436736107,0.6789999910049573,-3.654999856961196,-0.0659999978879142
0.04736688733100891,-0.04943547770380974,9.831253051757812,0.0568000003695488,0.03949999809265137,0.010099999606609344,-3.212999959636276,-4.816999876774778,-0.05600000063342052
0.034227509051561356,-0.04654328152537346,9.83193302154541,0.03350000083446503,0.05779999867081642,0.010199999436736107,-1.0909999899478884,0.9450000006838114,0.019000000453128628
0.032953791320323944,-0.03926490619778633,9.853988647460938,0.03579999879002571,0.07029999792575836,0.019999999552965164,0.8260000160130593,1.3930000057511756,0.04900000055424296
0.032953791320323944,-0.03926490619778633,9.853988647460938,0.05920000001788139,0.05719999969005585,0.02979999966919422,0.8260000160130593,1.3930000057511756,0.04900000055424296
0.03652593865990639,-0.048382025212049484,9.848155975341797,0.06269999593496323,0.04490000009536743,0.02979999966919422,-0.6999999945775432,1.6960000039376348,-0.021000000237532696
0.03960009664297104,-0.04416823014616966,9.839555740356445,0.06700000166893005,0.04649999737739563,0.020099999383091927,1.7349999572115846,-2.9890000638243,0.18900000547284757
0.03960009664297104,-0.04416823014616966,9.839555740356445,0.08309999853372574,0.06109999865293503,0.020099999383091927,1.7349999572115846,-2.9890000638243,0.18900000547284757
0.03642059862613678,-0.04383304715156555,9.838770866394043,0.06579999625682831,0.056699998676776886,0.020099999383091927,-2.485999960465408,4.369000085150826,0.03699999851276524
0.04400542750954628,-0.051504068076610565,9.837908744812012,0.08609999716281891,0.05009999871253967,0.020099999383091927,0.8260000160130593,3.9980000042481887,0.10499999785261017
0.04234864190220833,-0.04707958176732063,9.842448234558105,0.0965999960899353,0.05739999935030937,0.02019999921321869,-0.5530000229302942,-3.5289999422473857,-0.009999999755783667
0.030588321387767792,-0.04497268423438072,9.847552299499512,0.0754999965429306,0.058799996972084045,0.029899999499320984,-1.1459999815177102,4.744999864525912,-0.09600000299160849
0.030588321387767792,-0.04497268423438072,9.847552299499512,0.0754999965429306,0.058799996972084045,0.029899999499320984,-1.1459999815177102,4.744999864525912,-0.09600000299160849
0.047884032130241394,-0.036698322743177414,9.819244384765625,0.09380000084638596,0.07499999552965164,0.0005999999702908099,0.8630000045206646,-0.5699999902484857,0.1199999937343507
0.03604710102081299,-0.04593036696314812,9.838301658630371,0.07229999452829361,0.06260000169277191,0.020099999383091927,2.144000009004999,4.450000152291653,-0.12400000330831876
0.04031835496425629,-0.04347870126366615,9.832268714904785,0.09380000084638596,0.05639999732375145,0.010300000198185444,1.3469999623516091,-2.737000020953268,0.09500000059811649
0.04912902042269707,-0.04533660411834717,9.849956512451172,0.09479999542236328,0.05199999734759331,0.029899999499320984,-0.9599999498748056,2.9009999065578556,0.04200000047506539
0.043210551142692566,-0.03867114707827568,9.833724021911621,0.09149999916553497,0.053999997675418854,0.010300000198185444,1.5260000105906026,-1.0710000221193274,0.03100000082707969
0.030961817130446434,-0.048382025212049484,9.852484703063965,0.07829999923706055,0.039799999445676804,0.029899999499320984,1.8469999051175727,-2.4920000682078527,0.07799999992939192
0.04803726077079773,-0.04815218225121498,9.856123924255371,0.09070000052452087,0.03449999913573265,0.03959999978542328,0.27599999359313454,-4.6700001185709406,-0.1079999983629796
0.041151538491249084,-0.051006071269512177,9.841930389404297,0.06769999861717224,0.03350000083446503,0.019899999722838402,1.2969999894193538,-0.6540000045388297,0.031999999885518396
0.045441947877407074,-0.04511633515357971,9.850780487060547,0.06529999524354935,0.03909999877214432,0.02969999983906746,-1.034000033611722,-5.695999972952168,0.06200000165415938
0.03990655392408371,-0.05279693752527237,9.837257385253906,0.05130000039935112,0.031599998474121094,0.01979999989271164,-2.2380000605704766,3.64399983730289,0.01400000015835513
0.05345773696899414,-0.05002924054861069,9.835763931274414,0.07079999893903732,0.03759999945759773,0.019899999722838402,0.901000028772295,-4.145000189338849,0.024000000747902123
0.0373208150267601,-0.03303040564060211,9.828619003295898,0.03959999978542328,0.054499998688697815,0.010099999606609344,0.05499999823992851,-5.30299985273292,0.05499999823992851
0.05052723363041878,-0.043679818511009216,9.834442138671875,0.04439999908208847,0.04439999908208847,0.009999999776482582,-1.6960000039376348,3.1519999670457155,-0.07399999702553048
0.0433637797832489,-0.03810611367225647,9.837247848510742,0.04399999976158142,0.05920000001788139,0.019899999722838402,3.5230000479483525,-7.498999585993107,0.02800000031671026
0.03918829187750816,-0.0446758046746254,9.845340728759766,0.02589999884366989,0.040699999779462814,0.029600000008940697,-2.4159999129828864,0.07000000079177565,0.09200000008774706
0.031095892190933228,-0.03688985854387283,9.83401107788086,0.016099998727440834,0.05689999833703041,0.010099999606609344,-1.974999998041139,1.453000015958564,-0.13000000432905762
0.0401747040450573,-0.046246398240327835,9.851153373718262,0.03949999809265137,0.042500000447034836,0.010099999606609344,-2.267999958952465,3.977999929697922,-0.0329999989439571
0.03651636466383934,-0.0349457673728466,9.85450553894043,0.04039999842643738,0.05819999799132347,0.02979999966919422,3.51799992258908,-7.367999972806848,-0.0269999995907449
0.04720408096909523,-0.04024174064397812,9.83797550201416,-0.001500000013038516,0.042899999767541885,0.019899999722838402,2.860999970900734,-6.133000171804638,0.10199999734224074
0.04193683713674545,-0.04961743578314781,9.83597469329834,-0.018400000408291817,0.02499999850988388,0.019899999722838402,0.7059999955982822,-6.2879997890738535,-0.11299999699022645
0.03410300984978676,-0.04784572497010231,9.85019588470459,-0.04529999941587448,0.03269999846816063,0.02979999966919422,0.6949999759399766,9.711999660097456,0.05900000114378995
0.03757939115166664,-0.04054819792509079,9.855472564697266,-0.018699999898672104,0.030700000002980232,0.039400000125169754,1.6239999916887686,1.5670000353526023,0.021000000237532696
0.04638047516345978,-0.03753150627017021,9.843147277832031,-0.0044999998062849045,0.03590000048279762,0.01979999989271164,3.7540000338859456,-7.500000208706514,0.13499999628619785
0.03487873077392578,-0.04441722854971886,9.84736156463623,-0.03480000048875809,0.015599999576807022,0.029600000008940697,0.7320000178084348,-9.82699955515296,-0.08899999957737763
0.03320278972387314,-0.028998570516705513,9.840350151062012,-0.06149999797344208,0.02329999953508377,0.019999999552965164,-1.4950000231037361,-8.405000273733203,0.038000000906257256
0.049224790185689926,-0.05681919306516647,9.831357955932617,-0.06480000168085098,0.007699999958276749,0.010400000028312206,-2.8139999451179953,8.54200020810532,-0.1939999974299878
0.045231256633996964,-0.04413950443267822,9.849027633666992,-0.050999999046325684,0.025100000202655792,0.029899999499320984,-0.7239999986604987,2.4830000133158916,0.046999999102312236
0.04528871923685074,-0.04360320419073105,9.838330268859863,-0.04349999874830246,0.02709999866783619,0.019999999552965164,-0.8699999879245757,-8.657999872100584,0.046999999102312236
0.040394969284534454,-0.04509718343615532,9.836845397949219,-0.06549999862909317,0.029199998825788498,0.02019999921321869,-2.5249999137393577,-2.170999960237471,-0.023000000021936765
0.036219481378793716,-0.044254425913095474,9.832842826843262,-0.08100000023841858,0.035999998450279236,0.010499999858438969,0.03100000082707969,5.352999825665175,0.07799999992939192
0.04641878232359886,-0.03929363936185837,9.829500198364258,-0.056299999356269836,0.03579999879002571,0.010300000198185444,-0.25599999908414717,-5.6550000549118735,0.06700000028140622
0.03860410675406456,-0.048468220978975296,9.829912185668945,-0.07149999588727951,0.026599999517202377,0.010499999858438969,-0.5519999871862691,5.812000063834256,0.0030000000934877653
0.033729515969753265,-0.052931010723114014,9.839373588562012,-0.06309999525547028,0.028099998831748962,0.020099999383091927,2.910999943832989,-13.84199990024531,-0.10499999785261017
0.028826188296079636,-0.04246356338262558,9.842007637023926,-0.09600000083446503,0.030799999833106995,0.020399998873472214,-1.2110000103626655,11.846999827653905,0.015999999942759198
0.030511707067489624,-0.03953305631875992,9.821589469909668,-0.06319999694824219,0.03399999812245369,0.0004999999655410647,-2.555000025564758,9.965999881178243,-0.0429999995335041
0.04572925344109535,-0.03243664652109146,9.834643363952637,-0.02589999884366989,0.05069999769330025,0.010199999436736107,3.2220000145282377,-11.915000337256906,0.05799999875029794
0.04087381064891815,-0.04352658987045288,9.843827247619629,-0.05829999968409538,0.03189999982714653,0.020099999383091927,-1.4400000315339143,11.335000309733287,-0.128999995265459
0.03357628732919693,-0.04881298542022705,9.843693733215332,-0.03680000081658363,0.02589999884366989,0.019899999722838402,-0.7410000193395431,7.504000138239203,0.0019999999928448997
0.033068712800741196,-0.03876691311597824,9.841912269592285,-0.016099998727440834,0.03759999945759773,0.019899999722838402,2.94599996757425,-9.211999930774903,0.11299999699022645
0.041410114616155624,-0.04884171113371849,9.829471588134766,-0.03139999881386757,0.019600000232458115,0.010099999606609344,0.6099999792664604,-12.149000056900604,0.07300000130214508
0.04801810905337334,-0.05115929991006851,9.839336395263672,-0.05469999834895134,0.017799999564886093,0.02019999921321869,2.9070000143003005,6.357999836556375,0.17599999436777122
0.03343263268470764,-0.041151538491249084,9.825860977172852,-0.056699998676776886,0.019600000232458115,0.010199999436736107,-0.8399999828208814,9.05099956543301,-0.017999999727163266
0.04408204182982445,-0.04477157071232796,9.841519355773926,-0.031700000166893005,0.012000000104308128,0.01979999989271164,0.7500000208706514,12.680000307318553,-0.057000003026912535
0.04733815789222717,-0.03452438861131668,9.845139503479004,0.042899999767541885,0.033799998462200165,0.029500000178813934,-2.560999919863791,13.445000277380197,0.13499999628619785
0.017161637544631958,-0.04433104023337364,9.845934867858887,0.05480000004172325,0.03179999813437462,0.02969999983906746,-0.29999999767609,19.26900012981252,0.16999999334703236
0.029803022742271423,-0.043995849788188934,9.842812538146973,0.12039999663829803,0.03240000084042549,0.02029999904334545,2.7700000799281845,-14.099000281919027,-0.019999999511567335
0.025579649955034256,-0.04585375264286995,9.843530654907227,0.07169999927282333,0.024699999019503593,0.019899999722838402,2.812999962734823,-16.516000177285086,-0.048000001495804245
0.03571191430091858,-0.041218578815460205,9.851804733276367,0.03610000014305115,0.016899999231100082,0.029500000178813934,-1.7159999717661958,-10.7529998905565,-0.2729999930827651
0.04571967571973801,-0.04338293522596359,9.84126091003418,0.016300000250339508,0.02149999886751175,0.019700000062584877,-1.7979999145684897,12.979000375972323,-0.16400000566650674
0.024449586868286133,-0.035300109535455704,9.836769104003906,0.032099999487400055,0.03610000014305115,0.019700000062584877,-2.679999957895396,16.772000790019042,0.007000000079177565
0.040720582008361816,-0.04696466028690338,9.83967113494873,0.0973999947309494,0.03350000083446503,0.019999999552965164,-1.3240000473735316,-10.781000251058968,0.19000000119623298
0.05047934874892235,-0.05229894071817398,9.842227935791016,0.07369999587535858,0.027699999511241913,0.019899999722838402,-3.357999966517181,-0.9510000017045502,-0.1070000026395942
0.0312778502702713,-0.0632835403084755,9.837985038757324,0.05159999802708626,0.02579999901354313,0.019899999722838402,-0.0749999994190225,6.440999868463547,-0.03100000082707969
0.031909920275211334,-0.05270116776227951,9.83198070526123,0.0689999982714653,0.0357000008225441,0.010199999436736107,3.9510001919088618,-11.184999964049698,0.03899999996469596
0.047050848603248596,-0.0537833496928215,9.833292961120605,0.0478999987244606,0.024799998849630356,0.009999999776482582,0.31600000929153577,3.042999966289244,0.0659999978879142
0.0450301431119442,-0.031833305954933167,9.833876609802246,0.0559999980032444,0.04339999705553055,0.009999999776482582,0.9120000484306006,-16.05800013494259,-0.09099999769425504
0.03665044158697128,-0.04448426887392998,9.838167190551758,-0.0032999999821186066,0.03059999831020832,0.01979999989271164,2.750000005377918,15.01700075825719,0.12299999424472013
0.039561789482831955,-0.05222232639789581,9.83144474029541,0.04230000078678131,0.014099999330937862,0.00989999994635582,-3.2560000558863265,18.570000277700707,0.08799999718388561
0.03865199163556099,-0.04649539664387703,9.835112571716309,0.09290000051259995,0.03280000016093254,0.010199999436736107,1.2600000009117485,-25.916000211190944,-0.10100000161885533
0.05346731096506119,-0.036008793860673904,9.841538429260254,0.03150000050663948,0.039000000804662704,0.019700000062584877,-0.2710000016359943,-0.024000000747902123,0.128999995265459
0.03881479799747467,-0.04352658987045288,9.848214149475098,0.02149999886751175,0.02979999966919422,0.029600000008940697,4.517000039181247,14.487000276779003,0.1749999986443858
0.04647624120116234,-0.048592716455459595,9.844143867492676,0.06599999964237213,0.006000000052154064,0.019700000062584877,-2.2010000720628713,-6.989000032838833,-0.035000000395887826
0.037809234112501144,-0.05405149981379509,9.84779167175293,0.03920000046491623,0.01119999960064888,0.029500000178813934,-4.881000029958267,10.09800011707791,-0.19799999366374263
0.041525036096572876,-0.047242388129234314,9.850167274475098,0.07649999856948853,0.034299999475479126,0.02969999983906746,2.392999891283103,-30.14399829800285,-0.07099999651516105
0.037100546061992645,-0.03328897804021835,9.838953018188477,-0.01589999906718731,0.03739999979734421,0.01979999989271164,-0.27899999410350396,-8.749999958899718,-0.043999998591942806
0.033356018364429474,-0.04578671231865883,9.825526237487793,-0.03989999741315842,0.028299998492002487,0.00029999998514540493,2.909999961449817,-24.782999893932768,0.2259999939804529
0.036554671823978424,-0.055057063698768616,9.853462219238281,-0.1160999983549118,0.009399999864399433,0.030399998649954796,8.741000330894579,4.714999966143924,0.26699999206202624
0.042118798941373825,-0.05182967707514763,9.839115142822266,-0.09479999542236328,-0.011399999260902405,0.020399998873472214,2.660000096788541,11.396999644376786,0.19600000221697184
0.04845863953232765,-0.053093817085027695,9.829557418823242,-0.05350000038743019,-0.018699999898672104,0.010199999436736107,3.7170000453783403,-21.148999453574774,-0.17100000241063099
0.04118026793003082,-0.043871354311704636,9.843750953674316,-0.13079999387264252,-0.02889999933540821,0.02070000022649765,-5.860000072000167,-3.3119999231176145,0.13600000534979648
0.03855622559785843,-0.05051765590906143,9.836404800415039,-0.06369999796152115,-0.024799998849630356,0.019999999552965164,-2.714999981636657,21.066000702328072,0.06800000267489824
0.04099830985069275,-0.04908113554120064,9.834939956665039,-0.07360000163316727,-0.016499999910593033,0.020099999383091927,-2.2299999880616874,-29.028000029136127,0.11699999322398127
0.0388626828789711,-0.04986643046140671,9.837430000305176,-0.10209999978542328,-0.0037999998312443495,0.020499998703598976,4.762999974309834,-27.87299967256134,-0.057000003026912535
0.030291439965367317,-0.043995849788188934,9.844881057739258,-0.18779999017715454,-0.00699999975040555,0.021800000220537186,0.2800000031671026,57.18500067493389,-0.14900000311465958
0.03912125527858734,-0.04480987787246704,9.853519439697266,-0.021199999377131462,-0.007799999788403511,0.029500000178813934,3.6500001584887465,33.73799944303396,0.08700000146050021
0.02986048348248005,-0.036008793860673904,9.833148956298828,0.06719999760389328,-0.008499999530613422,0.00989999994635582,-0.3469999967784022,-30.964000073903314,0.1800000039417393
0.024401701986789703,-0.04589205980300903,9.849353790283203,-0.021900000050663948,-0.017400000244379044,0.029399998486042023,5.566000128705669,43.87500079404629,-0.07300000130214508
0.035960908979177475,-0.04218583181500435,9.852139472961426,0.1078999936580658,-0.032600000500679016,0.02979999966919422,-0.7209999981501293,-38.577000639785815,-0.29800000622931916
0.03056916780769825,-0.04299028217792511,9.849956512451172,0.002199999988079071,-0.030499998480081558,0.029399998486042023,-1.9649999607660056,3.3180000308600595,0.19099999691961836
0.030530860647559166,-0.03746446967124939,9.841136932373047,0.01119999960064888,-0.01529999915510416,0.019600000232458115,-6.54599993968733,-40.691999452131526,-0.05900000114378995
0.034514810889959335,-0.041199423372745514,9.844161987304688,-0.09999999403953552,-0.0071000000461936,0.02029999904334545,3.574999985646952,-57.571001985687985,0.03100000082707969
0.04630386084318161,-0.046294283121824265,9.834671974182129,-0.2474999874830246,-0.01679999940097332,0.013700000010430813,5.383000150933987,38.578998470118044,0.2159999967259592
0.031814150512218475,-0.05649358406662941,9.835562705993652,-0.15119999647140503,-0.04129999876022339,0.0210999995470047,1.7329999924452402,9.880000115564966,-0.015999999942759198
0.052758630365133286,-0.04535575956106186,9.843167304992676,-0.10409999638795853,-0.03610000014305115,0.020600000396370888,5.1859999929110705,-45.87200125829086,0.04900000055424296
0.04952166602015495,-0.04189852997660637,9.838425636291504,-0.22919999063014984,-0.050200000405311584,0.02329999953508377,5.579000113130319,20.8710005090715,-0.2469999975530389
0.049445051699876785,-0.03950433060526848,9.823811531066895,-0.17149999737739563,-0.06529999524354935,0.002300000051036477,0.7360000007019765,5.080999921687288,0.3089999992071983
0.034227509051561356,-0.03834553435444832,9.835619926452637,-0.17659999430179596,-0.06709999591112137,0.02159999869763851,13.349000261048376,36.460000582013286,0.10600000024610218
0.03344221040606499,-0.050728343427181244,9.842123031616211,-0.0762999951839447,-0.11319999396800995,0.02029999904334545,3.202999922361143,-15.083999791373138,-0.007000000079177565
0.04133350029587746,-0.03642059862613678,9.850646018981934,-0.10740000009536743,-0.10209999978542328,0.030700000002980232,12.633999837032162,29.47199989122739,-0.36499999984061876
0.04048116132616997,-0.051791369915008545,9.854888916015625,-0.026399999856948853,-0.1559000015258789,0.03999999910593033,-11.425000004879253,-12.969000125253778,0.7039999774710849
0.0372154675424099,-0.05886863172054291,9.830181121826172,-0.0714000016450882,-0.1340000033378601,0.010499999858438969,-10.154999753248958,-16.821999482290828,0.009999999755783667
0.03516603633761406,-0.039466023445129395,9.852924346923828,-0.10740000009536743,-0.07649999856948853,0.040300000458955765,-3.060000093689994,-21.784000433163566,-0.128999995265459
0.03516603633761406,-0.039466023445129395,9.852924346923828,-0.061400000005960464,-0.1241999939084053,0.03019999898970127,-3.060000093689994,-21.784000433163566,-0.128999995265459
0.03328897804021835,-0.047644615173339844,9.852494239807129,-0.10109999775886536,-0.12529999017715454,0.020899999886751175,0.12499999903170415,2.9160000691922616,-0.07600000181251451
0.040845081210136414,-0.04474284127354622,9.843022346496582,-0.16749998927116394,-0.09889999777078629,0.03139999881386757,0.12499999903170415,2.9160000691922616,-0.07600000181251451
0.048784252256155014,-0.034754231572151184,9.860509872436523,-0.1492999941110611,-0.09889999777078629,0.021399999037384987,12.711999743580062,26.676999397946254,-0.5579999882070079
0.042645517736673355,-0.04279874637722969,9.841930389404297,-0.024699999019503593,-0.142099991440773,0.020399998873472214,-13.14099965648033,-1.5329999939945136,-0.5009999785099888
0.04308605194091797,-0.04293282330036163,9.839038848876953,-0.028599999845027924,-0.10579999536275864,0.019999999552965164,3.6119999741545574,17.493000681447466,-0.03699999851276524
0.049253515899181366,-0.05212656036019325,9.845627784729004,0.029099998995661736,-0.1251000016927719,0.02979999966919422,-0.019000000453128628,11.203000073833621,0.029999998433587676
0.03584598749876022,-0.05687665566802025,9.844076156616211,0.04399999976158142,-0.12459999322891235,0.019999999552965164,-1.3289999592893924,15.157999768388349,-1.0069999756575443
0.03788584843277931,-0.049636587500572205,9.84936237335205,0.0802999958395958,-0.12099999934434891,0.029899999499320984,12.44299957330828,7.71000035115408,-1.6869999490456737
0.04457045719027519,-0.052480898797512054,9.836530685424805,0.11109999567270279,-0.15459999442100525,0.020600000396370888,-2.467000081741725,-9.596999765041952,-0.20999999570522035
0.045939940959215164,-0.03887225687503815,9.830860137939453,0.08460000157356262,-0.13759998977184296,0.010499999858438969,-4.3259997754573645,-9.381000155182175,0.11699999322398127
0.026901250705122948,-0.04398627579212189,9.849899291992188,0.03909999877214432,-0.12539999186992645,0.029899999499320984,-4.498000160457564,-12.677000146725623,-0.0009999999964224499
0.03249410539865494,-0.051082685589790344,9.83940315246582,0.0139999995008111,-0.12239999324083328,0.019899999722838402,4.676999781809735,12.676000377785863,1.4259999580043863
0.047855306416749954,-0.03573106601834297,9.871053695678711,0.058399997651576996,-0.1151999980211258,0.0494999997317791,-0.6249999818183075,-0.38100001145606455,-0.3349999947369245
0.044752418994903564,-0.03810611367225647,9.854400634765625,0.05719999969005585,-0.11309999972581863,0.029899999499320984,-1.4160000274509588,-7.018000162281061,3.3280000681351924
0.03274310380220413,-0.044302307069301605,9.858786582946777,0.027899999171495438,-0.11869999766349792,0.03959999978542328,6.590999787260313,4.203000021336482,-1.3569999996267423
0.048353299498558044,-0.04895663633942604,9.858068466186523,0.05889999866485596,-0.1460999995470047,0.039799999445676804,-0.6930000111736323,-3.7229999396773734,0.39200000443394367
0.03524265065789223,-0.047050848603248596,9.839997291564941,0.027699999511241913,-0.13379999995231628,0.020099999383091927,3.752999838059362,5.141000145338088,4.1039998444117325
0.040442854166030884,-0.03535757213830948,9.84566593170166,0.04959999769926071,-0.13259999454021454,0.029999999329447746,-1.2069999741082709,-4.829000092259667,-0.48599997595814165
0.0380294993519783,-0.04395754262804985,9.838282585144043,0.026499999687075615,-0.13859999179840088,0.02019999921321869,3.6720001978053576,2.860999970900734,0.4270000014947782
0.049301404505968094,-0.050057969987392426,9.840839385986328,0.05379999801516533,-0.15809999406337738,0.02029999904334545,-2.050999939822694,1.2400000330831875,-0.009999999755783667
0.04021301120519638,-0.05339069664478302,9.839278221130371,0.047199998050928116,-0.15199999511241913,0.02019999921321869,-4.502000089990252,-2.974999883573066,-0.851000002479187
0.035798102617263794,-0.042501870542764664,9.832976341247559,0.028099998831748962,-0.12789998948574066,0.010300000198185444,2.9469999499574224,-5.396999904298397,0.7859999736342317
0.030253130942583084,-0.047778692096471786,9.843655586242676,0.015099999494850636,-0.13449999690055847,0.020099999383091927,1.3839999508592145,-0.4810000106814279,0.3369999861836953
0.04374685138463974,-0.04966532066464424,9.851019859313965,0.023499999195337296,-0.147599995136261,0.029999999329447746,-4.463999905656063,2.4629999387656247,-0.4769999744270334
0.04228160157799721,-0.042310334742069244,9.838033676147461,0.03009999915957451,-0.12520000338554382,0.019999999552965164,-1.661999962579546,-0.010999999647985701,-0.6039999782457216
0.03440946713089943,-0.04389050602912903,9.848672866821289,0.02019999921321869,-0.12019999325275421,0.02979999966919422,-3.3050000464354095,-5.9159999392314555,-0.585999975183505
0.03683239594101906,-0.047548845410346985,9.845532417297363,0.001999999862164259,-0.10969999432563782,0.02969999983906746,-1.6689999459834572,-6.514999845478758,-0.4669999905127529
0.030138209462165833,-0.04281790181994438,9.849506378173828,-0.013599999248981476,-0.11509999632835388,0.02969999983906746,0.6380000196038104,-5.354000021491759,0.019000000453128628
0.04284663498401642,-0.05027823522686958,9.848270416259766,-0.012299999594688416,-0.11270000040531158,0.02979999966919422,-1.0859999713103217,-6.599999842152274,-0.2699999925723957
0.03263775631785393,-0.0505942702293396,9.867779731750488,-0.017099998891353607,-0.12379999458789825,0.02979999966919422,-0.5360000022512498,-7.46499975807843,-0.3789999933288673
0.027523742988705635,-0.04998135194182396,9.863852500915527,-0.04490000009536743,-0.12049999833106995,0.0494999997317791,-2.1949999643204263,-5.470999881313608,-0.5089999976579249
0.029151801019906998,-0.05481764301657677,9.839574813842773,-0.08079999685287476,-0.11289999634027481,0.020399998873472214,-0.007000000079177565,6.588000053554207,0.16999999334703236
0.023147141560912132,-0.05388868972659111,9.848214149475098,-0.07229999452829361,-0.11249999701976776,0.029999999329447746,2.3980000166423756,3.6359999782375128,0.4229999919208101
0.03619075566530228,-0.04948335886001587,9.845924377441406,-0.052400000393390656,-0.11869999766349792,0.029999999329447746,2.2730000843117373,3.419999941490914,-0.09300000248123906
0.030789434909820557,-0.054875101894140244,9.849563598632812,-0.042899999767541885,-0.12459999322891235,0.029899999499320984,-1.8079999518436232,-4.6960000874202406,-0.08299999855663877
0.031124621629714966,-0.06190447881817818,9.836204528808594,-0.05719999969005585,-0.12849999964237213,0.02019999921321869,0.7579999866577346,4.836999951325045,0.2740000021463637
0.0340072400867939,-0.0476350374519825,9.837794303894043,-0.045499999076128006,-0.11029999703168869,0.020099999383091927,-1.0079999580407164,-1.543000031269647,-0.24899998899980968
0.03229299187660217,-0.04303817078471184,9.84420108795166,-0.0494999997317791,-0.10719999670982361,0.020099999383091927,-0.9819999891914167,1.3469999623516091,0.15500000413539844
0.029103916138410568,-0.04909071326255798,9.835638999938965,-0.04569999873638153,-0.11400000005960464,0.020099999383091927,1.0069999756575443,2.5579999727142746,0.24899998899980968
0.03028186224400997,-0.053831230849027634,9.842918395996094,-0.038599997758865356,-0.11639999598264694,0.019999999552965164,-1.494000040720564,3.905000148509295,-0.1319999957758284
0.035462915897369385,-0.032283417880535126,9.854629516601562,-0.026399999856948853,-0.09179999679327011,0.03959999978542328,0.4639999900023835,-3.1439998945369267,-0.09300000248123906
0.03973417356610298,-0.04527914524078369,9.847399711608887,-0.024000000208616257,-0.10249999910593033,0.02979999966919422,-0.5829999746731356,3.2779998817595257,0.3570000073731091
0.03619075566530228,-0.05374504253268242,9.852561950683594,-0.024799998849630356,-0.11029999703168869,0.02969999983906746,-0.6660000065803073,-5.625999925469646,-0.21200000049220435
0.03926490619778633,-0.06703764945268631,9.850043296813965,-0.030299998819828033,-0.12780000269412994,0.02979999966919422,1.2530000175078375,-4.971000151991055,0.07999999804626934
0.04228160157799721,-0.030722396448254585,9.83767032623291,-0.053599998354911804,-0.1014999970793724,0.020099999383091927,-1.921000095576195,-3.077000007647333,0.08799999718388561
0.04228160157799721,-0.030722396448254585,9.83767032623291,-0.034699998795986176,-0.09589999914169312,0.020099999383091927,-1.921000095576195,-3.077000007647333,0.08799999718388561
0.04390966147184372,-0.06392518430948257,9.86441707611084,-0.0429999977350235,-0.11969999969005585,0.0494999997317791,-0.8200000149923204,-3.312999905500787,-0.21999999295971404
0.03490746021270752,-0.053189586848020554,9.848855018615723,-0.061799999326467514,-0.10740000009536743,0.029899999499320984,-0.3089999992071983,-4.940000057782483,-0.10999999647985702
0.04647624120116234,-0.042712558060884476,9.84267807006836,-0.06539999693632126,-0.09640000015497208,0.02029999904334545,-0.7420000017227153,-1.2549999822741817,-0.09099999769425504
0.032455798238515854,-0.045508988201618195,9.846269607543945,-0.07840000092983246,-0.0940999984741211,0.03009999915957451,0.8919999738803338,-2.1190000225388714,-0.021999999295971403
0.02329079434275627,-0.05263412743806839,9.846930503845215,-0.09380000084638596,-0.10610000044107437,0.03009999915957451,-0.43600000302588643,2.7409999504859566,-0.07300000130214508
0.036956898868083954,-0.05599559098482132,9.84664249420166,-0.0762999951839447,-0.10459999740123749,0.03009999915957451,0.9430000359174671,-1.9649999607660056,0.11400000605382507
0.031201235949993134,-0.040509890764951706,9.849794387817383,-0.06189999729394913,-0.09709999710321426,0.02029999904334545,0.15500000413539844,-1.3730000379226146,-0.08400000095013078
0.031201235949993134,-0.040509890764951706,9.849794387817383,-0.08969999849796295,-0.09779999405145645,0.03019999898970127,0.15500000413539844,-1.3730000379226146,-0.08400000095013078
0.04247313737869263,-0.04298070818185806,9.838550567626953,-0.093299999833107,-0.09789999574422836,0.010599999688565731,-0.13300000483942703,3.56100001883913,0.07199999890865307
0.04247313737869263,-0.04298070818185806,9.838550567626953,-0.09539999812841415,-0.09879999607801437,0.020600000396370888,-0.13300000483942703,3.56100001883913,0.07199999890865307
0.0529693178832531,-0.043612778186798096,9.84784984588623,-0.07079999893903732,-0.1014999970793724,0.030299998819828033,1.1070000282437604,1.8959998956666557,-0.07799999992939192
0.03106716088950634,-0.04317224398255348,9.863210678100586,-0.08500000089406967,-0.10419999808073044,0.03999999910593033,-0.13499999628619785,-1.4900000044661694,-0.017999999727163266
0.046629469841718674,-0.03854664787650108,9.851009368896484,-0.07909999787807465,-0.10359999537467957,0.030299998819828033,1.0249999787197608,2.8300000901355733,-0.010999999647985701
0.03936067596077919,-0.05869624763727188,9.852858543395996,-0.07109999656677246,-0.1256999969482422,0.03019999898970127,-1.1140000116476716,-0.5200000173162305,-0.09000000197086964
0.03738785535097122,-0.04102703928947449,9.852666854858398,-0.08209999650716782,-0.10269999504089355,0.03019999898970127,-0.4270000014947782,-1.2259999595536597,0.021000000237532696
0.03998316824436188,-0.04955039918422699,9.856162071228027,-0.07539999485015869,-0.11099999397993088,0.03999999910593033,-0.21700000578955783,-1.8120000948197235,-0.013000000266153095
0.0510731115937233,-0.04514506831765175,9.850923538208008,-0.07039999961853027,-0.10029999911785126,0.03019999898970127,-0.38300000290283537,0.7290000172980654,0.008999999863581633
0.04094085097312927,-0.041170693933963776,9.842294692993164,-0.07800000160932541,-0.0989999994635582,0.020399998873472214,-0.8799999718388561,-2.5579999727142746,-0.1070000026395942
0.0440724641084671,-0.04111323133111,9.84485149383545,-0.08479999750852585,-0.09629999846220016,0.020499998703598976,0.12199999852133472,1.018999977699022,-0.01700000066872456
0.04379473999142647,-0.04761588200926781,9.84895133972168,-0.08169999718666077,-0.09640000015497208,0.03019999898970127,0.06800000267489824,0.10199999734224074,-0.1079999983629796
0.03395935893058777,-0.05697242170572281,9.860222816467285,-0.0681999996304512,-0.07959999889135361,0.03969999775290489,-0.7999999938029067,-0.4210000004740393,-0.06099999926066736
0.039274487644433975,-0.033308133482933044,9.843846321105957,-0.06749999523162842,-0.06700000166893005,0.02019999921321869,0.9430000359174671,0.3259999932058162,0.14300000209392072
0.037119701504707336,-0.04357447102665901,9.853767395019531,-0.08129999786615372,-0.08509999513626099,0.029999999329447746,0.7769999721031233,-0.4720000091503196,0.1199999937343507
0.04732858017086983,-0.048094723373651505,9.851881980895996,-0.07589999586343765,-0.1005999967455864,0.03009999915957451,-0.5620000244614024,-0.4270000014947782,0.05999999686717535
0.03616202250123024,-0.05726930499076843,9.851585388183594,-0.08869999647140503,-0.10119999945163727,0.03019999898970127,-0.7209999981501293,0.26699999206202624,-0.09600000299160849
0.044043734669685364,-0.045652639120817184,9.862627029418945,-0.07939999550580978,-0.09079999476671219,0.03999999910593033,-0.10499999785261017,-1.508000007528386,0.05999999686717535
0.05302678048610687,-0.049722783267498016,9.85869026184082,-0.07490000128746033,-0.10109999775886536,0.03999999910593033,-0.07699999753589991,0.6089999968832882,-0.02800000031671026
0.05800671875476837,-0.060372188687324524,9.859485626220703,-0.06399999558925629,-0.11109999567270279,0.03999999910593033,0.4969999956164472,-0.16599999711327754,-0.09600000299160849
0.036956898868083954,-0.04558560252189636,9.862051963806152,-0.0940999984741211,-0.093299999833107,0.03999999910593033,-0.06299999737754478,-1.2319999605743985,0.006000000186975531
0.0388626828789711,-0.05902186036109924,9.858163833618164,-0.08729999512434006,-0.11270000040531158,0.04010000079870224,-0.5339999841240525,1.1389999981137993,-0.0269999995907449
0.040394969284534454,-0.05578489974141121,9.841202735900879,-0.08410000056028366,-0.1013999953866005,0.020399998873472214,-0.6810000091321545,-0.6020000134793773,0.1319999957758284
0.027858929708600044,-0.06343676894903183,9.84620189666748,-0.10529999434947968,-0.10920000076293945,0.03019999898970127,-0.2069999951948509,0.9510000017045502,0.012000000373951061
0.0283186174929142,-0.05336196720600128,9.856431007385254,-0.10249999910593033,-0.09860000014305115,0.03999999910593033,-0.4769999744270334,-0.9109999593257225,-0.02600000053230619
0.032264262437820435,-0.03253241255879402,9.852800369262695,-0.09529999643564224,-0.07729999721050262,0.03019999898970127,0.07799999992939192,-0.8329999994169703,-0.05999999686717535
0.03623863682150841,-0.04831499233841896,9.841711044311523,-0.09709999710321426,-0.08709999918937683,0.020399998873472214,-0.1930000017066024,0.8099999777171871,0.0749999994190225
0.03215891495347023,-0.04254017770290375,9.864657402038574,-0.0940999984741211,-0.0973999947309494,0.020399998873472214,-1.0520000366739386,-0.5330000017408804,0.0030000000934877653
0.03251326084136963,-0.05469314008951187,9.826732635498047,-0.09290000051259995,-0.09359999746084213,0.010599999688565731,0.2810000122307012,-0.28600000418784144,0.06099999926066736
0.028826188296079636,-0.046524129807949066,9.802389144897461,-0.09290000051259995,-0.09359999746084213,0.010599999688565731,-0.01400000015835513,0.2740000021463637,0.06099999926066736
0.03786669671535492,-0.043421242386102676,9.825602531433105,-0.09269999712705612,-0.08419999480247498,0.000699999975040555,-0.07900000232288394,-1.3990000067719144,0.10100000161885533
0.03564487397670746,-0.039772480726242065,9.82548713684082,-0.09629999846220016,-0.08370000123977661,0.0007999999797903001,0.30799999014359963,-1.229000013424882,0.11200000126684104
0.034256238490343094,-0.044752418994903564,9.8388090133667,-0.09939999878406525,-0.08429999649524689,0.020399998873472214,1.0600000024610219,-1.2520000351246652,0.11099999887334903
0.023511061444878578,-0.04758715257048607,9.858423233032227,-0.11239999532699585,-0.08699999749660492,0.04010000079870224,-0.04600000004387353,-1.2569999470405262,0.06099999926066736
0.028356924653053284,-0.04961743578314781,9.838377952575684,-0.11599999666213989,-0.09649999439716339,0.020499998703598976,-0.23000000355442093,-1.144999999134538,0.10199999734224074
0.037426162511110306,-0.049416325986385345,9.84086799621582,-0.10859999805688858,-0.09569999575614929,0.020600000396370888,-0.4229999919208101,-1.1879999886628823,-0.009999999755783667
0.051053959876298904,-0.04918648302555084,9.85505199432373,-0.09200000017881393,-0.09429999440908432,0.04019999876618385,-0.5729999907588551,1.0280000325909833,-0.04900000055424296
0.04474284127354622,-0.045700524002313614,9.831501960754395,-0.09879999607801437,-0.08269999921321869,0.010699999518692493,0.3600000078834786,-0.5380000203784471,-0.004999999877891834
0.04003105312585831,-0.04866933077573776,9.838349342346191,-0.09999999403953552,-0.09319999814033508,0.020600000396370888,0.1629999966029081,-1.271000020570054,0.0329999989439571
0.030454246327280998,-0.0440724641084671,9.85936164855957,-0.11339999735355377,-0.08370000123977661,0.04019999876618385,-0.9440000183006392,-0.9490000369382059,0.031999999885518396
0.04843948781490326,-0.04188895598053932,9.848979949951172,-0.0957999974489212,-0.0811999961733818,0.030399998649954796,-0.17100000241063099,1.1120000468813271,-0.11299999699022645
0.032283417880535126,-0.05199248343706131,9.844440460205078,-0.11209999769926071,-0.09030000120401382,0.020600000396370888,0.4669999905127529,-1.2470000164870987,0.20099999417411205
0.02990836650133133,-0.045987825840711594,9.848433494567871,-0.1152999997138977,-0.08159999549388885,0.030399998649954796,-0.17799999915475526,1.9860000176994446,0.043999998591942806
0.03066493570804596,-0.060037001967430115,9.84207534790039,-0.1096000000834465,-0.10049999505281448,0.020600000396370888,0.8650000226478619,-1.2509999460197874,0.05200000106461238
0.0383838415145874,-0.0482192225754261,9.840398788452148,-0.10289999842643738,-0.09279999881982803,0.020600000396370888,-0.754000003764193,1.5769999659060299,-0.029999998433587676
0.03233129903674126,-0.05144660547375679,9.833340644836426,-0.10809999704360962,-0.09049999713897705,0.010699999518692493,0.04900000055424296,-1.4559999631080807,0.15500000413539844
0.03893929719924927,-0.03743573650717735,9.8504638671875,-0.10199999809265137,-0.07079999893903732,0.030399998649954796,0.5089999976579249,1.3870000047304367,0.2289999944908223
0.04493437707424164,-0.058236561715602875,9.841519355773926,-0.0982000008225441,-0.10159999877214432,0.020499998703598976,-0.7870000093782568,-0.6729999899842184,-0.046999999102312236
0.030550014227628708,-0.05636908486485481,9.85922622680664,-0.10989999771118164,-0.08969999849796295,0.04019999876618385,0.7429999841058874,-1.627000045559991,0.08400000095013078
0.04971320182085037,-0.054635681211948395,9.859772682189941,-0.09529999643564224,-0.09200000017881393,0.04019999876618385,0.7080000137254794,-0.3570000073731091,0.05099999867112037
0.035577837377786636,-0.03929363936185837,9.853155136108398,-0.10599999874830246,-0.09369999915361404,0.030499998480081558,-0.3999999969014533,1.7430000297203736,0.06299999737754478
0.04186980053782463,-0.05795883387327194,9.847658157348633,-0.11099999397993088,-0.08269999921321869,0.030399998649954796,-0.1400000015835513,-0.9750000057875057,-0.004999999877891834
0.03248452767729759,-0.04823837801814079,9.846307754516602,-0.11309999972581863,-0.08969999849796295,0.030399998649954796,0.08200000283325337,-0.7339999825747792,-0.006000000186975531
0.038996756076812744,-0.03988740220665932,9.843300819396973,-0.11309999972581863,-0.08969999849796295,0.030399998649954796,-0.1629999966029081,-1.6929999500664126,0.046999999102312236
0.04659116268157959,-0.040864236652851105,9.837381362915039,-0.1096000000834465,-0.07979999482631683,0.02070000022649765,0.5750000088860524,-1.883999893625178,0
0.037311241030693054,-0.05902186036109924,9.836520195007324,-0.12459999322891235,-0.10099999606609344,0.020800000056624413,0.2639999915516568,-2.1509998856872046,-0.006000000186975531
0.046150632202625275,-0.05251920595765114,9.849515914916992,-0.12069999426603317,-0.09189999848604202,0.030700000002980232,-0.31699999167470794,-1.262999948061265,-0.015999999942759198
0.04435976967215538,-0.04334462806582451,9.840083122253418,-0.12409999966621399,-0.0811999961733818,0.020899999886751175,-0.5350000198680775,-0.4780000101710585,-0.11200000126684104
0.04219541326165199,-0.05012500658631325,9.860078811645508,-0.12539999186992645,-0.08949999511241913,0.04050000011920929,-0.7350000183188042,0.7660000058056707,-0.09300000248123906
0.03468719497323036,-0.049349285662174225,9.870872497558594,-0.13319998979568481,-0.08749999850988388,0.0502999983727932,0.149999998838045,1.690000002916896,-0.08100000043976135
0.05422388017177582,-0.0372154675424099,9.85886287689209,-0.10889999568462372,-0.06830000132322311,0.04039999842643738,0.7729999892095818,-1.2940000422698372,0.03899999996469596
0.033020827919244766,-0.04796064645051956,9.84305191040039,-0.13210000097751617,-0.09009999781847,0.020899999886751175,-0.6630000060699379,-1.1089999930101049,-0.019000000453128628
0.02983175218105316,-0.0482192225754261,9.855520248413086,-0.13509999215602875,-0.08819999545812607,0.04050000011920929,-0.33300000329015367,1.2069999741082709,-0.03999999902313467
0.04517379775643349,-0.02611595205962658,9.838560104370117,-0.12199999392032623,-0.05790000036358833,0.020899999886751175,0.7309999820644097,-0.7900000098886262,0.024999999806340833
0.03855622559785843,-0.045748405158519745,9.848625183105469,-0.12409999966621399,-0.0794999971985817,0.030700000002980232,-0.49199997697888054,-0.006000000186975531,0.08400000095013078
0.04312435910105705,-0.049138594418764114,9.844603538513184,-0.1241999939084053,-0.08799999952316284,0.020899999886751175,0.41199999894293104,-0.3879999948599756,0.08100000043976135
0.044091615825891495,-0.04732858017086983,9.848864555358887,-0.12520000338554382,-0.07930000126361847,0.030700000002980232,-0.7230000162773266,-0.5489999866758997,-0.038000000906257256
0.040720582008361816,-0.050469771027565,9.839594841003418,-0.1266999989748001,-0.08709999918937683,0.020899999886751175,0.5380000203784471,-0.019999999511567335,0.008999999863581633
0.03781880810856819,-0.055248599499464035,9.82713508605957,-0.13660000264644623,-0.08859999477863312,0.011099999770522118,-0.39200000443394367,0.5059999971475555,0.15399999507179982
0.04734773188829422,-0.051647718995809555,9.846000671386719,-0.12539999186992645,-0.08749999850988388,0.030700000002980232,0.4489999874505363,-1.2549999822741817,-0.023000000021936765
0.031076738610863686,-0.033423058688640594,9.839756965637207,-0.13859999179840088,-0.06909999996423721,0.020999999716877937,0.24899998899980968,0.9200000142176837,-0.0329999989439571
0.03248452767729759,-0.046006981283426285,9.839411735534668,-0.13609999418258667,-0.07959999889135361,0.020899999886751175,-0.6039999782457216,0.5350000198680775,0.021999999295971403
0.038144420832395554,-0.04286578670144081,9.834805488586426,-0.13459999859333038,-0.0778999999165535,0.011099999770522118,-0.3540000068627397,-0.007999999971379599,0.04500000098543482
0.05951027572154999,-0.054798487573862076,9.84566593170166,-0.10520000010728836,-0.08659999817609787,0.030700000002980232,0.39599998732748526,-1.1060000458605883,0.07399999702553048
0.034543540328741074,-0.053256623446941376,9.841127395629883,-0.13729999959468842,-0.08760000020265579,0.030700000002980232,0.14600000260429016,1.1289999608386658,-0.006000000186975531
0.035462915897369385,-0.05519114062190056,9.844267845153809,-0.13750000298023224,-0.08829999715089798,0.020899999886751175,0.08200000283325337,1.018999977699022,-0.0269999995907449
0.05054638534784317,-0.05120718851685524,9.838483810424805,-0.1119999960064888,-0.08889999985694885,0.020899999886751175,0.16500000138989213,0.5639999892277469,0.11200000126684104
0.03654509410262108,-0.05786306783556938,9.832698822021484,-0.1119999960064888,-0.08889999985694885,0.020899999886751175,-0.07399999702553048,0.5829999746731356,-0.010999999647985701
0.0388626828789711,-0.05113057419657707,9.83961296081543,-0.11859999597072601,-0.08919999748468399,0.020800000056624413,0.10400000212922476,0.6759999904945878,0.02600000053230619
0.04165910929441452,-0.04582501947879791,9.845062255859375,-0.11669999361038208,-0.07959999889135361,0.03059999831020832,0.5149999986786638,0.10999999647985702,0.1070000026395942
0.039772480726242065,-0.05895482376217842,9.836377143859863,-0.11639999598264694,-0.1005999967455864,0.020800000056624413,0.4510000055777336,-0.6290000180727021,0.1199999937343507
0.043545741587877274,-0.04985685646533966,9.840370178222656,-0.11809999495744705,-0.09209999442100525,0.020800000056624413,-0.14300000209392072,0.13499999628619785,0.07799999992939192
0.04225287213921547,-0.04254017770290375,9.845550537109375,-0.11759999394416809,-0.08169999718666077,0.03059999831020832,-0.5320000193577081,-0.14799999405106096,0.013000000266153095
0.040222588926553726,-0.04956955462694168,9.838502883911133,-0.11789999902248383,-0.09019999951124191,0.020800000056624413,0.05600000063342052,0.15699999558216926,0.017999999727163266
0.040078938007354736,-0.040011897683143616,9.825161933898926,-0.1168999969959259,-0.08009999990463257,0.0011999999405816197,0.4139999903897018,-0.5780000093964218,0.043999998591942806
0.05101565271615982,-0.043210551142692566,9.836913108825684,-0.10859999805688858,-0.08129999786615372,0.020800000056624413,-0.07900000232288394,-0.12400000330831876,-0.038000000906257256
0.03968628868460655,-0.0450301431119442,9.835169792175293,-0.1184999942779541,-0.08079999685287476,0.010999999940395355,0.024999999806340833,0.3529999977991411,0.01700000066872456
0.024191012606024742,-0.0316321924328804,9.839287757873535,-0.13699999451637268,-0.07109999656677246,0.020800000056624413,0.11699999322398127,-0.6579999874323713,-0.05099999867112037
0.03308786824345589,-0.05634992942214012,9.834739685058594,-0.12870000302791595,-0.09099999815225601,0.010999999940395355,0.2680000011256249,0.26699999206202624,0.13000000432905762
0.03831680119037628,-0.04256890341639519,9.839029312133789,-0.11819999665021896,-0.08190000057220459,0.020800000056624413,-0.0659999978879142,-0.5560000234406636,0.010999999647985701
0.040222588926553726,-0.04651454836130142,9.830390930175781,-0.11969999969005585,-0.08169999718666077,0.010999999940395355,0.09899999683187131,0.4799999749374028,0.0329999989439571
0.032618604600429535,-0.053208738565444946,9.853202819824219,-0.1281999945640564,-0.0916999951004982,0.03059999831020832,-0.32299999269544677,0.04600000004387353,-0.02899999937514897
0.03526180237531662,-0.03419877588748932,9.851162910461426,-0.12799999117851257,-0.07109999656677246,0.03059999831020832,0.2909999961449817,-0.25100000712700693,0.0009999999964224499
0.03788584843277931,-0.045748405158519745,9.838541030883789,-0.12860000133514404,-0.08159999549388885,0.020800000056624413,0.023000000021936765,0.40400000647542134,-0.008999999863581633
0.051743488758802414,-0.061741672456264496,9.821015357971191,-0.10779999941587448,-0.10119999945163727,0.0011999999405816197,-0.11500000177721047,-0.009999999755783667,-0.0019999999928448997
0.04477157071232796,-0.062124744057655334,9.835227966308594,-0.11729999631643295,-0.1005999967455864,0.010999999940395355,-0.05099999867112037,-0.13400000056281244,0.006000000186975531
0.04452257603406906,-0.06352295726537704,9.84256362915039,-0.11739999800920486,-0.10029999911785126,0.020800000056624413,0.02899999937514897,-0.33000000277978425,-0.029999998433587676
0.03900633379817009,-0.05113057419657707,9.84077262878418,-0.11840000003576279,-0.09049999713897705,0.020800000056624413,-0.08299999855663877,-0.048000001495804245,0.01400000015835513
0.026834214106202126,-0.039466023445129395,9.849593162536621,-0.1378999948501587,-0.09019999951124191,0.03059999831020832,0.20099999417411205,0.17700000343136985,-0.023000000021936765
0.05054638534784317,-0.054013192653656006,9.840657234191895,-0.13729999959468842,-0.08060000091791153,0.03059999831020832,0.09200000008774706,-0.07799999992939192,-0.0749999994190225
0.033020827919244766,-0.05168602615594864,9.8427734375,-0.12690000236034393,-0.0908999964594841,0.020800000056624413,0.149999998838045,0.07300000130214508,0.05300000012305109
0.03823061287403107,-0.05511452630162239,9.847916603088379,-0.1264999955892563,-0.09119999408721924,0.03059999831020832,0.09399999820462447,0.05300000012305109,0.019999999511567335
0.046294283121824265,-0.04582501947879791,9.850531578063965,-0.11629999428987503,-0.08150000125169754,0.03059999831020832,-0.007000000079177565,-0.2499999980634083,0.019999999511567335
0.04090254381299019,-0.034361582249403,9.853586196899414,-0.11699999868869781,-0.07159999758005142,0.03059999831020832,0.2890000046982109,-0.17599999436777122,0.012000000373951061
0.032072726637125015,-0.041410114616155624,9.84010124206543,-0.12729999423027039,-0.08219999819993973,0.020800000056624413,-0.06500000216452881,-0.2140000052791884,0.21299999621558977
0.03571191430091858,-0.047146622091531754,9.846518516540527,-0.12780000269412994,-0.0819999948143959,0.03059999831020832,0.14600000260429016,0.369999991797759,0.008999999863581633
0.03727293387055397,-0.05271074175834656,9.841376304626465,-0.12680000066757202,-0.09219999611377716,0.020800000056624413,0.14699999832767557,-0.15500000413539844,0.09000000197086964
0.04545152559876442,-0.05815037339925766,9.837037086486816,-0.11739999800920486,-0.1022999957203865,0.020800000056624413,-0.17700000343136985,-0.15800000464576788,0.05499999823992851
0.0409887321293354,-0.050086699426174164,9.83579158782959,-0.11779999732971191,-0.09200000017881393,0.020800000056624413,-0.0659999978879142,0.046999999102312236,-0.023000000021936765
0.036315251141786575,-0.04049073904752731,9.844220161437988,-0.12709999084472656,-0.08179999887943268,0.020800000056624413,0.06500000216452881,-0.3339999856733259,-0.019999999511567335
0.03982993960380554,-0.05513367801904678,9.840953826904297,-0.11819999665021896,-0.0916999951004982,0.020800000056624413,0.06700000028140622,0.44800000506736415,-0.024999999806340833
0.03722504898905754,-0.05177221819758415,9.841577529907227,-0.1266999989748001,-0.09189999848604202,0.020800000056624413,0.06500000216452881,-0.4169999909000712,-0.03599999945432653
0.04608359560370445,-0.03490746021270752,9.836472511291504,-0.11779999732971191,-0.0722000002861023,0.020800000056624413,0.10100000161885533,-0.3029999981864594,-0.17100000241063099
0.030482977628707886,-0.05792052671313286,9.848864555358887,-0.12839999794960022,-0.10189999639987946,0.03059999831020832,0.11299999699022645,0.13100000005244303,-0.08700000146050021
0.036411017179489136,-0.027839776128530502,9.85051155090332,-0.12770000100135803,-0.06289999932050705,0.03059999831020832,-0.03100000082707969,0.08400000095013078,0.06200000165415938
0.03466803953051567,-0.05656062066555023,9.856353759765625,-0.12729999423027039,-0.09200000017881393,0.04039999842643738,0.08899999957737763,-0.18900000547284757,0.07199999890865307
0.0350702665746212,-0.03615244850516319,9.848241806030273,-0.1274999976158142,-0.07249999791383743,0.03059999831020832,-0.10400000212922476,-0.007999999971379599,-0.05900000114378995
0.0350702665746212,-0.03615244850516319,9.848241806030273,-0.1274999976158142,-0.07249999791383743,0.03059999831020832,-0.10400000212922476,-0.007999999971379599,-0.05900000114378995
0.03609498590230942,-0.04618893936276436,9.852580070495605,-0.12700000405311584,-0.08159999549388885,0.03059999831020832,0.06700000028140622,0.33300000329015367,0.07399999702553048
0.041055772453546524,-0.03699520602822304,9.854803085327148,-0.11629999428987503,-0.07189999520778656,0.04039999842643738,-0.07900000232288394,0.029999998433587676,0.02899999937514897
0.031814150512218475,-0.05067088454961777,9.8445463180542,-0.12559999525547028,-0.09099999815225601,0.020800000056624413,0.08100000043976135,0.06800000267489824,0.048000001495804245
0.05103480443358421,-0.059491124004125595,9.838224411010742,-0.1054999977350235,-0.1006999984383583,0.020800000056624413,-0.009999999755783667,0.5600000063342052,0
0.04435976967215538,-0.050488926470279694,9.851910591125488,-0.1054999977350235,-0.1006999984383583,0.020800000056624413,-0.009999999755783667,0.5600000063342052,0
0.03940856084227562,-0.04597824811935425,9.84392261505127,-0.11299999803304672,-0.08079999685287476,0.02070000022649765,0.07999999804626934,-0.12199999852133472,-0.15599999985878385
0.04018428176641464,-0.06268977373838425,9.84170150756836,-0.11299999803304672,-0.10029999911785126,0.02070000022649765,0.05099999867112037,-0.19200000598321698,0.012000000373951061
0.03159388527274132,-0.044656649231910706,9.827239990234375,-0.12269999831914902,-0.0803999975323677,0.010900000110268593,0.010999999647985701,0.11599999750059588,-0.20899999998183494
0.03258029371500015,-0.04507802799344063,9.843741416931152,-0.12229999899864197,-0.0803999975323677,0.02070000022649765,0.23300000406479038,0.0859999990670082,-0.012000000373951061
0.049138594418764114,-0.05329493060708046,9.849688529968262,-0.10239999741315842,-0.09079999476671219,0.030499998480081558,0.06099999926066736,-0.04900000055424296,0.024999999806340833
0.037665579468011856,-0.0453844889998436,9.855789184570312,-0.12189999967813492,-0.08100000023841858,0.040300000458955765,0.10600000024610218,-0.07300000130214508,0.21800000151294321
0.027150247246026993,-0.04118026793003082,9.854113578796387,-0.13189999759197235,-0.0811999961733818,0.030499998480081558,0,-0.019999999511567335,-0.05300000012305109
0.04201345145702362,-0.050105854868888855,9.855683326721191,-0.11209999769926071,-0.09079999476671219,0.040300000458955765,-0.08400000095013078,-0.1319999957758284,-0.06200000165415938
0.04711788892745972,-0.03824976831674576,9.849966049194336,-0.11209999769926071,-0.07079999893903732,0.030499998480081558,0.008999999863581633,-0.11099999887334903,0.0859999990670082
0.04677312448620796,-0.04524083808064461,9.863162994384766,-0.11219999939203262,-0.08049999922513962,0.040300000458955765,0.0859999990670082,-0.05499999823992851,-0.07999999804626934
0.039044640958309174,-0.05874413251876831,9.84731388092041,-0.1119999960064888,-0.10009999573230743,0.030499998480081558,-0.05099999867112037,0.0969999987149939,0.07699999753589991
0.03876691311597824,-0.051810525357723236,9.838818550109863,-0.11140000075101852,-0.08980000019073486,0.02070000022649765,0.024000000747902123,-0.04200000047506539,-0.12599999475508955
0.0383838415145874,-0.04897578805685043,9.836146354675293,-0.1111999973654747,-0.08959999680519104,0.030499998480081558,-0.06399999977103679,0.16699999283666295,-0.0859999990670082
0.047500960528850555,-0.04927267134189606,9.849640846252441,-0.10999999940395355,-0.0885000005364418,0.030499998480081558,0.23099998593759313,0.0659999978879142,0.03100000082707969
0.047500960528850555,-0.04927267134189606,9.849640846252441,-0.10999999940395355,-0.0885000005364418,0.030499998480081558,0.23099998593759313,0.0659999978879142,0.03100000082707969
0.04193683713674545,-0.05301720276474953,9.832210540771484,-0.10889999568462372,-0.08839999884366989,0.010900000110268593,0.02600000053230619,-0.15500000413539844,-0.01400000015835513
0.044943954795598984,-0.05935704708099365,9.839057922363281,-0.10889999568462372,-0.08839999884366989,0.010900000110268593,-0.14099999730693671,-0.26600000967885407,-0.11099999887334903
0.03571191430091858,-0.042406100779771805,9.845799446105957,-0.1193000003695488,-0.07800000160932541,0.030499998480081558,-0.03999999902313467,-0.03899999996469596,0
0.018377890810370445,-0.05723099783062935,9.85486888885498,-0.1386999934911728,-0.08749999850988388,0.040300000458955765,-0.08299999855663877,0.03999999902313467,0.11299999699022645
0.04699338972568512,-0.05696284770965576,9.854007720947266,-0.1087999939918518,-0.08699999749660492,0.030499998480081558,0.07199999890865307,0.012000000373951061,-0.03599999945432653
0.03778050094842911,-0.0483437180519104,9.843310356140137,-0.11809999495744705,-0.0867999941110611,0.020600000396370888,0.09899999683187131,0.13300000483942703,0.031999999885518396
0.053802501410245895,-0.050057969987392426,9.842467308044434,-0.09769999980926514,-0.0867999941110611,0.020600000396370888,0.008999999863581633,-0.2150000010025738,-0.09600000299160849
0.04589205980300903,-0.04443638399243355,9.843253135681152,-0.10799999535083771,-0.07689999788999557,0.020600000396370888,-0.13799999679656727,-0.128999995265459,0.04600000004387353
0.03174711391329765,-0.05202121287584305,9.85019588470459,-0.11779999732971191,-0.08609999716281891,0.030399998649954796,0.06500000216452881,0.1419999930303221,0.128999995265459
0.0306840892881155,-0.049799397587776184,9.852619171142578,-0.11699999868869781,-0.085999995470047,0.030399998649954796,0.008999999863581633,0.02800000031671026,0.049999999612681666
0.04481945559382439,-0.03634398430585861,9.8485107421875,-0.10679999738931656,-0.06619999557733536,0.030399998649954796,-0.09000000197086964,0.09099999769425504,0.03400000133744912
0.04707000404596329,-0.05161898955702782,9.856602668762207,-0.1062999963760376,-0.08529999852180481,0.04019999876618385,0.1939999974299878,0.0329999989439571,0.010999999647985701
0.03962882608175278,-0.05801629647612572,9.834729194641113,-0.1054999977350235,-0.0949999988079071,0.010799999348819256,-0.0269999995907449,-0.13400000056281244,0.009999999755783667
0.04175487905740738,-0.050469771027565,9.836098670959473,-0.10539999604225159,-0.08469999581575394,0.020600000396370888,0.010999999647985701,0,-0.008999999863581633
0.04353616386651993,-0.04578671231865883,9.848166465759277,-0.10509999841451645,-0.0746999979019165,0.030399998649954796,-0.08700000146050021,0.1620000008795227,0.03100000082707969
0.04872678965330124,-0.039255332201719284,9.835936546325684,-0.09439999610185623,-0.07419999688863754,0.020600000396370888,0.012000000373951061,0.019999999511567335,-0.010999999647985701
0.027006596326828003,-0.042655099183321,9.85966682434082,-0.1233999952673912,-0.07400000095367432,0.04019999876618385,-0.07000000079177565,0.05200000106461238,-0.015999999942759198
0.039964016526937485,-0.05083369091153145,9.858125686645508,-0.10339999943971634,-0.08339999616146088,0.04019999876618385,-0.015999999942759198,0.09500000059811649,-0.038000000906257256
0.04185064882040024,-0.0394468680024147,9.846412658691406,-0.1005999967455864,-0.07169999927282333,0.030299998819828033,-0.007999999971379599,0.048000001495804245,0.008999999863581633
0.048257529735565186,-0.04048116132616997,9.850435256958008,-0.08839999884366989,-0.06989999860525131,0.030299998819828033,-0.06500000216452881,-0.16500000138989213,0.014999999216793838
0.04122815281152725,-0.05665638670325279,9.851449966430664,-0.09619999676942825,-0.07759999483823776,0.030299998819828033,-0.11099999887334903,-0.0030000000934877653,-0.1529999993484144
0.03161304071545601,-0.047213658690452576,9.855291366577148,-0.10399999469518661,-0.06619999557733536,0.03999999910593033,0.09000000197086964,0.0859999990670082,-0.029999998433587676
0.0377996563911438,-0.04757757484912872,9.865307807922363,-0.10209999978542328,-0.06539999693632126,0.049799997359514236,-0.2140000052791884,-0.12599999475508955,-0.16500000138989213
0.03697605058550835,-0.044177811592817307,9.856392860412598,-0.10239999741315842,-0.06480000168085098,0.03999999910593033,0.18199999538851008,-0.007999999971379599,-0.1749999986443858
0.03985866904258728,-0.052193596959114075,9.849180221557617,-0.09229999780654907,-0.07539999485015869,0.03019999898970127,-0.017999999727163266,0.06399999977103679,0.049999999612681666
0.032599449157714844,-0.0522606335580349,9.850454330444336,-0.10170000046491623,-0.07509999722242355,0.03019999898970127,0.05799999875029794,0.08100000043976135,0.07099999651516105
0.0428849421441555,-0.044608764350414276,9.845158576965332,-0.10170000046491623,-0.07509999722242355,0.03019999898970127,0.06700000028140622,0.16500000138989213,0.012000000373951061
0.044800300151109695,-0.04431188479065895,9.858125686645508,-0.09070000052452087,-0.06529999524354935,0.03999999910593033,-0.1180000022875799,-0.15200000362502902,-0.07999999804626934
0.04236779361963272,-0.045767560601234436,9.835887908935547,-0.09070000052452087,-0.06469999998807907,0.020399998873472214,-0.1629999966029081,0.23499999551156117,-0.19999999845072666
0.034802116453647614,-0.05912720412015915,9.84958267211914,-0.0997999981045723,-0.08379999548196793,0.03019999898970127,-0.021999999295971403,0.2259999939804529,-0.006000000186975531
0.04078762233257294,-0.04524083808064461,9.853318214416504,-0.08909999579191208,-0.06390000134706497,0.03009999915957451,0.0030000000934877653,-0.12599999475508955,-0.019999999511567335
0.039609674364328384,-0.04623682424426079,9.85171890258789,-0.08909999579191208,-0.06369999796152115,0.03009999915957451,-0.09899999683187131,-0.05799999875029794,-0.1199999937343507
0.037311241030693054,-0.046629469841718674,9.857474327087402,-0.09879999607801437,-0.0632999986410141,0.03999999910593033,-0.01700000066872456,0.004999999877891834,-0.06399999977103679
0.031574733555316925,-0.038067806512117386,9.85099983215332,-0.09839999675750732,-0.05329999700188637,0.03009999915957451,-0.11400000605382507,0.009999999755783667,-0.12499999903170415
0.0427795946598053,-0.04310520738363266,9.854659080505371,-0.08839999884366989,-0.06260000169277191,0.03989999741315842,0.19600000221697184,-0.05300000012305109,-0.06800000267489824
0.04116111248731613,-0.04969405010342598,9.850866317749023,-0.08819999545812607,-0.07270000129938126,0.03009999915957451,0.08499999667351618,-0.07300000130214508,0.048000001495804245
0.038000769913196564,-0.055248599499464035,9.843109130859375,-0.09779999405145645,-0.07259999960660934,0.02029999904334545,0.19200000598321698,-0.03699999851276524,0.10900000075647161
0.039274487644433975,-0.045508988201618195,9.858173370361328,-0.08789999783039093,-0.06319999694824219,0.03989999741315842,0.004999999877891834,-0.0019999999928448997,-0.07900000232288394
0.03476380929350853,-0.04506845027208328,9.845148086547852,-0.09730000048875809,-0.06300000101327896,0.03009999915957451,0.021000000237532696,0.0539999991814898,0.029999998433587676
0.025598805397748947,-0.05317043140530586,9.845474243164062,-0.10659999400377274,-0.07259999960660934,0.03009999915957451,0.07900000232288394,0.03599999945432653,-0.1199999937343507
0.03952348232269287,-0.04950251430273056,9.855645179748535,-0.08509999513626099,-0.07119999825954437,0.03989999741315842,-0.10299999973573276,-0.0429999995335041,0.023000000021936765
0.05419514700770378,-0.03574064373970032,9.843443870544434,-0.07270000129938126,-0.0494999997317791,0.02019999921321869,-0.01700000066872456,0.24899998899980968,-0.07799999992939192
0.03483084589242935,-0.03134488686919212,9.85051155090332,-0.09160000085830688,-0.0494999997317791,0.029999999329447746,0.0030000000934877653,0.06800000267489824,-0.038000000906257256
0.04297113046050072,-0.043995849788188934,9.861907958984375,-0.08139999955892563,-0.05909999832510948,0.039799999445676804,-0.046999999102312236,0.19499999315337319,-0.10100000161885533
0.030942663550376892,-0.04590163379907608,9.844085693359375,-0.09030000120401382,-0.05869999900460243,0.02019999921321869,-0.23300000406479038,-0.11699999322398127,-0.10900000075647161
0.04458003491163254,-0.04675397276878357,9.85651683807373,-0.08079999685287476,-0.05810000002384186,0.039799999445676804,0.0009999999964224499,0.07300000130214508,-0.07600000181251451
0.03217807039618492,-0.043373361229896545,9.842294692993164,-0.08999999612569809,-0.05779999867081642,0.02019999921321869,-0.1629999966029081,0.03400000133744912,0.03100000082707969
0.03236960619688034,-0.03936067596077919,9.854974746704102,-0.08969999849796295,-0.05719999969005585,0.039799999445676804,0.11500000177721047,-0.019000000453128628,0.017999999727163266
0.03106716088950634,-0.04661989584565163,9.833541870117188,-0.08909999579191208,-0.057099997997283936,0.010400000028312206,0.019999999511567335,-0.1079999983629796,-0.1070000026395942
0.033854011446237564,-0.04189852997660637,9.853633880615234,-0.08909999579191208,-0.05700000002980232,0.029999999329447746,0.14900000311465958,-0.01700000066872456,0.01400000015835513
0.02848142385482788,-0.04956955462694168,9.841232299804688,-0.07909999787807465,-0.05729999765753746,0.029999999329447746,-0.031999999885518396,-0.06099999926066736,-0.007999999971379599
0.042023029178380966,-0.05106353387236595,9.848051071166992,-0.07849999517202377,-0.06639999896287918,0.029999999329447746,-0.01400000015835513,-0.06200000165415938,0.043999998591942806
0.04969405010342598,-0.06187574937939644,9.840964317321777,-0.06849999725818634,-0.07580000162124634,0.02019999921321869,-0.13600000534979648,-0.013000000266153095,-0.023000000021936765
0.03412216156721115,-0.05405149981379509,9.850205421447754,-0.08789999783039093,-0.06539999693632126,0.029999999329447746,0.0329999989439571,-0.3259999932058162,-0.09399999820462447
0.038968026638031006,-0.046552855521440506,9.84687328338623,-0.08789999783039093,-0.06539999693632126,0.029999999329447746,0.024999999806340833,0.04200000047506539,-0.07999999804626934
0.0394468680024147,-0.04393838718533516,9.840465545654297,-0.07859999686479568,-0.055399999022483826,0.02019999921321869,-0.0969999987149939,-0.07900000232288394,-0.09000000197086964
0.04122815281152725,-0.04362235590815544,9.833005905151367,-0.07819999754428864,-0.05480000004172325,0.010400000028312206,-0.09200000008774706,-0.09300000248123906,0.01400000015835513
0.04863102361559868,-0.03604710102081299,9.827336311340332,-0.0681999996304512,-0.04439999908208847,0.010400000028312206,0.021999999295971403,-0.06700000028140622,-0.0329999989439571
0.04437892138957977,-0.04588248208165169,9.846212387084961,-0.0778999999165535,-0.054099999368190765,0.029999999329447746,-0.06899999839828364,0.019999999511567335,0.03400000133744912
0.03254198655486107,-0.0614926740527153,9.845809936523438,-0.08729999512434006,-0.07319999486207962,0.029999999329447746,-0.19999999845072666,0.17599999436777122,-0.11699999322398127
0.03954263776540756,-0.03736870363354683,9.839192390441895,-0.0771000012755394,-0.043299999088048935,0.02019999921321869,-0.07799999992939192,0.06399999977103679,-0.07300000130214508
0.033854011446237564,-0.044685378670692444,9.838685035705566,-0.08630000054836273,-0.05260000005364418,0.02019999921321869,-0.02800000031671026,0.03999999902313467,-0.0009999999964224499
0.0460931695997715,-0.05921339616179466,9.839594841003418,-0.07599999755620956,-0.07180000096559525,0.02019999921321869,0.05499999823992851,0.09399999820462447,0.1189999980109653
0.039609674364328384,-0.04977066442370415,9.843913078308105,-0.07539999485015869,-0.061799999326467514,0.02019999921321869,-0.023000000021936765,-0.03599999945432653,0.057000003026912535
0.04147715121507645,-0.04347870126366615,9.844085693359375,-0.07509999722242355,-0.05169999971985817,0.020099999383091927,-0.02600000053230619,-0.13499999628619785,0.04900000055424296
0.04452257603406906,-0.0475105382502079,9.839038848876953,-0.07509999722242355,-0.05139999836683273,0.020099999383091927,0.12499999903170415,-0.08299999855663877,-0.09300000248123906
0.03430412337183952,-0.05193502455949783,9.83792781829834,-0.08469999581575394,-0.06119999662041664,0.020099999383091927,0.128999995265459,0.04500000098543482,-0.05999999686717535
0.05357265844941139,-0.05684792250394821,9.82664680480957,-0.06449999660253525,-0.06109999865293503,0.010300000198185444,-0.11599999750059588,0.15800000464576788,-0.1529999993484144
0.03833595663309097,-0.0513029545545578,9.831061363220215,-0.0737999975681305,-0.06079999729990959,0.010300000198185444,-0.16400000566650674,0.048000001495804245,0.015999999942759198
0.05914635956287384,-0.04545152559876442,9.81552791595459,-0.05329999700188637,-0.049799997359514236,0.0004999999655410647,-0.20800000425844953,-0.03899999996469596,-0.024999999806340833
0.056455276906490326,-0.05671384930610657,9.830448150634766,-0.06279999762773514,-0.05869999900460243,0.010300000198185444,-0.18099999966512467,-0.08700000146050021,-0.024000000747902123
0.0324653722345829,-0.039398983120918274,9.835887908935547,-0.08219999819993973,-0.04809999838471413,0.020099999383091927,-0.019000000453128628,0.0859999990670082,0.0329999989439571
0.04018428176641464,-0.05300762504339218,9.835811614990234,-0.07180000096559525,-0.0575999990105629,0.020099999383091927,-0.012000000373951061,-0.0030000000934877653,-0.06099999926066736
0.036621708422899246,-0.037905003875494,9.8296537399292,-0.08100000023841858,-0.037699997425079346,0.010300000198185444,0.18600000496247812,0.013000000266153095,-0.04900000055424296
0.04535575956106186,-0.05075707659125328,9.838339805603027,-0.07079999893903732,-0.0575999990105629,0.020099999383091927,-0.09600000299160849,-0.06500000216452881,-0.04500000098543482
0.03492661193013191,-0.047022122889757156,9.843031883239746,-0.07050000131130219,-0.047199998050928116,0.010300000198185444,0.07399999702553048,0.11400000605382507,0.007000000079177565
0.036985624581575394,-0.05573701485991478,9.841796875,-0.0794999971985817,-0.0575999990105629,0.020099999383091927,-0.0659999978879142,-0.09300000248123906,-0.015999999942759198
0.018655620515346527,-0.04185064882040024,9.830802917480469,-0.0794999971985817,-0.0575999990105629,0.020099999383091927,-0.009999999755783667,-0.008999999863581633,-0.0859999990670082
0.052289362996816635,-0.06486371904611588,9.846939086914062,-0.05920000001788139,-0.06659999489784241,0.029899999499320984,-0.019999999511567335,-0.13000000432905762,-0.06500000216452881
0.03685155138373375,-0.051551952958106995,9.842448234558105,-0.07880000025033951,-0.05649999901652336,0.020099999383091927,0.057000003026912535,0.1529999993484144,0.0539999991814898
0.04138138145208359,-0.052164867520332336,9.853432655334473,-0.06830000132322311,-0.05639999732375145,0.029899999499320984,-0.03999999902313467,-0.03100000082707969,-0.02899999937514897
0.03286759927868843,-0.04932055622339249,9.84143352508545,-0.07779999822378159,-0.0559999980032444,0.020099999383091927,-0.05799999875029794,-0.09999999922536333,-0.0859999990670082
0.04824795201420784,-0.04879382997751236,9.833608627319336,-0.057999998331069946,-0.055399999022483826,0.010300000198185444,-0.017999999727163266,-0.03699999851276524,-0.004999999877891834
0.033068712800741196,-0.027437550947070122,9.833704948425293,-0.07719999551773071,-0.02579999901354313,0.010199999436736107,-0.01700000066872456,-0.008999999863581633,-0.038000000906257256
0.029276298359036446,-0.03469676896929741,9.823380470275879,-0.07599999755620956,-0.03500000014901161,0.00039999998989515007,-0.10199999734224074,0.006000000186975531,-0.0859999990670082
0.03837426379323006,-0.046955082565546036,9.839422225952148,-0.06589999794960022,-0.04429999738931656,0.019999999552965164,0.035000000395887826,0.07099999651516105,-0.0749999994190225
0.051312532275915146,-0.05233725160360336,9.843655586242676,-0.053700000047683716,-0.05209999904036522,0.019999999552965164,-0.048000001495804245,-0.12100000279794933,-0.08299999855663877
0.051264647394418716,-0.06703764945268631,9.8378324508667,-0.05199999734759331,-0.06889999657869339,0.019999999552965164,0.11200000126684104,0.049999999612681666,-0.1419999930303221
0.03876691311597824,-0.046811431646347046,9.843952178955078,-0.05929999798536301,-0.03830000013113022,0.019999999552965164,0.02600000053230619,0.12299999424472013,0.10999999647985702
0.039398983120918274,-0.043679818511009216,9.838751792907715,-0.0568000003695488,-0.03700000047683716,0.019899999722838402,0.021000000237532696,0.014999999216793838,0.043999998591942806
0.03458184748888016,-0.04102703928947449,9.842151641845703,-0.06419999897480011,-0.0357000008225441,0.019899999722838402,0.06399999977103679,-0.07399999702553048,-0.04900000055424296
0.04156334325671196,-0.03765600547194481,9.839852333068848,-0.05269999802112579,-0.025100000202655792,0.019899999722838402,-0.0030000000934877653,0.015999999942759198,-0.021999999295971403
0.03301125392317772,-0.04282747954130173,9.844497680664062,-0.06030000001192093,-0.03370000049471855,0.019899999722838402,-0.029999998433587676,-0.015999999942759198,-0.0009999999964224499
0.0368419773876667,-0.05414726585149765,9.845656394958496,-0.058799996972084045,-0.042399998754262924,0.02969999983906746,-0.07399999702553048,0.1070000026395942,-0.09000000197086964
0.042837053537368774,-0.05407065153121948,9.838292121887207,-0.0471000000834465,-0.04079999774694443,0.019899999722838402,-0.007999999971379599,0.13100000005244303,-0.057000003026912535
0.03568318113684654,-0.047951072454452515,9.851527214050293,-0.05509999766945839,-0.03969999775290489,0.02969999983906746,0.08100000043976135,0.149999998838045,0.02899999937514897
0.03649721294641495,-0.05199248343706131,9.838981628417969,-0.05289999768137932,-0.038599997758865356,0.01979999989271164,0.08299999855663877,0.09800000110848592,-0.019000000453128628
0.04067269712686539,-0.028088774532079697,9.84953498840332,-0.04179999977350235,-0.009200000204145908,0.029600000008940697,-0.023000000021936765,-0.024000000747902123,0.013000000266153095
0.03111504577100277,-0.043497856706380844,9.82767105102539,-0.04919999837875366,-0.027400000020861626,0.009999999776482582,-0.17400000292100043,0.029999998433587676,-0.0039999999856897995
0.036698322743177414,-0.03469676896929741,9.837132453918457,-0.047599997371435165,-0.016499999910593033,0.01979999989271164,-0.03400000133744912,-0.1180000022875799,0.06200000165415938
0.032216377556324005,-0.0193164199590683,9.833311080932617,-0.04559999704360962,-0.006300000008195639,0.009999999776482582,-0.006000000186975531,0.0749999994190225,-0.06700000028140622
0.05810248479247093,-0.031028853729367256,9.846863746643066,-0.041200000792741776,-0.014599999412894249,0.00009999999747378752,0.049999999612681666,0.1319999957758284,0.031999999885518396
0.02843353897333145,-0.031574733555316925,9.840188026428223,-0.011799999512732029,-0.0142000000923872,0.029600000008940697,-0.10199999734224074,0.04600000004387353,-0.04500000098543482
0.04104619100689888,-0.038134846836328506,9.844430923461914,-0.028699999675154686,-0.013399999588727951,0.019700000062584877,0.017999999727163266,0.04600000004387353,-0.021999999295971403
0.035482071340084076,-0.06206728518009186,9.840676307678223,-0.03739999979734421,-0.04179999977350235,0.019700000062584877,0.03699999851276524,0.01400000015835513,-0.1729999938574018
0.033308133482933044,-0.04981854930520058,9.839354515075684,-0.036399997770786285,-0.031199999153614044,0.019700000062584877,0.0269999995907449,0.035000000395887826,-0.0030000000934877653
0.03796246275305748,-0.03449565917253494,9.847829818725586,-0.035599999129772186,-0.011500000022351742,0.029500000178813934,-0.009999999755783667,-0.1529999993484144,-0.11299999699022645
0.024095244705677032,-0.054013192653656006,9.8494873046875,-0.044999998062849045,-0.030499998480081558,0.029500000178813934,-0.007999999971379599,0.17400000292100043,-0.0659999978879142
0.03756023943424225,-0.05114014819264412,9.842304229736328,-0.033900000154972076,-0.02969999983906746,0.019700000062584877,0.03400000133744912,-0.03599999945432653,-0.024999999806340833
0.03233129903674126,-0.05493256449699402,9.845924377441406,-0.033299997448921204,-0.02929999865591526,0.029500000178813934,-0.16400000566650674,-0.07099999651516105,-0.029999998433587676
0.03712927922606468,-0.06205770745873451,9.849104881286621,-0.032899998128414154,-0.03790000081062317,0.029500000178813934,0.04600000004387353,0.09000000197086964,-0.03400000133744912
0.04381389170885086,-0.027447128668427467,9.839786529541016,-0.022299999371170998,0.0010999999940395355,0.019700000062584877,-0.1629999966029081,0.01700000066872456,0.015999999942759198
0.0349457673728466,-0.03778050094842911,9.84108829498291,-0.031300000846385956,-0.007899999618530273,0.019700000062584877,0.05600000063342052,-0.1939999974299878,-0.07999999804626934
0.046054862439632416,-0.04049073904752731,9.83771800994873,-0.021399999037384987,-0.017500000074505806,0.019700000062584877,0.004999999877891834,0.0329999989439571,-0.041000001416626686
0.04033751040697098,-0.05271074175834656,9.833484649658203,-0.020600000396370888,-0.02630000002682209,0.00989999994635582,0.014999999216793838,0.2399999874687014,-0.05600000063342052
0.03910209983587265,-0.04567179083824158,9.833724021911621,-0.019899999722838402,-0.016499999910593033,0.00989999994635582,0.007999999971379599,0.041000001416626686,-0.0269999995907449
0.0533236600458622,-0.030233977362513542,9.838062286376953,-0.009999999776482582,-0.0066999997943639755,0.019700000062584877,0.12100000279794933,-0.07600000181251451,0.02800000031671026
0.033164482563734055,-0.027475858107209206,9.846039772033691,-0.02979999966919422,0.0026000000070780516,0.029500000178813934,-0.14699999832767557,-0.02600000053230619,-0.017999999727163266
0.02698744274675846,-0.036909010261297226,9.834394454956055,-0.03949999809265137,-0.0066999997943639755,0.00989999994635582,-0.17799999915475526,-0.14600000260429016,0.04900000055424296
0.03834553435444832,-0.04255932942032814,9.846681594848633,-0.02029999904334545,-0.016099998727440834,0.029500000178813934,0.10999999647985702,0.009999999755783667,0.017999999727163266
0.03199611231684685,-0.055392250418663025,9.84299373626709,-0.029999999329447746,-0.026099998503923416,0.019700000062584877,0.06099999926066736,0.03999999902313467,-0.06099999926066736
0.036602552980184555,-0.04260721057653427,9.850473403930664,-0.02979999966919422,-0.01640000008046627,0.029500000178813934,0.0009999999964224499,-0.20299999896109608,0.010999999647985701
0.02597229927778244,-0.06888597458600998,9.853231430053711,-0.04010000079870224,-0.04569999873638153,0.029500000178813934,-0.08899999957737763,0.23499999551156117,-0.08299999855663877
0.029352912679314613,-0.06380068510770798,9.846163749694824,-0.02979999966919422,-0.0357000008225441,0.029500000178813934,0.13700000107318186,0.05900000114378995,0.09000000197086964
0.031833305954933167,-0.04338293522596359,9.844727516174316,-0.029600000008940697,-0.01640000008046627,0.019700000062584877,-0.021000000237532696,-0.09099999769425504,-0.12499999903170415
0.03282929211854935,-0.04103661701083183,9.841289520263672,-0.02969999983906746,-0.016300000250339508,0.019700000062584877,-0.0009999999964224499,-0.1390000058601659,-0.012000000373951061
0.03320278972387314,-0.05286397039890289,9.851603507995605,-0.029999999329447746,-0.025999998673796654,0.029500000178813934,0.013000000266153095,-0.17899999487814064,-0.09200000008774706
0.03664086014032364,-0.04741477221250534,9.833580017089844,-0.030399998649954796,-0.016200000420212746,0.00989999994635582,0.21700000578955783,0.12499999903170415,-0.043999998591942806
0.028385654091835022,-0.05966350436210632,9.84736156463623,-0.03009999915957451,0.00279999990016222,0.019700000062584877,0.10199999734224074,0.015999999942759198,-0.06500000216452881
0.03822103515267372,-0.032762255519628525,9.833819389343262,-0.03999999910593033,-0.03610000014305115,0.029500000178813934,0.07199999890865307,0.149999998838045,-0.02600000053230619
0.039207447320222855,-0.031220389530062675,9.83095645904541,-0.019600000232458115,-0.0071000000461936,0.00989999994635582,0.017999999727163266,-0.023000000021936765,0.0030000000934877653
0.05025908350944519,-0.027667393907904625,9.8353910446167,-0.019600000232458115,-0.0071000000461936,0.00989999994635582,-0.017999999727163266,0.0659999978879142,-0.035000000395887826
0.03883394971489906,-0.06731537729501724,9.838617324829102,-0.01939999870955944,-0.04619999974966049,0.019700000062584877,-0.021000000237532696,0.041000001416626686,-0.021000000237532696
0.045058876276016235,-0.041668687015771866,9.856574058532715,-0.019299998879432678,-0.016699999570846558,0.03929999843239784,0.0009999999964224499,0.07799999992939192,-0.05999999686717535
0.036880284547805786,-0.03995443880558014,9.84282112121582,-0.02879999950528145,-0.016599999740719795,0.019700000062584877,-0.09000000197086964,0.007000000079177565,0.04500000098543482
0.03122996725142002,-0.04251144453883171,9.857426643371582,-0.028699999675154686,-0.01640000008046627,0.03929999843239784,-0.043999998591942806,-0.15699999558216926,-0.07999999804626934
0.04051946848630905,-0.04858314245939255,9.849075317382812,-0.019199999049305916,-0.025999998673796654,0.029500000178813934,-0.007999999971379599,0.29699999716572056,-0.05900000114378995
0.03585556522011757,-0.02642240934073925,9.852073669433594,-0.028299998492002487,0.003399999812245369,0.029500000178813934,-0.08799999718388561,-0.0019999999928448997,-0.07300000130214508
0.04594951868057251,-0.046457089483737946,9.845455169677734,-0.018400000408291817,-0.015799999237060547,0.029500000178813934,-0.11500000177721047,-0.019999999511567335,-0.04900000055424296
0.02513911761343479,-0.03973417356610298,9.832191467285156,-0.03790000081062317,-0.015399999916553497,0.00989999994635582,0.0009999999964224499,0.057000003026912535,-0.07099999651516105
0.032781410962343216,-0.03368162736296654,9.834691047668457,-0.027799999341368675,-0.00559999980032444,0.00989999994635582,-0.08499999667351618,-0.06099999926066736,-0.19499999315337319
0.03879564255475998,-0.049397170543670654,9.855942726135254,-0.01809999905526638,-0.024899998679757118,0.03929999843239784,-0.0659999978879142,0.0539999991814898,-0.05099999867112037
0.02746628224849701,-0.034677617251873016,9.843070030212402,-0.03739999979734421,-0.0050999997183680534,0.019700000062584877,0.02600000053230619,-0.1079999983629796,-0.07099999651516105
0.056551042944192886,-0.049722783267498016,9.840302467346191,-0.008299999870359898,-0.024699999019503593,0.019700000062584877,-0.05200000106461238,-0.01400000015835513,0.0269999995907449
0.025033773854374886,-0.015983689576387405,9.84740924835205,-0.03759999945759773,0.014499999582767487,0.029500000178813934,-0.07300000130214508,-0.0030000000934877653,-0.0329999989439571
0.05189671739935875,-0.04293282330036163,9.851766586303711,-0.008200000040233135,-0.014599999412894249,0.029500000178813934,-0.013000000266153095,0.008999999863581633,0.0039999999856897995
0.03982993960380554,-0.04127603769302368,9.85112476348877,-0.017899999395012856,-0.014499999582767487,0.029500000178813934,-0.17700000343136985,0.2710000016359943,-0.2050000037480801
0.036411017179489136,-0.0388626828789711,9.840178489685059,-0.026999998837709427,-0.0139999995008111,0.019700000062584877,0.05200000106461238,0.07699999753589991,-0.06099999926066736
0.05787264183163643,-0.0326952189207077,9.849027633666992,0.0024999999441206455,-0.004299999680370092,0.029500000178813934,-0.0019999999928448997,-0.19000000119623298,-0.07699999753589991
0.03164177015423775,-0.03502238169312477,9.853960037231445,-0.02719999849796295,-0.004299999680370092,0.029500000178813934,-0.007999999971379599,0.05999999686717535,0
0.035434186458587646,-0.03937982767820358,9.858287811279297,-0.026999998837709427,-0.0139999995008111,0.03929999843239784,0.05999999686717535,-0.008999999863581633,-0.0429999995335041
0.026403255760669708,-0.04059608280658722,9.847686767578125,-0.03669999912381172,-0.0142000000923872,0.029500000178813934,0.0859999990670082,-0.04200000047506539,-0.021000000237532696
0.03787627071142197,-0.04237736761569977,9.849640846252441,-0.03669999912381172,-0.004600000102072954,0.03929999843239784,0.043999998591942806,0,-0.04200000047506539
0.04401500150561333,-0.04571967571973801,9.83993911743164,-0.026999998837709427,-0.014299999922513962,0.029500000178813934,0.02600000053230619,0.08400000095013078,-0.019999999511567335
0.03928406164050102,-0.048046842217445374,9.843779563903809,-0.01679999940097332,-0.02410000003874302,0.019700000062584877,-0.11699999322398127,0.06500000216452881,0
0.03516603633761406,-0.03639186546206474,9.850454330444336,-0.026399999856948853,-0.00419999985024333,0.029500000178813934,-0.2499999980634083,0.007000000079177565,0.048000001495804245
0.038019925355911255,-0.045461103320121765,9.834136009216309,-0.026399999856948853,-0.013299999758601189,0.00989999994635582,0.0009999999964224499,0.021999999295971403,0.06899999839828364
0.04578671231865883,-0.032264262437820435,9.854466438293457,-0.016499999910593033,-0.003399999812245369,0.029500000178813934,-0.017999999727163266,0.10900000075647161,-0.2069999951948509
0.04099830985069275,-0.03968628868460655,9.842554092407227,-0.016200000420212746,-0.013199999928474426,0.019700000062584877,-0.014999999216793838,-0.049999999612681666,-0.09600000299160849
0.03739742934703827,-0.03568318113684654,9.822815895080566,-0.02579999901354313,-0.0032999999821186066,0.00009999999747378752,0.1079999983629796,0.128999995265459,0.043999998591942806
0.04341166839003563,-0.050555963069200516,9.855693817138672,-0.015599999576807022,-0.023099999874830246,0.03929999843239784,-0.010999999647985701,0.2399999874687014,-0.02600000053230619
0.036219481378793716,-0.020743364468216896,9.837430000305176,-0.024799998849630356,0.006300000008195639,0.019700000062584877,-0.019000000453128628,0.008999999863581633,0.057000003026912535
0.03386358916759491,-0.04011724516749382,9.843904495239258,-0.02459999918937683,-0.013100000098347664,0.019700000062584877,0.05799999875029794,0.05200000106461238,-0.05200000106461238
0.03502238169312477,-0.051006071269512177,9.849037170410156,-0.024399999529123306,-0.023000000044703484,0.029500000178813934,-0.08799999718388561,-0.10199999734224074,0.03699999851276524
0.05056554079055786,-0.0511784553527832,9.839977264404297,-0.0050999997183680534,-0.022699998691678047,0.019700000062584877,0,0.16999999334703236,0.019999999511567335
0.04154418781399727,-0.032283417880535126,9.849956512451172,-0.014299999922513962,-0.0030999998562037945,0.029500000178813934,0.007999999971379599,0.0749999994190225,-0.10499999785261017
0.053352389484643936,-0.05088157206773758,9.851373672485352,-0.004299999680370092,-0.022599998861551285,0.029500000178813934,-0.029999998433587676,-0.007999999971379599,0.05099999867112037
0.028893226757645607,-0.027667393907904625,9.844209671020508,-0.023799998685717583,0.006799999624490738,0.019700000062584877,0.013000000266153095,-0.01400000015835513,-0.006000000186975531
0.03871902823448181,-0.025895684957504272,9.845206260681152,-0.0139999995008111,0.0066999997943639755,0.029500000178813934,0.009999999755783667,0,0.0019999999928448997
0.046763546764850616,-0.028309039771556854,9.859734535217285,-0.0139999995008111,0.0066999997943639755,0.03929999843239784,-0.21899999723632863,-0.009999999755783667,-0.0329999989439571
0.04213795065879822,-0.04016512632369995,9.854879379272461,-0.0139999995008111,-0.012199999764561653,0.03929999843239784,0.1319999957758284,0.16999999334703236,0.01700000066872456
0.046102747321128845,-0.06331226974725723,9.83580207824707,-0.013499999418854713,-0.03189999982714653,0.019700000062584877,0.041000001416626686,-0.05999999686717535,-0.048000001495804245
0.039916131645441055,-0.05765237659215927,9.848060607910156,-0.013299999758601189,-0.031199999153614044,0.029500000178813934,-0.007999999971379599,-0.08299999855663877,-0.07300000130214508
0.03926490619778633,-0.07121313363313675,9.84294605255127,-0.013100000098347664,-0.03959999978542328,0.019700000062584877,-0.09999999922536333,0.04200000047506539,0.03699999851276524
0.03381570428609848,-0.04757757484912872,9.857876777648926,-0.022299999371170998,-0.00969999935477972,0.03929999843239784,0.017999999727163266,0.2039999946844815,-0.049999999612681666
0.030626628547906876,-0.03307829052209854,9.851603507995605,-0.0210999995470047,0,0.029500000178813934,0.021999999295971403,0.029999998433587676,0.013000000266153095
0.042904093861579895,-0.045154642313718796,9.85869026184082,-0.020499998703598976,0,0.029500000178813934,0.06099999926066736,0.024000000747902123,-0.043999998591942806
0.03359543904662132,-0.057527877390384674,9.859601020812988,-0.01979999989271164,-0.028699999675154686,0.03929999843239784,-0.03100000082707969,-0.07300000130214508,-0.06399999977103679
0.030846895650029182,-0.04050031676888466,9.86023235321045,-0.019600000232458115,-0.008799999952316284,0.03929999843239784,0.03899999996469596,0.11099999887334903,-0.008999999863581633
0.031814150512218475,-0.02900814823806286,9.850579261779785,-0.019600000232458115,-0.008799999952316284,0.03929999843239784,0.1079999983629796,0.023000000021936765,0.0749999994190225
0.03587471693754196,-0.04101746529340744,9.851852416992188,-0.018299998715519905,-0.01860000006854534,0.029500000178813934,0.05200000106461238,0.1199999937343507,0.0039999999856897995
0.044350191950798035,-0.030348900705575943,9.853950500488281,-0.017899999395012856,-0.008999999612569809,0.029500000178813934,-0.05799999875029794,-0.019999999511567335,-0.20999999570522035
