Accelerometer_Gx,Accelerometer_Gy,Accelerometer_Gz,Accelerometer_X,Accelerometer_Y,Accelerometer_Z,Gyroscope_Z,Gyroscope_X,Gyroscope_Y
0.033633746206760406,-0.039609674364328384,9.87380313873291,-0.004900000058114529,-0.0066999997943639755,0.058799996972084045,0.021999999295971403,0.06399999977103679,0.023000000021936765
0.03256114199757576,-0.0414675734937191,9.887181282043457,-0.016699999570846558,-0.006599999964237213,0.06870000064373016,-0.4759999920438612,1.4650000180000418,-0.1070000026395942
0.05162856727838516,-0.03869987651705742,9.861371994018555,-0.016699999570846558,-0.006599999964237213,0.06870000064373016,0.8540000029895564,-0.7029999950879127,0.10600000024610218
0.03283886983990669,-0.04244440793991089,9.872413635253906,0.008100000210106373,-0.0037999998312443495,0.03929999843239784,0.3399999866940647,-2.1320000069635214,0.15800000464576788
0.03479253873229027,-0.04023216664791107,9.870162963867188,-0.015799999237060547,-0.004799999762326479,0.04910000041127205,-0.15900000036915327,2.2579999216773317,0.0030000000934877653
0.030530860647559166,-0.028136657550930977,9.861717224121094,-0.008499999530613422,0.01489999983459711,0.03920000046491623,0.11299999699022645,-2.134999954113038,-0.09000000197086964
0.03544376417994499,-0.036956898868083954,9.867472648620605,-0.012600000016391277,0.0044999998062849045,0.04910000041127205,0.321000001248676,2.4519999191073194,-0.0039999999856897995
0.042664673179388046,-0.042808327823877335,9.868363380432129,0.004799999762326479,-0.006099999882280827,0.04899999871850014,0.029999998433587676,-2.3269999867766815,0.0329999989439571
0.04978024214506149,-0.03256114199757576,9.858450889587402,0.008599999360740185,0.003499999875202775,0.03929999843239784,-0.024999999806340833,0.27500001120996237,0.007999999971379599
0.03646847978234291,-0.028213271871209145,9.870536804199219,-0.009599999524652958,0.012899999506771564,0.04910000041127205,-0.25599999908414717,2.1599999405791657,-0.2360000045751598
0.04461834207177162,-0.04120900109410286,9.857732772827148,0.006199999712407589,-0.006099999882280827,0.03920000046491623,0.149999998838045,-1.5879999855643354,0.007000000079177565
0.037502776831388474,-0.03455311805009842,9.865087509155273,-0.007499999832361937,0.003000000026077032,0.04899999871850014,0.25100000712700693,-1.5200000095698638,0.041000001416626686
0.0454898327589035,-0.028443116694688797,9.862789154052734,-0.0015999999595806003,0.011699999682605267,0.03929999843239784,0.15800000464576788,1.0179999953158498,0.035000000395887826
0.032407913357019424,-0.03979163244366646,9.87210750579834,-0.008299999870359898,-0.008299999870359898,0.04899999871850014,0.04200000047506539,2.1770000679799155,0.08700000146050021
0.036296095699071884,-0.030674513429403305,9.876982688903809,-0.0013000000035390258,0.0011999999405816197,0.058799996972084045,0.1180000022875799,1.9370000271503613,-0.01700000066872456
0.03654509410262108,-0.04053862392902374,9.861371994018555,0.003399999812245369,-0.008700000122189522,0.03920000046491623,-0.1629999966029081,0.9620000213628558,-0.0539999991814898
0.04386177286505699,-0.03964798152446747,9.861543655395508,0.015699999406933784,-0.008100000210106373,0.03920000046491623,0.0269999995907449,0.6179999984143966,-0.13400000056281244
0.04924394190311432,-0.033116597682237625,9.867022514343262,0.026599999517202377,0.0016999999061226845,0.04899999871850014,-0.13499999628619785,1.5999999876058133,-0.0030000000934877653
0.03002328798174858,-0.033260248601436615,9.869339942932129,0.010900000110268593,0.002099999925121665,0.04899999871850014,-0.3540000068627397,1.541999942164769,-0.11299999699022645
0.02770570106804371,-0.026767175644636154,9.86464786529541,0.0052999998442828655,0.012799999676644802,0.04899999871850014,-0.041000001416626686,1.5959999513514187,0.006000000186975531
0.04177403077483177,-0.03922659903764725,9.872117042541504,0.028099998831748962,-0.006599999964237213,0.04899999871850014,0.15399999507179982,0.34299998720443414,0.021999999295971403
0.03651636466383934,-0.05112099274992943,9.873237609863281,0.01850000023841858,-0.016599999740719795,0.04899999871850014,0.16899999762364695,-1.8089999342267953,0.0859999990670082
0.04213795065879822,-0.041927263140678406,9.868305206298828,0.021900000050663948,-0.0071000000461936,0.04899999871850014,0.015999999942759198,-0.9459999830669835,-0.05099999867112037
0.04109407961368561,-0.028376078233122826,9.866640090942383,0.01889999955892563,0.012399999424815178,0.04899999871850014,-0.5350000198680775,0.16800000190026157,-0.06099999926066736
0.03578852862119675,-0.036554671823978424,9.871810913085938,0.008999999612569809,0.004399999976158142,0.04899999871850014,0.0969999987149939,0.6360000014766131,0.0749999994190225
0.04170699417591095,-0.03238875791430473,9.877586364746094,0.01939999870955944,0.004100000020116568,0.058799996972084045,-0.09500000059811649,-1.8659999972846673,0.0859999990670082
0.030138209462165833,-0.04731900244951248,9.87336254119873,0.003999999724328518,-0.005399999674409628,0.03920000046491623,0.06700000028140622,0.5219999820825748,0.007000000079177565
0.04031835496425629,-0.0351947620511055,9.85984992980957,0.004999999888241291,-0.005499999970197678,0.04899999871850014,-0.23300000406479038,0.149999998838045,-0.06500000216452881
0.032024841755628586,-0.031028853729367256,9.859877586364746,0.012799999676644802,0.002699999837204814,0.03920000046491623,0.07099999651516105,-0.08799999718388561,0.0009999999964224499
0.03630567714571953,-0.04388092830777168,9.865049362182617,0.002199999988079071,-0.004799999762326479,0.04899999871850014,-0.041000001416626686,1.6729999822378516,-0.04600000004387353
0.04665820300579071,-0.029889212921261787,9.875574111938477,0.01640000008046627,0.0044999998062849045,0.058799996972084045,0.44699999600376555,-1.0439999641651496,0.021000000237532696
0.04225287213921547,-0.03156515583395958,9.882545471191406,0.013299999758601189,0.003000000026077032,0.058799996972084045,0.18099999966512467,-0.6459999853908935,0.07099999651516105
0.04071100801229477,-0.03213018923997879,9.864752769470215,0.01119999960064888,0.002199999988079071,0.04899999871850014,0.12599999475508955,1.627000045559991,-0.0429999995335041
0.03582683578133583,-0.030530860647559166,9.875813484191895,0.006199999712407589,0.0015999999595806003,0.058799996972084045,-0.1070000026395942,-1.0019999570199776,-0.041000001416626686
0.039015911519527435,-0.039398983120918274,9.8626070022583,0.013299999758601189,-0.007899999618530273,0.03920000046491623,0.02600000053230619,0.22400000253368207,0.12100000279794933
0.03379655256867409,-0.025866955518722534,9.866141319274902,0.0038999998942017555,0.011399999260902405,0.04899999871850014,0.14499999354069154,0.23199999500119176,-0.0039999999856897995
0.02907518669962883,-0.04178360849618912,9.857847213745117,0.004299999680370092,-0.008599999360740185,0.03920000046491623,0.20800000425844953,0.7560000218913903,0.04200000047506539
0.04739561676979065,-0.037742193788290024,9.870479583740234,0.01599999889731407,0.0004999999655410647,0.04899999871850014,0.25100000712700693,-0.015999999942759198,-0.1070000026395942
0.03759854659438133,-0.03427539020776749,9.868593215942383,0.0058999997563660145,-0.00019999999494757503,0.04899999871850014,-0.18099999966512467,0.28600000418784144,0.19799999366374263
0.0372154675424099,-0.04054819792509079,9.861286163330078,0.006399999838322401,-0.009499999694526196,0.03920000046491623,-0.05200000106461238,-0.2150000010025738,0.008999999863581633
0.0440724641084671,-0.03734954819083214,9.850502014160156,0.010199999436736107,0.00019999999494757503,0.029399998486042023,-0.0039999999856897995,-0.04600000004387353,0.008999999863581633
0.035625722259283066,-0.031239543110132217,9.856143951416016,0.00019999999494757503,0.00009999999747378752,0.03920000046491623,0.2639999915516568,0.19499999315337319,0.010999999647985701
0.03808695822954178,-0.025704149156808853,9.85438060760498,0.0018999999156221747,0.009200000204145908,0.029399998486042023,0.07799999992939192,0.5129999805514666,-0.010999999647985701
0.0355491079390049,-0.035960908979177475,9.856908798217773,0.00419999985024333,-0.000699999975040555,0.03920000046491623,0.024000000747902123,-1.466000000383214,0.09600000299160849
0.0421762578189373,-0.03308786824345589,9.866687774658203,0.011099999770522118,-0.000699999975040555,0.04899999871850014,-0.2780000117203318,-0.15999999609253868,-0.024999999806340833
0.03833595663309097,-0.043967120349407196,9.871829986572266,0.010900000110268593,-0.00969999935477972,0.04899999871850014,0.03999999902313467,-0.47399997391666393,-0.12599999475508955
0.04708915948867798,-0.0394468680024147,9.856315612792969,0.009800000116229057,-0.00969999935477972,0.03920000046491623,0.10199999734224074,0.3529999977991411,0.057000003026912535
0.036315251141786575,-0.02746628224849701,9.868162155151367,0.0010999999940395355,0.009599999524652958,0.04899999871850014,0.3399999866940647,0.36399999077702017,0.05999999686717535
0.04095042496919632,-0.023750480264425278,9.871963500976562,0.012000000104308128,0.008499999530613422,0.04899999871850014,-0.21800000151294321,1.640000029984641,-0.057000003026912535
0.04312435910105705,-0.024449586868286133,9.862234115600586,0.01589999906718731,0.008899999782443047,0.03920000046491623,0.035000000395887826,0.3089999992071983,-0.09999999922536333
0.024066515266895294,-0.051810525357723236,9.859092712402344,0.016599999740719795,-0.0008999999845400453,0.04899999871850014,0.24899998899980968,-0.2959999881021219,0.012000000373951061
0.03644932433962822,-0.03799119219183922,9.849812507629395,-0.0037999998312443495,-0.0210999995470047,0.03920000046491623,0.12499999903170415,-0.45700000659847245,-0.023000000021936765
0.044177811592817307,-0.033710360527038574,9.856822967529297,0.002899999963119626,-0.002300000051036477,0.029399998486042023,-0.017999999727163266,-1.401999953921431,-0.09300000248123906
0.0396958664059639,-0.0428849421441555,9.87051773071289,0.007699999958276749,-0.012299999594688416,0.04899999871850014,-0.10299999973573276,-0.78199999074069,0.019999999511567335
0.036008793860673904,-0.030176516622304916,9.867051124572754,-0.00419999985024333,-0.002099999925121665,0.04899999871850014,0.09999999922536333,-0.4560000242153003,0.04900000055424296
0.03514688089489937,-0.03578852862119675,9.861783981323242,-0.005399999674409628,-0.002300000051036477,0.03920000046491623,-0.03699999851276524,0.9109999593257225,-0.021000000237532696
0.04083550348877907,-0.03268564119935036,9.863508224487305,0.0066999997943639755,-0.002199999988079071,0.03920000046491623,-0.16800000190026157,0.9670000400004224,0.0009999999964224499
0.03170880675315857,-0.03438073769211769,9.852312088012695,-0.00039999998989515007,-0.0015999999595806003,0.029399998486042023,-0.15999999609253868,-0.8420000009480786,-0.03100000082707969
0.04198472201824188,-0.027839776128530502,9.862167358398438,0.00699999975040555,0.008499999530613422,0.03920000046491623,0.12100000279794933,-0.6999999945775432,0.02899999937514897
0.038422148674726486,-0.03528095781803131,9.853864669799805,0.004999999888241291,-0.001500000013038516,0.029399998486042023,-0.05900000114378995,0.8230000155026899,-0.08899999957737763
0.041955988854169846,-0.03187161311507225,9.866792678833008,0.007199999876320362,-0.00139999995008111,0.04899999871850014,0.5909999938210717,0.11500000177721047,-0.0859999990670082
0.02457408793270588,-0.034533966332674026,9.862483024597168,-0.012000000104308128,-0.003000000026077032,0.03920000046491623,0.28199999461387343,-0.06399999977103679,-0.012000000373951061
0.042501870542764664,-0.04118026793003082,9.85367202758789,0.0072999997064471245,-0.013499999418854713,0.029399998486042023,-0.3570000073731091,-0.2839999860606442,0.09300000248123906
0.03703351318836212,-0.03383485972881317,9.867683410644531,-0.0031999999191612005,-0.0026000000070780516,0.04899999871850014,0.31999999218507735,-0.7840000088678873,-0.024000000747902123
0.03933194652199745,-0.03727293387055397,9.863565444946289,0.004299999680370092,-0.003399999812245369,0.03920000046491623,-0.10900000075647161,-0.9810000068082445,0.06700000028140622
0.015935806557536125,-0.038019925355911255,9.863900184631348,-0.02759999968111515,-0.0030999998562037945,0.03920000046491623,-0.2499999980634083,-1.6650000164507686,-0.013000000266153095
0.04275086522102356,-0.03526180237531662,9.852790832519531,-0.0026000000070780516,-0.0023999998811632395,0.029399998486042023,0.0539999991814898,-0.1419999930303221,0.038000000906257256
0.028203696012496948,-0.034466926008462906,9.863153457641602,-0.01589999906718731,-0.0017999999690800905,0.03920000046491623,0.27500001120996237,1.4869999505949472,0.05200000106461238
0.034179624170064926,-0.04177403077483177,9.856315612792969,-0.003700000001117587,-0.012399999424815178,0.03920000046491623,0.4489999874505363,-0.7239999986604987,-0.01400000015835513
0.04038539528846741,-0.03458184748888016,9.859006881713867,0.00279999990016222,-0.0038999998942017555,0.03920000046491623,0.046999999102312236,-1.6290000103263353,0.07999999804626934
0.03145981207489967,-0.027399243786931038,9.845417022705078,-0.012199999764561653,0.00559999980032444,0.029399998486042023,-0.4100000074961602,1.5000000417413029,0.0859999990670082
0.03071282058954239,-0.03253241255879402,9.853567123413086,-0.008599999360740185,-0.003000000026077032,0.029399998486042023,0.12299999424472013,-0.149999998838045,0.008999999863581633
0.04614105448126793,-0.030913932248950005,9.858287811279297,0.0004999999655410647,-0.0023999998811632395,0.03920000046491623,-0.6859999744088683,0.08200000283325337,0.043999998591942806
0.04215710610151291,-0.034964919090270996,9.851029396057129,0.00039999998989515007,-0.0007999999797903001,0.029399998486042023,0.3139999911643385,-0.7939999927821677,-0.0859999990670082
0.054185573011636734,-0.027763161808252335,9.858479499816895,-0.011699999682605267,-0.011599999852478504,0.029399998486042023,0.4190000090272685,0.3559999983095105,0.1199999937343507
0.03757939115166664,-0.01223915908485651,9.85220718383789,0.008599999360740185,0.006599999964237213,0.03920000046491623,0.3750000104353257,1.5479999431855078,0.08100000043976135
0.03359543904662132,-0.04185064882040024,9.856526374816895,-0.012600000016391277,0.014999999664723873,0.029399998486042023,0.3049999896332302,-2.4320000580004644,0.08100000043976135
0.0392170213162899,-0.03964798152446747,9.866792678833008,-0.0038999998942017555,-0.016200000420212746,0.04899999871850014,-0.1419999930303221,-0.8759999889453145,0.08700000146050021
0.04707000404596329,-0.04461834207177162,9.855117797851562,-0.006300000008195639,-0.015699999406933784,0.03929999843239784,-0.2360000045751598,2.4879999252317524,0.07900000232288394
0.0420709103345871,-0.025301923975348473,9.857943534851074,0.0004999999655410647,0.004399999976158142,0.03920000046491623,-0.5630000068445746,1.8059999870772787,-0.10600000024610218
0.040653545409440994,-0.04138138145208359,9.85277271270752,0.005399999674409628,-0.013499999418854713,0.029399998486042023,-0.19200000598321698,-2.3059999298432423,-0.08400000095013078
0.031976956874132156,-0.02836650051176548,9.849860191345215,-0.011399999260902405,0.0066999997943639755,0.029399998486042023,0.23199999500119176,-2.8139999451179953,-0.02800000031671026
0.03386358916759491,-0.032733526080846786,9.862579345703125,-0.017999999225139618,-0.003599999938160181,0.03929999843239784,0.24800000661663751,-0.43600000302588643,-0.029999998433587676
0.045231256633996964,-0.035960908979177475,9.863326072692871,-0.00930000003427267,-0.00419999985024333,0.03929999843239784,0.5840000104171607,-0.4210000004740393,-0.06500000216452881
0.03872860595583916,-0.04368939250707626,9.832526206970215,-0.010400000028312206,-0.01549999974668026,0.009800000116229057,0.017999999727163266,-1.1039999743725382,0.03699999851276524
0.04594951868057251,-0.032570719718933105,9.850406646728516,-0.013299999758601189,-0.005699999630451202,0.029500000178813934,1.4330000481300031,-0.6729999899842184,0.07199999890865307
0.042837053537368774,-0.04220498725771904,9.8363676071167,-0.015199999324977398,-0.01979999989271164,0.019700000062584877,-0.14600000260429016,-2.6199999476880076,0.043999998591942806
0.03203441947698593,-0.04322013258934021,9.859016418457031,-0.031099999323487282,-0.019299998879432678,0.03929999843239784,-0.42500001004800736,-3.6619999470868128,-0.0329999989439571
0.023568522185087204,-0.033537980169057846,9.860300064086914,-0.05069999769330025,-0.008200000040233135,0.039400000125169754,-0.5679999721212884,-0.9320000162591615,-0.01700000066872456
0.033758245408535004,-0.03725377470254898,9.851536750793457,-0.04309999942779541,-0.006599999964237213,0.029600000008940697,-0.07399999702553048,0.2740000021463637,0
0.04312435910105705,-0.04524083808064461,9.854601860046387,-0.03219999745488167,-0.01599999889731407,0.039400000125169754,0.6600000055595685,2.169999977854299,0.0539999991814898
0.03324109688401222,-0.04107492417097092,9.856056213378906,-0.03500000014901161,-0.017899999395012856,0.03929999843239784,-0.049999999612681666,-3.665999876619501,-0.038000000906257256
0.041927263140678406,-0.03137362003326416,9.864953994750977,-0.03359999880194664,-0.007899999618530273,0.04919999837875366,-0.06299999737754478,1.7039999697247181,-0.043999998591942806
0.04699338972568512,-0.04297113046050072,9.863191604614258,-0.028599999845027924,-0.017400000244379044,0.039400000125169754,0.8260000160130593,1.1829999700253155,0.038000000906257256
0.04140053689479828,-0.023855825886130333,9.84348201751709,-0.02499999850988388,0,0.019700000062584877,-0.4769999744270334,0.06700000028140622,0.035000000395887826
0.04781699925661087,-0.04109407961368561,9.854391098022461,-0.02459999918937683,-0.01809999905526638,0.029500000178813934,0.37800001094569513,2.8379999492009507,-0.046999999102312236
0.031670499593019485,-0.03061705268919468,9.857847213745117,-0.025299999862909317,-0.00930000003427267,0.03929999843239784,-0.8440000190752759,-1.132000014709888,0.05099999867112037
0.03394978120923042,-0.038565799593925476,9.8532133102417,-0.018199998885393143,-0.01889999955892563,0.029500000178813934,-0.8519999848623591,0.29800000622931916,0.12199999852133472
0.031057585030794144,-0.04248271510004997,9.85989761352539,-0.018199998885393143,-0.01889999955892563,0.029500000178813934,-0.8519999848623591,0.29800000622931916,0.12199999852133472
0.03545333817601204,-0.033566705882549286,9.829605102539062,-0.01719999872148037,-0.016499999910593033,0.03929999843239784,1.0129999766782831,-0.28499999512424284,-0.006000000186975531
0.038805220276117325,-0.04319139942526817,9.852580070495605,0.0013000000035390258,-0.019299998879432678,0.029399998486042023,-0.1830000044521087,1.1959999544499653,0.046999999102312236
0.036363136023283005,-0.039705440402030945,9.841442108154297,-0.005399999674409628,-0.018699999898672104,0.019600000232458115,0.536999984634422,-4.138000099213232,-0.05999999686717535
0.04618893936276436,-0.042597636580467224,9.866084098815918,-0.006899999920278788,-0.019999999552965164,0.04910000041127205,1.4539999983417362,-1.1159999764140158,-0.09099999769425504
0.03376782312989235,-0.030770281329751015,9.855453491210938,-0.019600000232458115,-0.0139999995008111,0.03929999843239784,1.0619999672273661,-0.16800000190026157,-0.015999999942759198
0.040509890764951706,-0.0406343899667263,9.853567123413086,-0.010099999606609344,-0.026599999517202377,0.029500000178813934,-0.014999999216793838,3.4720000926329253,0.057000003026912535
0.03256114199757576,-0.030722396448254585,9.851814270019531,-0.010300000198185444,-0.016599999740719795,0.029399998486042023,0.07699999753589991,2.373000030176248,0.06500000216452881
0.049205634742975235,-0.041553765535354614,9.857973098754883,0.015699999406933784,-0.026399999856948853,0.03920000046491623,-0.6870000101528934,3.426000049233359,-0.0039999999856897995
0.038355108350515366,-0.04175487905740738,9.860682487487793,0.01529999915510416,-0.024299999698996544,0.03920000046491623,-0.13400000056281244,1.2259999595536597,0.07000000079177565
0.047050848603248596,-0.05081453546881676,9.862262725830078,0.01860000006854534,-0.03350000083446503,0.03920000046491623,0.6960000116840017,4.424999952382114,-0.013000000266153095
0.03460100293159485,-0.03643975034356117,9.851248741149902,0.027300000190734863,-0.017799999564886093,0.029399998486042023,0.6110000150104855,3.2739999522268373,0.019000000453128628
0.041553765535354614,-0.03225468471646309,9.85974407196045,0.045899998396635056,-0.019299998879432678,0.03920000046491623,1.0299999973573275,-3.2289998912104427,-0.0269999995907449
0.029228415340185165,-0.03507984057068825,9.840714454650879,0.026999998837709427,-0.02199999988079071,0.019600000232458115,-0.5110000157851222,-2.3419999359676757,0.024999999806340833
0.04026089608669281,-0.03831680119037628,9.859265327453613,0.026999998837709427,-0.02199999988079071,0.019600000232458115,-0.5110000157851222,-2.3419999359676757,0.024999999806340833
0.03369120880961418,-0.029984980821609497,9.847284317016602,0.027400000020861626,-0.01679999940097332,0.029399998486042023,1.9429999214493945,1.4270000471092643,0.08400000095013078
0.03310701996088028,-0.04083550348877907,9.854984283447266,0.027400000020861626,-0.01679999940097332,0.029399998486042023,-0.7919999746549705,-3.15800007478816,-0.07900000232288394
0.03632482886314392,-0.04793192073702812,9.859265327453613,0.02369999885559082,-0.03999999910593033,0.03920000046491623,-0.3450000053316314,5.378000025574714,0.024000000747902123
0.046131476759910583,-0.05251920595765114,9.849994659423828,0.04800000041723251,-0.03879999741911888,0.029399998486042023,0.6189999807975687,-0.8680000231582313,0.03699999851276524
0.035798102617263794,-0.0430094376206398,9.852073669433594,0.035499997437000275,-0.030399998649954796,0.029399998486042023,-1.200999973087532,4.450000152291653,0.0019999999928448997
0.04794149473309517,-0.0406343899667263,9.860625267028809,0.06700000166893005,-0.026899999007582664,0.03920000046491623,0.4240000009844087,-2.2569999392941593,-0.05300000012305109
0.039111677557229996,-0.0401747040450573,9.85445785522461,0.050599999725818634,-0.027799999341368675,0.029399998486042023,0.15500000413539844,4.134999938620305,-0.041000001416626686
0.03718674182891846,-0.02817496471107006,9.854418754577637,0.05179999768733978,-0.00839999970048666,0.029399998486042023,-1.284000004994704,-5.773999879500067,-0.04900000055424296
0.037119701504707336,-0.027571626007556915,9.864494323730469,0.035599999129772186,-0.004799999762326479,0.04899999871850014,0.8889999733699644,3.4250000668501865,-0.10900000075647161
0.03477338328957558,-0.05300762504339218,9.849918365478516,0.044599998742341995,-0.036399997770786285,0.029399998486042023,-1.1490000353889325,6.098000148063377,-0.04500000098543482
0.03692816570401192,-0.037244200706481934,9.857684135437012,0.0608999989926815,-0.013499999418854713,0.03929999843239784,-0.9879999902121556,-0.4769999744270334,-0.06399999977103679
0.024861391633749008,-0.03670790046453476,9.857417106628418,0.0494999997317791,-0.010699999518692493,0.03929999843239784,1.0979999733517993,-6.028999869520616,0.1419999930303221
0.03235045075416565,-0.03976290300488472,9.846441268920898,0.042399998754262924,-0.02329999953508377,0.029399998486042023,2.229000005678515,1.3209999935023093,0.014999999216793838
0.031105468049645424,-0.023539790883660316,9.85521411895752,0.04559999704360962,-0.00969999935477972,0.03920000046491623,1.5310000292281694,2.082000034031266,0.16800000190026157
0.04365108534693718,-0.04433104023337364,9.85695743560791,0.06079999729990959,-0.033299997448921204,0.03920000046491623,0.3789999933288673,7.268999795882098,0.03100000082707969
0.035913024097681046,-0.029735984280705452,9.843137741088867,0.07039999961853027,-0.024399999529123306,0.019700000062584877,-0.6080000145001161,4.049999941946789,0.0009999999964224499
0.038853105157613754,-0.04333505406975746,9.840456008911133,0.09079999476671219,-0.03240000084042549,0.01979999989271164,-1.401999953921431,7.107000088487266,-0.02899999937514897
0.03807738423347473,-0.04588248208165169,9.850205421447754,0.09989999979734421,-0.028299998492002487,0.02969999983906746,-0.07999999804626934,4.855999830048728,-0.038000000906257256
0.03172796219587326,-0.028845341876149178,9.855137825012207,0.11259999871253967,-0.01809999905526638,0.03959999978542328,-0.37200000992495624,6.741000132943902,0.07600000181251451
0.040797196328639984,-0.053850382566452026,9.852350234985352,0.14010000228881836,-0.0364999994635582,0.029999999329447746,2.0710000143729608,3.639000138830441,0.02899999937514897
0.03858495503664017,-0.03463931009173393,9.866418838500977,0.14919999241828918,-0.02239999920129776,0.04969999939203262,1.1949999720667932,-0.8729999884349451,0.0429999995335041
0.050249505788087845,-0.034725502133369446,9.852245330810547,0.15539999306201935,-0.02589999884366989,0.03009999915957451,-0.014999999216793838,-6.6069999322778905,-0.07199999890865307
0.030693667009472847,-0.04322970658540726,9.863229751586914,0.11909999698400497,-0.03539999946951866,0.03969999775290489,-1.6729999822378516,1.2449999449990485,-0.057000003026912535
0.033451784402132034,-0.04521210491657257,9.860663414001465,0.12159999459981918,-0.03059999831020832,0.03969999775290489,-0.15800000464576788,8.650999781974967,-0.019000000453128628
0.041084498167037964,-0.03677493706345558,9.8524751663208,0.1542000025510788,-0.02019999921321869,0.03019999898970127,1.660999980196374,-4.382000069575476,-0.12599999475508955
0.033212363719940186,-0.03134488686919212,9.86130428314209,0.131400004029274,-0.02459999918937683,0.039799999445676804,-2.5410000587569357,3.238999928485576,0.05600000063342052
0.02762908674776554,-0.041955988854169846,9.85389232635498,0.1306999921798706,-0.026399999856948853,0.03009999915957451,2.2740000666949096,2.4519999191073194,-0.03100000082707969
0.03658340126276016,-0.02751416526734829,9.856095314025879,0.1454000025987625,-0.01209999993443489,0.03999999910593033,0.16400000566650674,-8.102000275546745,-0.024999999806340833
0.030454246327280998,-0.04148672893643379,9.862971305847168,0.12229999899864197,-0.03189999982714653,0.03969999775290489,1.3630000006474812,6.852999867406478,-0.03599999945432653
0.03741658478975296,-0.041103653609752655,9.843769073486328,0.1274999976158142,-0.030899999663233757,0.02019999921321869,1.8809999464756615,2.479000083783203,0.09800000110848592
0.03741658478975296,-0.041103653609752655,9.843769073486328,0.1274999976158142,-0.030899999663233757,0.02019999921321869,1.8809999464756615,2.479000083783203,0.09800000110848592
0.03189076483249664,-0.032120607793331146,9.863641738891602,0.1460999995470047,-0.023899998515844345,0.03999999910593033,-0.5470000219095553,-9.661000345112264,-0.019999999511567335
0.04071100801229477,-0.03649721294641495,9.85085678100586,0.12849999964237213,-0.022199999541044235,0.029899999499320984,2.9300000360000835,0.12400000330831876,0.11099999887334903
0.04333505406975746,-0.04575798287987709,9.85389232635498,0.12799999117851257,-0.039799999445676804,0.029899999499320984,-0.4840000111917973,5.56699989764543,-0.03100000082707969
0.03313574939966202,-0.03447650372982025,9.847485542297363,0.13249999284744263,-0.02850000001490116,0.029999999329447746,-3.12799996296276,-0.8930000096243589,-0.22800001210765014
0.032312143594026566,-0.029094340279698372,9.853001594543457,0.12889999151229858,-0.018699999898672104,0.029999999329447746,-2.632999932112657,-8.61600018512053,-0.06500000216452881
0.033451784402132034,-0.03723462298512459,9.865461349487305,0.10749999433755875,-0.012199999764561653,0.04939999803900719,-0.4780000101710585,-9.52200001908698,-0.024999999806340833
0.02450704760849476,-0.04397669434547424,9.864091873168945,0.07090000063180923,-0.020600000396370888,0.039400000125169754,1.6110000072641188,-5.400000064891326,0.10100000161885533
0.027025749906897545,-0.020810401067137718,9.85277271270752,0.05549999698996544,-0.005200000014156103,0.029500000178813934,3.0799999547968495,-1.319000028735965,0.06299999737754478
0.03689943626523018,-0.03729208931326866,9.8549165725708,0.06109999865293503,-0.023399999365210533,0.03929999843239784,2.4210000383421586,-7.249999917158415,-0.05200000106461238
0.028653806075453758,-0.02561795897781849,9.861563682556152,0.03099999949336052,-0.020099999383091927,0.03920000046491623,1.4919999692325139,-8.288999755964293,0.01700000066872456
0.04563348367810249,-0.0402800478041172,9.856478691101074,0.02759999968111515,-0.04360000044107437,0.03920000046491623,0.7089999961086516,-8.625999582065429,-0.19000000119623298
0.03076070360839367,-0.037502776831388474,9.854113578796387,-0.006000000052154064,-0.035599999129772186,0.029399998486042023,-1.0710000221193274,-9.780999938640218,0.017999999727163266
0.038144420832395554,-0.03156515583395958,9.85214900970459,-0.023099999874830246,-0.0421999990940094,0.03929999843239784,1.0079999580407164,8.61600018512053,0.035000000395887826
0.038144420832395554,-0.03156515583395958,9.85214900970459,-0.015699999406933784,-0.025299999862909317,0.029399998486042023,1.0079999580407164,8.61600018512053,0.035000000395887826
0.04147715121507645,-0.03711012750864029,9.856401443481445,0.01759999990463257,-0.027799999341368675,0.03920000046491623,3.2479999833775373,5.346000162426382,0.17400000292100043
0.047951072454452515,-0.02625960297882557,9.85738754272461,0.020600000396370888,-0.025999998673796654,0.03920000046491623,-1.38199998609287,9.929999661610399,0.03400000133744912
0.03331771120429039,-0.038144420832395554,9.841720581054688,0.0279999990016222,-0.03179999813437462,0.019600000232458115,1.837000081285851,-0.475000009660689,0.07799999992939192
0.034352004528045654,-0.03753150627017021,9.860184669494629,0.026599999517202377,-0.03659999743103981,0.03920000046491623,-2.234999899977548,-1.2789999863571373,-0.06899999839828364
0.04345954954624176,-0.03628652170300484,9.862186431884766,0.03269999846816063,-0.030299998819828033,0.03920000046491623,0.7879999917614289,6.9789997821202885,0.049999999612681666
0.04345954954624176,-0.03628652170300484,9.862186431884766,0.03269999846816063,-0.030299998819828033,0.03920000046491623,0.7879999917614289,6.9789997821202885,0.049999999612681666
0.043469127267599106,-0.040394969284534454,9.853423118591309,0.052400000393390656,-0.03610000014305115,0.029399998486042023,2.7799999037599066,-1.521999974336208,0.049999999612681666
0.04130476713180542,-0.03855622559785843,9.860711097717285,0.04800000041723251,-0.04349999874830246,0.03920000046491623,-2.1809999975126044,2.701999997212007,-0.08200000283325337
0.04485776275396347,-0.026288334280252457,9.867022514343262,0.05509999766945839,-0.01769999973475933,0.04899999871850014,0.13799999679656727,-7.4609998285457415,-0.03400000133744912
0.039896976202726364,-0.04429273307323456,9.864169120788574,0.03449999913573265,-0.03749999776482582,0.04899999871850014,2.4070000715343367,-2.095000018455916,-0.031999999885518396
0.037636853754520416,-0.05241386592388153,9.850224494934082,0.018699999898672104,-0.053700000047683716,0.029399998486042023,-0.4240000009844087,4.855999830048728,0.05099999867112037
0.029180530458688736,-0.03189076483249664,9.8514404296875,0.03179999813437462,-0.03269999846816063,0.029399998486042023,-2.3970000342592033,0.49099999459570837,-0.0009999999964224499
0.02161485329270363,-0.047568000853061676,9.86664867401123,0.02319999970495701,-0.0357000008225441,0.04899999871850014,0.27500001120996237,-4.842999845624078,-0.06399999977103679
0.038048651069402695,-0.0428849421441555,9.861228942871094,0.019600000232458115,-0.03629999980330467,0.03920000046491623,1.5819999845435966,-8.68900039319598,0.07399999702553048
0.05268201604485512,-0.031124621629714966,9.849650382995605,0.012299999594688416,-0.031099999323487282,0.029399998486042023,2.234999899977548,1.411000008813392,0.06899999839828364
0.038824375718832016,-0.03794331103563309,9.864234924316406,0.005799999926239252,-0.03629999980330467,0.04899999871850014,1.1709999679838379,0.4549999884712752,-0.007000000079177565
0.04066311940550804,-0.036075834184885025,9.84343433380127,0.006899999920278788,-0.03929999843239784,0.019600000232458115,0.6230000170519632,5.3489998961324865,0.08200000283325337
0.034361582249403,-0.04177403077483177,9.858441352844238,0.011699999682605267,-0.050599999725818634,0.03920000046491623,1.0220000315702444,0.3049999896332302,0.02800000031671026
0.027590779587626457,-0.04998135194182396,9.85215950012207,0.002699999837204814,-0.06289999932050705,0.029399998486042023,1.5479999431855078,-3.428000013999703,-0.013000000266153095
0.032925061881542206,-0.03206314891576767,9.870172500610352,0.003000000026077032,-0.04729999974370003,0.04899999871850014,1.404000025409481,-2.4300000932341197,-0.014999999216793838
0.04408204182982445,-0.03619075566530228,9.87113094329834,0.006099999882280827,-0.05089999735355377,0.04910000041127205,0.5279999831033136,-4.777999923500829,0.06700000028140622
0.03573106601834297,-0.0360279455780983,9.867673873901367,-0.016699999570846558,-0.05209999904036522,0.04910000041127205,-0.648999985901263,-4.454999850764103,0.02600000053230619
0.041553765535354614,-0.0453844889998436,9.875354766845703,-0.01899999938905239,-0.05979999899864197,0.05900000035762787,-0.0329999989439571,3.1669999162367097,-0.02899999937514897
0.040059782564640045,-0.044254425913095474,9.860758781433105,-0.010300000198185444,-0.05939999967813492,0.03929999843239784,1.583999949309941,-0.5249999825929442,0.03400000133744912
0.040653545409440994,-0.035558685660362244,9.872576713562012,-0.03150000050663948,-0.05419999733567238,0.04910000041127205,-0.2710000016359943,-2.5849999239467465,0.07399999702553048
0.040653545409440994,-0.035558685660362244,9.872576713562012,-0.017999999225139618,-0.05329999700188637,0.04919999837875366,0.8320000170337981,8.283000288552081,0.017999999727163266
0.04379473999142647,-0.03728250786662102,9.85505199432373,-0.004999999888241291,-0.06509999930858612,0.04910000041127205,-0.33000000277978425,-0.7549999861473652,-0.05499999823992851
0.04272213205695152,-0.03334644436836243,9.851585388183594,0.003399999812245369,-0.05859999731183052,0.03929999843239784,-0.24200000559589865,-5.867000162125784,-0.0969999987149939
0.028759151697158813,-0.032072726637125015,9.859992980957031,0.00139999995008111,-0.05739999935030937,0.029500000178813934,-1.1089999930101049,2.2370000781873043,-0.03100000082707969
0.030722396448254585,-0.040442854166030884,9.864398002624512,-0.020899999886751175,-0.06319999694824219,0.04910000041127205,-0.9200000142176837,-3.689000111762696,-0.07000000079177565
0.037924155592918396,-0.03798161819577217,9.858680725097656,-0.030899999663233757,-0.050599999725818634,0.039400000125169754,-0.5360000022512498,2.656999936195613,-0.0019999999928448997
0.03779008239507675,-0.044043734669685364,9.861180305480957,-0.023499999195337296,-0.05869999900460243,0.03929999843239784,-2.6270000378136245,3.5989999897299074,-0.14900000311465958
0.037244200706481934,-0.04388092830777168,9.852887153625488,-0.013599999248981476,-0.05119999870657921,0.029500000178813934,-1.2189999761497488,1.5370000302489082,-0.08200000283325337
0.03235045075416565,-0.036621708422899246,9.86082649230957,-0.008799999952316284,-0.03739999979734421,0.03920000046491623,0.9529999664708946,0.25100000712700693,-0.008999999863581633
0.031048007309436798,-0.04880340397357941,9.854907035827637,-0.008100000210106373,-0.05900000035762787,0.03920000046491623,-1.3990000067719144,-1.6849999842793295,0.06299999737754478
0.030301015824079514,-0.04447469115257263,9.863986015319824,-0.012600000016391277,-0.045099999755620956,0.03920000046491623,-1.0789999879064105,0.3499999972887716,-0.03400000133744912
0.03824976831674576,-0.027054479345679283,9.858699798583984,-0.011599999852478504,-0.022299999371170998,0.03920000046491623,-2.7120000344871404,5.468000147607503,-0.14499999354069154
0.050508078187704086,-0.04154418781399727,9.856707572937012,0.02290000021457672,-0.034299999475479126,0.03920000046491623,1.1709999679838379,-4.526999863012969,0.031999999885518396
0.03135446459054947,-0.029151801019906998,9.862732887268066,-0.010499999858438969,-0.0279999990016222,0.03920000046491623,-0.07300000130214508,2.8509999336256007,-0.10299999973573276
0.04400542750954628,-0.030894778668880463,9.866802215576172,0.006000000052154064,-0.02759999968111515,0.04899999871850014,-1.423999993238042,3.767999787250356,0.07600000181251451
0.041410114616155624,-0.04157291725277901,9.8640718460083,0.016300000250339508,-0.033399999141693115,0.03920000046491623,0.5470000219095553,-3.3949999550247862,0.07099999651516105
0.03248452767729759,-0.035156454890966415,9.856334686279297,-0.002699999837204814,-0.024899998679757118,0.03920000046491623,-0.5140000162954916,-2.480000066166375,-0.03599999945432653
0.031555578112602234,-0.04403415694832802,9.854591369628906,-0.009499999694526196,-0.03309999778866768,0.03920000046491623,-0.9080000121762061,-0.9180000494513394,-0.08799999718388561
0.035721488296985626,-0.041084498167037964,9.854074478149414,-0.012299999594688416,-0.03019999898970127,0.029399998486042023,1.4749999485534695,7.678000061118924,-0.02600000053230619
0.029305029660463333,-0.04818091541528702,9.859829902648926,0.006000000052154064,-0.04339999705553055,0.03920000046491623,-1.031999962123672,5.810000099067912,-0.06099999926066736
0.031833305954933167,-0.032474953681230545,9.846882820129395,0.021900000050663948,-0.020800000056624413,0.029399998486042023,0.927999980004767,0.06700000028140622,-0.012000000373951061
0.044350191950798035,-0.03924575448036194,9.850224494934082,0.03179999813437462,-0.032999999821186066,0.029399998486042023,1.3860000223472646,-5.324999892049531,0.12100000279794933
0.04706043004989624,-0.035415031015872955,9.858920097351074,0.01719999872148037,-0.026799999177455902,0.03920000046491623,0.2360000045751598,2.7250000189117904,-0.16500000138989213
0.04156334325671196,-0.04141968861222267,9.86579704284668,0.02459999918937683,-0.03709999844431877,0.04899999871850014,-2.5650000628398915,1.2849999873778761,-0.1849999958988795
0.04268382489681244,-0.029065608978271484,9.86620807647705,0.0279999990016222,-0.02019999921321869,0.04899999871850014,-1.5939999865850745,-1.032999944506844,-0.041000001416626686
0.03469676896929741,-0.033968932926654816,9.860116958618164,0.01529999915510416,-0.015699999406933784,0.03920000046491623,-0.37100000086135765,-8.058000196913522,0.01400000015835513
0.03651636466383934,-0.03881479799747467,9.853155136108398,-0.006799999624490738,-0.024399999529123306,0.029399998486042023,2.7309999132108236,-2.276000031461254,-0.004999999877891834
0.03299209848046303,-0.042051758617162704,9.860758781433105,-0.012999999336898327,-0.04149999842047691,0.019600000232458115,1.9500000115750113,-4.864000116000929,-0.04900000055424296
0.029439104720950127,-0.037713468074798584,9.857033729553223,-0.024899998679757118,-0.037699997425079346,0.03929999843239784,0.8339999818001425,-7.63799991201839,-0.06399999977103679
0.047050848603248596,-0.038920141756534576,9.861783981323242,-0.04919999837875366,-0.044999998062849045,0.03949999809265137,-0.5179999991890332,-10.9770002132553,-0.07900000232288394
0.04248271510004997,-0.048382025212049484,9.860308647155762,-0.07899999618530273,-0.053199999034404755,0.039799999445676804,-0.36499999984061876,0.4560000242153003,-0.023000000021936765
0.04021301120519638,-0.03807738423347473,9.85940933227539,-0.07759999483823776,-0.03240000084042549,0.039799999445676804,-2.595999943605052,3.4140000471918808,-0.07999999804626934
0.03242706507444382,-0.04521210491657257,9.852110862731934,-0.07660000026226044,-0.0340999998152256,0.02979999966919422,2.8100000155853064,-3.141999929770582,0.18099999966512467
0.034677617251873016,-0.04050031676888466,9.84561824798584,-0.08379999548196793,-0.040699999779462814,0.029899999499320984,2.8409998963504672,-4.54899990232958,-0.02800000031671026
0.04256890341639519,-0.03754108399152756,9.855117797851562,-0.08619999885559082,-0.03849999979138374,0.03989999741315842,-1.8459999227344006,-2.792999888184556,-0.06500000216452881
0.03166092187166214,-0.040203433483839035,9.861783981323242,-0.10329999774694443,-0.0429999977350235,0.03999999910593033,1.0090000471455944,6.19499993333496,0.0859999990670082
0.04521210491657257,-0.03929363936185837,9.861993789672852,-0.07609999924898148,-0.04559999704360962,0.039799999445676804,1.255999964657354,-12.027000071719483,-0.023000000021936765
0.036056678742170334,-0.04122815281152725,9.864570617675781,-0.1225999966263771,-0.049300000071525574,0.04999999701976776,-3.885999842898789,2.940000073275217,-0.0030000000934877653
0.03164177015423775,-0.03759854659438133,9.86410140991211,-0.11509999632835388,-0.029999999329447746,0.04010000079870224,2.991000028590644,-5.0369998430540655,0.1079999983629796
0.039140406996011734,-0.04474284127354622,9.856640815734863,-0.11859999597072601,-0.04779999703168869,0.040300000458955765,-3.202999922361143,8.194000362345877,-0.007999999971379599
0.028088774532079697,-0.031143775209784508,9.853509902954102,-0.11539999395608902,-0.029099998995661736,0.03019999898970127,0.38100001145606455,-12.429000246830691,0.017999999727163266
0.03389231860637665,-0.02851015515625477,9.861860275268555,-0.13910000026226044,-0.02019999921321869,0.04050000011920929,-0.1800000039417393,9.641999612614933,0.03899999996469596
0.040270473808050156,-0.03781880810856819,9.849658966064453,-0.10239999741315842,-0.02929999865591526,0.030299998819828033,-2.363999975284287,4.149000118871538,-0.1529999993484144
0.035252224653959274,-0.03789542242884636,9.85543441772461,-0.10040000081062317,-0.022699998691678047,0.03989999741315842,3.889000003491717,-7.722000139752146,0.017999999727163266
0.02613510563969612,-0.030789434909820557,9.867548942565918,-0.13079999387264252,-0.033299997448921204,0.04999999701976776,2.1880000876382213,12.097999888141766,0.21800000151294321
0.03907337039709091,-0.03693774342536926,9.859293937683105,-0.07759999483823776,-0.03909999877214432,0.039799999445676804,-2.7980000135438288,13.069000071118287,0.007000000079177565
0.03846045583486557,-0.03760812059044838,9.86872673034668,-0.04149999842047691,-0.031300000846385956,0.04919999837875366,-1.7490000307411124,-5.420000139441592,-0.07399999702553048
0.037665579468011856,-0.04099830985069275,9.857071876525879,-0.06579999625682831,-0.03619999811053276,0.03959999978542328,-2.5719999395220965,-4.2999998066080645,-0.14300000209392072
0.04379473999142647,-0.0357789508998394,9.850875854492188,-0.0674000009894371,-0.019199999049305916,0.02979999966919422,1.229000013424882,-8.333999603537274,0.02800000031671026
0.03935110196471214,-0.04213795065879822,9.844651222229004,-0.08989999443292618,-0.03229999914765358,0.02029999904334545,3.1169999433044544,-5.627999890235991,0.10600000024610218
0.04124730825424194,-0.0406343899667263,9.860864639282227,-0.10499999672174454,-0.0405999980866909,0.04010000079870224,2.9489999147237667,-13.325999599018358,0.043999998591942806
0.04453215003013611,-0.03968628868460655,9.863804817199707,-0.14100000262260437,-0.04859999939799309,0.040699999779462814,-3.2580000206526707,0.7350000183188042,-0.041000001416626686
0.03708139434456825,-0.03892971947789192,9.858423233032227,-0.14810000360012054,-0.03839999809861183,0.0405999980866909,-2.600000086581152,-13.401999967686736,-0.29699999716572056
0.042501870542764664,-0.04649539664387703,9.860596656799316,-0.19919998943805695,-0.022199999541044235,0.041200000792741776,-1.2249999771704876,4.143999993512265,0.06399999977103679
0.03701435774564743,-0.04718492925167084,9.86099910736084,-0.15789999067783356,-0.02850000001490116,0.04099999740719795,1.5339999763776857,0.8769999713284867,0.12499999903170415
0.03646847978234291,-0.03552995249629021,9.859513282775879,-0.13019999861717224,-0.012399999424815178,0.040300000458955765,4.057999801012166,0.8829999723492256,0.08200000283325337
0.034754231572151184,-0.045298296958208084,9.855501174926758,-0.13019999861717224,-0.012399999424815178,0.040300000458955765,-1.6880000381505518,-9.566999866659962,-0.09999999922536333
0.03588429465889931,-0.035012807697057724,9.852110862731934,-0.12690000236034393,-0.03460000082850456,0.040300000458955765,-0.9740000234043334,-4.151000083637882,-0.08400000095013078
0.04296155646443367,-0.034562695771455765,9.85656452178955,-0.1501999944448471,-0.017899999395012856,0.04079999774694443,3.3070000112017537,-15.836999119063071,0.08299999855663877
0.035558685660362244,-0.03270479664206505,9.852503776550293,-0.202799990773201,-0.026799999177455902,0.03189999982714653,-0.5969999948418105,-1.7560000141450236,-0.19799999366374263
0.04416823014616966,-0.040605660527944565,9.858566284179688,-0.19709999859333038,-0.0348999984562397,0.04179999977350235,1.6009999699889854,-10.923999652843294,0.13100000005244303
0.0382784940302372,-0.03615244850516319,9.860960006713867,-0.23979999125003815,-0.029899999499320984,0.04259999841451645,-3.983999823996955,1.0969999909686272,-0.09800000110848592
0.03913083299994469,-0.039772480726242065,9.846212387084961,-0.22659999132156372,-0.029999999329447746,0.03269999846816063,-0.2549999900205486,-14.682999385201688,-0.03999999902313467
0.034677617251873016,-0.033729515969753265,9.849333763122559,-0.27570000290870667,-0.01939999870955944,0.033799998462200165,-2.4049998933245806,14.255000095014825,0.15999999609253868
0.038422148674726486,-0.03883394971489906,9.865049362182617,-0.22599999606609344,-0.022599998861551285,0.052299998700618744,0.6739999723673906,-16.117999931706564,0.10999999647985702
0.03516603633761406,-0.04278917238116264,9.858355522155762,-0.2789999842643738,-0.024299999698996544,0.043699998408555984,3.988000180416467,-2.0129999689319162,0.049999999612681666
0.02852930873632431,-0.034802116453647614,9.881330490112305,-0.2939999997615814,-0.02669999934732914,0.06350000202655792,-5.675999898401901,15.066999450528975,-0.07600000181251451
0.029946673661470413,-0.04212837293744087,9.847983360290527,-0.24709999561309814,-0.02279999852180481,0.032999999821186066,-0.8709999703077478,-16.15099999068148,-0.11500000177721047
0.041505880653858185,-0.0418219156563282,9.855884552001953,-0.28049999475479126,-0.02029999904334545,0.044099997729063034,1.7000000401920294,-20.833000751624134,-0.21999999295971404
0.031335312873125076,-0.05493256449699402,9.867913246154785,-0.34630000591278076,-0.034699998795986176,0.055799998342990875,3.79499995192624,-22.105999456300065,-0.06500000216452881
0.045652639120817184,-0.026269180700182915,9.855836868286133,-0.39569997787475586,-0.015599999576807022,0.04839999973773956,5.169999847893493,6.19499993333496,0.03899999996469596
0.03549164533615112,-0.03908294811844826,9.851651191711426,-0.38519999384880066,-0.050999999046325684,0.03779999911785126,-0.36499999984061876,-0.08799999718388561,0.149999998838045
0.03394020348787308,-0.03938940912485123,9.85269546508789,-0.3840999901294708,-0.04999999701976776,0.037699997425079346,-2.4590000092329363,-2.6429999693877906,0.06899999839828364
0.03037763014435768,-0.028682537376880646,9.83993911743164,-0.38989999890327454,-0.023499999195337296,0.028099998831748962,-0.9649999685123724,39.19100049522411,0.15500000413539844
0.03718674182891846,-0.025110388174653053,9.850626945495605,-0.28139999508857727,-0.02070000022649765,0.03399999812245369,4.02099981250456,-25.774000578346378,0.16800000190026157
0.03874776139855385,-0.02983175218105316,9.858652114868164,-0.3409000039100647,-0.0414000004529953,0.04619999974966049,6.008000026030588,-6.28199989477482,0.3100000082707969
0.04623682424426079,-0.023568522185087204,9.850617408752441,-0.35679998993873596,-0.0478999987244606,0.03709999844431877,-0.8739999708181173,-12.665000358127557,-0.017999999727163266
0.03592260181903839,-0.05009627714753151,9.84420108795166,-0.39989998936653137,-0.0746999979019165,0.028599999845027924,-6.198999862867648,-24.985999946254715,-0.27500001120996237
0.03976290300488472,-0.037052664905786514,9.861706733703613,-0.4569999873638153,-0.03799999877810478,0.05130000039935112,-8.930000202965294,8.380000073823664,-0.19200000598321698
0.0386328399181366,-0.030559591948986053,9.853691101074219,-0.42969998717308044,-0.010400000028312206,0.04010000079870224,-3.4890000065902638,11.912000176663978,-0.07900000232288394
0.035060688853263855,-0.03967671096324921,9.857780456542969,-0.40959998965263367,-0.011799999512732029,0.04859999939799309,5.3610001116173756,-6.392000091357875,-0.14300000209392072
0.027360936626791954,-0.03757939115166664,9.855300903320312,-0.42549997568130493,-0.026399999856948853,0.049300000071525574,3.54800003441448,37.235998864185945,0.14900000311465958
0.02023579180240631,-0.037119701504707336,9.852226257324219,-0.18219999969005585,-0.020800000056624413,0.031199999153614044,-0.4070000069857908,7.07499979845211,-0.10400000212922476
0.04876509681344032,-0.03692816570401192,9.852609634399414,-0.13239999115467072,-0.019600000232458115,0.030899999663233757,4.78699997839279,47.259998150475,-0.11400000605382507
0.037167586386203766,-0.03762727230787277,9.852532386779785,-0.021900000050663948,-0.03269999846816063,0.029500000178813934,-0.8179999968651231,-71.87599991920095,-0.1509999945614304
0.036880284547805786,-0.043210551142692566,9.850607872009277,-0.21799999475479126,-0.04010000079870224,0.03229999914765358,3.7960001477528236,8.152999590531937,-0.13700000107318186
0.028050467371940613,-0.04372769966721535,9.85379695892334,-0.20479999482631683,-0.05040000006556511,0.031700000166893005,-6.551999833986363,-48.86699822820643,-0.19900000272734125
0.026048913598060608,-0.03594175726175308,9.846786499023438,-0.3376999795436859,-0.022599998861551285,0.035499997437000275,2.9560000048493835,29.91399850789184,-0.13799999679656727
0.03757939115166664,-0.028921956196427345,9.848404884338379,-0.2450999915599823,-0.03059999831020832,0.032999999821186066,7.449000039947675,36.37700012321929,0.19900000272734125
0.0349457673728466,-0.042358215898275375,9.858345985412598,-0.14479999244213104,-0.06059999763965607,0.0405999980866909,-13.194000216892338,-26.969999145414167,-0.47899999255423065
0.03230256959795952,-0.03298252075910568,9.870498657226562,-0.21779999136924744,-0.014599999412894249,0.051899999380111694,4.727000181628813,-35.05700117931721,-0.014999999216793838
0.03373908996582031,-0.014470554888248444,9.855453491210938,-0.31299999356269836,-0.007799999788403511,0.04479999840259552,2.226000058528999,9.137000184819932,-0.30799999014359963
0.03193864971399307,-0.03241749107837677,9.850971221923828,-0.28700000047683716,-0.03350000083446503,0.034199997782707214,-7.344000395610715,-16.116999308993158,0.26600000967885407
0.04498226195573807,-0.039724595844745636,9.851096153259277,-0.3203999996185303,-0.023000000044703484,0.035599999129772186,10.607000328179247,22.06199937766684,-0.16599999711327754
0.045508988201618195,-0.04744350165128708,9.849209785461426,-0.2590999901294708,-0.05199999734759331,0.03359999880194664,1.1759999866214046,2.3429999183508476,-0.1319999957758284
0.032101456075906754,-0.055909398943185806,9.857148170471191,-0.2615000009536743,-0.0648999959230423,0.04319999739527702,18.477000421961815,29.34599997651358,0.041000001416626686
0.03574064373970032,-0.041410114616155624,9.857397079467773,-0.18029999732971191,-0.10539999604225159,0.04149999842047691,9.914999712419405,18.65399965166082,0.5149999986786638
0.04073973372578621,-0.037330396473407745,9.850521087646484,-0.11879999935626984,-0.1224999949336052,0.03099999949336052,-5.738999855758807,-4.829999861199428,0.38999998630674637
0.03439031168818474,-0.04737646505236626,9.846221923828125,-0.1410999894142151,-0.11620000004768372,0.031099999323487282,12.795999971313817,10.83199956604416,-0.7639999876784734
0.04341166839003563,-0.04064396768808365,9.866045951843262,-0.10109999775886536,-0.1508999913930893,0.050599999725818634,9.056999886618865,-17.872999963468416,0.02899999937514897
0.03834553435444832,-0.03789542242884636,9.852360725402832,-0.15559999644756317,-0.16859999299049377,0.03229999914765358,-15.749999584510032,-13.183999966173793,0.283000003677472
0.0279642753303051,-0.03883394971489906,9.84579086303711,-0.2061999887228012,-0.14019998908042908,0.03240000084042549,2.8739999553253837,2.634999896879002,1.129999943221838
0.029113493859767914,-0.06284300982952118,9.850646018981934,-0.18859998881816864,-0.1670999974012375,0.03229999914765358,-8.757000049025335,9.167999852141682,0.2929999875917525
0.037071820348501205,-0.039370253682136536,9.840398788452148,-0.16300000250339508,-0.12309999763965607,0.021699998527765274,3.511000045906875,-4.2609998533341145,-1.4749999485534695
0.03954263776540756,-0.03398808836936951,9.838818550109863,-0.16419999301433563,-0.1224999949336052,0.02199999988079071,2.0889999107134716,13.698999644687339,-0.9049999583049837
0.04023216664791107,-0.04031835496425629,9.8460111618042,-0.12150000035762787,-0.13840000331401825,0.031099999323487282,11.248999690346364,8.377999682170497,-1.1120000468813271
0.033279404044151306,-0.03550122305750847,9.8551664352417,-0.11699999868869781,-0.15240000188350677,0.04099999740719795,9.619999573298323,4.894000014382917,0.0269999995907449
0.033566705882549286,-0.03289633244276047,9.845091819763184,-0.11699999868869781,-0.15240000188350677,0.04099999740719795,9.619999573298323,4.894000014382917,0.0269999995907449
0.03135446459054947,-0.04057693108916283,9.859121322631836,-0.12209999561309814,-0.16979999840259552,0.041200000792741776,0.40299999741182274,-11.632999755673652,-2.050999939822694
0.03337517008185387,-0.031976956874132156,9.857876777648926,-0.12209999561309814,-0.16979999840259552,0.041200000792741776,-3.2889999014178315,11.189999662522148,2.5310000214818027
0.03241749107837677,-0.037952885031700134,9.856267929077148,-0.13019999861717224,-0.15230000019073486,0.041200000792741776,5.174999973252765,5.762999859841762,-0.2499999980634083
0.03665044158697128,-0.041841067373752594,9.843329429626465,-0.11400000005960464,-0.17579999566078186,0.02159999869763851,3.511000045906875,-9.108000055377705,-3.148000037513027
0.04114196076989174,-0.0351947620511055,9.856363296508789,-0.12860000133514404,-0.17520000040531158,0.04169999808073044,0.006000000186975531,0.8339999818001425,4.929999807063939
0.04161122441291809,-0.03852749243378639,9.849678993225098,-0.12610000371932983,-0.1841999888420105,0.03179999813437462,4.576000067005463,8.653000173628135,-1.6470000133885518
0.026508601382374763,-0.03314532712101936,9.849851608276367,-0.11859999597072601,-0.18799999356269836,0.031700000166893005,-6.649000046144768,-11.044000100144894,-4.317000147452226
0.04258805885910988,-0.03689943626523018,9.856267929077148,-0.12479999661445618,-0.17159999907016754,0.041600000113248825,-4.629999969470408,0.6530000221556574,4.62200011040503
0.04212837293744087,-0.03703351318836212,9.84659481048584,-0.12280000001192093,-0.1581999957561493,0.03150000050663948,-1.5529999618230745,-6.915999824763383,-2.532999986248147
0.045815445482730865,-0.030530860647559166,9.85002326965332,-0.141199991106987,-0.15359999239444733,0.03179999813437462,1.221000047637799,6.65800010103673,0.9060000474098617
0.04362235590815544,-0.028002582490444183,9.846269607543945,-0.1225999966263771,-0.14649999141693115,0.03150000050663948,-2.799999978310173,-7.552999915344874,-1.6799999656417628
0.02912306971848011,-0.035252224653959274,9.842314720153809,-0.15519998967647552,-0.14729999005794525,0.02199999988079071,3.6280001191721354,2.31799993188472,-0.1849999958988795
0.026508601382374763,-0.03190034255385399,9.853050231933594,-0.1589999943971634,-0.15549999475479126,0.03179999813437462,2.940000073275217,5.02599982339576,1.2319999605743985
0.03643975034356117,-0.048592716455459595,9.85291576385498,-0.13499999046325684,-0.1825999915599823,0.031599998474121094,-3.5700000737310913,1.6940000391712906,-1.0499999651858885
0.02841438539326191,-0.040768466889858246,9.8509521484375,-0.1396999955177307,-0.16249999403953552,0.03139999881386757,-0.4879999940853389,2.228000023295343,-0.27899999410350396
0.03315490484237671,-0.04260721057653427,9.871752738952637,-0.1233999952673912,-0.1606999933719635,0.05089999735355377,4.7810000840937565,-0.17400000292100043,0.8039999766964482
0.03646847978234291,-0.028136657550930977,9.842697143554688,-0.12349999696016312,-0.15529999136924744,0.021699998527765274,1.7200000080205904,0.5579999882070079,0.627999982328677
0.037857115268707275,-0.022304382175207138,9.841988563537598,-0.121799997985363,-0.15889999270439148,0.021699998527765274,-1.9539999411077,5.023999858629416,0.7149999971293904
0.032762255519628525,-0.04481945559382439,9.860931396484375,-0.10769999772310257,-0.17260000109672546,0.041099999099969864,2.050999939822694,6.811999949366184,0.6269999999455048
0.023807941004633904,-0.04125688597559929,9.851920127868652,-0.09849999845027924,-0.1776999980211258,0.031099999323487282,-2.8540000942185286,-1.0749999516520161,-0.20999999570522035
0.043421242386102676,-0.033901896327733994,9.845044136047363,-0.08150000125169754,-0.15950000286102295,0.03099999949336052,-0.1079999983629796,5.34199980600687,-0.08400000095013078
0.03634398430585861,-0.04912902042269707,9.863286972045898,-0.07639999687671661,-0.17829999327659607,0.0405999980866909,1.5159999733154692,6.133000171804638,0.1180000022875799
0.042147524654865265,-0.04824795201420784,9.841720581054688,-0.0494999997317791,-0.18199999630451202,0.020899999886751175,1.2379999615951374,4.400000179359398,0.09800000110848592
0.04578671231865883,-0.033662475645542145,9.844698905944824,-0.0471000000834465,-0.16519999504089355,0.020899999886751175,1.7879999840150622,3.3050000464354095,0.325000010822644
0.03680367022752762,-0.029276298359036446,9.851058006286621,-0.028099998831748962,-0.1695999950170517,0.020899999886751175,-1.5000000417413029,-5.173000008486421,-0.3280000113330135
0.035721488296985626,-0.02566584199666977,9.861831665039062,-0.05179999768733978,-0.16499999165534973,0.030700000002980232,-2.2079999487450763,-1.0139999590614552,0.0749999994190225
0.036219481378793716,-0.03495534509420395,9.853738784790039,-0.0551999993622303,-0.14839999377727509,0.030499998480081558,3.272999969843665,0.40299999741182274,0.25599999908414717
0.027734432369470596,-0.04461834207177162,9.855060577392578,-0.06379999965429306,-0.16669999063014984,0.04039999842643738,-1.9279999722584003,-1.6590000154300297,-0.2159999967259592
0.02803131379187107,-0.039916131645441055,9.861448287963867,-0.06809999793767929,-0.16089999675750732,0.04039999842643738,-0.5900000114378995,3.4089999218326086,0.36800000035098823
0.051456183195114136,-0.04491522163152695,9.851422309875488,-0.029199998825788498,-0.15879999101161957,0.030499998480081558,-0.019999999511567335,-2.722000071762274,-0.2810000122307012
0.04013639688491821,-0.028730420395731926,9.855846405029297,-0.047199998050928116,-0.148499995470047,0.040300000458955765,-2.387999979367242,0.4889999764685111,-0.2379999960219306
0.03301125392317772,-0.04317224398255348,9.870680809020996,-0.05570000037550926,-0.15209999680519104,0.04999999701976776,-0.8709999703077478,-4.014000149265767,-0.06500000216452881
0.04006936028599739,-0.028050467371940613,9.859601020812988,-0.056699998676776886,-0.12969999015331268,0.040300000458955765,0.7269999991708681,5.097000066704866,0.20299999896109608
0.04180276021361351,-0.03907337039709091,9.845724105834961,-0.04259999841451645,-0.15079998970031738,0.030399998649954796,-1.4869999505949472,-3.538999979522519,-0.1199999937343507
0.03194822743535042,-0.024957159534096718,9.840503692626953,-0.06199999898672104,-0.1266999989748001,0.020600000396370888,2.147999938537688,-1.625999956455113,-0.05200000106461238
0.043402086943387985,-0.04073015972971916,9.829682350158691,-0.05639999732375145,-0.1517999917268753,0.010900000110268593,2.234999899977548,3.0260000523319053,0.24200000559589865
0.033212363719940186,-0.035721488296985626,9.847418785095215,-0.05779999867081642,-0.1476999968290329,0.030499998480081558,-1.9059999329417892,1.1980000259380155,-0.06299999737754478
0.04881298542022705,-0.028941109776496887,9.842888832092285,-0.03480000048875809,-0.1419999897480011,0.020600000396370888,1.4679999651495583,-1.262999948061265,-0.16699999283666295
0.033614594489336014,-0.0342370830476284,9.851834297180176,-0.05769999697804451,-0.14559999108314514,0.030499998480081558,1.5380000126320803,-1.132000014709888,0.18700000068586353
0.03998316824436188,-0.045652639120817184,9.844095230102539,-0.05079999938607216,-0.15919999778270721,0.020800000056624413,2.277000013844426,1.793000002652629,0.13100000005244303
0.05333323776721954,-0.022610841318964958,9.843616485595703,-0.035999998450279236,-0.1454000025987625,0.020800000056624413,0.6360000014766131,2.857000041368045,0.23499999551156117
0.03272394835948944,-0.022946029901504517,9.857263565063477,-0.047599997371435165,-0.14669999480247498,0.04039999842643738,0.035000000395887826,3.5629999836054744,0.17400000292100043
0.038498762995004654,-0.03910209983587265,9.862405776977539,-0.0279999990016222,-0.16589999198913574,0.040300000458955765,1.4900000044661694,1.7049999521078902,0.21200000049220435
0.03853707015514374,-0.03651636466383934,9.852685928344727,-0.02319999970495701,-0.1597999930381775,0.030499998480081558,1.6960000039376348,2.232999935211204,-0.014999999216793838
0.033854011446237564,-0.037617698311805725,9.854534149169922,-0.026799999177455902,-0.1639999896287918,0.04039999842643738,1.9569998882572166,2.165000065938438,0.1199999937343507
0.029448680579662323,-0.02976471558213234,9.858461380004883,-0.020800000056624413,-0.1688999980688095,0.04039999842643738,1.2520000351246652,0.6889999749192377,0.09000000197086964
0.04276043921709061,-0.02950614131987095,9.850914001464844,-0.008999999612569809,-0.17180000245571136,0.03059999831020832,0.1390000058601659,-3.674000162571702,-0.006000000186975531
0.02687252126634121,-0.03530968725681305,9.852340698242188,-0.038599997758865356,-0.17170000076293945,0.030700000002980232,-1.2239999947873152,1.4379999600458642,-0.06899999839828364
0.03348051756620407,-0.03527137637138367,9.851153373718262,-0.014999999664723873,-0.1678999960422516,0.03059999831020832,-0.30100000673968863,1.8760000345598007,0.09899999683187131
0.04978024214506149,-0.04258805885910988,9.845502853393555,-0.025499999523162842,-0.16699999570846558,0.03059999831020832,-0.2499999980634083,-1.7670000338033292,-0.05799999875029794
0.04210921749472618,-0.02936249040067196,9.85754108428955,-0.0139999995008111,-0.16449999809265137,0.040300000458955765,0.18400000017549412,2.2870000511195596,-0.07600000181251451
0.04037581756711006,-0.023587675765156746,9.850253105163574,-0.007699999958276749,-0.15469999611377716,0.030499998480081558,0.851000002479187,0.6230000170519632,0.08400000095013078
0.031335312873125076,-0.04153461009263992,9.843167304992676,-0.015799999237060547,-0.1762000024318695,0.02070000022649765,-0.06099999926066736,-0.515999981061836,-0.06899999839828364
0.028807034716010094,-0.0286729596555233,9.849640846252441,-0.017099998891353607,-0.1559000015258789,0.030499998480081558,0.2150000010025738,-2.210999895894593,-0.1319999957758284
0.04981854930520058,-0.03530968725681305,9.85156536102295,-0.004299999680370092,-0.16599999368190765,0.03059999831020832,-0.6300000004558742,0.43600000302588643,-0.07300000130214508
0.04294240102171898,-0.02931460551917553,9.859533309936523,-0.012999999336898327,-0.1639999896287918,0.040300000458955765,-0.0039999999856897995,1.3010000256737484,-0.05600000063342052
0.027236439287662506,-0.04101746529340744,9.859868049621582,-0.028999999165534973,-0.17329999804496765,0.040300000458955765,-0.3349999947369245,0.9899999549784999,0.0329999989439571
0.03056916780769825,-0.03597048670053482,9.86312484741211,-0.016499999910593033,-0.16210000216960907,0.040300000458955765,-1.2969999894193538,1.1130000292644995,-0.05499999823992851
0.03857537731528282,-0.042310334742069244,9.869032859802246,-0.003599999938160181,-0.1678999960422516,0.04999999701976776,0.5420000032719886,1.054000001440283,-0.1529999993484144
0.031957805156707764,-0.03968628868460655,9.868180274963379,-0.010099999606609344,-0.16910000145435333,0.04999999701976776,0.37800001094569513,0.3750000104353257,0.1529999993484144
0.045748405158519745,-0.033097442239522934,9.853337287902832,0.0004999999655410647,-0.1597999930381775,0.030399998649954796,-0.642000002497352,-0.20999999570522035,0.12400000330831876
0.03892971947789192,-0.0388626828789711,9.851278305053711,0,-0.16740000247955322,0.030399998649954796,-0.5140000162954916,0.26600000967885407,-0.05999999686717535
0.033614594489336014,-0.026719290763139725,9.856813430786133,-0.008999999612569809,-0.14589999616146088,0.04019999876618385,-0.8889999733699644,0.7930000103989956,-0.023000000021936765
0.045365333557128906,-0.03848918527364731,9.85438060760498,0.002899999963119626,-0.16269999742507935,0.030299998819828033,-0.06899999839828364,-0.8459999838416202,-0.1199999937343507
0.03826892003417015,-0.03865199163556099,9.871485710144043,-0.009399999864399433,-0.16200000047683716,0.04989999905228615,0.40599999792219216,-0.6480000035180908,-0.1509999945614304
0.048966214060783386,-0.04034708812832832,9.847524642944336,0.008599999360740185,-0.16259999573230743,0.030299998819828033,-0.19900000272734125,1.4189999746004753,0.05499999823992851
0.03729208931326866,-0.02782062254846096,9.852887153625488,-0.00699999975040555,-0.1419999897480011,0.030299998819828033,-0.5930000119482689,-0.3890000039235742,0.06500000216452881
0.035702336579561234,-0.027954699471592903,9.859379768371582,-0.008100000210106373,-0.13989999890327454,0.04010000079870224,-0.024000000747902123,-1.271000020570054,-0.04500000098543482
0.04464707151055336,-0.03793372958898544,9.853231430053711,-0.0016999999061226845,-0.1492999941110611,0.030299998819828033,-0.2839999860606442,0.11400000605382507,-0.035000000395887826
0.03578852862119675,-0.040845081210136414,9.845771789550781,-0.01119999960064888,-0.15779998898506165,0.030299998819828033,1.1750000042382323,-0.5390000027616192,0.01400000015835513
0.021222203969955444,-0.04684973880648613,9.853816032409668,-0.022299999371170998,-0.16019999980926514,0.030299998819828033,0.5129999805514666,0.8639999869038368,-0.12799999954207358
0.03505111485719681,-0.03773261979222298,9.857837677001953,-0.009999999776482582,-0.16120000183582306,0.030299998819828033,-0.40499998885859356,-0.014999999216793838,0.01400000015835513
0.03789542242884636,-0.03643017262220383,9.859121322631836,-0.010099999606609344,-0.14989998936653137,0.04010000079870224,0.8549999853727285,0.23099998593759313,0.14300000209392072
0.04532702639698982,-0.02533065341413021,9.872730255126953,-0.011399999260902405,-0.15109999477863312,0.04010000079870224,0.024000000747902123,1.284000004994704,-0.038000000906257256
0.026757599785923958,-0.023827094584703445,9.856066703796387,-0.01730000041425228,-0.14319999516010284,0.04010000079870224,-0.2159999967259592,0.7990000114197344,0.08400000095013078
0.049224790185689926,-0.041841067373752594,9.86561393737793,0.0142000000923872,-0.16189999878406525,0.04989999905228615,-0.7149999971293904,0.4769999744270334,0.02600000053230619
0.04034708812832832,-0.042003877460956573,9.849152565002441,0.005699999630451202,-0.15950000286102295,0.030299998819828033,-0.15399999507179982,0.6360000014766131,-0.15699999558216926
0.03961925208568573,-0.03588429465889931,9.844449996948242,0.007400000002235174,-0.14890000224113464,0.020399998873472214,-0.321000001248676,-0.21800000151294321,-0.14900000311465958
0.03754108399152756,-0.03447650372982025,9.863862037658691,-0.002899999963119626,-0.147599995136261,0.03999999910593033,-0.6620000236867658,1.2019999554707044,0.014999999216793838
0.0370909720659256,-0.04111323133111,9.852580070495605,0.00029999998514540493,-0.15519998967647552,0.03019999898970127,-0.3879999948599756,0.5200000173162305,-0.12700000381868817
0.027236439287662506,-0.04016512632369995,9.857780456542969,-0.007999999448657036,-0.15369999408721924,0.03999999910593033,-0.8840000080932506,1.5029999888908194,-0.10299999973573276
0.03643975034356117,-0.03833595663309097,9.854496002197266,0.0058999997563660145,-0.1508999913930893,0.03009999915957451,0.627999982328677,1.1010000272230216,-0.11699999322398127
0.04102703928947449,-0.03963840380311012,9.86072063446045,0.018699999898672104,-0.15219999849796295,0.03999999910593033,0.5870000109275301,0.5679999721212884,0.035000000395887826
0.03324109688401222,-0.04301901534199715,9.850397109985352,0.006799999624490738,-0.15410000085830688,0.03019999898970127,-0.9589999674916334,0.3989999878378547,-0.041000001416626686
0.03324109688401222,-0.04301901534199715,9.850397109985352,0.006799999624490738,-0.15410000085830688,0.03019999898970127,-0.9589999674916334,0.3989999878378547,-0.041000001416626686
0.030550014227628708,-0.040892962366342545,9.851929664611816,0.007899999618530273,-0.15109999477863312,0.03009999915957451,0.4089999984325616,-0.18700000068586353,0.15200000362502902
0.03888183459639549,-0.029103916138410568,9.866802215576172,0.013399999588727951,-0.14079999923706055,0.04969999939203262,-0.7459999846162569,1.4290000118756088,-0.007000000079177565
0.03888183459639549,-0.029103916138410568,9.866802215576172,0.013399999588727951,-0.14079999923706055,0.04969999939203262,-0.7459999846162569,1.4290000118756088,-0.007000000079177565
0.041764453053474426,-0.04023216664791107,9.865509033203125,0.01730000041425228,-0.14819999039173126,0.04969999939203262,0.7480000027434541,-1.7949999674189732,0.048000001495804245
0.027791893109679222,-0.04968447610735893,9.848108291625977,-0.004600000102072954,-0.15760000050067902,0.03009999915957451,0.13499999628619785,-1.7699999809528455,0.08100000043976135
0.01682645082473755,-0.03199611231684685,9.849017143249512,-0.019899999722838402,-0.1379999965429306,0.03009999915957451,-0.049999999612681666,1.732000010062068,-0.024999999806340833
0.04927267134189606,-0.02843353897333145,9.860194206237793,0.023399999365210533,-0.12770000100135803,0.03989999741315842,-0.3789999933288673,-1.452000033575392,-0.09899999683187131
0.034706346690654755,-0.036200329661369324,9.859820365905762,-0.0010999999940395355,-0.13589999079704285,0.03989999741315842,0.8140000139715816,-0.3819999938392367,0.04600000004387353
0.03130657970905304,-0.050345271825790405,9.859619140625,-0.0018999999156221747,-0.15680000185966492,0.03989999741315842,-0.21800000151294321,1.7000000401920294,-0.024000000747902123
0.031814150512218475,-0.0345914252102375,9.849170684814453,0.002699999837204814,-0.13660000264644623,0.03009999915957451,-0.6679999713466518,-0.7560000218913903,-0.19200000598321698
0.04718492925167084,-0.029391219839453697,9.848759651184082,0.010400000028312206,-0.1348000019788742,0.03009999915957451,0.16699999283666295,-1.634000028963902,0.05200000106461238
0.04427357763051987,-0.03251326084136963,9.860652923583984,0.006000000052154064,-0.13519999384880066,0.03989999741315842,0.6579999874323713,-1.4979999702532527,0.05300000012305109
0.03634398430585861,-0.023501483723521233,9.858423233032227,-0.00839999970048666,-0.1274999976158142,0.03989999741315842,0.8039999766964482,0.4799999749374028,0.0269999995907449
0.03275267779827118,-0.04741477221250534,9.856822967529297,-0.00839999970048666,-0.1274999976158142,0.03989999741315842,0.5810000099067912,1.2900000060154428,0.03699999851276524
0.04661031812429428,-0.038565799593925476,9.858479499816895,0.006000000052154064,-0.15060000121593475,0.03999999910593033,0.008999999863581633,0.9289999623879391,0.05900000114378995
0.0382784940302372,-0.03889141231775284,9.86192798614502,-0.0010999999940395355,-0.15060000121593475,0.03989999741315842,0.37400000137172706,0.7879999917614289,-0.03999999902313467
0.04066311940550804,-0.04639005288481712,9.86513614654541,0.010699999518692493,-0.15160000324249268,0.049799997359514236,0.6149999979040272,0.1189999980109653,0.008999999863581633
0.02978386916220188,-0.0540323443710804,9.869512557983398,0.0013000000035390258,-0.16329999268054962,0.049799997359514236,0.739999983595518,0.4169999909000712,0.15500000413539844
0.03460100293159485,-0.03736870363354683,9.861477851867676,0.002300000051036477,-0.14549998939037323,0.03999999910593033,0.754000003764193,-1.2150000466170598,-0.012000000373951061
0.03990655392408371,-0.0319865345954895,9.837985038757324,0.008799999952316284,-0.147599995136261,0.020399998873472214,-0.1529999993484144,-1.689000020533724,-0.004999999877891834
0.050249505788087845,-0.045125916600227356,9.852494239807129,0.013899999670684338,-0.15689998865127563,0.03019999898970127,-0.3579999897562813,0.9109999593257225,0.0009999999964224499
0.04213795065879822,-0.0444268062710762,9.849602699279785,0.006599999964237213,-0.15600000321865082,0.03019999898970127,0.021000000237532696,1.1479999462840547,-0.12499999903170415
0.03722504898905754,-0.03391147404909134,9.857857704162598,0.010199999436736107,-0.15600000321865082,0.03999999910593033,-0.49600001323327503,0.40299999741182274,-0.06500000216452881
0.04403415694832802,-0.032714370638132095,9.853097915649414,-0.0008999999845400453,-0.1477999985218048,0.03999999910593033,0.2159999967259592,1.1699999856006655,0.019000000453128628
0.029103916138410568,-0.04183149337768555,9.852599143981934,0.00989999994635582,-0.14639998972415924,0.03019999898970127,0.2639999915516568,-1.1819999876421434,0.02600000053230619
0.03818272799253464,-0.038115691393613815,9.856640815734863,0.00009999999747378752,-0.1476999968290329,0.03999999910593033,0.035000000395887826,1.2479999988702708,-0.07099999651516105
0.024679431691765785,-0.03654509410262108,9.868919372558594,0.00009999999747378752,-0.1476999968290329,0.03999999910593033,0.4849999935749695,-1.2749999501027427,0.019999999511567335
0.033758245408535004,-0.03664086014032364,9.86148738861084,0.0008999999845400453,-0.14890000224113464,0.03999999910593033,0.5320000193577081,0.7140000147462182,-0.01700000066872456
0.039964016526937485,-0.032905906438827515,9.868152618408203,0.012600000016391277,-0.15039999783039093,0.04989999905228615,-0.369999991797759,-0.7999999938029067,-0.1189999980109653
0.03129700571298599,-0.03410300984978676,9.871609687805176,0.000699999975040555,-0.149399995803833,0.04989999905228615,0.6110000150104855,-0.06399999977103679,0.07900000232288394
0.04118984565138817,-0.036123715341091156,9.86414909362793,0.010300000198185444,-0.1509999930858612,0.04989999905228615,0.03599999945432653,1.297999971802526,-0.03400000133744912
0.03415089473128319,-0.03238875791430473,9.854524612426758,0.0044999998062849045,-0.15109999477863312,0.030299998819828033,-0.5900000114378995,-0.10900000075647161,-0.08400000095013078
0.0393415205180645,-0.040892962366342545,9.867827415466309,0.0139999995008111,-0.15950000286102295,0.04989999905228615,0.5200000173162305,-0.9430000359174671,0
0.04193683713674545,-0.04154418781399727,9.874013900756836,0.011500000022351742,-0.16089999675750732,0.059699997305870056,0.46199997187518627,-0.21200000049220435,-0.049999999612681666
0.04943547770380974,-0.0420709103345871,9.859801292419434,0.02070000022649765,-0.1621999889612198,0.04010000079870224,0.4280000105583768,0.13700000107318186,0.035000000395887826
0.04910028725862503,-0.03395935893058777,9.855960845947266,0.0210999995470047,-0.15349999070167542,0.04010000079870224,0.0659999978879142,0.8879999909867923,0.16400000566650674
0.047711651772260666,-0.04373727738857269,9.861706733703613,0.013700000010430813,-0.16349999606609344,0.04010000079870224,-0.26200000010488605,0.9579999851084613,-0.03899999996469596
0.028845341876149178,-0.04002147540450096,9.860318183898926,0.0064999996684491634,-0.16279999911785126,0.04010000079870224,0.03899999996469596,0.6729999899842184,0.05300000012305109
0.041553765535354614,-0.038948871195316315,9.850981712341309,0.01809999905526638,-0.16290000081062317,0.030299998819828033,-0.23399998644796255,0.7350000183188042,0.07300000130214508
0.04701254144310951,-0.041410114616155624,9.85761833190918,0.02019999921321869,-0.1621999889612198,0.04010000079870224,0.08299999855663877,0.7939999927821677,-0.03100000082707969
0.048573561012744904,-0.02976471558213234,9.861946105957031,0.032099999487400055,-0.1525999903678894,0.04010000079870224,0.3540000068627397,0.6470000211349186,0.09399999820462447
0.046600744128227234,-0.035300109535455704,9.865480422973633,0.024299999698996544,-0.15369999408721924,0.04989999905228615,0.3029999981864594,-0.6039999782457216,0.024999999806340833
0.038000769913196564,-0.031622614711523056,9.855998992919922,0.013100000098347664,-0.15439999103546143,0.04010000079870224,-0.1419999930303221,-0.7420000017227153,-0.0969999987149939
0.04473326355218887,-0.03682282194495201,9.856478691101074,0.020899999886751175,-0.15399999916553497,0.04010000079870224,-0.0859999990670082,0.019999999511567335,0.09000000197086964
0.04373727738857269,-0.040462009608745575,9.857407569885254,0.020899999886751175,-0.16339999437332153,0.04010000079870224,-0.2069999951948509,0.5810000099067912,0.01700000066872456
0.022649148479104042,-0.035223495215177536,9.85656452178955,0.002899999963119626,-0.15299999713897705,0.04010000079870224,0.08499999667351618,-0.20599999947146552,-0.10400000212922476
0.03593217954039574,-0.04189852997660637,9.860692024230957,0.01209999993443489,-0.16300000250339508,0.04010000079870224,-0.2909999961449817,0.3319999942265551,-0.08899999957737763
0.031574733555316925,-0.03598963841795921,9.865518569946289,0.012999999336898327,-0.15230000019073486,0.04989999905228615,-0.013000000266153095,0.3349999947369245,-0.0019999999928448997
0.035558685660362244,-0.04466622695326805,9.851881980895996,0.0139999995008111,-0.16210000216960907,0.030299998819828033,-0.0329999989439571,-0.17599999436777122,0.07399999702553048
0.04023216664791107,-0.03249410539865494,9.871475219726562,0.013499999418854713,-0.17159999907016754,0.04010000079870224,0.0269999995907449,-0.11200000126684104,0.03400000133744912
0.038968026638031006,-0.03569275885820389,9.861668586730957,0.024000000208616257,-0.15219999849796295,0.04989999905228615,0.16500000138989213,0.3860000034132048,0.012000000373951061
0.03343263268470764,-0.029439104720950127,9.859389305114746,0.02369999885559082,-0.15209999680519104,0.04010000079870224,-0.28499999512424284,0.1529999993484144,0.0269999995907449
0.03466803953051567,-0.03367205336689949,9.867731094360352,0.015399999916553497,-0.1516999900341034,0.04989999905228615,0.11500000177721047,-0.14699999832767557,-0.06800000267489824
0.03291548416018486,-0.03918829187750816,9.864819526672363,0.01489999983459711,-0.1615999937057495,0.04989999905228615,0.21100000476881897,0.015999999942759198,-0.04900000055424296
0.04792233929038048,-0.046198517084121704,9.858642578125,0.03460000082850456,-0.16200000047683716,0.04010000079870224,-0.05499999823992851,0.14799999405106096,0.004999999877891834
0.044062890112400055,-0.032168496400117874,9.871236801147461,0.025100000202655792,-0.15189999341964722,0.04989999905228615,0.03899999996469596,0.049999999612681666,0.05600000063342052
0.03791457787156105,-0.03360501304268837,9.871925354003906,0.015399999916553497,-0.1517999917268753,0.04989999905228615,-0.12299999424472013,-0.6729999899842184,-0.05300000012305109
0.03779008239507675,-0.04191768169403076,9.86207103729248,0.013599999248981476,-0.16120000183582306,0.04010000079870224,0.08700000146050021,-0.09300000248123906,-0.09000000197086964
0.04257848486304283,-0.028242003172636032,9.862176895141602,0.023099999874830246,-0.14169999957084656,0.04010000079870224,0.19799999366374263,-0.1189999980109653,-0.0039999999856897995
0.05196375399827957,-0.03667916730046272,9.864819526672363,0.032600000500679016,-0.15199999511241913,0.04989999905228615,0.03400000133744912,0.007999999971379599,-0.06200000165415938
0.03834553435444832,-0.036985624581575394,9.859907150268555,0.02279999852180481,-0.1517999917268753,0.04010000079870224,0.2499999980634083,-0.17599999436777122,0.11699999322398127
0.027878083288669586,-0.03993528336286545,9.858211517333984,0.00279999990016222,-0.1621999889612198,0.04010000079870224,0.1629999966029081,-0.12799999954207358,-0.0019999999928448997
0.031862035393714905,-0.051887139678001404,9.8663330078125,0.012199999764561653,-0.17219999432563782,0.04989999905228615,0.1830000044521087,0.04600000004387353,-0.043999998591942806
0.03168965503573418,-0.04518337547779083,9.86704158782959,0.012299999594688416,-0.16269999742507935,0.04989999905228615,-0.08700000146050021,-0.2589999995945166,0.010999999647985701
0.03945644199848175,-0.03431369736790657,9.855377197265625,0.021399999037384987,-0.1525999903678894,0.04010000079870224,-0.10900000075647161,0.12400000330831876,-0.014999999216793838
0.044445961713790894,-0.024650702252984047,9.865470886230469,0.021699998527765274,-0.14229999482631683,0.04989999905228615,-0.0329999989439571,0.32700000226941484,0.03899999996469596
0.04638047516345978,-0.038709454238414764,9.850081443786621,0.022599998861551285,-0.16179999709129333,0.030299998819828033,0.014999999216793838,-0.02899999937514897,-0.01700000066872456
0.04867890849709511,-0.0421762578189373,9.854554176330566,0.03229999914765358,-0.1615999937057495,0.04010000079870224,0.03899999996469596,-0.16800000190026157,0.02600000053230619
0.03404554724693298,-0.0357789508998394,9.865595817565918,0.012199999764561653,-0.1516999900341034,0.04989999905228615,-0.29500000571894974,0.2839999860606442,-0.05900000114378995
0.038920141756534576,-0.028328193351626396,9.858776092529297,0.02279999852180481,-0.14100000262260437,0.04010000079870224,-0.21700000578955783,-0.15399999507179982,-0.024000000747902123
0.02511996403336525,-0.043354205787181854,9.86005973815918,0.00279999990016222,-0.1598999947309494,0.03999999910593033,-0.021999999295971403,0.014999999216793838,-0.038000000906257256
0.04593036696314812,-0.041362229734659195,9.875163078308105,0.02239999920129776,-0.15959998965263367,0.059699997305870056,0.019000000453128628,0.369999991797759,0.09999999922536333
0.04066311940550804,-0.0400502048432827,9.87912654876709,0.023399999365210533,-0.15959998965263367,0.059699997305870056,-0.14799999405106096,0.06399999977103679,-0.16899999762364695
0.04758715257048607,-0.034256238490343094,9.859868049621582,0.023599999025464058,-0.1492999941110611,0.03999999910593033,0.20200000323771067,0.1070000026395942,-0.0030000000934877653
0.022553378716111183,-0.03319321200251579,9.863133430480957,0.004299999680370092,-0.14959999918937683,0.03999999910593033,-0.0659999978879142,-0.010999999647985701,-0.019999999511567335
0.035223495215177536,-0.04297113046050072,9.860836029052734,0.0139999995008111,-0.15889999270439148,0.03999999910593033,-0.08200000283325337,-0.18400000017549412,-0.10199999734224074
0.04156334325671196,-0.05271074175834656,9.876320838928223,0.02329999953508377,-0.15839999914169312,0.03999999910593033,0.128999995265459,0.013000000266153095,0.1189999980109653
0.03675578162074089,-0.050086699426174164,9.858000755310059,0.014299999922513962,-0.1680999994277954,0.03999999910593033,0.015999999942759198,-0.3220000103122746,-0.013000000266153095
0.044560883194208145,-0.03132573515176773,9.868803977966309,0.02329999953508377,-0.14839999377727509,0.049799997359514236,-0.11200000126684104,-0.24200000559589865,-0.021000000237532696
0.037828389555215836,-0.04413950443267822,9.854667663574219,0.02329999953508377,-0.14839999377727509,0.049799997359514236,0.046999999102312236,-0.128999995265459,0
0.04157291725277901,-0.02703532576560974,9.864187240600586,0.022199999541044235,-0.13809999823570251,0.049799997359514236,0.02800000031671026,-0.05999999686717535,-0.03899999996469596
0.0441969633102417,-0.03983951732516289,9.858776092529297,0.02199999988079071,-0.1573999971151352,0.03999999910593033,0.2069999951948509,0.0539999991814898,-0.023000000021936765
0.03775177523493767,-0.0408833883702755,9.865299224853516,0.012299999594688416,-0.15770000219345093,0.049799997359514236,0.10900000075647161,-0.009999999755783667,-0.03400000133744912
0.028538884595036507,-0.045815445482730865,9.868593215942383,0.0024999999441206455,-0.15779998898506165,0.049799997359514236,-0.043999998591942806,-0.23000000355442093,-0.03699999851276524
0.040605660527944565,-0.052931010723114014,9.862579345703125,0.021399999037384987,-0.16740000247955322,0.03999999910593033,0.02600000053230619,-0.029999998433587676,-0.017999999727163266
0.043756432831287384,-0.04248271510004997,9.864618301391602,0.021299999207258224,-0.15729999542236328,0.049799997359514236,0.07000000079177565,0.08400000095013078,-0.0429999995335041
0.04198472201824188,-0.04104619100689888,9.868343353271484,0.02149999886751175,-0.15729999542236328,0.049799997359514236,0.01700000066872456,-0.15500000413539844,0.021000000237532696
0.04148672893643379,-0.032455798238515854,9.848366737365723,0.020999999716877937,-0.14710000157356262,0.03019999898970127,-0.0030000000934877653,0.07799999992939192,-0.06500000216452881
0.042099643498659134,-0.03693774342536926,9.873294830322266,0.021199999377131462,-0.1467999964952469,0.049799997359514236,-0.04600000004387353,0.11200000126684104,0
0.03561614453792572,-0.031009700149297714,9.87051773071289,0.011599999852478504,-0.14649999141693115,0.049799997359514236,0.004999999877891834,-0.1079999983629796,-0.02899999937514897
0.03427539020776749,-0.041601650416851044,9.859782218933105,0.011299999430775642,-0.1559000015258789,0.03999999910593033,-0.1509999945614304,-0.3559999983095105,-0.07199999890865307
0.026307487860322,-0.03134488686919212,9.850310325622559,0.0005999999702908099,-0.14559999108314514,0.03019999898970127,-0.3750000104353257,-0.019000000453128628,-0.02600000053230619
0.03054043836891651,-0.034610580652952194,9.859322547912598,0.010300000198185444,-0.1445000022649765,0.03999999910593033,-0.05900000114378995,-0.08299999855663877,0.06700000028140622
0.03458184748888016,-0.03687070310115814,9.859782218933105,0.010099999606609344,-0.14399999380111694,0.03999999910593033,0.2399999874687014,0.1749999986443858,-0.0030000000934877653
0.04026089608669281,-0.04397669434547424,9.867347717285156,0.020399998873472214,-0.15429998934268951,0.049799997359514236,0.0009999999964224499,-0.31099999065396905,0.02600000053230619
0.0407588891685009,-0.0351947620511055,9.870823860168457,0.019600000232458115,-0.1444000005722046,0.049799997359514236,-0.05499999823992851,-0.043999998591942806,-0.0749999994190225
0.04009808972477913,-0.037454891949892044,9.866199493408203,0.01939999870955944,-0.14379999041557312,0.03019999898970127,0.03899999996469596,0.09899999683187131,0.01700000066872456
0.04009808972477913,-0.037454891949892044,9.866199493408203,0.019500000402331352,-0.1436000019311905,0.049799997359514236,0.03899999996469596,0.09899999683187131,0.01700000066872456
0.03185245767235756,-0.0445513054728508,9.859188079833984,0.009999999776482582,-0.15320000052452087,0.03999999910593033,-0.07099999651516105,-0.1509999945614304,-0.12400000330831876
0.03879564255475998,-0.03706223890185356,9.856689453125,0.019299998879432678,-0.1428999900817871,0.03999999910593033,0.0539999991814898,0.02600000053230619,-0.02800000031671026
0.036813244223594666,-0.029496565461158752,9.874922752380371,0.009399999864399433,-0.14249999821186066,0.05959999933838844,0.010999999647985701,-0.05499999823992851,0.01400000015835513
0.039772480726242065,-0.030138209462165833,9.866705894470215,0.009399999864399433,-0.14249999821186066,0.05959999933838844,-0.0030000000934877653,0.05799999875029794,0.05600000063342052
0.04068227484822273,-0.02971683070063591,9.846403121948242,0.01899999938905239,-0.14219999313354492,0.049799997359514236,0.04500000098543482,-0.1529999993484144,-0.05600000063342052
0.04208049178123474,-0.030942663550376892,9.867664337158203,0.019099999219179153,-0.14180000126361847,0.03009999915957451,0.18600000496247812,0.1390000058601659,0.0329999989439571
0.04208049178123474,-0.030942663550376892,9.867664337158203,0.018699999898672104,-0.14159999787807465,0.04969999939203262,0.18600000496247812,0.1390000058601659,0.0329999989439571
0.04345954954624176,-0.044685378670692444,9.86023235321045,0.019099999219179153,-0.1517999917268753,0.049799997359514236,-0.008999999863581633,-0.049999999612681666,0.02899999937514897
0.039466023445129395,-0.03498407453298569,9.872404098510742,0.019500000402331352,-0.1517999917268753,0.03989999741315842,-0.0039999999856897995,0.021999999295971403,-0.019999999511567335
0.03002328798174858,-0.030511707067489624,9.860194206237793,0.019299998879432678,-0.14169999957084656,0.04969999939203262,0.09600000299160849,-0.029999998433587676,0.03599999945432653
0.03488830476999283,-0.02635537087917328,9.855271339416504,0.009499999694526196,-0.1412999927997589,0.03989999741315842,0.10900000075647161,0.06899999839828364,-0.12299999424472013
0.03976290300488472,-0.03264733403921127,9.864197731018066,0.019299998879432678,-0.141199991106987,0.04969999939203262,0.03100000082707969,-0.0329999989439571,0.10600000024610218
0.037952885031700134,-0.04009808972477913,9.86169719696045,0.009399999864399433,-0.15070000290870667,0.03989999741315842,-0.35199998873554245,0.10600000024610218,0.01700000066872456
0.04707958176732063,-0.05193502455949783,9.875621795654297,0.019500000402331352,-0.15940000116825104,0.05949999764561653,-0.09000000197086964,-0.1830000044521087,-0.05900000114378995
0.04215710610151291,-0.035913024097681046,9.867137908935547,0.01899999938905239,-0.13930000364780426,0.04969999939203262,0.1189999980109653,0.0030000000934877653,-0.007999999971379599
0.04568136855959892,-0.02917095459997654,9.862167358398438,0.01889999955892563,-0.13920000195503235,0.03989999741315842,0.013000000266153095,0.06299999737754478,0.12299999424472013
0.04360320419073105,-0.025771187618374825,9.871475219726562,0.019099999219179153,-0.12919999659061432,0.04969999939203262,-0.14399999781730613,-0.02899999937514897,0.05799999875029794
0.020101716741919518,-0.0370909720659256,9.859648704528809,-0.0004999999655410647,-0.13819999992847443,0.03989999741315842,0.019999999511567335,0.01700000066872456,-0.03899999996469596
0.03985866904258728,-0.02592441625893116,9.852494239807129,0.01899999938905239,-0.12799999117851257,0.03009999915957451,0.010999999647985701,-0.1849999958988795,-0.05900000114378995
0.03848918527364731,-0.034419044852256775,9.870240211486816,0.018400000408291817,-0.13759998977184296,0.04969999939203262,-0.1079999983629796,-0.28799999563461226,-0.1319999957758284
0.033614594489336014,-0.03725377470254898,9.85708236694336,0.007799999788403511,-0.1370999962091446,0.03989999741315842,0.10199999734224074,0.0539999991814898,0.049999999612681666
0.03298252075910568,-0.0481138750910759,9.849419593811035,0.007899999618530273,-0.15639999508857727,0.03009999915957451,0.13700000107318186,-0.1610000051561373,-0.16599999711327754
0.032714370638132095,-0.03756023943424225,9.855520248413086,0.007499999832361937,-0.13699999451637268,0.03989999741315842,-0.12799999954207358,0.16500000138989213,0.049999999612681666
0.04729985073208809,-0.02388455532491207,9.853758811950684,0.01759999990463257,-0.12639999389648438,0.03009999915957451,0.0429999995335041,-0.0039999999856897995,0.07199999890865307
0.033614594489336014,-0.04845863953232765,9.842658996582031,0.007799999788403511,-0.15519998967647552,0.02029999904334545,0.11699999322398127,-0.149999998838045,-0.007000000079177565
0.0390925258398056,-0.035702336579561234,9.857426643371582,0.017099998891353607,-0.1356000006198883,0.03989999741315842,0.004999999877891834,-0.024999999806340833,-0.15800000464576788
0.03262818232178688,-0.05030696466565132,9.842926979064941,0.007199999876320362,-0.15449999272823334,0.02029999904334545,0.07900000232288394,0.0969999987149939,0.008999999863581633
0.04890875145792961,-0.029161376878619194,9.848166465759277,0.026999998837709427,-0.13459999859333038,0.03009999915957451,-0.08299999855663877,-0.28600000418784144,-0.019000000453128628
0.04772122949361801,-0.04002147540450096,9.848319053649902,0.016300000250339508,-0.14399999380111694,0.029999999329447746,-0.06500000216452881,0.0009999999964224499,0.013000000266153095
0.03620990738272667,-0.045039720833301544,9.855817794799805,0.0064999996684491634,-0.14350000023841858,0.039799999445676804,-0.10199999734224074,0.16500000138989213,-0.06200000165415938
0.03514688089489937,-0.04009808972477913,9.84926700592041,0.00699999975040555,-0.14270000159740448,0.029999999329447746,0.18799999640924894,-0.019999999511567335,0.01400000015835513
0.040912117809057236,-0.03571191430091858,9.854706764221191,0.016699999570846558,-0.13289999961853027,0.039799999445676804,0.09999999922536333,0.2140000052791884,-0.03699999851276524
0.03966713324189186,-0.03374866768717766,9.850493431091309,0.007499999832361937,-0.1525999903678894,0.039799999445676804,-0.004999999877891834,-0.08200000283325337,-0.024000000747902123
0.029937097802758217,-0.02661394700407982,9.85810661315918,0.01730000041425228,-0.13259999454021454,0.029999999329447746,-0.004999999877891834,-0.08200000283325337,-0.024000000747902123
0.03865199163556099,-0.038709454238414764,9.851296424865723,0.0072999997064471245,-0.12239999324083328,0.039799999445676804,-0.006000000186975531,-0.1529999993484144,-0.08700000146050021
0.025503035634756088,-0.042406100779771805,9.855530738830566,-0.0024999999441206455,-0.14139999449253082,0.039799999445676804,0.17400000292100043,0.021999999295971403,-0.04600000004387353
0.04843948781490326,-0.04602613300085068,9.86361312866211,0.026799999177455902,-0.14139999449253082,0.039799999445676804,-0.04500000098543482,0.0429999995335041,0.03899999996469596
0.03622906282544136,-0.043402086943387985,9.837554931640625,0.007199999876320362,-0.14059999585151672,0.02019999921321869,0.27599999359313454,-0.15800000464576788,0.024999999806340833
0.04867890849709511,-0.03592260181903839,9.851929664611816,0.026399999856948853,-0.131400004029274,0.029999999329447746,-0.017999999727163266,-0.006000000186975531,0.024999999806340833
0.027897236868739128,-0.03455311805009842,9.854496002197266,-0.002899999963119626,-0.13079999387264252,0.029999999329447746,0.02600000053230619,-0.07600000181251451,0.04900000055424296
0.03282929211854935,-0.042118798941373825,9.850531578063965,0.006599999964237213,-0.14019998908042908,0.029999999329447746,-0.03400000133744912,0.038000000906257256,-0.05499999823992851
0.024066515266895294,-0.03071282058954239,9.858144760131836,-0.003000000026077032,-0.1298999935388565,0.039799999445676804,0.05499999823992851,0.27500001120996237,-0.1199999937343507
0.04028962552547455,-0.04248271510004997,9.845982551574707,0.01730000041425228,-0.1396999955177307,0.029999999329447746,0.20299999896109608,-0.13600000534979648,0.0030000000934877653
0.0350702665746212,-0.046265553683042526,9.846748352050781,0.007199999876320362,-0.14010000228881836,0.029999999329447746,-0.0030000000934877653,-0.06700000028140622,-0.05600000063342052
0.04023216664791107,-0.03414131700992584,9.837181091308594,0.016699999570846558,-0.12960000336170197,0.02019999921321869,0.10999999647985702,0.10100000161885533,-0.05200000106461238
0.031239543110132217,-0.0399257093667984,9.854093551635742,0.0071000000461936,-0.13910000026226044,0.029999999329447746,-0.24200000559589865,-0.09300000248123906,-0.03100000082707969
0.029534872621297836,-0.031220389530062675,9.857100486755371,0.006899999920278788,-0.12849999964237213,0.039799999445676804,-0.021000000237532696,-0.04200000047506539,0.021999999295971403
0.046102747321128845,-0.03421793133020401,9.861525535583496,0.016599999740719795,-0.12799999117851257,0.039799999445676804,0.006000000186975531,-0.09899999683187131,-0.09500000059811649
0.026317063719034195,-0.037502776831388474,9.835323333740234,-0.0031999999191612005,-0.12709999084472656,0.010400000028312206,-0.05900000114378995,-0.041000001416626686,-0.0009999999964224499
0.03871902823448181,-0.042099643498659134,9.834394454956055,0.016099998727440834,-0.13570000231266022,0.010300000198185444,0.07799999992939192,0.2159999967259592,-0.004999999877891834
0.0331740565598011,-0.029094340279698372,9.843827247619629,0.00699999975040555,-0.12600000202655792,0.020099999383091927,-0.1629999966029081,0.05999999686717535,-0.09200000008774706
0.03394020348787308,-0.038948871195316315,9.837496757507324,0.0071000000461936,-0.1347000002861023,0.020099999383091927,-0.1749999986443858,0.07799999992939192,-0.16400000566650674
0.025273192673921585,-0.037330396473407745,9.848241806030273,-0.002300000051036477,-0.1241999939084053,0.029899999499320984,-0.05300000012305109,0.12799999954207358,-0.11299999699022645
0.04345954954624176,-0.03168007731437683,9.850923538208008,0.017500000074505806,-0.12359999865293503,0.029899999499320984,-0.16500000138989213,-0.12199999852133472,-0.10600000024610218
0.04949294030666351,-0.05302678048610687,9.845455169677734,0.026999998837709427,-0.14259999990463257,0.029899999499320984,0.11599999750059588,0.0269999995907449,0
0.03907337039709091,-0.04952166602015495,9.844717979431152,0.01719999872148037,-0.142099991440773,0.020099999383091927,0.049999999612681666,-0.0269999995907449,0.014999999216793838
0.05204036831855774,-0.038211461156606674,9.839201927185059,0.026799999177455902,-0.12199999392032623,0.020099999383091927,-0.03100000082707969,0.009999999755783667,-0.007000000079177565
0.045623909682035446,-0.03697605058550835,9.857732772827148,0.0071000000461936,-0.12099999934434891,0.010300000198185444,0.04200000047506539,0.013000000266153095,0.06299999737754478
0.055200714617967606,-0.04138138145208359,9.835821151733398,0.016899999231100082,-0.12079999595880508,0.03969999775290489,0.008999999863581633,-0.06899999839828364,-0.09200000008774706
0.035960908979177475,-0.01997721940279007,9.840302467346191,0.006899999920278788,-0.10989999771118164,0.020099999383091927,-0.26600000967885407,0.05099999867112037,-0.06299999737754478
0.03837426379323006,-0.051101841032505035,9.847667694091797,0.016899999231100082,-0.13840000331401825,0.029899999499320984,0.029999998433587676,0.05200000106461238,-0.029999998433587676
0.03037763014435768,-0.04118984565138817,9.83592700958252,0.007199999876320362,-0.12799999117851257,0.020099999383091927,-0.04900000055424296,0.05900000114378995,0.07600000181251451
0.033212363719940186,-0.02738966792821884,9.84415340423584,0.0072999997064471245,-0.10769999772310257,0.020099999383091927,-0.0269999995907449,-0.006000000186975531,0.023000000021936765
0.02806004323065281,-0.03703351318836212,9.836089134216309,-0.0023999998811632395,-0.11679999530315399,0.020099999383091927,0.22299999347008345,-0.05799999875029794,-0.06500000216452881
0.034112587571144104,-0.029965827241539955,9.8534517288208,0.007199999876320362,-0.11719999462366104,0.029899999499320984,-0.01700000066872456,0.2680000011256249,0.019000000453128628
0.05276820436120033,-0.03258029371500015,9.82658863067627,0.027699999511241913,-0.1168999969959259,0.010199999436736107,0.019999999511567335,-0.17400000292100043,0.05200000106461238
0.036794088780879974,-0.034802116453647614,9.840877532958984,0.007499999832361937,-0.11639999598264694,0.019999999552965164,0.07900000232288394,0.03400000133744912,0.031999999885518396
0.041649531573057175,-0.04319139942526817,9.844651222229004,0.01730000041425228,-0.1256999969482422,0.019999999552965164,0.0429999995335041,-0.14600000260429016,0.07600000181251451
0.03574064373970032,-0.026910828426480293,9.85326099395752,0.0071000000461936,-0.10569999366998672,0.02979999966919422,0.1400000015835513,-0.007000000079177565,0.021999999295971403
0.03213018923997879,-0.036813244223594666,9.840580940246582,0.0071000000461936,-0.1152999997138977,0.019999999552965164,-0.04200000047506539,-0.012000000373951061,-0.006000000186975531
0.03874776139855385,-0.05152321979403496,9.845062255859375,0.01679999940097332,-0.13419999182224274,0.02979999966919422,-0.12199999852133472,-0.3409999957576634,-0.03400000133744912
0.03843172639608383,-0.03822103515267372,9.841423988342285,0.01589999906718731,-0.11409999430179596,0.019999999552965164,-0.09399999820462447,0.08200000283325337,0
0.025014620274305344,-0.03500322625041008,9.84713077545166,-0.003399999812245369,-0.11329999566078186,0.02979999966919422,-0.05300000012305109,0,-0.07399999702553048
0.03185245767235756,-0.04279874637722969,9.844066619873047,0.006300000008195639,-0.12229999899864197,0.019999999552965164,0,0.010999999647985701,-0.0269999995907449
0.04698381572961807,-0.03445735201239586,9.839354515075684,0.016099998727440834,-0.11180000007152557,0.019999999552965164,0.05499999823992851,0.023000000021936765,0.07300000130214508
0.03450523316860199,-0.036200329661369324,9.844698905944824,0.006300000008195639,-0.11129999905824661,0.019999999552965164,-0.1189999980109653,-0.4669999905127529,-0.0429999995335041
0.030396783724427223,-0.0541568398475647,9.837794303894043,0.0050999997183680534,-0.13040000200271606,0.019999999552965164,0.0030000000934877653,0.15800000464576788,-0.14699999832767557
0.03532884269952774,-0.02376963384449482,9.850138664245605,0.005499999970197678,-0.1005999967455864,0.02979999966919422,-0.09000000197086964,-0.004999999877891834,0.07399999702553048
0.03028186224400997,-0.047050848603248596,9.831357955932617,0.005399999674409628,-0.11889999359846115,0.010199999436736107,0.04200000047506539,-0.007000000079177565,0.03699999851276524
0.04140053689479828,-0.04618893936276436,9.851325988769531,0.015199999324977398,-0.11840000003576279,0.02979999966919422,0.07600000181251451,0.0859999990670082,-0.1180000022875799
0.026250027120113373,-0.038757335394620895,9.839776039123535,-0.004100000020116568,-0.11800000071525574,0.019999999552965164,0.09500000059811649,0.02899999937514897,0.010999999647985701
0.0373208150267601,-0.030224401503801346,9.850349426269531,0.025200000032782555,-0.10779999941587448,0.019999999552965164,-0.04900000055424296,0.02600000053230619,0.013000000266153095
0.035654451698064804,-0.03418920189142227,9.828686714172363,0.005399999674409628,-0.10729999840259552,0.02979999966919422,-0.09300000248123906,0.24299998797907083,-0.05799999875029794
0.05040273442864418,-0.044963106513023376,9.854141235351562,0.025699999183416367,-0.11559999734163284,0.02979999966919422,0.13600000534979648,-0.017999999727163266,0.10100000161885533
0.045125916600227356,-0.03740701079368591,9.849286079406738,0.015799999237060547,-0.10569999366998672,0.02979999966919422,0.09500000059811649,-0.01400000015835513,-0.049999999612681666
0.03954263776540756,-0.0249954666942358,9.838301658630371,0.015599999576807022,-0.09559999406337738,0.019899999722838402,0.14099999730693671,-0.0969999987149939,0.07000000079177565
0.044800300151109695,-0.05147533863782883,9.837985038757324,0.01529999915510416,-0.12459999322891235,0.019899999722838402,-0.04500000098543482,0.08899999957737763,0.01700000066872456
0.03783796355128288,-0.04463749751448631,9.848453521728516,0.005699999630451202,-0.11409999430179596,0.02969999983906746,0.16500000138989213,0.03100000082707969,-0.0030000000934877653
0.04865017533302307,-0.040912117809057236,9.850224494934082,0.025299999862909317,-0.11400000005960464,0.02969999983906746,-0.035000000395887826,0.008999999863581633,-0.038000000906257256
0.052567094564437866,-0.031009700149297714,9.845168113708496,0.025200000032782555,-0.10369999706745148,0.02969999983906746,0.05600000063342052,0.10100000161885533,0.08299999855663877
0.03391147404909134,-0.03279098495841026,9.84846305847168,0.005799999926239252,-0.10329999774694443,0.02969999983906746,0.01700000066872456,0.10400000212922476,0.04900000055424296
0.051006071269512177,-0.035769373178482056,9.849889755249023,0.025599999353289604,-0.10289999842643738,0.02969999983906746,0.012000000373951061,0.18799999640924894,-0.07099999651516105
0.024612395092844963,-0.03000413440167904,9.85744571685791,-0.0030999998562037945,-0.10260000079870224,0.03949999809265137,-0.0019999999928448997,-0.10600000024610218,0.10900000075647161
0.039207447320222855,-0.02668098360300064,9.863019943237305,0.016099998727440834,-0.09239999949932098,0.03949999809265137,-0.03599999945432653,0.1749999986443858,-0.05799999875029794
0.04187937453389168,-0.056598927825689316,9.84152889251709,0.015799999237060547,-0.11599999666213989,0.019899999722838402,-0.26200000010488605,0.2039999946844815,-0.09800000110848592
0.03521391749382019,-0.03867114707827568,9.858633041381836,0.0066999997943639755,-0.10529999434947968,0.03949999809265137,0.1610000051561373,0.19200000598321698,0.0019999999928448997
0.03855622559785843,-0.03466803953051567,9.845301628112793,0.017099998891353607,-0.09569999575614929,0.02969999983906746,0.2150000010025738,0.1400000015835513,0.0659999978879142
0.05120718851685524,-0.0312778502702713,9.836874961853027,0.027400000020861626,-0.09609999507665634,0.019899999722838402,-0.08799999718388561,-0.08299999855663877,-0.15200000362502902
0.04087381064891815,-0.027839776128530502,9.836835861206055,0.01730000041425228,-0.08559999614953995,0.019899999722838402,0.05999999686717535,0.019999999511567335,0.0019999999928448997
0.03653552010655403,-0.026997018605470657,9.843454360961914,0.007499999832361937,-0.0851999968290329,0.019899999722838402,-0.1400000015835513,-0.024999999806340833,-0.07099999651516105
0.04402458295226097,-0.0392170213162899,9.849286079406738,0.01719999872148037,-0.10399999469518661,0.02969999983906746,-0.08100000043976135,0.1749999986443858,-0.043999998591942806
0.02767697162926197,-0.03748362511396408,9.853423118591309,-0.0017999999690800905,-0.09349999576807022,0.02969999983906746,-0.0859999990670082,0.02600000053230619,-0.02800000031671026
0.03720589354634285,-0.04112280532717705,9.859590530395508,0.007899999618530273,-0.10269999504089355,0.03949999809265137,-0.0039999999856897995,0.05499999823992851,-0.0269999995907449
0.043210551142692566,-0.03881479799747467,9.827317237854004,0.01769999973475933,-0.10179999470710754,0.009999999776482582,-0.22400000253368207,-0.05200000106461238,0.06200000165415938
0.03264733403921127,-0.038211461156606674,9.854151725769043,0.007899999618530273,-0.09109999984502792,0.029600000008940697,0.06800000267489824,0.02899999937514897,0.128999995265459
0.039111677557229996,-0.033020827919244766,9.848807334899902,0.007899999618530273,-0.08100000023841858,0.01979999989271164,0.17599999436777122,-0.10299999973573276,0.007000000079177565
0.042837053537368774,-0.024401701986789703,9.855673789978027,0.01719999872148037,-0.09049999713897705,0.029600000008940697,-0.008999999863581633,-0.03899999996469596,-0.08299999855663877
0.045154642313718796,-0.0441969633102417,9.852417945861816,0.016699999570846558,-0.10009999573230743,0.029600000008940697,0.07099999651516105,0.008999999863581633,0.024000000747902123
0.029486987739801407,-0.0446758046746254,9.851373672485352,0.006799999624490738,-0.0997999981045723,0.029600000008940697,-0.07999999804626934,-0.13799999679656727,-0.13799999679656727
0.030722396448254585,-0.04426399990916252,9.844182014465332,0.006399999838322401,-0.0989999994635582,0.01979999989271164,0.15399999507179982,-0.09999999922536333,-0.03400000133744912
0.03595133125782013,-0.026834214106202126,9.839431762695312,0.006099999882280827,-0.07930000126361847,0.01979999989271164,-0.04200000047506539,0.021000000237532696,0.0030000000934877653
0.041218578815460205,-0.04824795201420784,9.852073669433594,0.01589999906718731,-0.10809999704360962,0.029600000008940697,-0.057000003026912535,0.10400000212922476,0.031999999885518396
0.03410300984978676,-0.03350924700498581,9.848012924194336,0.006300000008195639,-0.08799999952316284,0.029600000008940697,0.07600000181251451,-0.035000000395887826,-0.08299999855663877
0.04772122949361801,-0.04392881318926811,9.846710205078125,0.01599999889731407,-0.09749999642372131,0.029600000008940697,-0.0019999999928448997,0.09200000008774706,-0.02600000053230619
0.039944861084222794,-0.03922659903764725,9.84495735168457,0.016099998727440834,-0.09709999710321426,0.029600000008940697,-0.11699999322398127,-0.30400000725005805,0.09500000059811649
0.04154418781399727,-0.026642676442861557,9.84170150756836,0.01549999974668026,-0.07689999788999557,0.01979999989271164,-0.019999999511567335,-0.013000000266153095,-0.023000000021936765
0.03687070310115814,-0.03474465385079384,9.853930473327637,0.00559999980032444,-0.08630000054836273,0.029600000008940697,-0.07199999890865307,0.007000000079177565,-0.02800000031671026
0.030550014227628708,-0.03805823251605034,9.854841232299805,0.00559999980032444,-0.08579999953508377,0.039400000125169754,-0.0269999995907449,0.04500000098543482,-0.07699999753589991
0.03788584843277931,-0.031076738610863686,9.858834266662598,0.005699999630451202,-0.08540000021457672,0.039400000125169754,0.03400000133744912,0.09000000197086964,-0.014999999216793838
0.054539911448955536,-0.04312435910105705,9.856104850769043,0.025499999523162842,-0.09489999711513519,0.039400000125169754,0.12799999954207358,0.05200000106461238,0.03100000082707969
0.050632577389478683,-0.044560883194208145,9.839298248291016,0.02539999969303608,-0.09470000118017197,0.01979999989271164,-0.0659999978879142,-0.09200000008774706,-0.008999999863581633
0.029917944222688675,-0.03728250786662102,9.848969459533691,0.005499999970197678,-0.08429999649524689,0.029600000008940697,-0.1199999937343507,0.14300000209392072,-0.038000000906257256
0.04783615097403526,-0.04441722854971886,9.851354598999023,0.015699999406933784,-0.093299999833107,0.029600000008940697,-0.0269999995907449,-0.0030000000934877653,-0.021000000237532696
0.047213658690452576,-0.03464888781309128,9.84011173248291,0.015599999576807022,-0.08289999514818192,0.01979999989271164,-0.07199999890865307,0.006000000186975531,-0.0030000000934877653
0.044867340475320816,-0.054616525769233704,9.829376220703125,0.015399999916553497,-0.10130000114440918,0.009999999776482582,0,-0.1529999993484144,-0.0269999995907449
0.03463931009173393,-0.033633746206760406,9.843731880187988,0.005200000014156103,-0.0811999961733818,0.01979999989271164,0.004999999877891834,-0.1529999993484144,0.03699999851276524
0.03801034390926361,-0.05086242035031319,9.838272094726562,0.0044999998062849045,-0.09589999914169312,0.019700000062584877,-0.021999999295971403,-0.21999999295971404,-0.07300000130214508
0.04483860731124878,-0.03725377470254898,9.833111763000488,0.013899999670684338,-0.07609999924898148,0.00989999994635582,0.0009999999964224499,-0.041000001416626686,0.008999999863581633
0.036171600222587585,-0.03535757213830948,9.844928741455078,0.003999999724328518,-0.08540000021457672,0.019700000062584877,0.024999999806340833,0.004999999877891834,0.08499999667351618
0.04717535153031349,-0.03754108399152756,9.84522533416748,0.0038999998942017555,-0.07519999891519547,0.019700000062584877,0.22299999347008345,0.010999999647985701,-0.007000000079177565
0.04296155646443367,-0.03704308718442917,9.84005355834961,0.013799999840557575,-0.07479999959468842,0.029500000178813934,0.13000000432905762,0.10499999785261017,-0.031999999885518396
0.030224401503801346,-0.04658158868551254,9.858986854553223,0.004100000020116568,-0.08489999920129776,0.03929999843239784,0.0030000000934877653,-0.012000000373951061,-0.05900000114378995
0.048065993934869766,-0.044991835951805115,9.844478607177734,0.023599999025464058,-0.08429999649524689,0.019700000062584877,0,0.10199999734224074,0.029999998433587676
0.04043327644467354,-0.02648944780230522,9.855884552001953,0.0139999995008111,-0.06449999660253525,0.03929999843239784,0.02899999937514897,-0.11099999887334903,0.11299999699022645
0.03184288367629051,-0.03191949799656868,9.849860191345215,0.0038999998942017555,-0.07400000095367432,0.029500000178813934,0.006000000186975531,-0.014999999216793838,-0.14499999354069154
0.02703532576560974,-0.04069185256958008,9.852169036865234,-0.0058999997563660145,-0.08349999785423279,0.029500000178813934,0.10199999734224074,-0.07900000232288394,0.0329999989439571
0.04030878096818924,-0.041601650416851044,9.843147277832031,0.013399999588727951,-0.08320000022649765,0.019700000062584877,0.04200000047506539,0.014999999216793838,0.05300000012305109
0.03876691311597824,-0.04186980053782463,9.852322578430176,0.012899999506771564,-0.0803999975323677,0.029500000178813934,0.06200000165415938,0.10199999734224074,0.14099999730693671
0.04620809108018875,-0.0388626828789711,9.849037170410156,0.012799999676644802,-0.07779999822378159,0.029500000178813934,0.0039999999856897995,-0.046999999102312236,-0.04200000047506539
0.03772304207086563,-0.038948871195316315,9.855683326721191,0.00279999990016222,-0.07569999992847443,0.03929999843239784,0.16699999283666295,0.06899999839828364,-0.04600000004387353
0.02682463638484478,-0.03793372958898544,9.854792594909668,-0.006599999964237213,-0.06469999998807907,0.03929999843239784,0.1390000058601659,-0.07699999753589991,0.01700000066872456
0.032733526080846786,-0.03238875791430473,9.83792781829834,0.00279999990016222,-0.062199998646974564,0.019700000062584877,0.03599999945432653,-0.13600000534979648,0.06200000165415938
0.05407065153121948,-0.03544376417994499,9.851402282714844,0.021399999037384987,-0.06039999797940254,0.029500000178813934,-0.04200000047506539,0.021000000237532696,0.0659999978879142
0.03820187970995903,-0.039513904601335526,9.83220100402832,0.0016999999061226845,-0.06579999625682831,0.009800000116229057,0.029999998433587676,0.06399999977103679,0.1610000051561373
0.0368419773876667,-0.031143775209784508,9.84872055053711,0.0017999999690800905,-0.054499998688697815,0.029399998486042023,-0.009999999755783667,-0.08200000283325337,-0.14499999354069154
0.03895844891667366,-0.03229299187660217,9.846700668334961,0.011099999770522118,-0.05289999768137932,0.029399998486042023,0.05799999875029794,0.1400000015835513,-0.08499999667351618
0.02668098360300064,-0.03483084589242935,9.85936164855957,-0.007899999618530273,-0.051899999380111694,0.03920000046491623,0.09399999820462447,0.13799999679656727,0.14699999832767557
0.033308133482933044,-0.0322355292737484,9.86312484741211,0.002099999925121665,-0.05119999870657921,0.04899999871850014,0.12100000279794933,-0.26699999206202624,0.0039999999856897995
0.033308133482933044,-0.0322355292737484,9.86312484741211,0.001999999862164259,-0.05040000006556511,0.03920000046491623,0.12100000279794933,-0.26699999206202624,0.0039999999856897995
0.0321110337972641,-0.034725502133369446,9.841758728027344,0.001500000013038516,-0.050599999725818634,0.019600000232458115,0.2570000081477458,-0.34899998822517303,-0.03999999902313467
0.025081656873226166,-0.04228160157799721,9.85167121887207,-0.009099999442696571,-0.06079999729990959,0.029399998486042023,-0.02600000053230619,-0.10499999785261017,-0.013000000266153095
0.025081656873226166,-0.04228160157799721,9.85167121887207,-0.009099999442696571,-0.06079999729990959,0.029399998486042023,-0.02600000053230619,-0.10499999785261017,-0.013000000266153095
0.041553765535354614,-0.04604528844356537,9.835648536682129,0.009999999776482582,-0.06019999831914902,0.019600000232458115,-0.14699999832767557,0.2039999946844815,-0.16800000190026157
0.04437892138957977,-0.040768466889858246,9.847140312194824,0.010699999518692493,-0.059699997305870056,0.029399998486042023,-0.04500000098543482,0.07300000130214508,-0.06099999926066736
0.03640144318342209,-0.04428315535187721,9.84931468963623,0.0010999999940395355,-0.05929999798536301,0.029399998486042023,-0.26900001018922354,-0.05900000114378995,-0.0019999999928448997
0.04567179083824158,-0.027006596326828003,9.84473705291748,0.010900000110268593,-0.039000000804662704,0.019600000232458115,-0.015999999942759198,0.05600000063342052,-0.024999999806340833
0.031220389530062675,-0.03466803953051567,9.85423755645752,0.0011999999405816197,-0.04859999939799309,0.029399998486042023,0.11299999699022645,-0.02800000031671026,0.0009999999964224499
0.061339445412158966,-0.03916914016008377,9.852503776550293,0.030499998480081558,-0.05849999934434891,0.029399998486042023,-0.048000001495804245,-0.019000000453128628,0.01400000015835513
0.023137565702199936,-0.037636853754520416,9.845293045043945,-0.008700000122189522,-0.04839999973773956,0.029399998486042023,0.007000000079177565,-0.021000000237532696,-0.0749999994190225
0.03318363428115845,-0.03430412337183952,9.854122161865234,0.0009999999310821295,-0.04820000007748604,0.029399998486042023,-0.03999999902313467,0.013000000266153095,-0.019000000453128628
0.04683058708906174,-0.028586769476532936,9.84904670715332,0.010799999348819256,-0.03819999843835831,0.029399998486042023,-0.017999999727163266,-0.03400000133744912,-0.04200000047506539
0.045039720833301544,-0.0345914252102375,9.839977264404297,0.010599999688565731,-0.04769999906420708,0.019600000232458115,0.17700000343136985,0.03699999851276524,-0.03400000133744912
0.036985624581575394,-0.02928587608039379,9.83989143371582,0.0008999999845400453,-0.0478999987244606,0.019600000232458115,0.02800000031671026,-0.13300000483942703,-0.08400000095013078
0.026499025523662567,-0.04350743442773819,9.853250503540039,-0.009099999442696571,-0.0575999990105629,0.029399998486042023,0.0030000000934877653,-0.02800000031671026,0.038000000906257256
0.03593217954039574,-0.04048116132616997,9.838043212890625,0.020099999383091927,-0.05739999935030937,0.03920000046491623,0.010999999647985701,0.07000000079177565,0.038000000906257256
0.04678269848227501,-0.03523306921124458,9.836309432983398,0.00139999995008111,-0.057499997317790985,0.019600000232458115,0.043999998591942806,-0.2729999930827651,0.07399999702553048
0.03492661193013191,-0.045010991394519806,9.856449127197266,0.011399999260902405,-0.04749999940395355,0.019600000232458115,0.12400000330831876,0.05600000063342052,0.05099999867112037
0.04469495639204979,-0.050249505788087845,9.854313850402832,0.010799999348819256,-0.06719999760389328,0.029399998486042023,0.1180000022875799,-0.035000000395887826,0.12100000279794933
0.04397669434547424,-0.02561795897781849,9.844095230102539,0.010699999518692493,-0.03790000081062317,0.019600000232458115,-0.07300000130214508,0.03899999996469596,-0.09399999820462447
0.027791893109679222,-0.041620802134275436,9.854591369628906,-0.008700000122189522,-0.057099997997283936,0.03920000046491623,0.03899999996469596,-0.021999999295971403,-0.1199999937343507
0.041410114616155624,-0.04457045719027519,9.850435256958008,0.010699999518692493,-0.05700000002980232,0.029399998486042023,-0.0659999978879142,-0.01700000066872456,0.10900000075647161
0.0355491079390049,-0.023166295140981674,9.837057113647461,0.0007999999797903001,-0.03700000047683716,0.019600000232458115,0.08200000283325337,-0.046999999102312236,0.01700000066872456
0.0355491079390049,-0.023166295140981674,9.837057113647461,0.0007999999797903001,-0.03700000047683716,0.019600000232458115,0.08200000283325337,-0.046999999102312236,0.01700000066872456
0.026192566379904747,-0.03334644436836243,9.85505199432373,0.000699999975040555,-0.04690000042319298,0.03920000046491623,0.1199999937343507,0.26300000916848465,-0.041000001416626686
0.043545741587877274,-0.03984909504652023,9.842151641845703,0.010799999348819256,-0.0559999980032444,0.019600000232458115,0.10299999973573276,-0.05600000063342052,-0.009999999755783667
0.03490746021270752,-0.033164482563734055,9.856200218200684,0.0007999999797903001,-0.046299997717142105,0.03920000046491623,-0.010999999647985701,0.013000000266153095,-0.0019999999928448997
0.03919786959886551,-0.04358404874801636,9.849994659423828,0.010599999688565731,-0.05590000003576279,0.029399998486042023,-0.08100000043976135,-0.0659999978879142,0.05300000012305109
0.02990836650133133,-0.044206537306308746,9.860051155090332,0.0005999999702908099,-0.05549999698996544,0.03920000046491623,0.35899999881987993,-0.19799999366374263,-0.15200000362502902
0.0492822490632534,-0.04213795065879822,9.857358932495117,0.019700000062584877,-0.05649999901652336,0.03920000046491623,0.05099999867112037,-0.05799999875029794,0.010999999647985701
0.03971501812338829,-0.036765363067388535,9.855424880981445,0.00969999935477972,-0.04659999907016754,0.03920000046491623,-0.05999999686717535,0.0030000000934877653,-0.08299999855663877
0.04888959974050522,-0.03243664652109146,9.85824966430664,0.019500000402331352,-0.046299997717142105,0.03920000046491623,0.023000000021936765,-0.03100000082707969,-0.03899999996469596
0.03118208236992359,-0.04033751040697098,9.862378120422363,-0.00009999999747378752,-0.0559999980032444,0.03920000046491623,-0.05099999867112037,0.09500000059811649,-0.05499999823992851
0.03924575448036194,-0.03666001558303833,9.852226257324219,0.009800000116229057,-0.045899998396635056,0.029399998486042023,-0.02800000031671026,0.07900000232288394,-0.04200000047506539
0.040059782564640045,-0.05111141875386238,9.855079650878906,0.009999999776482582,-0.06520000100135803,0.03920000046491623,-0.06899999839828364,-0.09899999683187131,0.007000000079177565
