Accelerometer_Gx,Accelerometer_Gy,Accelerometer_Gz,Accelerometer_X,Accelerometer_Y,Accelerometer_Z,Gyroscope_Z,Gyroscope_X,Gyroscope_Y
0.04107492417097092,-0.037426162511110306,9.869579315185547,0.001999999862164259,0.009800000116229057,0.04910000041127205,0.6089999968832882,7.064999974620388,-0.257999990530918
0.03458184748888016,-0.05929001420736313,9.866897583007812,0.0013000000035390258,-0.012600000016391277,0.04910000041127205,-0.7200000157669572,6.015000116156205,-0.1180000022875799
0.030147787183523178,-0.06294835358858109,9.866897583007812,0.0013000000035390258,-0.012600000016391277,0.04910000041127205,0.46900000863995017,-2.2439999548695098,0.23099998593759313
0.03834553435444832,-0.052097827196121216,9.893627166748047,0.01640000008046627,0.001999999862164259,0.07849999517202377,-0.39299998681711584,-1.842999975584884,0.0539999991814898
0.028088774532079697,-0.06130113825201988,9.886846542358398,-0.009099999442696571,-0.00559999980032444,0.06870000064373016,-0.3459999877148036,3.3410000525598424,-0.04500000098543482
0.03615244850516319,-0.055152833461761475,9.87411880493164,0.008599999360740185,0.005499999970197678,0.05889999866485596,0.44699999600376555,-2.483999995699064,0.09999999922536333
0.03571191430091858,-0.04699338972568512,9.8797025680542,0.0010999999940395355,0.013799999840557575,0.05889999866485596,0.31699999167470794,2.3899999441335864,0
0.04212837293744087,-0.04421611875295639,9.880132675170898,0.016300000250339508,0.012299999594688416,0.05889999866485596,-0.30400000725005805,-2.4609999739992805,0.17100000241063099
0.042406100779771805,-0.03959051892161369,9.865575790405273,0.008599999360740185,0.012199999764561653,0.04910000041127205,0.14799999405106096,1.6650000164507686,0.07699999753589991
0.03936067596077919,-0.050795383751392365,9.875450134277344,0.012600000016391277,0.0013000000035390258,0.05889999866485596,-0.24599998848944027,-0.6590000231763964,0.043999998591942806
0.050986919552087784,-0.057221420109272,9.872193336486816,0.019600000232458115,0.001500000013038516,0.04910000041127205,0.13400000056281244,-2.0049998964231275,0.031999999885518396
0.03052128478884697,-0.0509486123919487,9.87455940246582,-0.006099999882280827,0.000699999975040555,0.05889999866485596,0.6099999792664604,1.3039999728232647,0.11699999322398127
0.04907156154513359,-0.05027823522686958,9.865432739257812,0.016099998727440834,-0.0010999999940395355,0.04910000041127205,0.07399999702553048,1.229000013424882,-0.007000000079177565
0.03417004644870758,-0.04012681916356087,9.879395484924316,-0.0005999999702908099,0.008100000210106373,0.05889999866485596,-0.4519999879609058,0.8720000060517729,-0.06500000216452881
0.04358404874801636,-0.056694693863391876,9.877862930297852,0.010900000110268593,-0.0005999999702908099,0.05889999866485596,0.03999999902313467,-2.2209999331697263,0.12700000381868817
0.04279874637722969,-0.05045061931014061,9.885313987731934,0.004299999680370092,-0.0008999999845400453,0.06870000064373016,-0.3770000018820965,-1.653999996792463,-0.08100000043976135
0.041841067373752594,-0.04289451614022255,9.868669509887695,-0.0004999999655410647,0.009599999524652958,0.04910000041127205,0.11299999699022645,-2.706999909127868,0.023000000021936765
0.03242706507444382,-0.04758715257048607,9.882373809814453,-0.01769999973475933,0.008999999612569809,0.05889999866485596,0.0539999991814898,-1.6379999584965907,-0.004999999877891834
0.0453844889998436,-0.051408298313617706,9.874434471130371,-0.012199999764561653,-0.0010999999940395355,0.05900000035762787,-0.09000000197086964,-1.8730000874102841,-0.0269999995907449
0.03643017262220383,-0.05317043140530586,9.875795364379883,-0.026599999517202377,-0.0009999999310821295,0.05900000035762787,-0.2259999939804529,-2.2319999528280317,-0.019999999511567335
0.039140406996011734,-0.053543925285339355,9.881933212280273,-0.022299999371170998,-0.0004999999655410647,0.05900000035762787,-0.1620000008795227,-0.7500000208706514,0.11299999699022645
0.04048116132616997,-0.042099643498659134,9.881292343139648,-0.023599999025464058,0.009499999694526196,0.05900000035762787,-0.6009999777353522,-0.25599999908414717,0.06200000165415938
0.042358215898275375,-0.049445051699876785,9.886109352111816,-0.023499999195337296,0.0011999999405816197,0.06879999488592148,0.13600000534979648,1.5479999431855078,0.007999999971379599
0.04969405010342598,-0.05660850554704666,9.882862091064453,-0.008799999952316284,0.000699999975040555,0.05900000035762787,0.4759999920438612,-0.03899999996469596,0.10199999734224074
0.040366239845752716,-0.05002924054861069,9.87926197052002,-0.017999999225139618,-0.0007999999797903001,0.05900000035762787,-0.13000000432905762,-0.6510000040284603,0.049999999612681666
0.040059782564640045,-0.04111323133111,9.862042427062988,-0.03830000013113022,-0.0004999999655410647,0.039400000125169754,0.16500000138989213,0.9049999583049837,-0.05099999867112037
0.029678523540496826,-0.06805279105901718,9.86610221862793,-0.015199999324977398,0.009200000204145908,0.039400000125169754,0.16500000138989213,0.9049999583049837,-0.05099999867112037
0.0331740565598011,-0.05032612010836601,9.87380313873291,-0.024399999529123306,-0.00029999998514540493,0.05900000035762787,0.1749999986443858,0.9690000047667668,-0.09500000059811649
0.047548845410346985,-0.049512092024087906,9.875354766845703,-0.011299999430775642,-0.0007999999797903001,0.05900000035762787,0.19000000119623298,-1.0220000315702444,-0.0329999989439571
0.03052128478884697,-0.04602613300085068,9.865059852600098,-0.02319999970495701,0.00839999970048666,0.04910000041127205,0.31099999065396905,0.9970000451041168,0.057000003026912535
0.03615244850516319,-0.05271074175834656,9.879979133605957,-0.01979999989271164,-0.002199999988079071,0.05889999866485596,-0.29800000622931916,-0.2499999980634083,0
0.04837245121598244,-0.050699613988399506,9.871925354003906,-0.00039999998989515007,-0.00139999995008111,0.04910000041127205,0.26900001018922354,0,0.01400000015835513
0.038450878113508224,-0.045815445482730865,9.877326965332031,-0.00969999935477972,0.007599999662488699,0.05889999866485596,-0.046999999102312236,-0.1509999945614304,0.035000000395887826
0.03723462298512459,-0.051006071269512177,9.886434555053711,-0.015599999576807022,-0.0015999999595806003,0.06870000064373016,-0.15999999609253868,-0.7720000068264096,-0.06500000216452881
0.04438849911093712,-0.05268201604485512,9.873659133911133,-0.008200000040233135,-0.0013000000035390258,0.04910000041127205,0.42899999294154895,-0.9049999583049837,0.06299999737754478
0.03854664787650108,-0.04752011597156525,9.876838684082031,-0.010999999940395355,0.0071000000461936,0.05889999866485596,0.2159999967259592,0.1620000008795227,0.0659999978879142
0.038163572549819946,-0.056838348507881165,9.885371208190918,-0.020499998703598976,-0.0032999999821186066,0.06870000064373016,-0.21700000578955783,0.4709999734062945,-0.007000000079177565
0.04322013258934021,-0.042999863624572754,9.874588012695312,-0.009399999864399433,0.006899999920278788,0.05889999866485596,0.2360000045751598,1.3449999975852647,-0.017999999727163266
0.030770281329751015,-0.0571160763502121,9.866687774658203,-0.014999999664723873,-0.003599999938160181,0.04910000041127205,0.07300000130214508,-0.1620000008795227,-0.10199999734224074
0.04227202758193016,-0.05766195431351662,9.868268013000488,-0.003999999724328518,-0.00989999994635582,0.04910000041127205,-0.3510000063523703,1.0549999838234552,0.010999999647985701
0.040557775646448135,-0.04094085097312927,9.875018119812012,-0.011099999770522118,-0.009800000116229057,0.04910000041127205,-0.4519999879609058,0.9630000037460279,-0.08899999957737763
0.03561614453792572,-0.05222232639789581,9.866064071655273,-0.010499999858438969,-0.00009999999747378752,0.04910000041127205,0.05999999686717535,-0.19699999794035722,-0.014999999216793838
0.05056554079055786,-0.06887639313936234,9.862741470336914,0.005799999926239252,-0.013700000010430813,0.03929999843239784,-0.021999999295971403,-0.17599999436777122,0.017999999727163266
0.041055772453546524,-0.0607839934527874,9.881138801574707,-0.0031999999191612005,-0.003000000026077032,0.05900000035762787,-0.09399999820462447,-0.19600000221697184,-0.09000000197086964
0.052193596959114075,-0.05000050738453865,9.877777099609375,0.006199999712407589,0.004999999888241291,0.05889999866485596,0.1939999974299878,0.733000000191607,0.01400000015835513
0.041007883846759796,-0.04599740356206894,9.876340866088867,-0.0013000000035390258,0.012799999676644802,0.05889999866485596,-0.3339999856733259,-0.14799999405106096,0.01700000066872456
0.04203260317444801,-0.05448245257139206,9.87669563293457,-0.001500000013038516,0.00279999990016222,0.05889999866485596,0.1070000026395942,-0.40299999741182274,0.05200000106461238
0.04203260317444801,-0.05448245257139206,9.87669563293457,-0.001500000013038516,0.00279999990016222,0.05889999866485596,0.1070000026395942,-0.40299999741182274,0.05200000106461238
0.035702336579561234,-0.051293376833200455,9.880668640136719,-0.012399999424815178,0.0015999999595806003,0.05889999866485596,0.22400000253368207,-0.13400000056281244,-0.18199999538851008
0.04829583689570427,-0.04504929855465889,9.87690544128418,0.006899999920278788,0.010199999436736107,0.05889999866485596,-0.4459999869401669,0.5209999996994026,0.03999999902313467
0.04543237388134003,-0.06481582671403885,9.87930965423584,-0.010999999940395355,-0.008499999530613422,0.05889999866485596,0.05200000106461238,-0.05799999875029794,-0.009999999755783667
0.034419044852256775,-0.04663905128836632,9.875659942626953,-0.0009999999310821295,-0.006599999964237213,0.05889999866485596,-0.43499999396228783,-0.5279999831033136,-0.02800000031671026
0.033825282007455826,-0.05996038764715195,9.875612258911133,-0.010199999436736107,-0.005799999926239252,0.05889999866485596,0.007999999971379599,-0.5819999922899634,0.02800000031671026
0.03905421867966652,-0.056388236582279205,9.871360778808594,-0.0016999999061226845,0.003399999812245369,0.04910000041127205,-0.021000000237532696,0.09800000110848592,-0.14699999832767557
0.03728250786662102,-0.05113057419657707,9.849209785461426,-0.0071000000461936,0.002099999925121665,0.029500000178813934,0.038000000906257256,-0.14799999405106096,0.07900000232288394
0.038498762995004654,-0.06177997961640358,9.882258415222168,0.0017999999690800905,-0.006000000052154064,0.05889999866485596,0.007000000079177565,0.9930000088497223,-0.07399999702553048
0.0432392843067646,-0.05147533863782883,9.861419677734375,0.003700000001117587,0.0032999999821186066,0.03929999843239784,-0.24899998899980968,0.29899998861249133,-0.05799999875029794
0.03869029879570007,-0.046265553683042526,9.87228012084961,0.003999999724328518,0.013499999418854713,0.04910000041127205,-0.04600000004387353,0.8609999863934674,0.043999998591942806
0.051082685589790344,-0.0322355292737484,9.884413719177246,0.01529999915510416,0.023000000044703484,0.06870000064373016,0.1629999966029081,-0.8489999843519896,-0.2639999915516568
0.031153352931141853,-0.05040273442864418,9.872931480407715,-0.006899999920278788,0.002699999837204814,0.04910000041127205,0.5480000042927274,-0.25599999908414717,0.12700000381868817
0.043306320905685425,-0.04770207777619362,9.881043434143066,0.0017999999690800905,0.010699999518692493,0.04910000041127205,-0.03699999851276524,1.3589999643930868,-0.021999999295971403
0.029094340279698372,-0.03773261979222298,9.885984420776367,0.00039999998989515007,0.011500000022351742,0.05889999866485596,-0.03699999851276524,1.3589999643930868,-0.021999999295971403
0.03430412337183952,-0.0539078451693058,9.884039878845215,-0.0016999999061226845,0.0018999999156221747,0.06870000064373016,0.1079999983629796,1.793999985035801,-0.07600000181251451
0.03529053181409836,-0.04161122441291809,9.869301795959473,0.003000000026077032,0.01119999960064888,0.04910000041127205,0.03999999902313467,0.20999999570522035,0.10600000024610218
0.038948871195316315,-0.05061342194676399,9.87592887878418,0.013299999758601189,0.0011999999405816197,0.05889999866485596,-0.3339999856733259,-0.021999999295971403,0.0039999999856897995
0.05121676251292229,-0.054616525769233704,9.868124008178711,0.02290000021457672,0.001999999862164259,0.04910000041127205,0.3879999948599756,-1.6869999490456737,0.18400000017549412
0.034160468727350235,-0.05302678048610687,9.873955726623535,-0.0013000000035390258,0.0007999999797903001,0.05889999866485596,0.019000000453128628,-1.2609999832949206,0.10499999785261017
0.042166680097579956,-0.04966532066464424,9.871284484863281,0.004799999762326479,0.000699999975040555,0.04910000041127205,-0.43699998540905866,0.9649999685123724,-0.009999999755783667
0.030894778668880463,-0.05851428955793381,9.873189926147461,-0.002300000051036477,-0.007899999618530273,0.04910000041127205,0.03100000082707969,-0.9670000400004224,0.0269999995907449
0.03270479664206505,-0.059989117085933685,9.874894142150879,-0.004999999888241291,-0.007899999618530273,0.05889999866485596,0.2140000052791884,-1.7430000297203736,0.008999999863581633
0.04188895598053932,-0.03768473491072655,9.854371070861816,0,0.02070000022649765,0.029500000178813934,-0.3409999957576634,0.19699999794035722,-0.03599999945432653
0.038948871195316315,-0.05244259163737297,9.872711181640625,0.0004999999655410647,0.002099999925121665,0.04910000041127205,-0.515999981061836,-0.4709999734062945,-0.1419999930303221
0.03714843466877937,-0.040366239845752716,9.866687774658203,-0.010300000198185444,0.013100000098347664,0.04910000041127205,-0.44099999498302667,-1.3630000006474812,-0.021000000237532696
0.05075707659125328,-0.055181559175252914,9.881023406982422,0.005499999970197678,0.004399999976158142,0.05889999866485596,-0.2780000117203318,1.6669999812171128,0.0009999999964224499
0.02151908539235592,-0.05446329712867737,9.874242782592773,-0.019199999049305916,0.0050999997183680534,0.05889999866485596,-0.6759999904945878,-1.4950000231037361,-0.11500000177721047
0.03495534509420395,-0.0517817959189415,9.88503646850586,-0.013399999588727951,0.006899999920278788,0.06879999488592148,0.14499999354069154,0.3600000078834786,-0.0030000000934877653
0.0404045470058918,-0.056838348507881165,9.869626998901367,-0.0026000000070780516,0.006399999838322401,0.04910000041127205,0.38999998630674637,1.3020000080569205,-0.02600000053230619
0.03938940912485123,-0.046629469841718674,9.87810230255127,0.0009999999310821295,0.014999999664723873,0.05889999866485596,-0.2549999900205486,-1.0019999570199776,0.019999999511567335
0.04228160157799721,-0.038019925355911255,9.877030372619629,-0.0015999999595806003,0.025299999862909317,0.05889999866485596,-0.15699999558216926,-1.19999999070436,0.038000000906257256
0.028682537376880646,-0.056340355426073074,9.876263618469238,-0.024399999529123306,0.006000000052154064,0.05900000035762787,-0.08899999957737763,2.542000041140108,0.05300000012305109
0.04400542750954628,-0.05141787603497505,9.873285293579102,0.002099999925121665,0.006199999712407589,0.04910000041127205,-0.13300000483942703,-0.5979999772249827,-0.041000001416626686
0.037742193788290024,-0.05471229553222656,9.873189926147461,-0.009099999442696571,0.006399999838322401,0.04910000041127205,-0.5560000234406636,-2.226000058528999,0.02899999937514897
0.03860410675406456,-0.052097827196121216,9.85925579071045,-0.0052999998442828655,0.007799999788403511,0.039400000125169754,-0.7660000058056707,-0.04200000047506539,-0.038000000906257256
0.038968026638031006,-0.06021896004676819,9.867453575134277,-0.005399999674409628,0,0.04919999837875366,-0.2519999895101791,-0.2379999960219306,-0.007999999971379599
0.03344221040606499,-0.0590122826397419,9.870633125305176,-0.015699999406933784,0.000699999975040555,0.04919999837875366,0.363000008393848,-1.1860000238965378,-0.0030000000934877653
0.03961925208568573,-0.0430094376206398,9.874090194702148,-0.009099999442696571,0.019199999049305916,0.05900000035762787,-0.2140000052791884,0.035000000395887826,0.05900000114378995
0.03000413440167904,-0.052241481840610504,9.873505592346191,-0.013599999248981476,0.014299999922513962,0.04910000041127205,0.8290000165234287,-1.2069999741082709,0.031999999885518396
0.03966713324189186,-0.04592078924179077,9.880152702331543,-0.017999999225139618,0.003499999875202775,0.04910000041127205,-0.35499998924591186,-3.251999912910226,0
0.0364876314997673,-0.04298070818185806,9.885418891906738,-0.010900000110268593,0.014800000004470348,0.05900000035762787,-1.018999977699022,1.877999999326145,0.16899999762364695
0.04215710610151291,-0.054875101894140244,9.875325202941895,-0.01549999974668026,0.009800000116229057,0.05900000035762787,-0.669999989473849,3.0939999216046714,-0.09200000008774706
0.03485957533121109,-0.04916732758283615,9.877135276794434,-0.01549999974668026,0.009800000116229057,0.05900000035762787,1.0960000085854549,0.9269999976215948,0.049999999612681666
0.03556825965642929,-0.050249505788087845,9.86620807647705,-0.013899999670684338,0.00969999935477972,0.04919999837875366,-0.3849999943496062,-0.551000004803097,-0.10299999973573276
0.029870059341192245,-0.04670608416199684,9.867558479309082,-0.01549999974668026,0.020600000396370888,0.04919999837875366,-1.319000028735965,1.2270000486585377,-0.12299999424472013
0.040203433483839035,-0.051791369915008545,9.874061584472656,-0.002300000051036477,0.014399999752640724,0.05900000035762787,1.1459999815177102,-1.5750000011396856,0.007000000079177565
0.05338112264871597,-0.04874594509601593,9.861764907836914,0.003000000026077032,0.011299999430775642,0.039400000125169754,-0.5189999815722054,1.1699999856006655,-0.08200000283325337
0.03282929211854935,-0.05765237659215927,9.880793571472168,-0.012899999506771564,0.003000000026077032,0.05900000035762787,0.6369999838597853,1.841999993201712,-0.017999999727163266
0.036966472864151,-0.06155013665556908,9.874079704284668,-0.00839999970048666,0.001500000013038516,0.05900000035762787,-0.7829999731238623,-4.190000036911832,-0.02600000053230619
0.04048116132616997,-0.06051584333181381,9.875239372253418,-0.009999999776482582,0.003599999938160181,0.05900000035762787,0.851000002479187,1.313000027715226,0.12499999903170415
0.04945463314652443,-0.054233454167842865,9.866543769836426,0.0032999999821186066,0.010999999940395355,0.04919999837875366,-0.08899999957737763,1.77400001720724,-0.03400000133744912
0.044848185032606125,-0.06635769456624985,9.873620986938477,-0.001500000013038516,0.00139999995008111,0.04919999837875366,-0.2639999915516568,-2.5699999747557523,0.04900000055424296
0.0334039032459259,-0.05337154492735863,9.875986099243164,-0.019199999049305916,0.012000000104308128,0.05900000035762787,0.969999987149939,2.5089999821651916,-0.038000000906257256
0.03214934095740318,-0.04932055622339249,9.871599197387695,-0.013100000098347664,0.009599999524652958,0.04919999837875366,-0.32700000226941484,2.178000050363088,0.02899999937514897
0.0355491079390049,-0.05352477356791496,9.877498626708984,-0.00699999975040555,0.010400000028312206,0.05900000035762787,-0.4229999919208101,-3.4439999455738697,0.15399999507179982
0.04421611875295639,-0.053754616528749466,9.886635780334473,-0.006599999964237213,0.011500000022351742,0.06879999488592148,0.3019999891228608,-3.4390000336580084,0.12799999954207358
0.03305913507938385,-0.04731900244951248,9.870776176452637,-0.025699999183416367,0.020399998873472214,0.04919999837875366,1.4580000345961308,0.07000000079177565,0.0539999991814898
0.031814150512218475,-0.05232767015695572,9.871657371520996,-0.025299999862909317,0.006000000052154064,0.04919999837875366,0.37200000992495624,0.8680000231582313,0.1199999937343507
0.04102703928947449,-0.04642836004495621,9.874041557312012,-0.013299999758601189,0.014800000004470348,0.05900000035762787,1.242999980232704,4.894000014382917,-0.07300000130214508
0.0328197181224823,-0.04507802799344063,9.877068519592285,0.00009999999747378752,0.011299999430775642,0.05889999866485596,-0.34200000482126197,4.796000033284751,0.0019999999928448997
0.025895684957504272,-0.052931010723114014,9.87020206451416,0,0.008299999870359898,0.05889999866485596,1.375000002688959,2.8300000901355733,-0.05799999875029794
0.04206133633852005,-0.05464525893330574,9.873161315917969,0.03059999831020832,-0.004399999976158142,0.04899999871850014,0.4879999940853389,0.1719999981340164,0.019999999511567335
0.04967489466071129,-0.058140791952610016,9.872126579284668,0.04079999774694443,-0.01549999974668026,0.04899999871850014,1.6669999812171128,-1.7689999985696734,0.03699999851276524
0.05009627714753151,-0.05191586911678314,9.877412796020508,0.03579999879002571,-0.010199999436736107,0.058799996972084045,-1.2019999554707044,-4.238999814017504,-0.021000000237532696
0.04464707151055336,-0.060812726616859436,9.865011215209961,0.012799999676644802,-0.016300000250339508,0.04910000041127205,-0.9730000410211613,3.2969999739266203,-0.019999999511567335
0.03443819656968117,-0.042951975017786026,9.86371898651123,0.010699999518692493,0.00559999980032444,0.03920000046491623,0.8279999807794036,4.402999913065503,-0.05600000063342052
0.03828807547688484,-0.04564306139945984,9.876522064208984,0.022699998691678047,0.0032999999821186066,0.058799996972084045,0.7939999927821677,0.3130000087811663,0.0859999990670082
0.04386177286505699,-0.04241567477583885,9.867176055908203,0.03309999778866768,0.0011999999405816197,0.04899999871850014,-2.0249999709733943,-0.4769999744270334,-0.010999999647985701
0.04620809108018875,-0.04990473762154579,9.877853393554688,0.031599998474121094,-0.003000000026077032,0.05889999866485596,0.6219999813079381,0.9250000328552505,0.041000001416626686
0.05268201604485512,-0.04440765455365181,9.884480476379395,0.043699998408555984,0.004999999888241291,0.06870000064373016,-1.6040000238602077,-5.8439999269825895,0.049999999612681666
0.04219541326165199,-0.04908113554120064,9.874147415161133,0.01769999973475933,-0.00029999998514540493,0.05889999866485596,1.19999999070436,7.418000372625926,0.02800000031671026
0.037100546061992645,-0.05106353387236595,9.876848220825195,0.02929999865591526,-0.0037999998312443495,0.05889999866485596,0.2959999881021219,-5.313000103451465,-0.04600000004387353
0.02715982496738434,-0.05018246918916702,9.892075538635254,0.00559999980032444,-0.0044999998062849045,0.06870000064373016,1.297999971802526,3.119999890453971,-0.03100000082707969
0.041151538491249084,-0.06535212695598602,9.8717622756958,0.03359999880194664,-0.017899999395012856,0.04899999871850014,-1.1120000468813271,1.0239999963365887,0.0329999989439571
0.05147533863782883,-0.042712558060884476,9.876177787780762,0.04600000008940697,0.004699999932199717,0.05889999866485596,1.7670000338033292,-5.695999972952168,0.08299999855663877
0.04392881318926811,-0.05352477356791496,9.872673034667969,0.020399998873472214,-0.009800000116229057,0.04899999871850014,2.245999919635854,5.141999914277849,0.0019999999928448997
0.04810430109500885,-0.03787627071142197,9.876302719116211,0.04580000042915344,0.00279999990016222,0.058799996972084045,-1.352999963372348,5.505999905054869,0.0030000000934877653
0.03284844756126404,-0.05250963196158409,9.87117862701416,0.03909999877214432,-0.013399999588727951,0.04899999871850014,-1.931999901791089,-2.9070000143003005,0.06299999737754478
0.03633440285921097,-0.05218401923775673,9.875659942626953,0.030899999663233757,-0.008100000210106373,0.058799996972084045,0.4139999903897018,-3.280000059969282,0.0269999995907449
0.034466926008462906,-0.04921520873904228,9.87113094329834,0.02159999869763851,-0.009099999442696571,0.04899999871850014,2.728999948444479,-3.990999914122572,-0.13600000534979648
0.04320097714662552,-0.04729027301073074,9.874109268188477,0.02029999904334545,-0.006799999624490738,0.058799996972084045,1.7260000090413292,-1.4569999454912528,0.10100000161885533
0.028874073177576065,-0.06017107889056206,9.877193450927734,0.006399999838322401,-0.03099999949336052,0.058799996972084045,2.2809999433771146,3.916999937107361,0.006000000186975531
0.04144842177629471,-0.05270116776227951,9.871302604675293,0.02669999934732914,-0.027300000190734863,0.04899999871850014,3.255000073503154,3.250999930527054,-0.03699999851276524
0.03810611367225647,-0.047903187572956085,9.865317344665527,0.025599999353289604,-0.03610000014305115,0.04899999871850014,1.683000019512985,4.71399977031734,-0.08100000043976135
0.0322355292737484,-0.05498044937849045,9.868046760559082,0.03830000013113022,-0.04050000011920929,0.04899999871850014,3.1629999867040213,-3.713000115845652,0.06399999977103679
0.037100546061992645,-0.04127603769302368,9.870316505432129,0.011399999260902405,-0.04039999842643738,0.04899999871850014,-0.9299999447711114,-8.869999552427672,-0.006000000186975531
0.041410114616155624,-0.05391742289066315,9.889528274536133,0.011399999260902405,-0.04039999842643738,0.04899999871850014,-3.372999915708175,-0.9490000369382059,-0.05300000012305109
0.042904093861579895,-0.0499909333884716,9.881416320800781,-0.005799999926239252,-0.03790000081062317,0.05889999866485596,1.781000000611151,6.7430000977102456,0.06800000267489824
0.045221682637929916,-0.03778050094842911,9.887018203735352,-0.005799999926239252,-0.03790000081062317,0.05889999866485596,2.215000038870693,-5.9020001858670454,-0.06200000165415938
0.03615244850516319,-0.05305550992488861,9.885476112365723,-0.013499999418854713,-0.04829999804496765,0.06870000064373016,-2.9070000143003005,-8.181999719974165,-0.057000003026912535
0.04247313737869263,-0.051810525357723236,9.874741554260254,-0.025999998673796654,-0.04010000079870224,0.05889999866485596,0.475000009660689,10.094000187545221,-0.06500000216452881
0.038402996957302094,-0.05564124509692192,9.883149147033691,0.001500000013038516,-0.041099999099969864,0.058799996972084045,0.6780000086217851,-8.133999711808254,0.02600000053230619
0.029630640521645546,-0.056436121463775635,9.88425064086914,-0.030399998649954796,-0.04270000010728836,0.06870000064373016,-0.48599997595814165,6.595000143679824,0.023000000021936765
0.0219213105738163,-0.059778425842523575,9.860605239868164,-0.022099999710917473,-0.05089999735355377,0.03920000046491623,1.1120000468813271,-8.251999767456686,-0.0030000000934877653
0.04133350029587746,-0.05366842821240425,9.859983444213867,-0.024899998679757118,-0.04389999806880951,0.03929999843239784,-2.8670000786431786,7.118000108145571,0.10499999785261017
0.04246356338262558,-0.04601655527949333,9.86339282989502,-0.002899999963119626,-0.02499999850988388,0.03920000046491623,-1.181000005258971,-8.917999560593582,-0.05900000114378995
0.03616202250123024,-0.05525817349553108,9.860519409179688,-0.03399999812245369,-0.031700000166893005,0.03929999843239784,3.042999966289244,5.381999955107403,-0.006000000186975531
0.03371993452310562,-0.049895163625478745,9.858423233032227,-0.019099999219179153,-0.039799999445676804,0.03929999843239784,-3.206000082954071,2.673000081213191,0.01700000066872456
0.040011897683143616,-0.045959096401929855,9.866581916809082,-0.0018999999156221747,-0.020999999716877937,0.04899999871850014,-1.2820000402283596,-11.274999659195664,0.023000000021936765
0.05412811413407326,-0.042501870542764664,9.86802864074707,-0.02290000021457672,-0.01730000041425228,0.04919999837875366,3.233000034186543,-7.808999674305183,0.0749999994190225
0.022553378716111183,-0.0494067445397377,9.877767562866211,-0.07609999924898148,-0.03680000081658363,0.05920000001788139,3.1850000260206324,7.253999846691103,0.13000000432905762
0.024851813912391663,-0.04950251430273056,9.8831787109375,-0.05849999934434891,-0.044199999421834946,0.05900000035762787,-1.359999946776259,5.411000084549631,0.05900000114378995
0.05012500658631325,-0.05981673300266266,9.88841724395752,-0.014099999330937862,-0.05009999871253967,0.06870000064373016,-3.7579999634186345,4.448000187525309,0.023000000021936765
0.03180457651615143,-0.05448245257139206,9.877163887023926,-0.021299999207258224,-0.02969999983906746,0.05889999866485596,-4.1290000443212715,2.298000070777865,-0.09300000248123906
0.029793445020914078,-0.041343074291944504,9.867740631103516,-0.014800000004470348,-0.00839999970048666,0.04910000041127205,-3.911000042808328,-4.640999989128713,-0.07300000130214508
0.047778692096471786,-0.059251703321933746,9.872376441955566,-0.019199999049305916,-0.015799999237060547,0.04919999837875366,-3.405999974683092,-1.8880000366012784,-0.07199999890865307
0.039140406996011734,-0.04713704437017441,9.880046844482422,-0.023599999025464058,0.011899999342858791,0.05900000035762787,-3.4429999631906973,3.7199997790844455,-0.09500000059811649
0.04887044429779053,-0.048755522817373276,9.880640983581543,-0.003399999812245369,0.011599999852478504,0.05900000035762787,-2.411000001067025,9.267000029066432,-0.04600000004387353
0.032733526080846786,-0.04011724516749382,9.874970436096191,0.002300000051036477,0.0279999990016222,0.05900000035762787,-0.564999971610919,11.193999592054837,0.06399999977103679
0.04993347078561783,-0.04990473762154579,9.874789237976074,0.05260000005364418,0.019700000062584877,0.05900000035762787,3.1869999907869766,5.786000094984956,0.1189999980109653
0.036267369985580444,-0.058945246040821075,9.871045112609863,0.05069999769330025,0.00009999999747378752,0.04919999837875366,1.9470000644254948,-6.0520001046638106,0.0269999995907449
0.03656424582004547,-0.0580546036362648,9.866764068603516,0.035999998450279236,-0.0044999998062849045,0.04910000041127205,-3.5989999897299074,-7.61199994316909,-0.10499999785261017
0.04360320419073105,-0.04319139942526817,9.870489120483398,0.024899998679757118,0.024799998849630356,0.04910000041127205,-0.4429999864297975,8.864999853955222,0.004999999877891834
0.04257848486304283,-0.038948871195316315,9.867673873901367,0.04899999871850014,0.016200000420212746,0.039400000125169754,-2.3679999048169753,-2.7919999058013842,-0.007000000079177565
0.03312617540359497,-0.05336196720600128,9.86420726776123,0.054099999368190765,0.016699999570846558,0.04910000041127205,3.8399997994992225,7.352000254676093,0.0329999989439571
0.0373208150267601,-0.04916732758283615,9.880401611328125,0.036399997770786285,0.013299999758601189,0.04910000041127205,-1.3810000037096979,-8.453000281899115,-0.014999999216793838
0.03514688089489937,-0.04649539664387703,9.8759765625,0.032899998128414154,0.016200000420212746,0.05889999866485596,2.471000011274414,3.7190000101446845,-0.019999999511567335
0.03264733403921127,-0.04338293522596359,9.88290023803711,0.042899999767541885,0.009399999864399433,0.05889999866485596,-2.8580000237512175,1.9860000176994446,-0.004999999877891834
0.048544835299253464,-0.043708544224500656,9.876436233520508,0.06769999861717224,0.01719999872148037,0.05889999866485596,2.656999936195613,-2.9089999790666448,-0.029999998433587676
0.031718384474515915,-0.0657447800040245,9.849563598632812,0.03879999741911888,-0.010599999688565731,0.029500000178813934,-0.5350000198680775,4.2869998221834145,-0.03999999902313467
0.03593217954039574,-0.038402996957302094,9.86770248413086,0.04879999905824661,0.010199999436736107,0.04910000041127205,-1.8179999891187564,-5.056000148664572,0.015999999942759198
0.0312778502702713,-0.05978800728917122,9.871782302856445,0.034699998795986176,-0.004399999976158142,0.04910000041127205,1.6470000133885518,-10.173999631972642,-0.0429999995335041
0.04232948645949364,-0.05670427158474922,9.882776260375977,0.016499999910593033,0.0007999999797903001,0.05889999866485596,2.7409999504859566,7.76300005779244,0.021000000237532696
0.04068227484822273,-0.05225105583667755,9.880114555358887,0.03749999776482582,-0.006599999964237213,0.058799996972084045,0.26900001018922354,1.472999983787125,-0.07000000079177565
0.03563529998064041,-0.046907201409339905,9.87407112121582,0.031599998474121094,0.002300000051036477,0.05889999866485596,-2.450999936724147,-1.7979999145684897,0.04600000004387353
0.03490746021270752,-0.04862144961953163,9.860069274902344,0.026499999687075615,-0.000699999975040555,0.03929999843239784,-2.5629998846301354,0.49900001374364444,-0.0859999990670082
0.04658158868551254,-0.05942408740520477,9.861736297607422,0.03739999979734421,-0.003499999875202775,0.03929999843239784,-3.378000041067448,-1.8199999538851008,-0.014999999216793838
0.04479072615504265,-0.0565127357840538,9.875459671020508,0.03229999914765358,0.01549999974668026,0.05889999866485596,-1.5169999556986413,-6.259999855458209,0.07399999702553048
0.04528871923685074,-0.04722323641180992,9.864350318908691,0.014999999664723873,0.029399998486042023,0.04919999837875366,-2.4269999326411917,0.6780000086217851,-0.01700000066872456
0.04507802799344063,-0.04469495639204979,9.863565444946289,0.016699999570846558,0.03590000048279762,0.039400000125169754,-1.1769999690045767,6.224000062777187,-0.029999998433587676
0.04851610213518143,-0.05834190919995308,9.877518653869629,0.04339999705553055,0.019500000402331352,0.05900000035762787,-1.404000025409481,3.34000007017667,0.07000000079177565
0.04127603769302368,-0.059845466166734695,9.866802215576172,0.042500000447034836,0.02319999970495701,0.049300000071525574,1.5109999546779025,3.7249999044437176,0.021999999295971403
0.044493842869997025,-0.05412811413407326,9.867377281188965,0.05249999836087227,0.028699999675154686,0.04919999837875366,1.1159999764140158,0.08400000095013078,0.01700000066872456
0.034035973250865936,-0.04118984565138817,9.875699043273926,0.04270000010728836,0.03539999946951866,0.05900000035762787,-1.2789999863571373,-9.706999961625007,-0.09200000008774706
0.04156334325671196,-0.056340355426073074,9.882699012756348,0.02579999901354313,0.02889999933540821,0.05900000035762787,-0.2800000031671026,-2.645999916537307,0.11400000605382507
0.03191949799656868,-0.050412312150001526,9.848203659057617,0.008599999360740185,0.029500000178813934,0.029600000008940697,0.8500000200960147,-1.8280000263938898,0.010999999647985701
0.050057969987392426,-0.06082230061292648,9.874310493469238,0.023000000044703484,0.01730000041425228,0.05900000035762787,1.8599998895422227,-1.939999974299878,-0.02600000053230619
0.02741839736700058,-0.04733815789222717,9.879395484924316,-0.011699999682605267,0.031700000166893005,0.05900000035762787,-0.4939999951060778,2.760000042653051,0.021000000237532696
0.04416823014616966,-0.053112972527742386,9.865853309631348,0.01529999915510416,0.023099999874830246,0.04919999837875366,1.1409999628801435,-5.232000036310637,-0.05900000114378995
0.030502131208777428,-0.0491769015789032,9.873294830322266,-0.008799999952316284,0.01979999989271164,0.04919999837875366,-1.8880000366012784,-0.17799999915475526,-0.04500000098543482
0.04564306139945984,-0.046955082565546036,9.870067596435547,0.010199999436736107,0.015099999494850636,0.04919999837875366,1.8069999694604508,0.49799997799961937,0.021999999295971403
0.043900080025196075,-0.04912902042269707,9.850330352783203,-0.012199999764561653,0.021900000050663948,0.029600000008940697,-0.4939999951060778,-1.8850000894517618,0.03699999851276524
0.03770388662815094,-0.058399368077516556,9.867807388305664,-0.02709999866783619,0.013399999588727951,0.049300000071525574,0.6549999869220019,5.572000023004702,-0.03400000133744912
0.04197514429688454,-0.06021896004676819,9.858307838439941,-0.02709999866783619,0.013399999588727951,0.049300000071525574,-0.6339999833494159,2.8239999823931288,0.03100000082707969
0.037521932274103165,-0.040394969284534454,9.874185562133789,-0.0031999999191612005,0.03229999914765358,0.05900000035762787,-3.3540000369844924,6.551000065046602,0.13799999679656727
0.04103661701083183,-0.04390966147184372,9.856756210327148,0.02449999935925007,0.04129999876022339,0.039400000125169754,-1.7670000338033292,-2.848999968859256,-0.14099999730693671
0.047692496329545975,-0.05363012105226517,9.887594223022461,0.016599999740719795,0.03619999811053276,0.06889999657869339,0.6949999759399766,0.7480000027434541,-0.08299999855663877
0.02431551180779934,-0.06667372584342957,9.862042427062988,-0.0007999999797903001,0.024399999529123306,0.03949999809265137,-0.4489999874505363,5.712000117969746,0.07699999753589991
0.04161122441291809,-0.03492661193013191,9.878945350646973,0.03619999811053276,0.054999999701976776,0.05909999832510948,0.5020000142540139,5.241999860142359,0.057000003026912535
0.04277002066373825,-0.04143884405493736,9.873199462890625,0.0486999973654747,0.043800000101327896,0.049300000071525574,3.8909999682580616,-5.291999833074614,0.03599999945432653
0.03678451478481293,-0.05424303561449051,9.869444847106934,0.024299999698996544,0.02319999970495701,0.04919999837875366,-0.9250000328552505,4.092000055813666,-0.013000000266153095
0.04440765455365181,-0.03687070310115814,9.853012084960938,0.045099999755620956,0.045099999755620956,0.029600000008940697,-0.30700000776042746,-6.058999767902605,0.0539999991814898
0.0331740565598011,-0.051149725914001465,9.86748218536377,0.01860000006854534,0.026200000196695328,0.04919999837875366,0.18799999640924894,0.9359999457918502,0.19600000221697184
0.0357789508998394,-0.05159026011824608,9.874041557312012,0.021399999037384987,0.025499999523162842,0.05900000035762787,2.068000067223444,-3.7029998651271065,-0.0429999995335041
0.040203433483839035,-0.053448159247636795,9.871427536010742,0.022199999541044235,0.020399998873472214,0.04919999837875366,-2.108999985263738,0.6380000196038104,0.07699999753589991
0.04299028217792511,-0.060745686292648315,9.862808227539062,0.023799998685717583,0.016200000420212746,0.039400000125169754,-1.77400001720724,-1.4199999569836474,0.024999999806340833
0.0521361343562603,-0.051456183195114136,9.861993789672852,0.029600000008940697,0.030700000002980232,0.039400000125169754,3.9859997887632996,1.7709999633360178,-0.02800000031671026
0.041103653609752655,-0.04762545973062515,9.852340698242188,0.02459999918937683,0.029500000178813934,0.029500000178813934,0.9740000234043334,4.975999850463505,-0.0659999978879142
0.0453844889998436,-0.040299203246831894,9.871102333068848,0.03969999775290489,0.026399999856948853,0.04910000041127205,-1.8549999776263617,1.6139999544136352,0.0329999989439571
0.03622906282544136,-0.04459919035434723,9.883196830749512,0.03370000049471855,0.030700000002980232,0.05900000035762787,-2.754999917293779,1.6940000391712906,-0.010999999647985701
0.04661989584565163,-0.049445051699876785,9.860845565795898,0.04800000041723251,0.028299998492002487,0.039400000125169754,2.427999915024364,-6.377999911106642,0.03899999996469596
0.04842991381883621,-0.050910305231809616,9.882555961608887,0.04010000079870224,0.02149999886751175,0.05900000035762787,3.7870000928608625,-4.441000097399692,0.07099999651516105
0.03666001558303833,-0.054750602692365646,9.874454498291016,0.008200000040233135,0.010999999940395355,0.05889999866485596,2.992999993356989,-5.287000134602165,0.149999998838045
0.036056678742170334,-0.054961297661066055,9.891424179077148,-0.008100000210106373,0.0016999999061226845,0.06870000064373016,0.5699999902484857,-5.147000039637121,-0.19600000221697184
0.02945825830101967,-0.04374685138463974,9.886615753173828,-0.020399998873472214,0.010099999606609344,0.06879999488592148,2.044000063140489,-5.487000026331186,0.09800000110848592
0.033825282007455826,-0.050201620906591415,9.872481346130371,-0.03539999946951866,-0.005200000014156103,0.04919999837875366,2.8859999573668613,-0.1800000039417393,0.06500000216452881
0.03747404366731644,-0.052011638879776,9.882009506225586,-0.026099998503923416,-0.013199999928474426,0.039400000125169754,-1.2689999490820039,-8.258000088642543,-0.0329999989439571
0.03092350997030735,-0.049157749861478806,9.873496055603027,-0.05329999700188637,-0.02319999970495701,0.05909999832510948,-3.3760000763011035,2.8639999180502502,-0.05099999867112037
0.045441947877407074,-0.04765418916940689,9.876761436462402,-0.061799999326467514,-0.0013000000035390258,0.05929999798536301,-4.535000148965169,10.649999784099062,-0.09000000197086964
0.045365333557128906,-0.05506663769483566,9.87756633758545,-0.03240000084042549,0.0011999999405816197,0.05909999832510948,1.9730000332747946,-1.2329999429575706,-0.04600000004387353
0.034725502133369446,-0.049895163625478745,9.85118293762207,-0.045399997383356094,-0.004100000020116568,0.029600000008940697,1.7279999738076737,-13.619999969199679,-0.03699999851276524
0.03979163244366646,-0.046696510165929794,9.870909690856934,-0.07270000129938126,0.0008999999845400453,0.04959999769926071,-3.3050000464354095,5.910999813872183,0.04600000004387353
0.045461103320121765,-0.04697423428297043,9.85036849975586,-0.056299999356269836,0.009999999776482582,0.02979999966919422,3.7639998577176677,-7.285000367786499,0.05799999875029794
0.03466803953051567,-0.05702031031250954,9.86072063446045,-0.08579999953508377,-0.009999999776482582,0.039799999445676804,-3.5069999029307746,2.047000010290005,-0.12299999424472013
0.035654451698064804,-0.054539911448955536,9.868975639343262,-0.07989999651908875,-0.00039999998989515007,0.04959999769926071,3.913999776514433,-9.27599965707157,0
0.031009700149297714,-0.03729208931326866,9.849764823913574,-0.10499999672174454,0.00839999970048666,0.03019999898970127,-3.18400004363746,7.699000331495774,-0.06399999977103679
0.03777092695236206,-0.04277002066373825,9.8633451461792,-0.0835999995470047,0.0072999997064471245,0.039799999445676804,4.081999805095121,-3.7579999634186345,0.03599999945432653
0.030233977362513542,-0.05146576091647148,9.863842964172363,-0.09479999542236328,-0.014999999664723873,0.03989999741315842,3.0620000584563387,4.6579999030860515,0.041000001416626686
0.035060688853263855,-0.04987601190805435,9.858498573303223,-0.08329999446868896,-0.022299999371170998,0.03969999775290489,-3.5740000032637798,-8.11400006414481,-0.11099999887334903
0.04048116132616997,-0.04143884405493736,9.854141235351562,-0.09529999643564224,-0.002699999837204814,0.03019999898970127,2.746000075845229,-10.35399987603822,-0.007000000079177565
0.028136657550930977,-0.052691590040922165,9.851910591125488,-0.1428999900817871,-0.019999999552965164,0.03059999831020832,2.7299999308276512,5.35499979043152,0.041000001416626686
0.03846045583486557,-0.045317452400922775,9.882316589355469,-0.10819999873638153,-0.01759999990463257,0.05979999899864197,-2.313000019968859,14.762000768236641,-0.08400000095013078
0.036458905786275864,-0.05247132480144501,9.869397163391113,-0.07719999551773071,-0.020999999716877937,0.0494999997317791,-2.418000091192642,-12.164000006091598,-0.20800000425844953
0.04054819792509079,-0.04837245121598244,9.874703407287598,-0.10029999911785126,-0.014399999752640724,0.059699997305870056,0.8960000101347283,-15.264999804378474,-0.0030000000934877653
0.0445513054728508,-0.049732357263565063,9.850081443786621,-0.14159999787807465,-0.01679999940097332,0.030899999663233757,0.9409999644294169,1.2449999449990485,0.06299999737754478
0.03111504577100277,-0.04762545973062515,9.84654712677002,-0.14710000157356262,-0.009800000116229057,0.030799999833106995,0.7879999917614289,-16.673999528260406,-0.22800001210765014
0.04739561676979065,-0.04571967571973801,9.844392776489258,-0.17669999599456787,-0.011599999852478504,0.021699998527765274,2.4379999522994975,-5.69299981235924,0.06200000165415938
0.04078762233257294,-0.06089891493320465,9.869464874267578,-0.19169999659061432,-0.03779999911785126,0.051500000059604645,4.519999772887352,-11.169000245918943,0.049999999612681666
0.02825157903134823,-0.04607401788234711,9.874223709106445,-0.24120000004768372,-0.030499998480081558,0.06199999898672104,1.9189999173664392,-14.773999703061062,-0.03400000133744912
0.045863326638936996,-0.0449056476354599,9.870221138000488,-0.2611999809741974,-0.0357000008225441,0.05329999700188637,-2.822000017626784,10.592000378988253,-0.14799999405106096
0.038402996957302094,-0.04980897158384323,9.863986015319824,-0.2313999980688095,-0.03759999945759773,0.04259999841451645,-6.246000102093799,11.688999622904939,0.05300000012305109
0.038948871195316315,-0.038996756076812744,9.874808311462402,-0.19859999418258667,-0.0007999999797903001,0.04179999977350235,2.373000030176248,-12.917000187555178,0.15900000036915327
0.03877649083733559,-0.048468220978975296,9.864331245422363,-0.15919999778270721,-0.009599999524652958,0.06059999763965607,-0.9819999891914167,-0.7549999861473652,-0.21299999621558977
0.0396958664059639,-0.04128561541438103,9.886127471923828,-0.18940000236034393,-0.02499999850988388,0.05139999836683273,-3.8049997757579614,7.908999620169694,0.11200000126684104
0.04639962688088417,-0.04289451614022255,9.865288734436035,-0.1906999945640564,-0.01249999925494194,0.07109999656677246,4.315999951625642,-0.7789999902303206,0.09099999769425504
0.03903506323695183,-0.058217406272888184,9.88050651550293,-0.1696999967098236,-0.033399999141693115,0.06079999729990959,-3.9290001525922507,18.700999890886965,-0.10600000024610218
0.04474284127354622,-0.05095818638801575,9.86251163482666,-0.11779999732971191,-0.01269999984651804,0.040300000458955765,5.394000170592292,2.2069999663619044,-0.0539999991814898
0.04307647794485092,-0.050651729106903076,9.860644340515137,-0.1111999973654747,-0.027400000020861626,0.04019999876618385,-0.12799999954207358,-2.5719999395220965,-0.11200000126684104
0.038048651069402695,-0.05393657833337784,9.841059684753418,-0.1274999976158142,-0.026999998837709427,0.02070000022649765,2.1270000950476606,15.653999568178211,0.02800000031671026
0.05170518159866333,-0.047884032130241394,9.846853256225586,-0.06449999660253525,-0.03269999846816063,0.029899999499320984,-6.272999839882859,19.308999425139408,0.019000000453128628
0.03853707015514374,-0.05013458430767059,9.844009399414062,-0.0210999995470047,-0.01549999974668026,0.019700000062584877,1.2110000103626655,15.642999548519906,0.03699999851276524
0.0376751609146595,-0.052739474922418594,9.850186347961426,0.017500000074505806,-0.019099999219179153,0.029399998486042023,4.740999934993224,4.055999836245821,0.2710000016359943
0.03326982632279396,-0.04102703928947449,9.867098808288574,0.027400000020861626,-0.020600000396370888,0.04899999871850014,-0.4579999889816446,15.33799915868028,-0.1199999937343507
0.04296155646443367,-0.05969223752617836,9.873448371887207,0.07930000126361847,-0.03879999741911888,0.04910000041127205,-4.561999886754229,-3.5899999348379463,-0.1199999937343507
0.038422148674726486,-0.05546886473894119,9.846968650817871,0.06939999759197235,-0.01640000008046627,0.029500000178813934,3.4699999144231692,-19.24700009049591,0.023000000021936765
0.023827094584703445,-0.05407065153121948,9.862971305847168,-0.00279999990016222,-0.02589999884366989,0.03920000046491623,3.3630000918764535,12.877000038454645,0.057000003026912535
0.045556869357824326,-0.05710649862885475,9.876992225646973,0.056299999356269836,-0.03610000014305115,0.058799996972084045,5.525999979605135,18.77199970730925,0.13100000005244303
0.04118984565138817,-0.042999863624572754,9.864408493041992,0.10109999775886536,-0.039400000125169754,0.049300000071525574,2.170999960237471,-25.29400049668727,-0.09800000110848592
0.034849997609853745,-0.04594951868057251,9.849477767944336,0.021900000050663948,-0.04529999941587448,0.029399998486042023,4.720999860442957,20.31400028980425,0.024999999806340833
0.0373208150267601,-0.05289270356297493,9.849994659423828,0.07739999890327454,-0.06780000030994415,0.029600000008940697,-0.0659999978879142,-4.158000173763499,0.23499999551156117
0.04860229417681694,-0.03640144318342209,9.842668533325195,0.08540000021457672,-0.0478999987244606,0.019700000062584877,-1.3229999582686536,-21.515000262891785,0.13000000432905762
0.038048651069402695,-0.04223372042179108,9.844632148742676,-0.0005999999702908099,-0.05339999869465828,0.019600000232458115,5.771999914733723,8.117000224737739,0.03100000082707969
0.05115929991006851,-0.05220317468047142,9.849803924560547,0.03830000013113022,-0.07689999788999557,0.029399998486042023,-7.346999702429997,-19.914999421512327,-0.07600000181251451
0.04537491127848625,-0.06094679981470108,9.846536636352539,-0.026099998503923416,-0.06629999727010727,0.029500000178813934,-6.845999777280861,-34.884999940543366,-0.12299999424472013
0.04129519313573837,-0.05088157206773758,9.846488952636719,-0.12159999459981918,-0.03759999945759773,0.030499998480081558,1.472999983787125,3.5049999381644303,0.007000000079177565
0.04284663498401642,-0.042951975017786026,9.862137794494629,-0.11180000007152557,-0.031700000166893005,0.04019999876618385,8.207999688823465,21.817999407304598,0.10999999647985702
0.03881479799747467,-0.040586505085229874,9.846030235290527,-0.044499997049570084,-0.0568000003695488,0.02969999983906746,10.216999941666103,-26.761000479453656,-0.03899999996469596
0.03784754127264023,-0.055890243500471115,9.853920936584473,-0.11819999665021896,-0.09079999476671219,0.030499998480081558,-1.404000025409481,-33.83800024267211,-0.21100000476881897
0.04019385948777199,-0.062316279858350754,9.87385082244873,-0.20069999992847443,-0.07699999958276749,0.03219999745488167,7.077999959045038,44.01399855875063,0.24500000610626807
0.03405512496829033,-0.05490383133292198,9.865174293518066,-0.02239999920129776,-0.10809999704360962,0.049300000071525574,5.001999819312805,47.77699907441536,0.010999999647985701
0.02746628224849701,-0.04720408096909523,9.87220287322998,-0.02239999920129776,-0.10809999704360962,0.049300000071525574,0.27599999359313454,8.9410002226236,-0.07999999804626934
0.02841438539326191,-0.04833414405584335,9.854208946228027,0.1363999992609024,-0.12349999696016312,0.03059999831020832,5.178000133845694,12.773999931997206,0.024000000747902123
0.03168965503573418,-0.05301720276474953,9.870823860168457,0.1809999942779541,-0.13729999959468842,0.05079999938607216,-5.4980000459894915,-74.24399918368769,-0.0009999999964224499
0.030789434909820557,-0.055181559175252914,9.864551544189453,-0.02239999920129776,-0.121799997985363,0.04939999803900719,-9.37599960293608,-57.128999953928954,-0.014999999216793838
0.03914998471736908,-0.05007712170481682,9.845819473266602,-0.1688999980688095,-0.0957999974489212,0.03150000050663948,12.252000163358042,58.3409965315802,-0.019999999511567335
0.03394978120923042,-0.05300762504339218,9.859475135803223,-0.01889999955892563,-0.12889999151229858,0.03969999775290489,-5.193999851976448,-28.313999374059673,-0.049999999612681666
0.03192907199263573,-0.04563348367810249,9.844919204711914,-0.09629999846220016,-0.10449999570846558,0.020499998703598976,-10.668999662822745,-29.019998462523457,0.13700000107318186
0.027341783046722412,-0.04687846824526787,9.854217529296875,-0.18529999256134033,-0.07490000128746033,0.03139999881386757,4.373000014683514,14.081999941074866,-0.5099999800410971
0.043785158544778824,-0.05205952003598213,9.8504638671875,-0.12690000236034393,-0.09640000015497208,0.030799999833106995,4.668000153804597,7.429000392284231,0.12700000381868817
0.043995849788188934,-0.04289451614022255,9.851814270019531,-0.10619999468326569,-0.0989999994635582,0.03059999831020832,11.318999737828886,23.11799955731688,-0.23399998644796255
0.029132647439837456,-0.03905421867966652,9.858144760131836,-0.052400000393390656,-0.12960000336170197,0.03999999910593033,-6.226000027543532,-3.2080000477204154,0.07900000232288394
0.04011724516749382,-0.04895663633942604,9.858125686645508,-0.0510999970138073,-0.12199999392032623,0.03989999741315842,14.690999244267067,17.627999370392768,-0.3349999947369245
0.039159562438726425,-0.03649721294641495,9.844239234924316,-0.002699999837204814,-0.14219999313354492,0.020399998873472214,-1.8760000345598007,-3.0829999019463656,-0.05499999823992851
0.04178360849618912,-0.05037400498986244,9.84958267211914,-0.010900000110268593,-0.15619999170303345,0.03019999898970127,2.072999979139305,-4.070000016497055,0.29699999716572056
0.033308133482933044,-0.05869624763727188,9.864216804504395,-0.03179999813437462,-0.1711999922990799,0.04989999905228615,30.798999779028733,26.22900046009595,-0.6709999718570212
0.03583640977740288,-0.04243483021855354,9.861754417419434,0.04010000079870224,-0.23539999127388,0.0414000004529953,11.278999588728352,11.110000218094727,-0.3579999897562813
0.028232425451278687,-0.03675578162074089,9.854208946228027,0.06069999933242798,-0.2557999789714813,0.03229999914765358,-21.26000027287124,-16.385000564098824,1.0969999909686272
0.04867890849709511,-0.045461103320121765,9.854706764221191,0.045099999755620956,-0.20679999887943268,0.04079999774694443,-10.05199964679152,-13.153000298852044,-0.16500000138989213
0.048592716455459595,-0.05564124509692192,9.852619171142578,0.009099999442696571,-0.188400000333786,0.03059999831020832,12.312999729061781,-5.202000137928649,-1.2509999460197874
0.0344860814511776,-0.053706735372543335,9.84882640838623,-0.02459999918937683,-0.2214999943971634,0.031199999153614044,-0.7489999851266264,1.5260000105906026,0.024999999806340833
0.04516422376036644,-0.0561583936214447,9.856239318847656,-0.010400000028312206,-0.21859999001026154,0.04089999943971634,0.9670000400004224,16.229000751003028,-0.42599999243117953
0.04739561676979065,-0.06322608143091202,9.860625267028809,0.031199999153614044,-0.23019999265670776,0.04089999943971634,13.586999910224762,1.7779999467399288,-1.4150000450677866
0.032733526080846786,-0.04293282330036163,9.836568832397461,0.02630000002682209,-0.25679999589920044,0.041600000113248825,6.181000179970549,-8.826000327568096,-1.0919999723310605
0.03778050094842911,-0.04582501947879791,9.858365058898926,0.06539999693632126,-0.26639997959136963,0.022499999031424522,-0.49199997697888054,-10.150000054776509,0.07399999702553048
0.04912902042269707,-0.03987782448530197,9.855597496032715,0.041200000792741776,-0.2824999988079071,0.042500000447034836,-3.0829999019463656,-10.337000388967704,1.3649999654138256
0.039322368800640106,-0.058897361159324646,9.87069034576416,-0.005200000014156103,-0.2915000021457672,0.05199999734759331,-3.351000089834976,0.9690000047667668,1.2019999554707044
0.03466803953051567,-0.05760449171066284,9.85761833190918,-0.012399999424815178,-0.28139999508857727,0.041999999433755875,6.839000114042068,-2.227000040912171,-2.9290000536169116
0.03818272799253464,-0.05289270356297493,9.864973068237305,-0.018299998715519905,-0.28949999809265137,0.052299998700618744,1.8189999715019287,-12.859999697610483,-2.8369999668177783
0.04350743442773819,-0.04527914524078369,9.863958358764648,-0.04349999874830246,-0.28380000591278076,0.04270000010728836,0.32299999269544677,0.5530000229302942,0.30700000776042746
0.04677312448620796,-0.04789361357688904,9.867241859436035,-0.041999999433755875,-0.2935999929904938,0.05249999836087227,7.9620001805817004,9.082999855468165,1.3229999582686536
0.027284322306513786,-0.04711788892745972,9.855090141296387,-0.03669999912381172,-0.3046000003814697,0.04319999739527702,-0.8069999772068176,0.16500000138989213,2.6360000927055856
0.03807738423347473,-0.050441041588783264,9.854093551635742,-0.026599999517202377,-0.31119999289512634,0.033299997448921204,5.699999902484857,6.04399981871161,2.0119999865487443
0.044177811592817307,-0.03783796355128288,9.87228012084961,-0.00039999998989515007,-0.3061999976634979,0.053199999034404755,-7.78900002664174,-9.715999589630144,-4.121999954195655
0.025905262678861618,-0.04545152559876442,9.846461296081543,-0.04619999974966049,-0.2937999963760376,0.03309999778866768,-3.3379998919669145,5.2509999150343205,0.515999981061836
0.04049073904752731,-0.05353435128927231,9.85423755645752,-0.010400000028312206,-0.2924000024795532,0.03269999846816063,-5.0549999528379885,-0.7799999726134927,-1.339999978947698
0.03187161311507225,-0.05454949289560318,9.836883544921875,-0.021900000050663948,-0.2793999910354614,0.022599998861551285,0.16500000138989213,-3.6529998921948517,-0.09899999683187131
0.030837317928671837,-0.060132771730422974,9.843348503112793,-0.03179999813437462,-0.2886999845504761,0.022599998861551285,-0.6429999848805241,10.002000100746088,0.7380000188291737
0.035510800778865814,-0.058782439678907394,9.850349426269531,-0.004399999976158142,-0.28599998354911804,0.03229999914765358,-4.35800006549252,-3.099000046963944,-0.433000002515517
0.03945644199848175,-0.04360320419073105,9.851910591125488,-0.003000000026077032,-0.25360000133514404,0.03199999779462814,-3.7570001944788736,-3.7859998970342787,-0.7630000052953013
0.04258805885910988,-0.05143703147768974,9.849343299865723,-0.014599999412894249,-0.25099998712539673,0.03179999813437462,1.7389999934659792,-5.232000036310637,0.21299999621558977
0.0408833883702755,-0.04564306139945984,9.84730339050293,-0.02709999866783619,-0.24449999630451202,0.03189999982714653,4.8799998341316835,5.910000044932422,0.1390000058601659
0.03243664652109146,-0.046265553683042526,9.845417022705078,-0.020600000396370888,-0.25699999928474426,0.032099999487400055,3.3670000214091425,7.029000181939367,0.37400000137172706
0.043373361229896545,-0.04852567985653877,9.84958267211914,0.008299999870359898,-0.2751999795436859,0.03219999745488167,1.5690000001189468,2.7139999992534847,1.0710000221193274
0.048592716455459595,-0.051599834114313126,9.852580070495605,0.025499999523162842,-0.27869999408721924,0.03229999914765358,3.7419998184010566,5.0499998274787155,0.24500000610626807
0.02957317978143692,-0.047165773808956146,9.855558395385742,0.021399999037384987,-0.27959999442100525,0.042399998754262924,3.512000028290047,4.777000154561068,0.4769999744270334
0.0362577885389328,-0.04957912862300873,9.856392860412598,0.03280000016093254,-0.2969000041484833,0.04259999841451645,-1.4840000034454306,4.851000131576279,0.59999999535218
0.04317224398255348,-0.04910028725862503,9.86312484741211,0.045899998396635056,-0.2919999957084656,0.052299998700618744,0.39599998732748526,-3.5740000032637798,0.05799999875029794
0.03881479799747467,-0.04855440929532051,9.871379852294922,0.04309999942779541,-0.30069997906684875,0.05249999836087227,-0.09200000008774706,-6.2150000078852266,-0.42500001004800736
0.04030878096818924,-0.04911944270133972,9.852561950683594,0.04309999942779541,-0.30069997906684875,0.05249999836087227,-2.3899999441335864,-2.786000011502351,-0.20899999998183494
0.04138138145208359,-0.05635950714349747,9.845407485961914,0.017099998891353607,-0.2928999960422516,0.03269999846816063,3.2450000362280207,1.9250000251088837,0.4070000069857908
0.0360279455780983,-0.04114196076989174,9.837861061096191,0.01249999925494194,-0.29109999537467957,0.023099999874830246,0.02899999937514897,-5.481999900971913,-0.14499999354069154
0.033164482563734055,-0.03913083299994469,9.852331161499023,-0.0024999999441206455,-0.29019999504089355,0.032899998128414154,-3.244000053844849,-4.029000098456761,-0.2740000021463637
0.04483860731124878,-0.0492822490632534,9.846882820129395,-0.003700000001117587,-0.2902999818325043,0.032600000500679016,1.8530000128600175,4.31099982626637,0.4489999874505363
0.04389050602912903,-0.046715665608644485,9.845474243164062,0.009399999864399433,-0.28529998660087585,0.03269999846816063,-1.9689998902986943,-2.6630000439380574,-0.2609999910412874
0.05162856727838516,-0.050603847950696945,9.848528861999512,0.012799999676644802,-0.28949999809265137,0.032600000500679016,3.4669999672736527,3.8559999445168005,0.4089999984325616
0.03262818232178688,-0.057738568633794785,9.852110862731934,0.003700000001117587,-0.30799999833106995,0.03280000016093254,-2.940000073275217,-1.883999893625178,-0.1070000026395942
0.0447811484336853,-0.055631671100854874,9.853854179382324,0.008299999870359898,-0.28919997811317444,0.032600000500679016,0.049999999612681666,3.312999905500787,0.3669999912873896
0.04024174064397812,-0.047644615173339844,9.855990409851074,0.017400000244379044,-0.27869999408721924,0.042399998754262924,-1.7560000141450236,3.2830000071187984,-0.10199999734224074
0.03786669671535492,-0.04969405010342598,9.860567092895508,0.01759999990463257,-0.2822999954223633,0.0421999990940094,-0.7979999756757093,-4.945000183141756,-0.22299999347008345
0.032877177000045776,-0.04307647794485092,9.845446586608887,0.005799999926239252,-0.26969999074935913,0.03229999914765358,1.709999970745457,3.562000001222302,0.05900000114378995
0.04594951868057251,-0.050412312150001526,9.853528022766113,0.025299999862909317,-0.2833999991416931,0.03240000084042549,-0.3459999877148036,1.6309999750926798,0.19200000598321698
0.03841257095336914,-0.056455276906490326,9.843013763427734,0.02969999983906746,-0.2815999984741211,0.022599998861551285,-2.3549999203923253,2.204000019212388,-0.24800000661663751
0.023491907864809036,-0.0509486123919487,9.843616485595703,0.016099998727440834,-0.2742999792098999,0.02239999920129776,-1.5099999722947304,-3.1010000117302883,-0.24399999704266945
0.04071100801229477,-0.045154642313718796,9.846863746643066,0.02709999866783619,-0.2595999836921692,0.032099999487400055,0.7170000152565876,2.204000019212388,0.009999999755783667
0.037263356149196625,-0.05452075973153114,9.83584976196289,0.02329999953508377,-0.2705000042915344,0.022299999371170998,1.820999936268273,0.012000000373951061,0.19900000272734125
0.05006754770874977,-0.05964435264468193,9.837564468383789,0.042899999767541885,-0.28450000286102295,0.02239999920129776,2.31799993188472,-1.4429999786834307,-0.049999999612681666
0.03733997046947479,-0.044350191950798035,9.839384078979492,0.019199999049305916,-0.2705000042915344,0.022499999031424522,1.5409999597815969,0.9229999613672003,-0.006000000186975531
0.05170518159866333,-0.052806511521339417,9.855578422546387,0.04129999876022339,-0.28369998931884766,0.0421999990940094,1.15899996594236,-1.3980000243887423,-0.006000000186975531
0.047213658690452576,-0.04188895598053932,9.847859382629395,0.02709999866783619,-0.2766999900341034,0.032499998807907104,1.3930000057511756,1.1219999774347549,0.18199999538851008
0.04776911064982414,-0.044685378670692444,9.853787422180176,0.02969999983906746,-0.2791999876499176,0.032600000500679016,-0.14699999832767557,-2.1499999033040322,0.03999999902313467
0.04118026793003082,-0.0511784553527832,9.843999862670898,0.004100000020116568,-0.28779998421669006,0.022699998691678047,-1.0619999672273661,0.09200000008774706,-0.21700000578955783
0.041457995772361755,-0.04517379775643349,9.851527214050293,0.01899999938905239,-0.28139999508857727,0.022599998861551285,-0.08200000283325337,2.8499999512424283,0.16400000566650674
0.04773080348968506,-0.054492030292749405,9.84838581085205,0.026999998837709427,-0.2766999900341034,0.03219999745488167,-0.7339999825747792,-0.6290000180727021,-0.18099999966512467
0.03338475152850151,-0.051839254796504974,9.847389221191406,0.015399999916553497,-0.27390000224113464,0.03219999745488167,-1.0129999766782831,0.05799999875029794,-0.11699999322398127
0.033901896327733994,-0.04352658987045288,9.843463897705078,0.01549999974668026,-0.2604999840259552,0.022299999371170998,-0.8359999999273398,1.3389999965645258,0.08200000283325337
0.051168881356716156,-0.048161763697862625,9.843156814575195,0.03869999945163727,-0.26729997992515564,0.022199999541044235,0.18799999640924894,-1.249999963636615,-0.1180000022875799
0.03350924700498581,-0.04542279615998268,9.842744827270508,0.015599999576807022,-0.2572000026702881,0.022199999541044235,1.264000037166143,2.6360000927055856,0.1629999966029081
0.04511633515357971,-0.04585375264286995,9.859820365905762,0.032600000500679016,-0.25999999046325684,0.04189999774098396,0.6470000211349186,-1.1339999794762325,-0.12799999954207358
0.04651454836130142,-0.040768466889858246,9.857675552368164,0.029399998486042023,-0.26100000739097595,0.04189999774098396,-0.559000023951033,-0.2289999944908223,-0.13499999628619785
0.03434243053197861,-0.037636853754520416,9.829595565795898,0.01889999955892563,-0.24889999628067017,0.012399999424815178,-0.648999985901263,1.5109999546779025,0.049999999612681666
0.0433637797832489,-0.05326620116829872,9.857292175292969,0.03280000016093254,-0.26600000262260437,0.04179999977350235,0.5290000188473387,0.06200000165415938,0.03899999996469596
0.03215891495347023,-0.043258439749479294,9.825937271118164,0.023099999874830246,-0.25699999928474426,0.012399999424815178,0.22400000253368207,1.332999995543787,0.15999999609253868
0.04376600682735443,-0.040366239845752716,9.84299373626709,0.03689999878406525,-0.25689998269081116,0.022199999541044235,-0.10499999785261017,-0.8769999713284867,-0.048000001495804245
0.04186980053782463,-0.047022122889757156,9.84023666381836,0.034699998795986176,-0.25599998235702515,0.022199999541044235,-0.20999999570522035,-2.596999925988224,0.07799999992939192
0.037828389555215836,-0.06064991652965546,9.853605270385742,0.01769999973475933,-0.2742999792098999,0.03199999779462814,-0.2499999980634083,1.1899999534292265,-0.13700000107318186
0.037330396473407745,-0.04817133769392967,9.855367660522461,0.021299999207258224,-0.2629999816417694,0.04169999808073044,0.3789999933288673,0.6230000170519632,-0.09800000110848592
0.025148695334792137,-0.051906291395425797,9.864992141723633,0.012999999336898327,-0.26319998502731323,0.051500000059604645,-0.8699999879245757,-0.8089999953340149,0.06200000165415938
0.03820187970995903,-0.043421242386102676,9.862990379333496,0.02019999921321869,-0.25,0.04169999808073044,-0.3100000082707969,0.06700000028140622,0.05300000012305109
0.04635174572467804,-0.05329493060708046,9.835725784301758,0.03009999915957451,-0.25839999318122864,0.02199999988079071,0.325000010822644,1.2350000144456208,0.049999999612681666
0.04967489466071129,-0.03891056403517723,9.841787338256836,0.04319999739527702,-0.24879999458789825,0.02199999988079071,-0.4669999905127529,-0.09500000059811649,0.08200000283325337
0.047568000853061676,-0.05350561812520027,9.84387493133545,0.03309999778866768,-0.2565999925136566,0.02199999988079071,0.08400000095013078,1.1149999940308437,0
0.045298296958208084,-0.05232767015695572,9.847840309143066,0.035999998450279236,-0.25619998574256897,0.03179999813437462,0.49099999459570837,-1.550000014673558,-0.0969999987149939
0.035367149859666824,-0.049109868705272675,9.840245246887207,0.021399999037384987,-0.25699999928474426,0.02199999988079071,0.6320000185830715,0.4810000106814279,0.13100000005244303
0.04423527047038078,-0.04073015972971916,9.836433410644531,0.03219999745488167,-0.24799999594688416,0.02199999988079071,-0.5279999831033136,-0.7459999846162569,-0.18199999538851008
0.0299754049628973,-0.05372588708996773,9.854391098022461,0.018199998885393143,-0.2549999952316284,0.031700000166893005,0.1189999980109653,2.4100000186838533,0.041000001416626686
0.045058876276016235,-0.06369534134864807,9.852849006652832,0.03449999913573265,-0.26440000534057617,0.031700000166893005,-0.5960000124586383,1.453000015958564,-0.03599999945432653
0.035702336579561234,-0.04101746529340744,9.845541954040527,0.029099998995661736,-0.24229998886585236,0.031700000166893005,-0.26600000967885407,-0.10100000161885533,-0.149999998838045
0.04568136855959892,-0.04147715121507645,9.846508979797363,0.038599997758865356,-0.2409999966621399,0.031700000166893005,-0.16699999283666295,-0.8889999733699644,0.08400000095013078
0.029592333361506462,-0.05525817349553108,9.861448287963867,0.02630000002682209,-0.24969999492168427,0.0414000004529953,0.8200000149923204,-0.7249999810436709,0.20899999998183494
0.01543781254440546,-0.046102747321128845,9.842352867126465,0.004600000102072954,-0.24149999022483826,0.021900000050663948,0.7530000213810208,0.3190000098019052,0.021000000237532696
0.041927263140678406,-0.044043734669685364,9.845608711242676,0.0348999984562397,-0.24289999902248383,0.031700000166893005,0.41300000800652964,0.775000007336779,0.05900000114378995
0.03516603633761406,-0.0459686741232872,9.852408409118652,0.027400000020861626,-0.2434999942779541,0.031700000166893005,-0.2379999960219306,0.5840000104171607,0.023000000021936765
0.04782657325267792,-0.04517379775643349,9.864398002624512,0.03849999979138374,-0.24229998886585236,0.05130000039935112,0.2780000117203318,1.362000018264309,-0.02800000031671026
0.035865142941474915,-0.062287550419569016,9.860883712768555,0.03229999914765358,-0.2620999813079834,0.04149999842047691,0.8750000065621423,0.13799999679656727,0
0.030942663550376892,-0.04906198009848595,9.855060577392578,0.032600000500679016,-0.2540000081062317,0.04149999842047691,0.6650000241971352,-1.821999918651445,0.09399999820462447
0.03449565917253494,-0.04231990873813629,9.874242782592773,0.02759999968111515,-0.24539999663829803,0.06119999662041664,-0.08100000043976135,-0.747000020360282,-0.015999999942759198
0.027293900027871132,-0.04647624120116234,9.860078811645508,0.014399999752640724,-0.24159999191761017,0.04149999842047691,-0.5039999790203582,1.404000025409481,0.11200000126684104
0.03476380929350853,-0.056598927825689316,9.846805572509766,0.0279999990016222,-0.24939998984336853,0.031599998474121094,0.6249999818183075,-0.19999999845072666,-0.048000001495804245
0.04132392257452011,-0.04198472201824188,9.838972091674805,0.03720000013709068,-0.24069999158382416,0.021800000220537186,0.390999995370345,-0.8260000160130593,0.019999999511567335
0.042023029178380966,-0.04851610213518143,9.844603538513184,0.0348999984562397,-0.250900000333786,0.021900000050663948,-0.3059999986968288,1.5060000427620417,-0.07199999890865307
0.04547068104147911,-0.06607038527727127,9.844066619873047,0.03889999911189079,-0.25920000672340393,0.021800000220537186,1.0499999651858885,-1.3709999664345645,0.05900000114378995
0.03227383643388748,-0.03624821454286575,9.849611282348633,0.025299999862909317,-0.2320999950170517,0.031700000166893005,-0.5029999966371861,1.2960000070361817,-0.03599999945432653
0.0537833496928215,-0.05846640467643738,9.841193199157715,0.04829999804496765,-0.25949999690055847,0.021800000220537186,0.5459999861655302,-1.193000007300449,0.024999999806340833
0.029745562002062798,-0.05069003626704216,9.846930503845215,0.02539999969303608,-0.25049999356269836,0.031599998474121094,-0.775000007336779,0.6819999915153268,0.041000001416626686
0.04139095917344093,-0.0444268062710762,9.855645179748535,0.03700000047683716,-0.23799999058246613,0.0414000004529953,0.5500000224199247,-1.2720000029532261,-0.004999999877891834
0.04277002066373825,-0.043114785104990005,9.852561950683594,0.032999999821186066,-0.23909999430179596,0.031599998474121094,0.19799999366374263,0.24399999704266945,0.035000000395887826
0.054444145411252975,-0.05104437842965126,9.859696388244629,0.043299999088048935,-0.24869999289512634,0.0414000004529953,-0.5440000213991859,0.3190000098019052,-0.15999999609253868
0.028548462316393852,-0.046600744128227234,9.855626106262207,0.014699999243021011,-0.23739999532699585,0.0414000004529953,0.6119999973936576,-1.7039999697247181,0.019000000453128628
0.04373727738857269,-0.05106353387236595,9.862894058227539,0.02969999983906746,-0.24889999628067017,0.0414000004529953,0.5440000213991859,0.03599999945432653,-0.0009999999964224499
0.035558685660362244,-0.06350380927324295,9.845914840698242,0.019999999552965164,-0.26019999384880066,0.031599998474121094,-0.08899999957737763,0.9920000264665501,-0.021999999295971403
0.0321110337972641,-0.06001785025000572,9.850282669067383,0.022699998691678047,-0.25999999046325684,0.031599998474121094,-0.5279999831033136,1.9730000332747946,0.06099999926066736
0.0286729596555233,-0.04422569274902344,9.850790023803711,0.018299998715519905,-0.23889999091625214,0.031599998474121094,-0.6630000060699379,-0.4590000247256697,0.01400000015835513
0.03961925208568573,-0.04206133633852005,9.848012924194336,0.03659999743103981,-0.23709999024868011,0.031599998474121094,-0.4649999723855557,-0.8350000175441675,0.043999998591942806
0.044800300151109695,-0.04865017533302307,9.850655555725098,0.034299999475479126,-0.24560000002384186,0.03150000050663948,-0.12599999475508955,-0.9130000308137727,-0.10199999734224074
0.03810611367225647,-0.0407588891685009,9.858048439025879,0.02199999988079071,-0.23549999296665192,0.04129999876022339,0.009999999755783667,-1.242999980232704,0.012000000373951061
0.03810611367225647,-0.04353616386651993,9.844564437866211,0.018199998885393143,-0.23549999296665192,0.021699998527765274,-0.5089999976579249,-1.2019999554707044,-0.009999999755783667
0.04744350165128708,-0.04679227992892265,9.851086616516113,0.025100000202655792,-0.23429998755455017,0.03150000050663948,-0.5849999928003328,-0.20899999998183494,0.019999999511567335
0.03781880810856819,-0.050651729106903076,9.859513282775879,0.014800000004470348,-0.24249999225139618,0.04129999876022339,-0.6009999777353522,1.5440000136528191,-0.11299999699022645
0.04907156154513359,-0.03788584843277931,9.851641654968262,0.038599997758865356,-0.22119998931884766,0.03139999881386757,0.32899999371618566,1.77199994571919,0.007000000079177565
0.03052128478884697,-0.03935110196471214,9.861400604248047,0.023799998685717583,-0.23189999163150787,0.04129999876022339,0.6900000106632628,-0.1939999974299878,0.03899999996469596
0.034256238490343094,-0.03408385440707207,9.857311248779297,0.02329999953508377,-0.2239999920129776,0.04129999876022339,-0.19799999366374263,-1.530000046844997,-0.004999999877891834
0.03393062576651573,-0.0472806952893734,9.851096153259277,0.019099999219179153,-0.23330000042915344,0.03150000050663948,-0.8329999994169703,0.6979999764503461,-0.20899999998183494
0.0414675734937191,-0.05191586911678314,9.84441089630127,0.030899999663233757,-0.23099999129772186,0.03139999881386757,-0.31099999065396905,-1.479999967191036,-0.1079999983629796
0.0418219156563282,-0.0543866828083992,9.853326797485352,0.026200000196695328,-0.2418999969959259,0.03150000050663948,-0.049999999612681666,1.423999993238042,0.019999999511567335
0.04950251430273056,-0.05102522671222687,9.850674629211426,0.03989999741315842,-0.241799995303154,0.03150000050663948,-0.14499999354069154,-1.34099996133087,-0.13400000056281244
0.03348051756620407,-0.043545741587877274,9.83984375,0.016599999740719795,-0.23160000145435333,0.02159999869763851,0.10600000024610218,1.312000045332054,-0.02600000053230619
0.05706819146871567,-0.048880018293857574,9.846307754516602,0.039799999445676804,-0.24169999361038208,0.03150000050663948,0.08299999855663877,-0.8889999733699644,-0.029999998433587676
0.04282747954130173,-0.04519294947385788,9.842419624328613,0.02759999968111515,-0.2320999950170517,0.021699998527765274,0.515999981061836,0.8480000019688174,-0.05200000106461238
0.037857115268707275,-0.04094085097312927,9.845799446105957,0.020099999383091927,-0.23349998891353607,0.03150000050663948,-0.26000000865811523,0.9149999955801171,-0.10299999973573276
0.04603571072220802,-0.05360138788819313,9.850138664245605,0.03280000016093254,-0.24249999225139618,0.03150000050663948,0.07799999992939192,-1.131000032326716,0.0009999999964224499
0.04477157071232796,-0.05032612010836601,9.8455228805542,0.029999999329447746,-0.2425999939441681,0.03150000050663948,0.30700000776042746,0.12499999903170415,0.004999999877891834
0.036506786942481995,-0.04604528844356537,9.859399795532227,0.020600000396370888,-0.23359999060630798,0.04129999876022339,0.23699998695833197,0.8909999914971617,-0.1830000044521087
0.03826892003417015,-0.044350191950798035,9.844383239746094,0.023000000044703484,-0.23429998755455017,0.021699998527765274,-0.6450000030077214,0.9089999945593782,0.03999999902313467
0.041362229734659195,-0.05143703147768974,9.859935760498047,0.03529999777674675,-0.24229998886585236,0.04129999876022339,-0.2399999874687014,-0.1729999938574018,0.007999999971379599
0.05017289146780968,-0.04232948645949364,9.871072769165039,0.044599998742341995,-0.23169998824596405,0.0510999970138073,-0.0969999987149939,-0.6369999838597853,-0.05200000106461238
0.03630567714571953,-0.039494749158620834,9.851259231567383,0.023499999195337296,-0.23149999976158142,0.03150000050663948,-0.05300000012305109,-0.031999999885518396,-0.015999999942759198
0.04909071326255798,-0.05187756195664406,9.848395347595215,0.042899999767541885,-0.24089999496936798,0.03139999881386757,-0.2250000115972807,-0.7140000147462182,0.0030000000934877653
0.027408821508288383,-0.04733815789222717,9.86540412902832,0.011599999852478504,-0.2303999960422516,0.050999999046325684,0.0749999994190225,-0.6339999833494159,0.031999999885518396
0.041103653609752655,-0.048994943499565125,9.852293014526367,0.029399998486042023,-0.24039998650550842,0.03139999881386757,-0.02600000053230619,0.30799999014359963,0.03400000133744912
0.03268564119935036,-0.049301404505968094,9.849631309509277,0.020600000396370888,-0.2402999997138977,0.03139999881386757,-0.3579999897562813,0.0019999999928448997,-0.014999999216793838
0.04848737269639969,-0.04707000404596329,9.840035438537598,0.04019999876618385,-0.2295999974012375,0.02159999869763851,0.14399999781730613,0.39299998681711584,-0.07900000232288394
0.03999274596571922,-0.048161763697862625,9.845369338989258,0.03150000050663948,-0.23979999125003815,0.03139999881386757,0.16800000190026157,0.3469999967784022,0.021999999295971403
0.04061523824930191,-0.04948335886001587,9.844583511352539,0.03240000084042549,-0.2401999980211258,0.02159999869763851,0.3759999928184979,-0.38000000239246595,0.06500000216452881
0.036219481378793716,-0.04817133769392967,9.849401473999023,0.02159999869763851,-0.24120000004768372,0.03150000050663948,-0.1390000058601659,-0.0039999999856897995,-0.128999995265459
0.03322194144129753,-0.046150632202625275,9.852388381958008,0.02149999886751175,-0.23070000112056732,0.03139999881386757,-0.1199999937343507,0.7660000058056707,0.08200000283325337
0.03628652170300484,-0.04898536577820778,9.849286079406738,0.023399999365210533,-0.2401999980211258,0.03139999881386757,0.27599999359313454,-0.1189999980109653,-0.06500000216452881
0.03426581621170044,-0.0368419773876667,9.861065864562988,0.023000000044703484,-0.22129999101161957,0.04129999876022339,0,0.26900001018922354,0.05300000012305109
0.03507984057068825,-0.058025870472192764,9.858834266662598,0.023799998685717583,-0.23099999129772186,0.03139999881386757,-0.24099999653230003,-0.048000001495804245,-0.09500000059811649
0.04343082010746002,-0.05779602751135826,9.851890563964844,0.022199999541044235,-0.25099998712539673,0.04129999876022339,0.4759999920438612,-0.1830000044521087,0.08700000146050021
0.049464207142591476,-0.04286578670144081,9.859121322631836,0.03179999813437462,-0.2502000033855438,0.03139999881386757,-0.023000000021936765,0.3100000082707969,-0.03999999902313467
0.036602552980184555,-0.04345954954624176,9.865805625915527,0.041200000792741776,-0.23169998824596405,0.04129999876022339,0.08299999855663877,-0.29800000622931916,0.019999999511567335
0.03968628868460655,-0.05906016752123833,9.851489067077637,0.02239999920129776,-0.23160000145435333,0.0510999970138073,0.2699999925723957,-0.07699999753589991,0.10299999973573276
0.03968628868460655,-0.05906016752123833,9.851489067077637,0.03139999881386757,-0.2513999938964844,0.03150000050663948,0.2699999925723957,-0.07699999753589991,0.10299999973573276
0.05286397039890289,-0.05621585622429848,9.849631309509277,0.04099999740719795,-0.24229998886585236,0.03150000050663948,-0.08499999667351618,0.3059999986968288,-0.02899999937514897
0.04373727738857269,-0.049895163625478745,9.847379684448242,0.022299999371170998,-0.2321999967098236,0.04129999876022339,0.0429999995335041,-0.12100000279794933,-0.007000000079177565
0.05168602615594864,-0.04677312448620796,9.844833374023438,0.040699999779462814,-0.23189999163150787,0.021699998527765274,0.5480000042927274,-0.04200000047506539,0.14499999354069154
0.041457995772361755,-0.038048651069402695,9.863651275634766,0.030799999833106995,-0.22360000014305115,0.04129999876022339,0.16899999762364695,0.29899998861249133,-0.02800000031671026
0.036698322743177414,-0.041103653609752655,9.8408203125,0.021800000220537186,-0.2337999939918518,0.021699998527765274,0.1830000044521087,0.12400000330831876,-0.14300000209392072
0.045298296958208084,-0.03807738423347473,9.854715347290039,0.03199999779462814,-0.22439999878406525,0.04129999876022339,0.008999999863581633,0.1729999938574018,-0.015999999942759198
0.03749319911003113,-0.04365108534693718,9.861266136169434,0.022599998861551285,-0.23389999568462372,0.04129999876022339,-0.046999999102312236,0.19900000272734125,-0.004999999877891834
0.04388092830777168,-0.043277591466903687,9.840370178222656,0.032899998128414154,-0.23319999873638153,0.021699998527765274,0,0.021000000237532696,0.06099999926066736
0.03582683578133583,-0.03725377470254898,9.856698036193848,0.023099999874830246,-0.22299998998641968,0.04129999876022339,0.046999999102312236,-0.008999999863581633,-0.02600000053230619
0.033710360527038574,-0.053639695048332214,9.861065864562988,0.023000000044703484,-0.24239999055862427,0.04129999876022339,0.15399999507179982,0.02600000053230619,-0.06299999737754478
0.03184288367629051,-0.0684933215379715,9.865787506103516,0.023099999874830246,-0.2620999813079834,0.0510999970138073,-0.24899998899980968,-0.3049999896332302,0.06700000028140622
0.05154237523674965,-0.03923618048429489,9.849161148071289,0.04179999977350235,-0.23189999163150787,0.03150000050663948,-0.024000000747902123,0.049999999612681666,-0.18600000496247812
0.060467954725027084,-0.041745301336050034,9.856392860412598,0.05169999971985817,-0.23149999976158142,0.04129999876022339,0.038000000906257256,0.11099999887334903,-0.012000000373951061
0.033921051770448685,-0.05414726585149765,9.852561950683594,0.022499999031424522,-0.24089999496936798,0.03139999881386757,0,-0.19900000272734125,0.06399999977103679
0.04656243696808815,-0.05856217071413994,9.845982551574707,0.031700000166893005,-0.2502000033855438,0.03139999881386757,0.12700000381868817,-0.30799999014359963,-0.06200000165415938
0.03971501812338829,-0.04829583689570427,9.842036247253418,0.030899999663233757,-0.24069999158382416,0.02159999869763851,0.128999995265459,0.26300000916848465,0.1079999983629796
0.04028962552547455,-0.04026089608669281,9.841730117797852,0.031599998474121094,-0.23109999299049377,0.02159999869763851,-0.07099999651516105,-0.20299999896109608,-0.008999999863581633
0.0387381836771965,-0.051312532275915146,9.832996368408203,0.030899999663233757,-0.23969998955726624,0.011799999512732029,0.013000000266153095,0.04600000004387353,0.008999999863581633
0.04149630293250084,-0.05136999115347862,9.859149932861328,0.03099999949336052,-0.23929999768733978,0.041200000792741776,0.013000000266153095,-0.2800000031671026,-0.014999999216793838
0.034399889409542084,-0.05295974388718605,9.843080520629883,0.020399998873472214,-0.23929999768733978,0.02159999869763851,0,0.02899999937514897,0.0329999989439571
0.03872860595583916,-0.04049073904752731,9.851248741149902,0.020399998873472214,-0.2386000007390976,0.02159999869763851,0.1610000051561373,-0.07000000079177565,-0.006000000186975531
0.03113419935107231,-0.04704127460718155,9.859475135803223,0.029999999329447746,-0.22839999198913574,0.03139999881386757,-0.10100000161885533,0.16800000190026157,-0.14799999405106096
0.045748405158519745,-0.030368054285645485,9.85743522644043,0.019899999722838402,-0.22839999198913574,0.041200000792741776,0.07999999804626934,-0.0859999990670082,-0.049999999612681666
0.03627694398164749,-0.042310334742069244,9.851086616516113,0.020099999383091927,-0.22769999504089355,0.03139999881386757,0.0659999978879142,0.038000000906257256,0.010999999647985701
0.035108573734760284,-0.04416823014616966,9.8677978515625,0.02019999921321869,-0.22759999334812164,0.050999999046325684,0.004999999877891834,0.08100000043976135,-0.035000000395887826
0.04506845027208328,-0.04516422376036644,9.858748435974121,0.03019999898970127,-0.22709999978542328,0.041200000792741776,-0.015999999942759198,-0.02600000053230619,0.08499999667351618
0.03738785535097122,-0.042051758617162704,9.85738754272461,0.02019999921321869,-0.22669999301433563,0.041200000792741776,-0.0429999995335041,-0.0019999999928448997,-0.0859999990670082
0.04818091541528702,-0.05578489974141121,9.858536720275879,0.039799999445676804,-0.23589999973773956,0.041200000792741776,0.0539999991814898,0.2839999860606442,0.07900000232288394
0.032455798238515854,-0.05633077770471573,9.85055923461914,0.020899999886751175,-0.23600000143051147,0.031300000846385956,0.03699999851276524,-0.07600000181251451,-0.02899999937514897
0.030550014227628708,-0.04807556793093681,9.842227935791016,0.020600000396370888,-0.2352999895811081,0.02149999886751175,0.1199999937343507,0.13700000107318186,-0.0009999999964224499
0.03339432552456856,-0.05760449171066284,9.847427368164062,0.020899999886751175,-0.24479998648166656,0.031300000846385956,0.06200000165415938,0.07999999804626934,0.04200000047506539
0.042712558060884476,-0.04324885830283165,9.854074478149414,0.030899999663233757,-0.2247999906539917,0.031300000846385956,0.14300000209392072,-0.03699999851276524,0.009999999755783667
0.05450160428881645,-0.04616978392004967,9.84294605255127,0.04039999842643738,-0.22439999878406525,0.02149999886751175,-0.06700000028140622,-0.008999999863581633,-0.0030000000934877653
0.04050031676888466,-0.0440724641084671,9.851248741149902,0.030499998480081558,-0.22369998693466187,0.031300000846385956,0.1390000058601659,-0.19099999691961836,0.029999998433587676
0.032197222113609314,-0.04907156154513359,9.8464994430542,0.020099999383091927,-0.2337999939918518,0.031300000846385956,-0.17400000292100043,0.12199999852133472,-0.07199999890865307
0.02398032322525978,-0.05232767015695572,9.851785659790039,0.010599999688565731,-0.23269999027252197,0.031300000846385956,0.09600000299160849,0.015999999942759198,-0.05600000063342052
0.03550122305750847,-0.047970227897167206,9.846900939941406,0.020399998873472214,-0.23240000009536743,0.031300000846385956,0.08299999855663877,0.09899999683187131,0.09600000299160849
0.03940856084227562,-0.05725972726941109,9.861161231994629,0.030399998649954796,-0.2320999950170517,0.041099999099969864,0.13400000056281244,0.021999999295971403,-0.12599999475508955
0.038565799593925476,-0.052011638879776,9.844440460205078,0.030299998819828033,-0.23169998824596405,0.02149999886751175,0.04200000047506539,-0.01400000015835513,0.015999999942759198
0.02995625138282776,-0.05340985208749771,9.848357200622559,0.020399998873472214,-0.23119999468326569,0.031199999153614044,-0.1529999993484144,-0.07199999890865307,0.04200000047506539
0.03243664652109146,-0.046198517084121704,9.861505508422852,0.02019999921321869,-0.22049999237060547,0.04099999740719795,-0.0859999990670082,-0.08400000095013078,0.024000000747902123
0.02952529489994049,-0.053112972527742386,9.860471725463867,0.019899999722838402,-0.2295999974012375,0.04099999740719795,-0.057000003026912535,0.1509999945614304,0.09899999683187131
0.0381539985537529,-0.04734773188829422,9.856440544128418,0.02029999904334545,-0.2190999984741211,0.04099999740719795,-0.029999998433587676,-0.0969999987149939,-0.029999998433587676
0.045461103320121765,-0.05070919170975685,9.842629432678223,0.02979999966919422,-0.2280000001192093,0.021399999037384987,0.18199999538851008,0.21299999621558977,-0.10499999785261017
0.0524904802441597,-0.04731900244951248,9.845973014831543,0.040300000458955765,-0.21859999001026154,0.031199999153614044,0.1830000044521087,-0.009999999755783667,-0.010999999647985701
0.03639186546206474,-0.05099649727344513,9.832565307617188,0.020600000396370888,-0.22749999165534973,0.011599999852478504,-0.1390000058601659,-0.20899999998183494,-0.07099999651516105
0.04083550348877907,-0.03973417356610298,9.849152565002441,0.02979999966919422,-0.21719999611377716,0.031199999153614044,0.0429999995335041,-0.01400000015835513,-0.02800000031671026
0.038920141756534576,-0.061052143573760986,9.832985877990723,0.019899999722838402,-0.22630000114440918,0.021299999207258224,-0.05300000012305109,-0.12700000381868817,-0.0269999995907449
0.03439031168818474,-0.051341261714696884,9.84687328338623,0.028999999165534973,-0.23499999940395355,0.011500000022351742,-0.05300000012305109,-0.12700000381868817,-0.0269999995907449
0.04077804088592529,-0.04776911064982414,9.849027633666992,0.028299998492002487,-0.21369999647140503,0.031099999323487282,-0.06200000165415938,0.007000000079177565,-0.021000000237532696
0.03389231860637665,-0.04382346570491791,9.849017143249512,0.01850000023841858,-0.21289999783039093,0.031099999323487282,0.14399999781730613,-0.1419999930303221,0.08700000146050021
0.031000124290585518,-0.04355531558394432,9.85258960723877,0.01809999905526638,-0.2126999944448471,0.031099999323487282,0.08700000146050021,-0.14099999730693671,0.03899999996469596
0.032858025282621384,-0.041716571897268295,9.851795196533203,0.01759999990463257,-0.21229998767375946,0.031099999323487282,0.06399999977103679,-0.06700000028140622,-0.09500000059811649
0.034208353608846664,-0.03568318113684654,9.857014656066895,0.017400000244379044,-0.2021999955177307,0.04089999943971634,0.1529999993484144,0.12299999424472013,0.0030000000934877653
0.031105468049645424,-0.040462009608745575,9.857742309570312,0.01769999973475933,-0.211899995803833,0.04089999943971634,0.03100000082707969,0.0539999991814898,-0.0039999999856897995
0.03583640977740288,-0.048353299498558044,9.857656478881836,0.017799999564886093,-0.22119998931884766,0.04089999943971634,0.0269999995907449,0.07699999753589991,0.08100000043976135
0.041601650416851044,-0.04855440929532051,9.844679832458496,0.026899999007582664,-0.2141999900341034,0.0210999995470047,0.05499999823992851,-0.03400000133744912,0.08700000146050021
0.04616020992398262,-0.04993347078561783,9.844966888427734,0.026200000196695328,-0.2092999964952469,0.030799999833106995,0.08499999667351618,-0.07099999651516105,-0.05200000106461238
0.04248271510004997,-0.05485595017671585,9.849869728088379,0.02539999969303608,-0.2044999897480011,0.030799999833106995,0.04200000047506539,-0.23699998695833197,0.07399999702553048
0.02137543261051178,-0.05398445948958397,9.850923538208008,0.0050999997183680534,-0.2044999897480011,0.030799999833106995,-0.021000000237532696,0.20099999417411205,0.08400000095013078
0.04800853505730629,-0.0486980639398098,9.84939193725586,0.03500000014901161,-0.2037999927997589,0.030799999833106995,-0.021999999295971403,0.017999999727163266,-0.03100000082707969
0.037569813430309296,-0.048142608255147934,9.84522533416748,0.015399999916553497,-0.20319999754428864,0.030700000002980232,0.11200000126684104,-0.02800000031671026,0.05900000114378995
0.05054638534784317,-0.05900270864367485,9.838214874267578,0.034699998795986176,-0.21239998936653137,0.020899999886751175,-0.04200000047506539,-0.0749999994190225,0.10299999973573276
0.041218578815460205,-0.027839776128530502,9.842706680297852,0.02459999918937683,-0.17229999601840973,0.020899999886751175,-0.0269999995907449,-0.14699999832767557,-0.007999999971379599
0.04198472201824188,-0.039494749158620834,9.8623685836792,0.02419999986886978,-0.19139999151229858,0.04050000011920929,0.0429999995335041,0.09800000110848592,-0.01400000015835513
0.037502776831388474,-0.04959828034043312,9.843721389770508,0.014599999412894249,-0.2004999965429306,0.020899999886751175,0.03699999851276524,-0.09000000197086964,-0.0030000000934877653
0.03002328798174858,-0.06341761350631714,9.860750198364258,0.014299999922513962,-0.20989999175071716,0.04050000011920929,-0.06200000165415938,0.03699999851276524,0.03100000082707969
0.04125688597559929,-0.0547410286962986,9.860587120056152,0.02410000003874302,-0.19939999282360077,0.04050000011920929,0.019000000453128628,-0.06299999737754478,0.004999999877891834
0.043095629662275314,-0.04593036696314812,9.864953994750977,0.023899998515844345,-0.1891999989748001,0.0502999983727932,0,-0.2589999995945166,-0.012000000373951061
0.04389050602912903,-0.03665044158697128,9.858260154724121,0.02329999953508377,-0.179299995303154,0.04050000011920929,0.012000000373951061,0.0659999978879142,0.03599999945432653
0.034466926008462906,-0.049349285662174225,9.857206344604492,0.013599999248981476,-0.19839999079704285,0.04050000011920929,-0.012000000373951061,0.06299999737754478,0.0030000000934877653
0.03337517008185387,-0.04862144961953163,9.863085746765137,0.013799999840557575,-0.19789999723434448,0.04050000011920929,-0.03699999851276524,-0.02800000031671026,0.05999999686717535
0.04734773188829422,-0.04469495639204979,9.845781326293945,0.023399999365210533,-0.18729999661445618,0.03059999831020832,0.08799999718388561,-0.021000000237532696,-0.006000000186975531
0.03892971947789192,-0.06208643689751625,9.85264778137207,0.02329999953508377,-0.20649999380111694,0.03059999831020832,0.128999995265459,-0.2780000117203318,-0.09300000248123906
0.03145023435354233,-0.040979158133268356,9.830390930175781,0.012899999506771564,-0.18569999933242798,0.010999999940395355,0.010999999647985701,0.029999998433587676,0.05200000106461238
0.04469495639204979,-0.05429091677069664,9.8388090133667,0.022699998691678047,-0.1946999877691269,0.020800000056624413,0.0859999990670082,0.2699999925723957,-0.015999999942759198
0.045346178114414215,-0.04540364071726799,9.847169876098633,0.023499999195337296,-0.1850000023841858,0.03059999831020832,0.05099999867112037,0.18400000017549412,-0.09899999683187131
0.050010085105895996,-0.04277002066373825,9.839547157287598,0.023499999195337296,-0.1850000023841858,0.03059999831020832,-0.09999999922536333,-0.10600000024610218,-0.006000000186975531
0.041908107697963715,-0.04556644707918167,9.839431762695312,0.023499999195337296,-0.18320000171661377,0.020800000056624413,-0.3600000078834786,0.038000000906257256,-0.0539999991814898
0.03508942201733589,-0.03891056403517723,9.859926223754883,0.013799999840557575,-0.18209999799728394,0.04039999842643738,0.15900000036915327,-0.013000000266153095,-0.02899999937514897
0.0312778502702713,-0.040442854166030884,9.862195014953613,0.013700000010430813,-0.18199999630451202,0.04039999842643738,-0.2259999939804529,0.14399999781730613,-0.05600000063342052
0.03428496792912483,-0.04898536577820778,9.857254028320312,0.014099999330937862,-0.19099999964237213,0.04039999842643738,0.041000001416626686,0.05300000012305109,-0.02800000031671026
0.04921520873904228,-0.05310339480638504,9.852551460266113,0.033799998462200165,-0.19049999117851257,0.030499998480081558,-0.017999999727163266,-0.02800000031671026,-0.1319999957758284
0.04588248208165169,-0.05365884676575661,9.863019943237305,0.023799998685717583,-0.1898999959230423,0.040300000458955765,0.07399999702553048,0.17799999915475526,-0.06700000028140622
0.03656424582004547,-0.05903143808245659,9.851373672485352,0.014499999582767487,-0.19919998943805695,0.030499998480081558,0.021999999295971403,0.18400000017549412,0.04900000055424296
0.03469676896929741,-0.05312254652380943,9.85118293762207,0.01489999983459711,-0.18879999220371246,0.030499998480081558,0.08799999718388561,0.04600000004387353,0.015999999942759198
0.03999274596571922,-0.0477403849363327,9.852178573608398,0.024799998849630356,-0.1785999983549118,0.030499998480081558,-0.08899999957737763,0.0269999995907449,0.03999999902313467
0.03943729028105736,-0.04483860731124878,9.836634635925293,0.024699999019503593,-0.17749999463558197,0.02070000022649765,-0.01700000066872456,-0.05900000114378995,-0.019000000453128628
0.039561789482831955,-0.04054819792509079,9.846125602722168,0.02449999935925007,-0.17679999768733978,0.030499998480081558,0.02800000031671026,-0.010999999647985701,0.021000000237532696
0.055765748023986816,-0.03935110196471214,9.841202735900879,0.0340999998152256,-0.17599999904632568,0.02070000022649765,-0.1180000022875799,-0.19600000221697184,0.046999999102312236
0.02693955786526203,-0.06237374246120453,9.845914840698242,0.004100000020116568,-0.19509999454021454,0.030499998480081558,-0.09300000248123906,-0.0659999978879142,-0.0039999999856897995
0.0451354905962944,-0.05114014819264412,9.849678993225098,0.023499999195337296,-0.18439999222755432,0.030399998649954796,-0.15200000362502902,-0.1319999957758284,0.10600000024610218
0.03280056267976761,-0.04326801374554634,9.856191635131836,0.013199999928474426,-0.1735999882221222,0.04019999876618385,0.10499999785261017,0.08100000043976135,-0.03100000082707969
0.03857537731528282,-0.050297390669584274,9.84135627746582,0.023099999874830246,-0.1826999932527542,0.020600000396370888,0.1390000058601659,0.22800001210765014,0.11599999750059588
0.04876509681344032,-0.045652639120817184,9.853050231933594,0.03359999880194664,-0.17309999465942383,0.030399998649954796,-0.021999999295971403,0.1390000058601659,0.04900000055424296
0.0449056476354599,-0.03950433060526848,9.845914840698242,0.024000000208616257,-0.17239999771118164,0.030399998649954796,0.16400000566650674,0.13000000432905762,-0.035000000395887826
0.04879382997751236,-0.04416823014616966,9.857666015625,0.0340999998152256,-0.17229999601840973,0.04019999876618385,0.08700000146050021,0.15399999507179982,0.014999999216793838
0.033758245408535004,-0.060534995049238205,9.857186317443848,0.01489999983459711,-0.1915999948978424,0.04019999876618385,0.0329999989439571,0.15800000464576788,-0.0030000000934877653
0.04085465520620346,-0.04760630801320076,9.847734451293945,0.02499999850988388,-0.17139999568462372,0.030399998649954796,-0.007999999971379599,-0.02600000053230619,-0.013000000266153095
0.03768473491072655,-0.05784391239285469,9.83374309539795,0.024799998849630356,-0.17069999873638153,0.030399998649954796,-0.0039999999856897995,-0.0269999995907449,-0.06299999737754478
0.03725377470254898,-0.048832137137651443,9.844554901123047,0.015099999494850636,-0.17809998989105225,0.020499998703598976,0.10600000024610218,-0.0009999999964224499,0.01400000015835513
0.04067269712686539,-0.05857175216078758,9.83923053741455,0.015099999494850636,-0.17809998989105225,0.020499998703598976,0.07999999804626934,0.07699999753589991,0.11200000126684104
0.04183149337768555,-0.05448245257139206,9.845378875732422,0.024799998849630356,-0.1770000010728836,0.030299998819828033,0.05600000063342052,-0.17799999915475526,-0.043999998591942806
0.038900990039110184,-0.0423007532954216,9.826043128967285,0.02419999986886978,-0.16599999368190765,0.010699999518692493,0.01700000066872456,0.05200000106461238,0.10999999647985702
0.04061523824930191,-0.04413950443267822,9.839997291564941,0.02329999953508377,-0.15940000116825104,0.020399998873472214,0.19799999366374263,-0.006000000186975531,-0.04200000047506539
0.037426162511110306,-0.0408833883702755,9.845024108886719,0.013100000098347664,-0.15529999136924744,0.03019999898970127,0.07699999753589991,-0.12299999424472013,0.06500000216452881
0.03922659903764725,-0.04085465520620346,9.850138664245605,0.021900000050663948,-0.1509999930858612,0.03009999915957451,0.14900000311465958,0.0030000000934877653,0.05099999867112037
0.031862035393714905,-0.04379473999142647,9.843693733215332,0.011699999682605267,-0.14579999446868896,0.02029999904334545,-0.17400000292100043,-0.031999999885518396,0.023000000021936765
0.03982993960380554,-0.04130476713180542,9.846959114074707,0.020800000056624413,-0.14139999449253082,0.029999999329447746,0.019999999511567335,0.041000001416626686,0.08899999957737763
0.04312435910105705,-0.054875101894140244,9.828495025634766,0.01979999989271164,-0.14339999854564667,0.010300000198185444,0.05600000063342052,0.07300000130214508,-0.021000000237532696
0.04542279615998268,-0.05658935010433197,9.841586112976074,0.01939999870955944,-0.1386999934911728,0.020099999383091927,0.046999999102312236,0,0.08499999667351618
0.04647624120116234,-0.04279874637722969,9.848319053649902,0.01889999955892563,-0.125900000333786,0.029899999499320984,0,-0.029999998433587676,0.019999999511567335
0.0521361343562603,-0.043143514543771744,9.846536636352539,0.027899999171495438,-0.12280000001192093,0.02979999966919422,0.017999999727163266,-0.014999999216793838,0.024999999806340833
0.04154418781399727,-0.0514274537563324,9.831463813781738,0.01719999872148037,-0.12639999389648438,0.010199999436736107,-0.0269999995907449,-0.043999998591942806,0.19000000119623298
0.03699520602822304,-0.05137956887483597,9.847887992858887,0.0071000000461936,-0.1233999952673912,0.02969999983906746,-0.031999999885518396,-0.03899999996469596,-0.10600000024610218
0.03507984057068825,-0.03354755416512489,9.83814811706543,0.006799999624490738,-0.10049999505281448,0.019899999722838402,-0.013000000266153095,-0.05799999875029794,-0.01400000015835513
0.04464707151055336,-0.05159026011824608,9.837620735168457,0.01589999906718731,-0.11639999598264694,0.019899999722838402,0.024999999806340833,-0.07900000232288394,0.09000000197086964
0.037052664905786514,-0.03362416848540306,9.830037117004395,0.00559999980032444,-0.0925000011920929,0.009999999776482582,0.2150000010025738,-0.0009999999964224499,-0.10100000161885533
0.037761349231004715,-0.04281790181994438,9.833139419555664,0.005699999630451202,-0.10289999842643738,0.009999999776482582,-0.008999999863581633,-0.02800000031671026,0.10600000024610218
0.03149811923503876,-0.04392881318926811,9.833541870117188,0.00559999980032444,-0.1022999957203865,0.009999999776482582,0.07699999753589991,-0.046999999102312236,-0.05499999823992851
0.049205634742975235,-0.032781410962343216,9.843549728393555,0.024899998679757118,-0.09239999949932098,0.01979999989271164,0.19699999794035722,-0.02899999937514897,0.06399999977103679
0.046457089483737946,-0.04967489466071129,9.8455228805542,0.014999999664723873,-0.11229999363422394,0.02969999983906746,0.03599999945432653,-0.06700000028140622,0.06500000216452881
0.0370909720659256,-0.03943729028105736,9.846508979797363,0.004999999888241291,-0.1022999957203865,0.02969999983906746,-0.05099999867112037,-0.07600000181251451,-0.013000000266153095
0.04113238677382469,-0.036985624581575394,9.836252212524414,0.004799999762326479,-0.10179999470710754,0.029600000008940697,-0.06500000216452881,-0.05200000106461238,-0.007999999971379599
0.025273192673921585,-0.03208230063319206,9.858038902282715,-0.004799999762326479,-0.09139999747276306,0.03949999809265137,0.012000000373951061,-0.02800000031671026,-0.024000000747902123
0.040366239845752716,-0.04452257603406906,9.84420108795166,0.014599999412894249,-0.10089999437332153,0.01979999989271164,0.15599999985878385,-0.10499999785261017,0.05200000106461238
0.041218578815460205,-0.04549941048026085,9.840476036071777,0.0142000000923872,-0.10089999437332153,0.01979999989271164,0.01700000066872456,0.09899999683187131,-0.007000000079177565
0.04392881318926811,-0.04636131972074509,9.827058792114258,0.014399999752640724,-0.10029999911785126,0.009999999776482582,0.007999999971379599,0.0969999987149939,0.023000000021936765
0.041314344853162766,-0.049703627824783325,9.83401107788086,0.0139999995008111,-0.10509999841451645,0.009999999776482582,0.012000000373951061,0.06899999839828364,-0.046999999102312236
0.03974374756217003,-0.050153736025094986,9.840226173400879,0.013799999840557575,-0.10199999809265137,0.01979999989271164,0.015999999942759198,0.04200000047506539,-0.04900000055424296
0.05434837564826012,-0.04727111756801605,9.828743934631348,0.022699998691678047,-0.08819999545812607,0.00989999994635582,0.05300000012305109,-0.06899999839828364,-0.06099999926066736
0.0431339368224144,-0.049943044781684875,9.8358793258667,0.012299999594688416,-0.09529999643564224,0.019700000062584877,-0.06200000165415938,0.006000000186975531,-0.05900000114378995
0.03556825965642929,-0.039820361882448196,9.835678100585938,0.0024999999441206455,-0.08289999514818192,0.019700000062584877,0.031999999885518396,-0.17100000241063099,0
0.053610965609550476,-0.03614286705851555,9.847753524780273,0.021199999377131462,-0.07159999758005142,0.029500000178813934,0.1830000044521087,0.01400000015835513,0.009999999755783667
0.02431551180779934,-0.051599834114313126,9.834039688110352,-0.007799999788403511,-0.08799999952316284,0.00989999994635582,0.046999999102312236,-0.36099999026665075,0.024000000747902123
0.03498407453298569,-0.04308605194091797,9.841001510620117,0.0009999999310821295,-0.07829999923706055,0.019700000062584877,-0.09000000197086964,0.10299999973573276,0.03100000082707969
0.036985624581575394,-0.039753325283527374,9.84201717376709,0.0011999999405816197,-0.07779999822378159,0.019700000062584877,-0.05300000012305109,0.09300000248123906,0.08499999667351618
0.0445513054728508,-0.05180094763636589,9.855549812316895,0.011299999430775642,-0.08729999512434006,0.03929999843239784,0.14699999832767557,-0.08899999957737763,-0.03999999902313467
0.0367366299033165,-0.051504068076610565,9.846662521362305,0.0011999999405816197,-0.08739999681711197,0.029500000178813934,0.14300000209392072,0.05600000063342052,0.02899999937514897
0.04737646505236626,-0.04752969369292259,9.842755317687988,0.01119999960064888,-0.07779999822378159,0.019700000062584877,-0.007999999971379599,0.019999999511567335,-0.0039999999856897995
0.039063792675733566,-0.04927267134189606,9.830841064453125,0.01119999960064888,-0.08709999918937683,0.00989999994635582,0.12100000279794933,0.21200000049220435,-0.007999999971379599
0.03452438861131668,-0.048688482493162155,9.849563598632812,0.0018999999156221747,-0.08739999681711197,0.029500000178813934,0.07000000079177565,0.029999998433587676,-0.029999998433587676
0.031478963792324066,-0.053045932203531265,9.826713562011719,0.001999999862164259,-0.08709999918937683,0.00989999994635582,-0.05099999867112037,-0.11200000126684104,0.0329999989439571
0.048784252256155014,-0.051293376833200455,9.846298217773438,0.021199999377131462,-0.08669999986886978,0.029500000178813934,-0.06399999977103679,0.006000000186975531,-0.031999999885518396
0.043545741587877274,-0.042549751698970795,9.828168869018555,0.011399999260902405,-0.0762999951839447,0.00989999994635582,0.04900000055424296,-0.049999999612681666,-0.03400000133744912
0.032455798238515854,-0.03881479799747467,9.83045768737793,0.00139999995008111,-0.07599999755620956,0.00989999994635582,0.08400000095013078,0.2069999951948509,0.06299999737754478
0.03963840380311012,-0.04228160157799721,9.834432601928711,0.0018999999156221747,-0.07620000094175339,0.019700000062584877,0.1319999957758284,0.128999995265459,-0.03100000082707969
0.0380294993519783,-0.05176264047622681,9.84713077545166,0.012000000104308128,-0.07609999924898148,0.00989999994635582,0.12799999954207358,0.20800000425844953,0.1400000015835513
0.02862507663667202,-0.04977066442370415,9.851985931396484,-0.0066999997943639755,-0.08569999784231186,0.029500000178813934,0.05900000114378995,-0.18799999640924894,-0.01700000066872456
0.037857115268707275,-0.05892609432339668,9.84148120880127,-0.0066999997943639755,-0.08569999784231186,0.029500000178813934,0.07099999651516105,-0.06299999737754478,0.008999999863581633
0.032714370638132095,-0.05763322487473488,9.848241806030273,0.002300000051036477,-0.09519999474287033,0.029500000178813934,0.10100000161885533,0.15599999985878385,-0.048000001495804245
0.03333686292171478,-0.04668693244457245,9.848644256591797,0.002699999837204814,-0.07569999992847443,0.029500000178813934,0.06099999926066736,0.024999999806340833,-0.04600000004387353
0.03583640977740288,-0.047453079372644424,9.857033729553223,0.00279999990016222,-0.07559999823570251,0.03929999843239784,0.16899999762364695,0.004999999877891834,0.06200000165415938
0.033308133482933044,-0.0516572967171669,9.847877502441406,0.00279999990016222,-0.08569999784231186,0.029500000178813934,0.038000000906257256,-0.07300000130214508,-0.0429999995335041
0.03323151916265488,-0.05621585622429848,9.849496841430664,0.0026000000070780516,-0.08549999445676804,0.029500000178813934,-0.3660000089042174,0.024999999806340833,0.04500000098543482
0.05090072751045227,-0.058590903878211975,9.841069221496582,0.022299999371170998,-0.09439999610185623,0.019700000062584877,0.023000000021936765,-0.03400000133744912,0.06700000028140622
0.041697416454553604,-0.04682100564241409,9.836357116699219,0.012299999594688416,-0.07459999620914459,0.019700000062584877,-0.02899999937514897,0.014999999216793838,0
0.047357309609651566,-0.06028600037097931,9.83481502532959,0.012299999594688416,-0.09349999576807022,0.00989999994635582,0.05799999875029794,-0.007000000079177565,-0.11400000605382507
0.02846227027475834,-0.047807417809963226,9.843568801879883,-0.007199999876320362,-0.0737999975681305,0.019700000062584877,0.05200000106461238,0.031999999885518396,0.012000000373951061
0.03170880675315857,-0.029678523540496826,9.834997177124023,0.0026000000070780516,-0.06369999796152115,0.00989999994635582,0.08700000146050021,-0.05799999875029794,-0.16699999283666295
0.03503195941448212,-0.047194503247737885,9.832096099853516,0.0023999998811632395,-0.07329999655485153,0.00989999994635582,0.19699999794035722,0.11699999322398127,-0.012000000373951061
0.032781410962343216,-0.05066130682826042,9.827345848083496,0.00279999990016222,-0.0835999995470047,0.00989999994635582,0.07799999992939192,0.05499999823992851,-0.0039999999856897995
0.03314532712101936,-0.048563987016677856,9.841720581054688,0.002899999963119626,-0.08349999785423279,0.019700000062584877,0.05900000114378995,0.08700000146050021,-0.09999999922536333
0.039466023445129395,-0.048468220978975296,9.825881004333496,0.012899999506771564,-0.08309999853372574,0.00989999994635582,0.12499999903170415,0.09000000197086964,0.13400000056281244
0.039964016526937485,-0.05372588708996773,9.835265159606934,0.013100000098347664,-0.08299999684095383,0.00989999994635582,0.007000000079177565,0.09000000197086964,0.017999999727163266
0.03860410675406456,-0.04096957668662071,9.839115142822266,0.013199999928474426,-0.07289999723434448,0.019700000062584877,-0.017999999727163266,-0.1079999983629796,0.08700000146050021
0.03508942201733589,-0.058523863554000854,9.832565307617188,0.0030999998562037945,-0.09189999848604202,0.00989999994635582,-0.10400000212922476,-0.17700000343136985,-0.03899999996469596
0.048832137137651443,-0.04090254381299019,9.844861030578613,0.022099999710917473,-0.07159999758005142,0.019700000062584877,0.18099999966512467,0.17899999487814064,0.08299999855663877
0.04722323641180992,-0.05771941319108009,9.834307670593262,0.012799999676644802,-0.0916999951004982,0.00989999994635582,0.06299999737754478,0.05099999867112037,-0.043999998591942806
0.04210921749472618,-0.04995262622833252,9.836817741394043,0.012999999336898327,-0.08169999718666077,0.019700000062584877,0.02899999937514897,0.021999999295971403,0.004999999877891834
0.047031696885824203,-0.04113238677382469,9.841595649719238,0.012899999506771564,-0.07169999927282333,0.019700000062584877,-0.01400000015835513,-0.0019999999928448997,-0.01400000015835513
0.03654509410262108,-0.04556644707918167,9.842850685119629,0.012899999506771564,-0.07119999825954437,0.00989999994635582,-0.11299999699022645,-0.019999999511567335,0.03999999902313467
0.04103661701083183,-0.059299588203430176,9.83863639831543,0.0030999998562037945,-0.07090000063180923,0.019700000062584877,-0.08100000043976135,-0.010999999647985701,-0.05600000063342052
0.03727293387055397,-0.0580546036362648,9.825209617614746,0.012799999676644802,-0.08980000019073486,0.019700000062584877,-0.1749999986443858,0.08899999957737763,0.024000000747902123
0.03922659903764725,-0.04710831493139267,9.830438613891602,0.012899999506771564,-0.06769999861717224,0.009800000116229057,0.03599999945432653,-0.019000000453128628,-0.07300000130214508
0.03952348232269287,-0.0529693178832531,9.83797550201416,0.01269999984651804,-0.07729999721050262,0.019700000062584877,0.05999999686717535,-0.13000000432905762,0.021999999295971403
0.04102703928947449,-0.030080748721957207,9.838377952575684,0.012299999594688416,-0.0575999990105629,0.019700000062584877,0.07999999804626934,-0.13499999628619785,0.11400000605382507
0.048161763697862625,-0.04689761996269226,9.852293014526367,0.021699998527765274,-0.0674000009894371,0.029500000178813934,0.0429999995335041,0.0659999978879142,0.019999999511567335
0.03349009156227112,-0.04717535153031349,9.845158576965332,0.002199999988079071,-0.065700002014637,0.029500000178813934,0.06399999977103679,-0.23099998593759313,0.07999999804626934
0.03760812059044838,-0.05104437842965126,9.847580909729004,0.0015999999595806003,-0.07559999823570251,0.029500000178813934,-0.1070000026395942,0.15999999609253868,0.03699999851276524
0.045508988201618195,-0.049607861787080765,9.843031883239746,0.011799999512732029,-0.07499999552965164,0.019600000232458115,-0.07900000232288394,-0.0659999978879142,-0.0329999989439571
0.03319321200251579,-0.051695603877305984,9.852417945861816,0.0017999999690800905,-0.07459999620914459,0.029500000178813934,0.02800000031671026,-0.1620000008795227,0.10900000075647161
0.034112587571144104,-0.046121902763843536,9.85477352142334,0.00139999995008111,-0.06459999829530716,0.03929999843239784,0.024999999806340833,-0.0859999990670082,0.021999999295971403
0.032925061881542206,-0.04301901534199715,9.845973014831543,0.0010999999940395355,-0.06449999660253525,0.029500000178813934,0.041000001416626686,0.2289999944908223,-0.01400000015835513
0.03397851064801216,-0.04463749751448631,9.838923454284668,0.0017999999690800905,-0.06449999660253525,0.019600000232458115,0.11200000126684104,0.2259999939804529,-0.09300000248123906
0.030550014227628708,-0.04262636601924896,9.852235794067383,0.0023999998811632395,-0.06480000168085098,0.029399998486042023,-0.11699999322398127,-0.06099999926066736,-0.024000000747902123
0.03908294811844826,-0.05152321979403496,9.830122947692871,0.012000000104308128,-0.07369999587535858,0.009800000116229057,-0.03100000082707969,-0.01400000015835513,-0.007000000079177565
0.030415939167141914,-0.0386328399181366,9.832612991333008,0.002099999925121665,-0.06340000033378601,0.009800000116229057,0.13700000107318186,0.06500000216452881,0.05099999867112037
0.04433104023337364,-0.03897760435938835,9.834911346435547,0.012000000104308128,-0.0632999986410141,0.009800000116229057,0.012000000373951061,0,-0.041000001416626686
0.041103653609752655,-0.05177221819758415,9.836692810058594,0.012000000104308128,-0.07279999554157257,0.019600000232458115,0.24299998797907083,-0.09800000110848592,0.046999999102312236
0.029793445020914078,-0.041170693933963776,9.845417022705078,0.0018999999156221747,-0.06359999626874924,0.029399998486042023,0.06700000028140622,0.007000000079177565,0.07600000181251451
0.030818164348602295,-0.039255332201719284,9.839536666870117,0.0018999999156221747,-0.06350000202655792,0.019600000232458115,-0.08200000283325337,-0.11099999887334903,-0.12199999852133472
0.039944861084222794,-0.04519294947385788,9.845991134643555,0.011399999260902405,-0.06300000101327896,0.029399998486042023,0.009999999755783667,-0.14499999354069154,-0.19200000598321698
0.0257137268781662,-0.05742253363132477,9.839221000671387,-0.008599999360740185,-0.07279999554157257,0.019600000232458115,-0.038000000906257256,-0.03999999902313467,0.029999998433587676
0.030904356390237808,-0.049349285662174225,9.852083206176758,0.0010999999940395355,-0.05289999768137932,0.029399998486042023,-0.021999999295971403,-0.007000000079177565,0.05200000106461238
0.0389871783554554,-0.040768466889858246,9.843626022338867,0.0009999999310821295,-0.0722000002861023,0.029399998486042023,0,-0.006000000186975531,0.01400000015835513
0.0373208150267601,-0.04727111756801605,9.85754108428955,0.010799999348819256,-0.06209999695420265,0.019600000232458115,-0.18900000547284757,-0.07600000181251451,-0.12700000381868817
0.031124621629714966,-0.04647624120116234,9.832555770874023,0.00039999998989515007,-0.06119999662041664,0.009800000116229057,-0.3130000087811663,0.013000000266153095,0.01400000015835513
0.03517561033368111,-0.049943044781684875,9.846068382263184,0.00039999998989515007,-0.07009999454021454,0.029399998486042023,-0.06099999926066736,0.15399999507179982,0.004999999877891834
0.040414124727249146,-0.04599740356206894,9.832096099853516,0.010599999688565731,-0.059699997305870056,0.009800000116229057,-0.0429999995335041,0.008999999863581633,-0.035000000395887826
0.04559517651796341,-0.0423007532954216,9.82140827178955,0.010400000028312206,-0.05869999900460243,0,0.0039999999856897995,-0.17100000241063099,-0.06500000216452881
0.02836650051176548,-0.04987601190805435,9.829107284545898,-0.009499999694526196,-0.06799999624490738,0.009800000116229057,-0.05799999875029794,0.08799999718388561,0.049999999612681666
0.044091615825891495,-0.05673300102353096,9.840312957763672,0.010199999436736107,-0.06749999523162842,0.019600000232458115,-0.013000000266153095,-0.06399999977103679,-0.049999999612681666
0.03751235082745552,-0.045250412076711655,9.835112571716309,0.00029999998514540493,-0.05719999969005585,0.009800000116229057,-0.1079999983629796,-0.09399999820462447,0.023000000021936765
0.031976956874132156,-0.04312435910105705,9.83704662322998,0,-0.056699998676776886,0.019600000232458115,0.007999999971379599,0.15900000036915327,0.019999999511567335
0.04128561541438103,-0.04608359560370445,9.8450345993042,0.010199999436736107,-0.05649999901652336,0.029399998486042023,0.06200000165415938,0.09000000197086964,-0.0019999999928448997
0.0342370830476284,-0.042837053537368774,9.84571361541748,0.010400000028312206,-0.06610000133514404,0.019600000232458115,0.1189999980109653,0.12499999903170415,-0.03100000082707969
0.0342370830476284,-0.042837053537368774,9.84571361541748,0.0005999999702908099,-0.056199997663497925,0.029399998486042023,0.1189999980109653,0.12499999903170415,-0.03100000082707969
0.03789542242884636,-0.03619075566530228,9.8464994430542,0.0008999999845400453,-0.04649999737739563,0.029399998486042023,0.22800001210765014,-0.09099999769425504,0.010999999647985701
0.03417004644870758,-0.042664673179388046,9.846863746643066,0.00039999998989515007,-0.05639999732375145,0.029399998486042023,0.0329999989439571,0.05900000114378995,-0.015999999942759198
0.033710360527038574,-0.0456143319606781,9.853835105895996,0.0004999999655410647,-0.056299999356269836,0.029399998486042023,-0.10499999785261017,-0.05300000012305109,0.048000001495804245
0.04519294947385788,-0.058092910796403885,9.836634635925293,0.010099999606609344,-0.07519999891519547,0.019600000232458115,0.05200000106461238,0.1079999983629796,0.035000000395887826
0.04004063084721565,-0.05255751311779022,9.838780403137207,0.010300000198185444,-0.06520000100135803,0.019600000232458115,-0.09300000248123906,0.04500000098543482,0.0329999989439571
0.03312617540359497,-0.052308518439531326,9.8368558883667,0.010300000198185444,-0.06520000100135803,0.019600000232458115,-0.048000001495804245,-0.10400000212922476,-0.10900000075647161
0.03312617540359497,-0.052308518439531326,9.8368558883667,0.000699999975040555,-0.06459999829530716,0.019600000232458115,-0.048000001495804245,-0.10400000212922476,-0.10900000075647161
0.03689943626523018,-0.03699520602822304,9.84445858001709,0.00039999998989515007,-0.044599998742341995,0.019600000232458115,-0.08100000043976135,0.04900000055424296,0.07600000181251451
0.040864236652851105,-0.03680367022752762,9.841519355773926,0.010699999518692493,-0.04349999874830246,0.019600000232458115,0.1199999937343507,-0.0859999990670082,0.009999999755783667
0.04032793268561363,-0.06057330220937729,9.835542678833008,0.010400000028312206,-0.07279999554157257,0.019600000232458115,0.041000001416626686,0.043999998591942806,-0.06899999839828364
0.046811431646347046,-0.05021119862794876,9.837821960449219,0.010499999858438969,-0.06279999762773514,0.019600000232458115,-0.008999999863581633,0.009999999755783667,0.013000000266153095
0.03879564255475998,-0.05954858288168907,9.832115173339844,0.00989999994635582,-0.0681999996304512,0.009800000116229057,0.06899999839828364,0.008999999863581633,0
0.044752418994903564,-0.051293376833200455,9.845349311828613,0.009599999524652958,-0.05689999833703041,0.029399998486042023,-0.02600000053230619,-0.06899999839828364,-0.0659999978879142
0.04247313737869263,-0.03718674182891846,9.845867156982422,0.009200000204145908,-0.03610000014305115,0.029399998486042023,0.07600000181251451,-0.008999999863581633,-0.024999999806340833
0.04140053689479828,-0.05035484954714775,9.852743148803711,0.008899999782443047,-0.0543999969959259,0.029399998486042023,-0.07099999651516105,-0.03100000082707969,-0.02899999937514897
0.037952885031700134,-0.041697416454553604,9.839508056640625,-0.0008999999845400453,-0.04270000010728836,0.019600000232458115,-0.038000000906257256,0.035000000395887826,-0.048000001495804245
0.042310334742069244,-0.05646485090255737,9.858699798583984,0.008799999952316284,-0.05130000039935112,0.03920000046491623,-0.10900000075647161,-0.21800000151294321,0.0009999999964224499
0.04332547262310982,-0.047663770616054535,9.8640718460083,0.008200000040233135,-0.041099999099969864,0.03920000046491623,0.05799999875029794,-0.010999999647985701,-0.05499999823992851
0.04032793268561363,-0.04500141367316246,9.849468231201172,0.008100000210106373,-0.041099999099969864,0.029399998486042023,-0.09600000299160849,-0.024999999806340833,0.021000000237532696
0.03712927922606468,-0.06147352233529091,9.849620819091797,-0.0016999999061226845,-0.06030000001192093,0.029399998486042023,-0.0859999990670082,-0.021000000237532696,-0.10100000161885533
0.04128561541438103,-0.045748405158519745,9.833887100219727,0.007899999618530273,-0.04010000079870224,0.009800000116229057,-0.008999999863581633,-0.2050000037480801,-0.023000000021936765
0.03322194144129753,-0.04188895598053932,9.835131645202637,-0.002300000051036477,-0.039799999445676804,0.009800000116229057,0.03100000082707969,0.0269999995907449,-0.019999999511567335
