Accelerometer_Gx,Accelerometer_Gy,Accelerometer_Gz,Accelerometer_X,Accelerometer_Y,Accelerometer_Z,Gyroscope_Z,Gyroscope_X,Gyroscope_Y
0.043871354311704636,-0.025273192673921585,9.883637428283691,0.0015999999595806003,0.008799999952316284,0.06870000064373016,0.739999983595518,4.476000121140953,-0.38699998579637696
0.03687070310115814,-0.034371159970760345,9.885543823242188,0.004299999680370092,-0.0024999999441206455,0.06859999895095825,2.838999931584123,2.236000095804132,-0.17799999915475526
0.03598963841795921,-0.04236779361963272,9.884777069091797,0.008100000210106373,-0.016699999570846558,0.06859999895095825,1.4400000315339143,-6.233000117669149,0.031999999885518396
0.030013712123036385,-0.03891056403517723,9.879176139831543,-0.008999999612569809,-0.01769999973475933,0.058799996972084045,0.11699999322398127,-1.241999997849532,0.1319999957758284
0.024181436747312546,-0.04175487905740738,9.882479667663574,-0.021299999207258224,-0.01529999915510416,0.05889999866485596,0.31600000929153577,3.0520000211812053,0.024000000747902123
0.03960009664297104,-0.043181825429201126,9.873237609863281,0.006000000052154064,-0.013599999248981476,0.04899999871850014,0.12599999475508955,-1.3289999592893924,0.057000003026912535
0.03974374756217003,-0.030013712123036385,9.883752822875977,0.002199999988079071,-0.0023999998811632395,0.06859999895095825,0.5939999943314411,2.2990000531610373,-0.10100000161885533
0.03689943626523018,-0.052097827196121216,9.871542930603027,-0.0016999999061226845,-0.02149999886751175,0.04899999871850014,-0.05099999867112037,-3.2249999616777543,-0.0030000000934877653
0.03608540818095207,-0.045365333557128906,9.87331485748291,-0.010099999606609344,-0.00989999994635582,0.04899999871850014,-0.46600000812958076,1.8260000616275454,0.01700000066872456
0.04506845027208328,-0.03768473491072655,9.861218452453613,0.004799999762326479,0.002199999988079071,0.03920000046491623,-0.5410000208888165,-0.12299999424472013,-0.04200000047506539
0.03343263268470764,-0.04797980189323425,9.862751007080078,-0.004900000058114529,-0.014699999243021011,0.03920000046491623,0.6600000055595685,-1.0429999817819775,0.1079999983629796
0.033854011446237564,-0.03097139298915863,9.848060607910156,-0.007799999788403511,0.003499999875202775,0.029399998486042023,0.046999999102312236,0.545000003782358,-0.09500000059811649
0.047711651772260666,-0.02645113877952099,9.872117042541504,0.003399999812245369,0.013399999588727951,0.04899999871850014,-0.5679999721212884,0.390999995370345,-0.09899999683187131
0.04687846824526787,-0.041745301336050034,9.873687744140625,0.004600000102072954,-0.004299999680370092,0.05889999866485596,-0.05200000106461238,-1.5810000021604245,0.08200000283325337
0.03540545701980591,-0.03926490619778633,9.878036499023438,-0.014399999752640724,-0.005200000014156103,0.05889999866485596,0.6089999968832882,-0.17400000292100043,0.14600000260429016
0.037924155592918396,-0.025483882054686546,9.890887260437012,-0.014399999752640724,-0.005200000014156103,0.05889999866485596,0.12700000381868817,0.1529999993484144,-0.18900000547284757
0.020963631570339203,-0.04423527047038078,9.87411880493164,-0.014499999582767487,0.012299999594688416,0.06870000064373016,0.2379999960219306,1.6139999544136352,-0.01400000015835513
0.026001030579209328,-0.04073015972971916,9.857426643371582,-0.02329999953508377,-0.007499999832361937,0.05889999866485596,0.16699999283666295,0.7500000208706514,-0.11699999322398127
0.040107667446136475,-0.043181825429201126,9.871399879455566,-0.01809999905526638,-0.007999999448657036,0.03920000046491623,0.7189999800229321,1.0919999723310605,0.046999999102312236
0.0383838415145874,-0.03248452767729759,9.872720718383789,0.0038999998942017555,-0.008299999870359898,0.04899999871850014,0.3980000054546825,0.048000001495804245,0.02899999937514897
0.04783615097403526,-0.04241567477583885,9.870048522949219,0.007400000002235174,-0.011099999770522118,0.04899999871850014,0.4390000035362559,-1.4419999963002585,0.029999998433587676
0.04016512632369995,-0.03564487397670746,9.861688613891602,0.003999999724328518,-0.002099999925121665,0.03920000046491623,-0.149999998838045,-1.6249999740719407,0.023000000021936765
0.04509718343615532,-0.04521210491657257,9.869905471801758,-0.00039999998989515007,-0.01119999960064888,0.04899999871850014,0.01700000066872456,0.12400000330831876,0.0269999995907449
0.03749319911003113,-0.042118798941373825,9.858384132385254,-0.006799999624490738,-0.007899999618530273,0.03920000046491623,-0.049999999612681666,1.7289999561908458,-0.10499999785261017
0.04907156154513359,-0.03585556522011757,9.880516052246094,0.016599999740719795,0.00139999995008111,0.058799996972084045,0.02899999937514897,0.2780000117203318,0.12700000381868817
0.052998051047325134,-0.044943954795598984,9.858509063720703,0.016699999570846558,-0.008700000122189522,0.03920000046491623,-0.41600000851689906,-0.7230000162773266,0.06299999737754478
0.04485776275396347,-0.04466622695326805,9.865757942199707,0.004299999680370092,-0.007699999958276749,0.04899999871850014,-0.1180000022875799,0.8149999963547537,-0.16999999334703236
0.03773261979222298,-0.04379473999142647,9.889595031738281,-0.003599999938160181,-0.007400000002235174,0.06859999895095825,0.29399999665535115,-1.9580000840838003,0.09200000008774706
0.04329674690961838,-0.027504589408636093,9.869656562805176,0.0004999999655410647,0.011099999770522118,0.04899999871850014,-0.14499999354069154,0.30400000725005805,0.019999999511567335
0.04291366785764694,-0.039657559245824814,9.888628005981445,0.0010999999940395355,-0.007999999448657036,0.06870000064373016,0.23900000508552924,-0.6750000081114157,0.017999999727163266
0.03765600547194481,-0.04043327644467354,9.885017395019531,-0.010699999518692493,-0.008700000122189522,0.06870000064373016,0,0.057000003026912535,-0.041000001416626686
0.03230256959795952,-0.038402996957302094,9.868736267089844,-0.007699999958276749,-0.006399999838322401,0.04899999871850014,0.22700000304405152,-0.620999998924766,0.021999999295971403
0.03895844891667366,-0.02585737779736519,9.879836082458496,-0.00029999998514540493,0.011899999342858791,0.05889999866485596,0.5470000219095553,0.2570000081477458,0.05999999686717535
0.038757335394620895,-0.0348404236137867,9.864446640014648,-0.00009999999747378752,0.00019999999494757503,0.04899999871850014,-0.3339999856733259,0.07600000181251451,0.10600000024610218
0.03263775631785393,-0.03974374756217003,9.875287055969238,-0.009999999776482582,-0.008799999952316284,0.05889999866485596,-0.024000000747902123,-1.1740000218550601,0.057000003026912535
0.04031835496425629,-0.029889212921261787,9.868927955627441,-0.003999999724328518,0.0007999999797903001,0.04910000041127205,0.38100001145606455,-1.181000005258971,0.019000000453128628
0.04488649219274521,-0.03268564119935036,9.879836082458496,-0.006899999920278788,-0.00019999999494757503,0.05889999866485596,0.21700000578955783,0.6540000045388297,0.007999999971379599
0.04334462806582451,-0.03923618048429489,9.871609687805176,-0.0050999997183680534,-0.010599999688565731,0.04910000041127205,0.1930000017066024,0.004999999877891834,0.0009999999964224499
0.0409887321293354,-0.05081453546881676,9.886090278625488,-0.0038999998942017555,-0.016499999910593033,0.06870000064373016,-0.07300000130214508,-0.3259999932058162,-0.05499999823992851
0.034016817808151245,-0.03635355830192566,9.858748435974121,-0.014800000004470348,0.002199999988079071,0.03929999843239784,-0.321000001248676,-0.06899999839828364,0.06899999839828364
0.03762727230787277,-0.043181825429201126,9.861620903015137,-0.014999999664723873,-0.0072999997064471245,0.03929999843239784,-0.2639999915516568,-0.38999998630674637,0.006000000186975531
0.032762255519628525,-0.03310701996088028,9.864273071289062,-0.01599999889731407,0.0026000000070780516,0.04910000041127205,-0.046999999102312236,0.6930000111736323,0.07900000232288394
0.03874776139855385,-0.04257848486304283,9.878074645996094,-0.00419999985024333,0.002300000051036477,0.04910000041127205,-0.14099999730693671,-0.4549999884712752,-0.012000000373951061
0.03874776139855385,-0.04257848486304283,9.878074645996094,-0.004799999762326479,-0.00839999970048666,0.05889999866485596,-0.14099999730693671,-0.4549999884712752,-0.012000000373951061
0.03988740220665932,-0.027188554406166077,9.883992195129395,-0.0058999997563660145,0.0015999999595806003,0.05889999866485596,-0.38999998630674637,0.5500000224199247,-0.08499999667351618
0.03635355830192566,-0.03773261979222298,9.886568069458008,-0.010300000198185444,0.002099999925121665,0.06870000064373016,-0.21200000049220435,-1.4559999631080807,0.06299999737754478
0.043277591466903687,-0.053831230849027634,9.876014709472656,-0.004399999976158142,-0.016899999231100082,0.05889999866485596,-0.39200000443394367,0.7849999912510595,-0.07399999702553048
0.04587290436029434,-0.034256238490343094,9.876157760620117,-0.002099999925121665,0.003700000001117587,0.05889999866485596,0.01400000015835513,-0.38999998630674637,0.024000000747902123
0.044254425913095474,-0.046457089483737946,9.882192611694336,-0.0030999998562037945,-0.006000000052154064,0.05889999866485596,0.05200000106461238,0.16599999711327754,0.05200000106461238
0.02810792811214924,-0.036669593304395676,9.878170013427734,-0.016899999231100082,0.0026000000070780516,0.05889999866485596,0.08499999667351618,-0.4280000105583768,0.03699999851276524
0.03573106601834297,-0.05112099274992943,9.874597549438477,-0.009399999864399433,-0.01679999940097332,0.05889999866485596,0.1749999986443858,0.3600000078834786,-0.04500000098543482
0.04312435910105705,-0.044254425913095474,9.861151695251465,0.0004999999655410647,-0.0072999997064471245,0.03920000046491623,-0.41300000800652964,0.7620000229121291,0.0859999990670082
0.04500141367316246,-0.03877649083733559,9.870335578918457,0.0018999999156221747,-0.0058999997563660145,0.04899999871850014,-0.22800001210765014,0.23300000406479038,-0.03599999945432653
0.049330130219459534,-0.040720582008361816,9.867386817932129,0.011899999342858791,-0.0050999997183680534,0.04910000041127205,0.2140000052791884,0.08400000095013078,-0.046999999102312236
0.045461103320121765,-0.0345914252102375,9.87045955657959,0.0018999999156221747,0.003999999724328518,0.04899999871850014,-0.049999999612681666,0.5969999948418105,0.06299999737754478
0.048142608255147934,-0.042664673179388046,9.868401527404785,0.012799999676644802,-0.005399999674409628,0.04899999871850014,0.14300000209392072,0.8810000075828812,0.004999999877891834
0.04351700842380524,-0.041649531573057175,9.885103225708008,0.005200000014156103,-0.005699999630451202,0.06870000064373016,0.2050000037480801,-0.7179999976397599,0.024999999806340833
0.045911211520433426,-0.03301125392317772,9.868669509887695,-0.0066999997943639755,-0.006199999712407589,0.03920000046491623,-0.1620000008795227,-1.109999975393277,-0.004999999877891834
0.03717716038227081,-0.031095892190933228,9.880266189575195,0,0.003999999724328518,0.04910000041127205,-0.11400000605382507,-0.6590000231763964,0.007000000079177565
0.045106757432222366,-0.045346178114414215,9.871389389038086,-0.003399999812245369,-0.006399999838322401,0.04910000041127205,-0.15399999507179982,-0.8960000101347283,-0.015999999942759198
0.039466023445129395,-0.041410114616155624,9.886778831481934,-0.0058999997563660145,-0.0058999997563660145,0.06870000064373016,0.32299999269544677,-1.4270000471092643,-0.02899999937514897
0.04463749751448631,-0.027763161808252335,9.867653846740723,-0.00969999935477972,0.01269999984651804,0.04910000041127205,-0.10400000212922476,-0.15500000413539844,0.0269999995907449
0.03783796355128288,-0.045125916600227356,9.880467414855957,-0.015099999494850636,-0.004999999888241291,0.05889999866485596,0.3450000053316314,-0.4849999935749695,-0.08200000283325337
0.04294240102171898,-0.03884352743625641,9.878303527832031,-0.007899999618530273,-0.006399999838322401,0.05889999866485596,0.3089999992071983,-1.0710000221193274,0.13799999679656727
0.05435795709490776,-0.03948517516255379,9.873936653137207,-0.00139999995008111,-0.0072999997064471245,0.05889999866485596,-0.3819999938392367,1.291999970781787,-0.06800000267489824
0.035434186458587646,-0.050105854868888855,9.866744041442871,-0.017999999225139618,-0.016200000420212746,0.04910000041127205,-0.0539999991814898,-1.193999989683621,0.14499999354069154
0.048190489411354065,-0.03528095781803131,9.869119644165039,-0.002099999925121665,0.003399999812245369,0.04910000041127205,0.18900000547284757,0.4089999984325616,-0.05499999823992851
0.03997359052300453,-0.03270479664206505,9.865260124206543,-0.010999999940395355,0.00279999990016222,0.04910000041127205,-0.16500000138989213,1.7539999426569735,0.10499999785261017
0.03170880675315857,-0.038824375718832016,9.858287811279297,-0.01549999974668026,-0.0064999996684491634,0.03929999843239784,0.41300000800652964,-0.7620000229121291,0.021999999295971403
0.0432392843067646,-0.05602432042360306,9.875967025756836,-0.007599999662488699,-0.01719999872148037,0.05889999866485596,-0.10299999973573276,-1.7010000225752016,-0.035000000395887826
0.038259342312812805,-0.04124730825424194,9.878074645996094,-0.02199999988079071,-0.0071000000461936,0.05889999866485596,-0.4019999883482241,0.9060000474098617,-0.05600000063342052
0.04287536069750786,-0.03301125392317772,9.869818687438965,-0.009599999524652958,0.003700000001117587,0.04910000041127205,0.16400000566650674,1.4150000450677866,0.041000001416626686
0.04158249497413635,-0.024286780506372452,9.883332252502441,-0.005699999630451202,0.013100000098347664,0.06870000064373016,-0.06399999977103679,-2.023999988590222,-0.128999995265459
0.04206133633852005,-0.023051373660564423,9.877815246582031,-0.011099999770522118,0.013199999928474426,0.05889999866485596,0.057000003026912535,-0.8420000009480786,0.08700000146050021
0.04438849911093712,-0.030530860647559166,9.883418083190918,-0.013299999758601189,0.0031999999191612005,0.06870000064373016,-0.09399999820462447,-1.9980000197409222,-0.048000001495804245
0.037359122186899185,-0.041697416454553604,9.880860328674316,-0.0284000001847744,-0.006300000008195639,0.05889999866485596,0.6339999833494159,-0.8849999904764227,-0.07999999804626934
0.046935927122831345,-0.025033773854374886,9.872998237609863,-0.020899999886751175,0.011399999260902405,0.04910000041127205,0.015999999942759198,0.5690000078653135,0.14499999354069154
0.03134488686919212,-0.04206133633852005,9.886970520019531,-0.02889999933540821,-0.008200000040233135,0.06870000064373016,0.5059999971475555,-0.4179999999636699,0.06399999977103679
0.04277002066373825,-0.024401701986789703,9.8784761428833,-0.020099999383091927,0.009800000116229057,0.05889999866485596,0.2039999946844815,1.6659999988339407,-0.024000000747902123
0.04112280532717705,-0.05021119862794876,9.87685775756836,-0.01589999906718731,-0.019999999552965164,0.05889999866485596,-0.4019999883482241,-1.5889999679475078,-0.03699999851276524
0.04142926633358002,-0.04163995757699013,9.872471809387207,-0.019999999552965164,-0.009099999442696571,0.04910000041127205,0.325000010822644,-0.2699999925723957,-0.0539999991814898
0.048784252256155014,-0.04604528844356537,9.87531566619873,-0.010699999518692493,-0.00989999994635582,0.05889999866485596,0.09099999769425504,0.6429999848805241,0.0329999989439571
0.048401180654764175,-0.038019925355911255,9.863162994384766,-0.008799999952316284,-0.00029999998514540493,0.03929999843239784,0.24899998899980968,1.1289999608386658,-0.05200000106461238
0.03869987651705742,-0.04876509681344032,9.864781379699707,-0.014999999664723873,-0.020600000396370888,0.04910000041127205,-0.4489999874505363,2.396000051876031,0.04900000055424296
0.04431188479065895,-0.04083550348877907,9.883561134338379,-0.009099999442696571,-0.009599999524652958,0.05889999866485596,-0.08899999957737763,0.8720000060517729,0.023000000021936765
0.04431188479065895,-0.04083550348877907,9.883561134338379,-0.0023999998811632395,-0.008599999360740185,0.06870000064373016,-0.08899999957737763,0.8720000060517729,0.023000000021936765
0.041716571897268295,-0.03143107891082764,9.879931449890137,0,0.01119999960064888,0.04899999871850014,-0.8669999874142063,1.319000028735965,-0.13300000483942703
0.05220317468047142,-0.03369120880961418,9.87707805633545,0.01589999906718731,0.0032999999821186066,0.058799996972084045,0.38000000239246595,-0.2899999870813831,0.004999999877891834
0.03559699282050133,-0.0408833883702755,9.8623685836792,-0.004399999976158142,-0.007400000002235174,0.03920000046491623,0.8989999572842449,1.4890000220829973,-0.04200000047506539
0.04158249497413635,-0.03651636466383934,9.884126663208008,0.00930000003427267,0,0.06859999895095825,0.019999999511567335,0.04600000004387353,0.0969999987149939
0.04225287213921547,-0.036267369985580444,9.89123249053955,0.007400000002235174,-0.00009999999747378752,0.06859999895095825,-0.23499999551156117,-2.6679999558539182,-0.02600000053230619
0.037426162511110306,-0.035721488296985626,9.873525619506836,-0.009099999442696571,0.0004999999655410647,0.04899999871850014,-0.3600000078834786,-0.024000000747902123,0.010999999647985701
0.031249120831489563,-0.03230256959795952,9.875105857849121,-0.008700000122189522,0.001500000013038516,0.05889999866485596,0.49799997799961937,2.8180000880940956,-0.02600000053230619
0.040442854166030884,-0.027073632925748825,9.878179550170898,0.008999999612569809,0.00989999994635582,0.058799996972084045,-0.13700000107318186,-3.7249999044437176,0.019000000453128628
0.04329674690961838,-0.04132392257452011,9.86987590789795,-0.0008999999845400453,-0.009200000204145908,0.04910000041127205,-1.0869999536934938,1.313000027715226,0.031999999885518396
0.033873166888952255,-0.033901896327733994,9.884049415588379,-0.00699999975040555,0.003399999812245369,0.06870000064373016,0.7789999902303206,-1.362000018264309,0.03699999851276524
0.04229117929935455,-0.034466926008462906,9.882939338684082,-0.0007999999797903001,0.0013000000035390258,0.05889999866485596,-0.06800000267489824,1.882999911242006,-0.07199999890865307
0.0450301431119442,-0.04186980053782463,9.885812759399414,0.004999999888241291,-0.008200000040233135,0.06870000064373016,1.1759999866214046,-0.8799999718388561,0.017999999727163266
0.0340072400867939,-0.04753926768898964,9.872567176818848,-0.0066999997943639755,-0.010999999940395355,0.04899999871850014,-0.5879999933107023,2.4889999076149247,-0.07999999804626934
0.02897941693663597,-0.044963106513023376,9.870622634887695,0,-0.00930000003427267,0.04899999871850014,-0.620999998924766,-1.304999955206437,0.009999999755783667
0.045556869357824326,-0.03424666076898575,9.875718116760254,0.006300000008195639,0.002099999925121665,0.058799996972084045,1.0230000139534166,1.5810000021604245,0.0030000000934877653
0.04139095917344093,-0.03430412337183952,9.871877670288086,0.010599999688565731,-0.0004999999655410647,0.04899999871850014,-0.26300000916848465,-0.6810000091321545,-0.04900000055424296
0.03445735201239586,-0.04498226195573807,9.875028610229492,-0.0009999999310821295,-0.009599999524652958,0.058799996972084045,-0.325000010822644,-2.891000082726134,0.12700000381868817
0.04577713832259178,-0.04443638399243355,9.86775016784668,0.0007999999797903001,-0.008700000122189522,0.04899999871850014,0.14300000209392072,-0.49799997799961937,-0.01700000066872456
0.03833595663309097,-0.04367023706436157,9.880363464355469,-0.00039999998989515007,-0.008999999612569809,0.05889999866485596,0.7110000142358488,3.3430000173261867,-0.09899999683187131
0.04829583689570427,-0.028376078233122826,9.886204719543457,0.018400000408291817,0.008599999360740185,0.06859999895095825,0.3319999942265551,5.448999841996997,0.03400000133744912
0.021337125450372696,-0.049828123301267624,9.884998321533203,0.0037999998312443495,-0.02159999869763851,0.06859999895095825,-1.3180000463527928,1.9509999939581835,-0.05099999867112037
0.049732357263565063,-0.04363192990422249,9.878572463989258,0.03909999877214432,-0.007599999662488699,0.058799996972084045,-1.1839999524084877,2.8719999905590394,0.09999999922536333
0.04770207777619362,-0.0283186174929142,9.874167442321777,0.04479999840259552,0.016899999231100082,0.058799996972084045,-1.300000043290576,2.8989999417915113,0.09399999820462447
0.04770207777619362,-0.0283186174929142,9.874167442321777,0.04479999840259552,0.016899999231100082,0.058799996972084045,-1.300000043290576,2.8989999417915113,0.09399999820462447
0.03675578162074089,-0.03950433060526848,9.867194175720215,0.052400000393390656,0.0008999999845400453,0.03929999843239784,0.37299999230812847,3.8150000264765063,-0.11500000177721047
0.03675578162074089,-0.03950433060526848,9.867194175720215,0.05269999802112579,0,0.04910000041127205,0.8919999738803338,1.829000008777062,0.0329999989439571
0.04833414405584335,-0.02848142385482788,9.87641716003418,0.06780000030994415,-0.00279999990016222,0.04910000041127205,1.5569999980774691,-1.9990000021240943,0.09800000110848592
0.03529053181409836,-0.04400542750954628,9.87918472290039,0.07339999824762344,0.013899999670684338,0.05889999866485596,-1.3010000256737484,-1.4539999983417362,-0.02600000053230619
0.042904093861579895,-0.04308605194091797,9.872049331665039,0.0478999987244606,-0.00989999994635582,0.05889999866485596,-1.3010000256737484,-1.4539999983417362,-0.02600000053230619
0.03692816570401192,-0.04593036696314812,9.870278358459473,0.05549999698996544,-0.0064999996684491634,0.04910000041127205,0.9510000017045502,0.2360000045751598,0.012000000373951061
0.04135265201330185,-0.04993347078561783,9.874492645263672,0.05549999698996544,-0.0064999996684491634,0.04910000041127205,-2.0210000414407054,-2.0100000217823997,-0.0329999989439571
0.03172796219587326,-0.04000232368707657,9.881521224975586,0.06549999862909317,-0.019199999049305916,0.05889999866485596,1.1240000489228048,2.156999993429649,0.0329999989439571
0.039140406996011734,-0.03408385440707207,9.8727388381958,0.065700002014637,0.002199999988079071,0.04910000041127205,-0.3510000063523703,-4.491000070331947,0.07999999804626934
0.051408298313617706,-0.04026089608669281,9.874703407287598,0.06269999593496323,-0.0064999996684491634,0.058799996972084045,0.6089999968832882,4.64800007925433,0.049999999612681666
0.04258805885910988,-0.050584692507982254,9.868975639343262,0.06520000100135803,-0.017899999395012856,0.04910000041127205,-0.3220000103122746,-5.51499995994683,0
0.03056916780769825,-0.04355531558394432,9.868861198425293,0.03790000081062317,-0.0071000000461936,0.04899999871850014,0.6669999889634796,0.7739999715927539,0.08400000095013078
0.041410114616155624,-0.034543540328741074,9.868975639343262,0.04919999837875366,0.0010999999940395355,0.04899999871850014,-1.459000016979303,-1.683000019512985,-0.015999999942759198
0.03826892003417015,-0.04675397276878357,9.86392879486084,0.03439999744296074,-0.004600000102072954,0.03920000046491623,0.42899999294154895,-6.885000157441634,-0.0329999989439571
0.0447811484336853,-0.0377996563911438,9.871561050415039,0.022599998861551285,0.0037999998312443495,0.04899999871850014,0.32899999371618566,5.686000149120447,0.021999999295971403
0.03616202250123024,-0.03798161819577217,9.873726844787598,0.026200000196695328,0.0030999998562037945,0.058799996972084045,-1.1699999856006655,4.901999873448294,0.0009999999964224499
0.039724595844745636,-0.03668874874711037,9.858939170837402,0.04989999905228615,0.0064999996684491634,0.03920000046491623,-1.2170000113834043,-2.1329999893466938,0.05600000063342052
0.033279404044151306,-0.02540726773440838,9.876358985900879,0.034299999475479126,0.019299998879432678,0.058799996972084045,0.15699999558216926,-6.191999772742031,-0.024999999806340833
0.037636853754520416,-0.028807034716010094,9.852245330810547,0.017099998891353607,0.009099999442696571,0.029399998486042023,1.569999982502119,-4.140999832919338,0.11400000605382507
0.0342370830476284,-0.036554671823978424,9.870019912719727,0.00559999980032444,0.004699999932199717,0.04899999871850014,1.6239999916887686,-5.16399995359446,0.11099999887334903
0.042243294417858124,-0.0383838415145874,9.864408493041992,0.0010999999940395355,-0.009499999694526196,0.04899999871850014,2.0560000651819665,-3.8579999092831447,0.06200000165415938
0.051666874438524246,-0.03374866768717766,9.865921020507812,-0.0009999999310821295,-0.006000000052154064,0.04910000041127205,1.9460000820423227,2.5410000587569357,0.09300000248123906
0.034323275089263916,-0.03521391749382019,9.881694793701172,-0.014599999412894249,-0.010599999688565731,0.05889999866485596,2.314999984735204,-4.110999934537349,-0.012000000373951061
0.032283417880535126,-0.02137543261051178,9.863622665405273,-0.02579999901354313,-0.0071000000461936,0.03929999843239784,0.4519999879609058,-6.148999889935393,0.015999999942759198
0.0331740565598011,-0.04019385948777199,9.866217613220215,-0.04259999841451645,-0.027899999171495438,0.04919999837875366,-1.5800000197772524,-6.512999880712413,-0.0019999999928448997
0.041668687015771866,-0.04128561541438103,9.875784873962402,-0.05040000006556511,-0.023499999195337296,0.05909999832510948,-2.5929999964555352,0,0.024000000747902123
0.029630640521645546,-0.02421974390745163,9.873141288757324,-0.04559999704360962,0.008100000210106373,0.04919999837875366,2.6319999497294853,-0.29699999716572056,0.06700000028140622
0.037071820348501205,-0.04269340634346008,9.874818801879883,-0.04619999974966049,-0.01860000006854534,0.05900000035762787,-0.6530000221556574,-8.798999736005388,0.08400000095013078
0.036985624581575394,-0.04782657325267792,9.858786582946777,-0.07000000029802322,-0.016699999570846558,0.03959999978542328,-1.9840000529331001,4.646999883427746,0.03899999996469596
0.048468220978975296,-0.027504589408636093,9.864705085754395,-0.037299998104572296,0.008299999870359898,0.049300000071525574,2.5390000939905915,-5.542999893562475,0.06800000267489824
0.04286578670144081,-0.04826710373163223,9.864015579223633,-0.06199999898672104,-0.027899999171495438,0.03959999978542328,-2.63800005747193,-0.35199998873554245,0.0039999999856897995
0.05406107380986214,-0.03704308718442917,9.848194122314453,-0.052799999713897705,-0.0009999999310821295,0.02979999966919422,2.545999970672797,3.680000056870735,0.019000000453128628
0.04186980053782463,-0.028653806075453758,9.86628532409668,-0.05219999700784683,0.0017999999690800905,0.049300000071525574,-2.34399990073402,-8.598000075336607,-0.009999999755783667
0.04218583181500435,-0.03781880810856819,9.861419677734375,-0.07539999485015869,-0.001500000013038516,0.039799999445676804,2.816999892267512,2.5829999591804023,0.10100000161885533
0.04008851200342178,-0.03706223890185356,9.849745750427246,-0.06790000200271606,-0.009099999442696571,0.029899999499320984,-2.4560000620834197,4.714999966143924,0.012000000373951061
0.04338293522596359,-0.04697423428297043,9.861123085021973,-0.05460000038146973,-0.012199999764561653,0.03959999978542328,-0.7269999991708681,-8.650000013035207,0.010999999647985701
0.03179499879479408,-0.03876691311597824,9.872078895568848,-0.0876999944448471,-0.010099999606609344,0.04959999769926071,2.675000045979535,5.976000162882256,0.031999999885518396
0.04395754262804985,-0.029592333361506462,9.855855941772461,-0.06109999865293503,-0.007599999662488699,0.03959999978542328,-2.7830000643528345,2.2099999135114206,0.029999998433587676
0.03820187970995903,-0.03476380929350853,9.869417190551758,-0.06439999490976334,0,0.04939999803900719,-2.276000031461254,-6.638999795426224,0.03899999996469596
0.03440946713089943,-0.042616792023181915,9.875612258911133,-0.08209999650716782,-0.003499999875202775,0.05939999967813492,0.46600000812958076,-9.751000040258228,0.0019999999928448997
0.0390925258398056,-0.03415089473128319,9.864906311035156,-0.09849999845027924,0.004999999888241291,0.049799997359514236,3.2080000477204154,-1.988999964848961,0.12400000330831876
0.04352658987045288,-0.03553953021764755,9.875478744506836,-0.10339999943971634,-0.003700000001117587,0.059699997305870056,2.4100000186838533,7.45900029066622,0.1180000022875799
0.042923249304294586,-0.03691859170794487,9.871015548706055,-0.08249999582767487,-0.010199999436736107,0.04959999769926071,3.141999929770582,4.023999973097489,0.12799999954207358
0.03653552010655403,-0.03917871415615082,9.863182067871094,-0.08069999516010284,-0.028599999845027924,0.03969999775290489,2.4950000153573693,7.131999861509982,-0.024000000747902123
0.03659297898411751,-0.031143775209784508,9.857924461364746,-0.06069999933242798,-0.025499999523162842,0.03949999809265137,2.491000085824681,10.201999992475109,0.1199999937343507
0.04850652813911438,-0.04874594509601593,9.871399879455566,-0.00930000003427267,-0.05269999802112579,0.04910000041127205,2.5660000452230634,5.208000032227682,0.06899999839828364
0.037004780024290085,-0.03489788621664047,9.866927146911621,-0.016099998727440834,-0.039000000804662704,0.04910000041127205,3.4079999394494362,-5.226000142011604,0.16400000566650674
0.0382784940302372,-0.04054819792509079,9.872289657592773,-0.03019999898970127,-0.05790000036358833,0.04919999837875366,1.8819999288588338,-7.918999870888238,-0.043999998591942806
0.04435976967215538,-0.03691859170794487,9.863221168518066,-0.04179999977350235,-0.05299999937415123,0.03949999809265137,-2.5920000140723634,-5.0629998119033655,-0.031999999885518396
0.03997359052300453,-0.0388626828789711,9.847341537475586,-0.055399999022483826,-0.05549999698996544,0.02979999966919422,-1.9260000074920558,7.51199999730458,0.04900000055424296
0.030061595141887665,-0.029467834159731865,9.860758781433105,-0.04179999977350235,-0.049300000071525574,0.039400000125169754,2.649000077130235,4.203000021336482,0.02899999937514897
0.05813121795654297,-0.02516784891486168,9.864551544189453,-0.0279999990016222,-0.03819999843835831,0.049300000071525574,-3.3819999706001367,1.2150000466170598,0.008999999863581633
0.02960190922021866,-0.01817677915096283,9.87816047668457,-0.0279999990016222,-0.03819999843835831,0.049300000071525574,2.4599999916161086,4.023999973097489,-0.09000000197086964
0.04326801374554634,-0.03926490619778633,9.878927230834961,-0.03280000016093254,-0.054899998009204865,0.05900000035762787,-2.0080000570160554,-3.54399989143838,0.014999999216793838
0.04296155646443367,-0.03699520602822304,9.877326965332031,-0.03280000016093254,-0.054899998009204865,0.05900000035762787,2.1050000557310495,2.1809999975126044,0.03400000133744912
0.04548025503754616,-0.03746446967124939,9.851728439331055,-0.03799999877810478,-0.04339999705553055,0.029600000008940697,-1.312000045332054,-8.557999926236073,-0.11400000605382507
0.0488225594162941,-0.042310334742069244,9.882843017578125,-0.05130000039935112,-0.04939999803900719,0.05920000001788139,2.0739999615224773,-0.04500000098543482,0.035000000395887826
0.045987825840711594,-0.03490746021270752,9.851555824279785,-0.060999996960163116,-0.044999998062849045,0.02979999966919422,-1.7479999416362346,5.590999901728385,0.07300000130214508
0.03307829052209854,-0.03158430755138397,9.874272346496582,-0.0551999993622303,-0.03999999910593033,0.05909999832510948,0.12400000330831876,-8.128000244396043,0.0539999991814898
0.043660663068294525,-0.033614594489336014,9.858260154724121,-0.07009999454021454,-0.04010000079870224,0.03969999775290489,0.49600001323327503,1.1889999710460544,0.11599999750059588
0.03883394971489906,-0.042406100779771805,9.862051963806152,-0.06700000166893005,-0.05079999938607216,0.03969999775290489,0.9539999488540668,5.4850000615648415,0.0269999995907449
0.040078938007354736,-0.03924575448036194,9.861065864562988,-0.05159999802708626,-0.053199999034404755,0.03949999809265137,-2.1009999127549492,1.2050000093419266,0.05799999875029794
0.038019925355911255,-0.04955039918422699,9.854687690734863,-0.05779999867081642,-0.05700000002980232,0.03949999809265137,-1.585000038414819,-7.6880003118374685,-0.06200000165415938
0.05229894071817398,-0.03748362511396408,9.869407653808594,-0.05889999866485596,-0.03280000016093254,0.0494999997317791,0.3980000054546825,-4.210000111462099,-0.07900000232288394
0.05081453546881676,-0.033662475645542145,9.845550537109375,-0.07159999758005142,-0.033799998462200165,0.029999999329447746,1.453000015958564,-4.76100000954349,0.0859999990670082
0.029582755640149117,-0.033116597682237625,9.853519439697266,-0.1021999940276146,-0.03700000047683716,0.03009999915957451,0.23300000406479038,-0.8819999899660533,0.05099999867112037
0.04575798287987709,-0.03573106601834297,9.875718116760254,-0.09439999610185623,-0.03739999979734421,0.05959999933838844,0.8680000231582313,-3.269000040310976,0.26600000967885407
0.04031835496425629,-0.03063620626926422,9.855137825012207,-0.10289999842643738,-0.03959999978542328,0.04010000079870224,2.2939999278017646,-0.19999999845072666,0.0269999995907449
0.03362416848540306,-0.044896069914102554,9.87281608581543,-0.11270000040531158,-0.055399999022483826,0.04989999905228615,0.35899999881987993,-5.8659999662992,-0.046999999102312236
0.030741550028324127,-0.04125688597559929,9.878888130187988,-0.13019999861717224,-0.056299999356269836,0.05999999865889549,-2.9619998991484167,-3.244000053844849,-0.007999999971379599
0.04739561676979065,-0.03654509410262108,9.868152618408203,-0.12759999930858612,-0.03909999877214432,0.0502999983727932,-1.5800000197772524,-0.43699998540905866,0.009999999755783667
0.028778305277228355,-0.032733526080846786,9.868487358093262,-0.1379999965429306,-0.03460000082850456,0.0502999983727932,-0.17100000241063099,5.217000087119644,0.17100000241063099
0.042099643498659134,-0.045154642313718796,9.863085746765137,-0.11329999566078186,-0.043699998408555984,0.04019999876618385,0.6639999884531101,-4.354999904899592,0.0019999999928448997
0.03476380929350853,-0.04269340634346008,9.860098838806152,-0.13439999520778656,-0.04529999941587448,0.04039999842643738,-0.49099999459570837,-2.4210000383421586,-0.05999999686717535
0.042999863624572754,-0.04143884405493736,9.86361312866211,-0.1305999904870987,-0.043699998408555984,0.04050000011920929,0.18600000496247812,-2.856000058984873,0.13499999628619785
0.04362235590815544,-0.03380613029003143,9.879088401794434,-0.13769999146461487,-0.034199997782707214,0.06019999831914902,0.9389999996630725,-0.14499999354069154,0.07099999651516105
0.03469676896929741,-0.03855622559785843,9.871169090270996,-0.14720000326633453,-0.046299997717142105,0.05040000006556511,-3.3650000566427978,2.37400001255942,0.004999999877891834
0.03907337039709091,-0.030444670468568802,9.857464790344238,-0.13019999861717224,-0.02709999866783619,0.04050000011920929,0.9329999986423336,6.113000097254371,0.09500000059811649
0.033116597682237625,-0.029611486941576004,9.873620986938477,-0.1225999966263771,-0.029500000178813934,0.04019999876618385,0.1939999974299878,4.692999926827312,-0.07199999890865307
0.045231256633996964,-0.03447650372982025,9.858929634094238,-0.0989999994635582,-0.027400000020861626,0.03999999910593033,-1.6599999978132018,0.1729999938574018,-0.012000000373951061
0.03643017262220383,-0.0381539985537529,9.851834297180176,-0.10779999941587448,-0.022699998691678047,0.03019999898970127,-1.6330000465807297,-3.3050000464354095,0.01700000066872456
0.04895663633942604,-0.03614286705851555,9.868430137634277,-0.0965999960899353,-0.01809999905526638,0.04989999905228615,-0.2499999980634083,2.2579999216773317,0.07000000079177565
0.03426581621170044,-0.043114785104990005,9.854715347290039,-0.10949999839067459,-0.02709999866783619,0.03999999910593033,1.3169999572479147,5.0889997807526655,0.08899999957737763
0.04564306139945984,-0.029745562002062798,9.861180305480957,-0.0851999968290329,-0.02070000022649765,0.039799999445676804,-0.8600000040102952,5.0880000118129045,-0.03100000082707969
0.02405693754553795,-0.04832456633448601,9.86087417602539,-0.09039999544620514,-0.03790000081062317,0.03969999775290489,1.3719999488177366,-3.7579999634186345,0.08499999667351618
0.031191660091280937,-0.03244622051715851,9.858431816101074,-0.09039999544620514,-0.021900000050663948,0.039799999445676804,-0.3089999992071983,5.073999831561671,0.05600000063342052
0.03999274596571922,-0.033423058688640594,9.85705280303955,-0.06629999727010727,-0.020899999886751175,0.03959999978542328,0.7249999810436709,2.2579999216773317,0.0030000000934877653
0.045556869357824326,-0.0450301431119442,9.869742393493652,-0.059699997305870056,-0.032600000500679016,0.04939999803900719,3.1600000395545047,0.9479999478333279,0.0659999978879142
0.033097442239522934,-0.042549751698970795,9.866179466247559,-0.06619999557733536,-0.04209999740123749,0.04939999803900719,-1.6280000279431632,4.254000190095321,0.007999999971379599
0.03653552010655403,-0.03769431263208389,9.858834266662598,-0.05559999868273735,-0.028299998492002487,0.03949999809265137,0.7639999876784734,-2.4320000580004644,0.16500000138989213
0.03754108399152756,-0.044187385588884354,9.864982604980469,-0.06199999898672104,-0.03999999910593033,0.049300000071525574,-1.452000033575392,4.720000091503196,0.03699999851276524
0.04067269712686539,-0.042339060455560684,9.85673713684082,-0.03889999911189079,-0.03590000048279762,0.039400000125169754,1.1089999930101049,1.1469999639008823,-0.02800000031671026
0.03469676896929741,-0.03389231860637665,9.848136901855469,-0.04529999941587448,-0.028999999165534973,0.029600000008940697,-2.418000091192642,-2.14000007947231,-0.08100000043976135
0.04604528844356537,-0.03031059354543686,9.851134300231934,-0.041099999099969864,-0.022199999541044235,0.029600000008940697,1.7219999727869348,-4.951000077440789,0.03400000133744912
0.04926309734582901,-0.04408204182982445,9.868775367736816,-0.044599998742341995,-0.03659999743103981,0.049300000071525574,0.934999963408678,7.918999870888238,0.10999999647985702
0.03346136584877968,-0.04310520738363266,9.86872673034668,-0.04230000078678131,-0.039000000804662704,0.04919999837875366,0.3499999972887716,1.8980000738764118,-0.009999999755783667
0.03458184748888016,-0.04557602480053902,9.858939170837402,-0.03689999878406525,-0.039799999445676804,0.03929999843239784,2.3220000748608203,-4.022999777270905,0.0969999987149939
0.034361582249403,-0.03538630157709122,9.860931396484375,-0.04769999906420708,-0.03619999811053276,0.039400000125169754,1.5089999899115583,-7.083999853344071,0.09399999820462447
0.034256238490343094,-0.036966472864151,9.872730255126953,-0.06929999589920044,-0.0405999980866909,0.04939999803900719,0.6080000145001161,5.773999879500067,0.04500000098543482
0.04408204182982445,-0.03122996725142002,9.870019912719727,-0.045399997383356094,-0.04189999774098396,0.049300000071525574,-3.5409999442888633,8.778000319402185,-0.019999999511567335
0.04112280532717705,-0.031909920275211334,9.865155220031738,-0.021199999377131462,-0.03199999779462814,0.04910000041127205,-2.3230000572439926,5.132000090446127,-0.17899999487814064
0.04168783873319626,-0.04553771764039993,9.878227233886719,-0.00699999975040555,-0.03529999777674675,0.05889999866485596,-0.029999998433587676,1.6989999510871514,0.010999999647985701
0.03923618048429489,-0.04429273307323456,9.866371154785156,-0.002199999988079071,-0.035099998116493225,0.04899999871850014,-0.23399998644796255,4.419999827022841,0.008999999863581633
0.035415031015872955,-0.054606951773166656,9.85482120513916,0.011399999260902405,-0.04399999976158142,0.04899999871850014,-3.61700009951383,7.633999982485702,-0.019000000453128628
0.04590163379907608,-0.027102364227175713,9.860051155090332,-0.0008999999845400453,-0.03819999843835831,0.03920000046491623,-1.2280000310417098,9.011000270106122,0.15699999558216926
0.04256890341639519,-0.043497856706380844,9.857580184936523,0.05429999902844429,-0.01489999983459711,0.03920000046491623,1.4859999682117748,10.767000070807734,0.2140000052791884
0.03937982767820358,-0.029161376878619194,9.856200218200684,0.08370000123977661,-0.009099999442696571,0.03929999843239784,2.861999953283906,-6.093999791643865,0.11099999887334903
0.04368939250707626,-0.04112280532717705,9.855137825012207,0.06469999998807907,-0.02759999968111515,0.03920000046491623,1.1610000374304101,-10.091999795892054,-0.06200000165415938
0.03905421867966652,-0.04161122441291809,9.867653846740723,0.04039999842643738,-0.030299998819828033,0.04899999871850014,-0.23699998695833197,10.201000223535349,-0.02800000031671026
0.03322194144129753,-0.038450878113508224,9.857819557189941,0.05829999968409538,-0.029500000178813934,0.03929999843239784,2.1390000970891383,8.343000085316058,0.13700000107318186
0.03227383643388748,-0.04165910929441452,9.87220287322998,0.08089999854564667,-0.03529999777674675,0.04919999837875366,1.882999911242006,-11.897000227472983,0.06299999737754478
0.04154418781399727,-0.028874073177576065,9.859676361083984,0.05790000036358833,-0.030499998480081558,0.03920000046491623,-0.5739999731420273,10.768999608687256,0.048000001495804245
0.05339069664478302,-0.041525036096572876,9.851900100708008,0.1005999967455864,-0.03839999809861183,0.029600000008940697,1.7500000131242845,-13.637000310043842,0.05099999867112037
0.0308085884898901,-0.04602613300085068,9.871053695678711,0.04800000041723251,-0.042399998754262924,0.04899999871850014,-4.02099981250456,5.1269999650868545,-0.08799999718388561
0.027897236868739128,-0.032972946763038635,9.863603591918945,0.05199999734759331,-0.02149999886751175,0.03929999843239784,3.1860000084038043,-10.541999979169175,0.05200000106461238
0.03803907707333565,-0.036267369985580444,9.869953155517578,0.03269999846816063,-0.03009999915957451,0.04899999871850014,-0.3019999891228608,-1.3879999871136088,0
0.03682282194495201,-0.03463931009173393,9.846307754516602,0.028699999675154686,-0.029099998995661736,0.029399998486042023,-3.685999951169768,-4.450000152291653,-0.1189999980109653
0.037550657987594604,-0.04379473999142647,9.861007690429688,0.014800000004470348,-0.027499999850988388,0.03920000046491623,3.1240000334300713,-2.0759999262888216,0.08799999718388561
0.0430094376206398,-0.03488830476999283,9.84895133972168,0.019500000402331352,-0.02499999850988388,0.029399998486042023,-3.1649999514703655,8.274999575713059,0.08899999957737763
0.032168496400117874,-0.03222595527768135,9.858000755310059,0.03229999914765358,-0.016200000420212746,0.03920000046491623,-3.4309999611492197,1.660999980196374,-0.01400000015835513
0.03483084589242935,-0.02936249040067196,9.860021591186523,0.03669999912381172,-0.006799999624490738,0.03920000046491623,-3.0010000658657776,3.2139999420194485,0.007000000079177565
0.04222413897514343,-0.024095244705677032,9.87641716003418,0.05509999766945839,0.01119999960064888,0.058799996972084045,3.3109999407344426,-7.74299955635535,0.029999998433587676
0.04068227484822273,-0.04008851200342178,9.87842845916748,0.031099999323487282,-0.018400000408291817,0.058799996972084045,2.444000060041942,-7.0509997943691545,0.13300000483942703
0.04847779497504234,-0.028356924653053284,9.856478691101074,0.023899998515844345,-0.004600000102072954,0.03920000046491623,3.5919998996042906,-5.568000093472014,0.043999998591942806
0.034352004528045654,-0.03532884269952774,9.874454498291016,-0.010999999940395355,-0.02419999986886978,0.058799996972084045,2.8460000217097394,-6.436000169991098,-0.019999999511567335
0.03913083299994469,-0.030913932248950005,9.861841201782227,-0.018799999728798866,-0.03189999982714653,0.03929999843239784,1.6230000093055965,12.13999957512182,0.04900000055424296
0.04263594374060631,-0.042003877460956573,9.864800453186035,0.0142000000923872,-0.04609999805688858,0.04899999871850014,3.2609999678021873,4.555999992455197,0.14799999405106096
0.0362577885389328,-0.04078762233257294,9.86571979522705,0.02669999934732914,-0.045099999755620956,0.04899999871850014,-0.4270000014947782,-18.302000730142332,-0.06399999977103679
0.0328197181224823,-0.03305913507938385,9.866255760192871,-0.010799999348819256,-0.06480000168085098,0.04910000041127205,-0.8110000134612122,-5.599000187680586,-0.08200000283325337
0.03711012750864029,-0.037742193788290024,9.869043350219727,-0.07609999924898148,-0.05130000039935112,0.0494999997317791,-3.497000079099053,14.208999624728436,-0.0039999999856897995
0.04500141367316246,-0.02978386916220188,9.858441352844238,-0.027300000190734863,-0.04149999842047691,0.039400000125169754,1.4059999901758253,18.10199913086602,0.16400000566650674
0.045911211520433426,-0.04106534644961357,9.859216690063477,0.022299999371170998,-0.054999999701976776,0.03920000046491623,-3.051000038798033,-5.442000178758203,-0.008999999863581633
0.02606806717813015,-0.03203441947698593,9.877269744873047,-0.01209999993443489,-0.03659999743103981,0.058799996972084045,-3.343999999709359,6.290000180727021,0.0009999999964224499
0.040414124727249146,-0.04272213205695152,9.864627838134766,0.02459999918937683,-0.03709999844431877,0.04899999871850014,0.4849999935749695,2.3669999224338034,0.12499999903170415
0.03410300984978676,-0.04262636601924896,9.87228012084961,0.022099999710917473,-0.03839999809861183,0.04899999871850014,-4.5729999064125355,-3.7599999281849787,-0.004999999877891834
0.027542896568775177,-0.03344221040606499,9.875459671020508,0.0032999999821186066,-0.017500000074505806,0.058799996972084045,1.3339999779269591,2.5880000845396745,0.1610000051561373
0.05241386592388153,-0.04638047516345978,9.88676929473877,0.04149999842047691,-0.03179999813437462,0.06859999895095825,-0.4199999914104407,-14.79200066661863,0.07000000079177565
0.048899173736572266,-0.04210921749472618,9.871370315551758,0.011099999770522118,-0.030799999833106995,0.04899999871850014,3.5269999774810414,14.926999355563932,0.04500000098543482
0.04317224398255348,-0.04106534644961357,9.859696388244629,0.04209999740123749,-0.040300000458955765,0.03920000046491623,-3.4799999516983027,13.8979997674766,0.10199999734224074
0.040557775646448135,-0.04933971166610718,9.849276542663574,0.07999999821186066,-0.04050000011920929,0.029500000178813934,1.1149999940308437,-24.943999405501014,-0.01400000015835513
0.03514688089489937,-0.04032793268561363,9.8682861328125,0.0017999999690800905,-0.03359999880194664,0.04899999871850014,-0.05099999867112037,2.326000004393509,-0.031999999885518396
0.029103916138410568,-0.03502238169312477,9.864762306213379,0.008499999530613422,-0.023499999195337296,0.04899999871850014,1.1550000364096713,20.77500049273968,-0.15500000413539844
0.03460100293159485,-0.045413218438625336,9.876935005187988,0.0616999976336956,-0.03610000014305115,0.05889999866485596,-0.711999996619021,-19.278999526757417,-0.18400000017549412
0.035913024097681046,-0.034936193376779556,9.874434471130371,0.008799999952316284,-0.02419999986886978,0.058799996972084045,3.370999950941831,-11.011000041169977,-0.02800000031671026
0.03370078280568123,-0.028845341876149178,9.86704158782959,-0.021299999207258224,-0.033399999141693115,0.04910000041127205,5.618999835344029,-7.956999628335605,-0.06800000267489824
0.04737646505236626,-0.04431188479065895,9.868861198425293,-0.033299997448921204,-0.058399997651576996,0.04919999837875366,3.8489998543911836,3.18400004363746,-0.01400000015835513
0.03254198655486107,-0.044493842869997025,9.860184669494629,-0.03439999744296074,-0.06879999488592148,0.039400000125169754,5.5700000582383575,4.28000015894462,0.09300000248123906
0.03374866768717766,-0.034399889409542084,9.868688583374023,-0.022599998861551285,-0.07400000095367432,0.04919999837875366,3.8779999838334116,2.9979999052728497,0.11500000177721047
0.043306320905685425,-0.03775177523493767,9.85974407196045,-0.004600000102072954,-0.0843999981880188,0.039400000125169754,0.545000003782358,-23.02699923945751,0.22299999347008345
0.03658340126276016,-0.0367366299033165,9.865968704223633,-0.07729999721050262,-0.08559999614953995,0.04969999939203262,5.30299985273292,12.366000289473787,0.09099999769425504
0.04066311940550804,-0.0471561960875988,9.877547264099121,-0.03350000083446503,-0.10969999432563782,0.05929999798536301,-10.125999623806731,-19.72899971003454,0.021000000237532696
0.04092169553041458,-0.034064702689647675,9.88197135925293,-0.0843999981880188,-0.06839999556541443,0.059699997305870056,1.3180000463527928,-12.552000000951574,0.08499999667351618
0.03337517008185387,-0.02362598292529583,9.875219345092773,-0.2246999889612198,-0.05689999833703041,0.06189999729394913,5.383000150933987,35.577000556303204,-0.06299999737754478
0.02793554589152336,-0.04299028217792511,9.858518600463867,-0.13669998943805695,-0.0908999964594841,0.04050000011920929,9.510999999428675,28.0669992431045,0.1400000015835513
0.037924155592918396,-0.032120607793331146,9.866045951843262,-0.04959999769926071,-0.10689999908208847,0.04959999769926071,2.254999974527815,-9.802999977956828,-0.16500000138989213
0.03532884269952774,-0.04042370244860649,9.881281852722168,-0.0794999971985817,-0.1232999935746193,0.059699997305870056,0.5050000147643833,34.4609988723419,0.28499999512424284
0.03988740220665932,-0.03913083299994469,9.870230674743652,0.012999999336898327,-0.12409999966621399,0.0494999997317791,2.9070000143003005,-45.91099822335705,-0.04200000047506539
0.052595820277929306,-0.028404807671904564,9.85757064819336,-0.10249999910593033,-0.11209999769926071,0.040699999779462814,-1.4580000345961308,18.86600018576155,0.3240000017590454
0.03702393174171448,-0.03722504898905754,9.86748218536377,-0.07019999623298645,-0.11749999970197678,0.04989999905228615,3.497000079099053,21.250999791092454,0.11299999699022645
0.037636853754520416,-0.05316085368394852,9.880372047424316,-0.011799999512732029,-0.14630000293254852,0.05939999967813492,-2.940000073275217,62.96500044873299,-0.09500000059811649
0.039322368800640106,-0.048382025212049484,9.855942726135254,0.19189999997615814,-0.13679999113082886,0.04099999740719795,0.7029999950879127,-14.831999961945517,-0.3459999877148036
0.035108573734760284,-0.03518518805503845,9.866093635559082,0.14639998972415924,-0.11840000003576279,0.0502999983727932,3.665999876619501,29.21000066485487,0.07799999992939192
0.030904356390237808,-0.04597824811935425,9.86802864074707,0.22599999606609344,-0.13779999315738678,0.05179999768733978,-6.8709999771904,-44.528998237264176,0.14900000311465958
0.03868072107434273,-0.03449565917253494,9.872931480407715,0.1136000007390976,-0.1087999939918518,0.04969999939203262,-1.9899999472321332,23.490000687819748,0.08400000095013078
0.038048651069402695,-0.020369866862893105,9.865011215209961,0.16769999265670776,-0.11270000040531158,0.040699999779462814,-0.17400000292100043,-9.891999904163033,0.2899999870813831
0.03394020348787308,-0.04124730825424194,9.876168251037598,0.21149998903274536,-0.1298999935388565,0.06119999662041664,-3.9379997805973885,-5.912999778638527,-0.2399999874687014
0.03663128614425659,-0.0447811484336853,9.875123977661133,0.1946999877691269,-0.11869999766349792,0.06079999729990959,-15.66199942724359,-27.14500054478094,0.05300000012305109
0.05447287857532501,-0.043277591466903687,9.865518569946289,0.13939999043941498,-0.07539999485015869,0.04959999769926071,3.7650000535442514,-5.963999947397366,0.006000000186975531
0.04135265201330185,-0.03291548416018486,9.867691993713379,0.1127999946475029,-0.07559999823570251,0.0494999997317791,-13.512999933209551,-22.801000232652832,-0.024999999806340833
0.04135265201330185,-0.03291548416018486,9.867691993713379,0.1127999946475029,-0.07559999823570251,0.0494999997317791,-13.512999933209551,-22.801000232652832,-0.024999999806340833
0.038824375718832016,-0.027044903486967087,9.86954116821289,0.04209999740123749,-0.023899998515844345,0.04899999871850014,0.22800001210765014,0.3240000017590454,-0.2780000117203318
0.03779008239507675,-0.04149630293250084,9.854084014892578,0.03280000016093254,-0.043800000101327896,0.029399998486042023,11.681999532779322,-26.147999539181473,-0.19200000598321698
0.03656424582004547,-0.029343336820602417,9.867194175720215,-0.039000000804662704,-0.06579999625682831,0.049300000071525574,-16.51199939397875,-37.0229994149191,0.03400000133744912
0.03399766609072685,-0.042453981935977936,9.872806549072266,-0.1403999924659729,-0.03009999915957451,0.0502999983727932,12.98800000397746,17.690000412583558,-0.4579999889816446
0.04842033237218857,-0.029439104720950127,9.871302604675293,-0.031300000846385956,-0.06759999692440033,0.04939999803900719,1.4350000128963476,-0.16899999762364695,-0.2159999967259592
0.034964919090270996,-0.030588321387767792,9.858355522155762,-0.031300000846385956,-0.06759999692440033,0.04939999803900719,-6.60600016333813,-16.771000167305633,0.06299999737754478
0.037071820348501205,-0.03179499879479408,9.861774444580078,-0.05119999870657921,-0.0714000016450882,0.03959999978542328,-17.032999393678153,-8.741000330894579,0.6879999925360656
0.03334644436836243,-0.03307829052209854,9.863239288330078,-0.12069999426603317,-0.006199999712407589,0.04019999876618385,-9.123000004568699,-11.938000145513278,0.3980000054546825
0.041266459971666336,-0.042339060455560684,9.87179183959961,-0.14329999685287476,0.008999999612569809,0.050599999725818634,5.6429998394269845,-12.889999595992471,-1.1479999462840547
0.04919605702161789,-0.04398627579212189,9.859265327453613,-0.16849999129772186,-0.006399999838322401,0.0414000004529953,0.475000009660689,13.733000326375663,-0.44099999498302667
0.04289451614022255,-0.032666489481925964,9.864034652709961,-0.140299990773201,0.002099999925121665,0.040699999779462814,2.5339999686313193,-11.387000247431887,-1.4629999465119916
0.04120900109410286,-0.04435976967215538,9.858929634094238,-0.17099998891353607,-0.014599999412894249,0.041200000792741776,0.8480000019688174,0.9320000162591615,1.7529999602738011
0.04884171113371849,-0.03891056403517723,9.857321739196777,-0.1581999957561493,-0.01679999940097332,0.041200000792741776,-5.180000098612038,-13.498999752958317,1.4689999475327304
0.04665820300579071,-0.03429454565048218,9.865211486816406,-0.2043999880552292,0.0072999997064471245,0.05179999768733978,1.080999952672755,9.30199962592087,1.3449999975852647
0.028692113235592842,-0.04355531558394432,9.869521141052246,-0.1979999989271164,-0.0052999998442828655,0.05119999870657921,-6.022999975221583,4.751999954651529,3.0689999351385437
0.02931460551917553,-0.03910209983587265,9.864245414733887,-0.17459999024868011,0.011299999430775642,0.050999999046325684,5.03899980782041,-4.600999840028179,-2.8239999823931288
0.038709454238414764,-0.025368960574269295,9.866753578186035,-0.1768999993801117,0.016899999231100082,0.05119999870657921,-0.635000019093441,-5.673000164695797,0.4210000004740393
0.03876691311597824,-0.03428496792912483,9.862262725830078,-0.19179999828338623,0.008899999782443047,0.04169999808073044,-1.6389999408797629,11.502000142487391,4.8669998497070335
0.04101746529340744,-0.04273171350359917,9.853432655334473,-0.15969999134540558,0.0037999998312443495,0.031300000846385956,-0.031999999885518396,-2.165000065938438,-6.878999836255778
0.03616202250123024,-0.03490746021270752,9.860921859741211,-0.15699999034404755,0.011899999342858791,0.04079999774694443,3.1720000415959824,-8.120000385330666,-0.8009999761860788
0.03974374756217003,-0.03950433060526848,9.869962692260742,-0.1687999963760376,-0.006599999964237213,0.050999999046325684,-4.33699979511567,-6.379999875872986,-0.7590000224017597
0.05022077634930611,-0.02981259860098362,9.857771873474121,-0.17599999904632568,0.01489999983459711,0.041600000113248825,2.4119999834501975,-8.044000016662288,3.1029999764966325
0.04343082010746002,-0.03834553435444832,9.860548973083496,-0.20719999074935913,-0.0011999999405816197,0.04209999740123749,1.3279999769062203,7.645000002144007,0.2499999980634083
0.042425256222486496,-0.04143884405493736,9.861238479614258,-0.18569999933242798,-0.004799999762326479,0.041600000113248825,-2.6679999558539182,-5.882999880256539,0.1199999937343507
0.03360501304268837,-0.03770388662815094,9.869521141052246,-0.210999995470047,0.012199999764561653,0.05169999971985817,-1.4640000356168696,-6.9529998132709885,-0.8909999914971617
0.04308605194091797,-0.04135265201330185,9.861754417419434,-0.21959999203681946,0.006300000008195639,0.042399998754262924,5.566000128705669,1.7060000412127683,0.8249999802690342
0.035817258059978485,-0.034160468727350235,9.864234924316406,-0.2240999937057495,0.0008999999845400453,0.05199999734759331,-2.196999929086771,8.350999944381437,0.3349999947369245
0.044302307069301605,-0.03628652170300484,9.865518569946289,-0.1907999962568283,0.00699999975040555,0.051500000059604645,-1.4150000450677866,2.346000078943776,-0.09600000299160849
0.03664086014032364,-0.033308133482933044,9.861276626586914,-0.19359999895095825,0.010799999348819256,0.04149999842047691,-0.8919999738803338,-8.01599965615982,-0.4519999879609058
0.04049073904752731,-0.0342370830476284,9.863920211791992,-0.20509999990463257,0.013199999928474426,0.041999999433755875,-0.9140000131969449,-3.5049999381644303,-0.9219999789840281
0.041314344853162766,-0.0428849421441555,9.873438835144043,-0.21400000154972076,0.005799999926239252,0.05209999904036522,-2.085999963563955,-0.3600000078834786,-0.5410000208888165
0.03982993960380554,-0.026757599785923958,9.871609687805176,-0.21439999341964722,0.031099999323487282,0.05209999904036522,-0.9709999695331112,-7.508999836711652,-0.21800000151294321
0.030406363308429718,-0.037713468074798584,9.846298217773438,-0.24409998953342438,0.023799998685717583,0.032999999821186066,3.1110000490054217,-0.4300000020051476,0.0039999999856897995
0.041955988854169846,-0.04851610213518143,9.869991302490234,-0.23489999771118164,-0.0052999998442828655,0.05260000005364418,-1.9380000095335337,-4.554000027688852,-0.3220000103122746
0.04104619100689888,-0.03314532712101936,9.863277435302734,-0.2450999915599823,0.018799999728798866,0.04309999942779541,-2.408000053917509,-4.454999850764103,-0.2780000117203318
0.0348404236137867,-0.027782315388321877,9.852091789245605,-0.26639997959136963,0.035099998116493225,0.03359999880194664,-3.255000073503154,-0.05200000106461238,0.2780000117203318
0.024842238053679466,-0.04120900109410286,9.865862846374512,-0.27559998631477356,0.024399999529123306,0.05329999700188637,1.1790000404926269,4.565999816286919,0.43499999396228783
0.04527914524078369,-0.030904356390237808,9.851058006286621,-0.24269999563694,0.030899999663233757,0.033299997448921204,3.0010000658657776,-4.1550000131705715,0.37100000086135765
0.03759854659438133,-0.045125916600227356,9.855291366577148,-0.2645999789237976,0.011899999342858791,0.04339999705553055,-2.8379999492009507,-2.6370000750887574,-0.30400000725005805
0.03203441947698593,-0.048142608255147934,9.867587089538574,-0.2700999975204468,0.008799999952316284,0.05339999869465828,-1.8329999383097506,-3.188999955553321,0.05600000063342052
0.04438849911093712,-0.033020827919244766,9.850961685180664,-0.26829999685287476,0.033299997448921204,0.03399999812245369,3.2080000477204154,1.5269999929737748,0.043999998591942806
0.030741550028324127,-0.017669208347797394,9.857426643371582,-0.27309998869895935,0.014699999243021011,0.04360000044107437,3.2499999481438815,4.480000050673642,0.363000008393848
0.040864236652851105,-0.04225287213921547,9.858891487121582,-0.2766000032424927,0.05159999802708626,0.043800000101327896,3.2499999481438815,4.480000050673642,0.363000008393848
0.04630386084318161,-0.04364151135087013,9.859399795532227,-0.25220000743865967,0.01209999993443489,0.043299999088048935,-2.7360000385700958,-1.1329999970930602,-0.14399999781730613
0.039274487644433975,-0.0400502048432827,9.859417915344238,-0.2410999983549118,0.019199999049305916,0.0429999977350235,-2.3360000416686426,1.9279999722584003,-0.12799999954207358
0.02806004323065281,-0.05239471048116684,9.863517761230469,-0.2547000050544739,0.015799999237060547,0.042899999767541885,0.5759999912692245,-3.0589998978634103,0
0.04474284127354622,-0.036104559898376465,9.862875938415527,-0.24269999563694,0.03370000049471855,0.04309999942779541,0.1629999966029081,3.9570000862078945,0.07199999890865307
0.03408385440707207,-0.03373908996582031,9.851766586303711,-0.23959998786449432,0.03319999948143959,0.032899998128414154,-0.9020000111554672,-3.317000048476887,-0.048000001495804245
0.037636853754520416,-0.033566705882549286,9.86638069152832,-0.2467999905347824,0.03519999980926514,0.052799999713897705,-2.2439999548695098,-2.839999913967295,-0.18400000017549412
0.04729985073208809,-0.04138138145208359,9.871858596801758,-0.24409998953342438,0.03150000050663948,0.05299999937415123,0.9999999922536332,-2.4159999129828864,0.01400000015835513
0.030109480023384094,-0.04002147540450096,9.855578422546387,-0.259799987077713,0.028599999845027924,0.043299999088048935,2.4470000071914586,2.9829999560818554,0.22199999774669807
0.044369347393512726,-0.03683239594101906,9.856851577758789,-0.2410999983549118,0.031700000166893005,0.0429999977350235,-1.3219999758854815,1.034000033611722,-0.1529999993484144
0.029735984280705452,-0.048449065536260605,9.861055374145508,-0.2410999983549118,0.031700000166893005,0.0429999977350235,0.43699998540905866,4.528000058839552,0.008999999863581633
0.0366121344268322,-0.03688985854387283,9.852551460266113,-0.23539999127388,0.03449999913573265,0.03280000016093254,1.7910000378862845,1.7149999893830237,0.16699999283666295
0.03869029879570007,-0.029841329902410507,9.853500366210938,-0.22019998729228973,0.029600000008940697,0.03269999846816063,0.3980000054546825,0.38100001145606455,0.13000000432905762
0.03654509410262108,-0.025292346253991127,9.858230590820312,-0.22829999029636383,0.03819999843835831,0.042399998754262924,-1.2119999927458376,1.200999973087532,0.17400000292100043
0.02976471558213234,-0.026546908542513847,9.868372917175293,-0.22439999878406525,0.0414000004529953,0.05219999700784683,1.4090000440470478,1.673999964621024,0.1930000017066024
0.03713885322213173,-0.0273705143481493,9.871302604675293,-0.2190999984741211,0.03749999776482582,0.05199999734759331,2.0790000868817495,0.023000000021936765,0.2499999980634083
0.03284844756126404,-0.03332728520035744,9.86197566986084,-0.2184000015258789,0.021900000050663948,0.0421999990940094,1.1140000116476716,-0.4300000020051476,-0.012000000373951061
0.03414131700992584,-0.035865142941474915,9.855117797851562,-0.21899999678134918,0.018799999728798866,0.0421999990940094,0.06800000267489824,-3.0250000699487334,-0.007999999971379599
0.03938940912485123,-0.03481169044971466,9.864800453186035,-0.21679998934268951,0.01850000023841858,0.05219999700784683,0.5620000244614024,3.1509999846625436,0.11599999750059588
0.045010991394519806,-0.03841257095336914,9.852571487426758,-0.20759999752044678,0.0071000000461936,0.03229999914765358,1.1070000282437604,0.29500000571894974,0.11400000605382507
0.03777092695236206,-0.039370253682136536,9.86900520324707,-0.21599999070167542,0.004100000020116568,0.051899999380111694,-0.8949999743907032,-0.11299999699022645,-0.0019999999928448997
0.036056678742170334,-0.04132392257452011,9.845187187194824,-0.21570000052452087,0.0064999996684491634,0.03229999914765358,-0.6720000076010463,0.9479999478333279,0.04200000047506539
0.032877177000045776,-0.028969841077923775,9.850262641906738,-0.21249999105930328,0.01809999905526638,0.03219999745488167,0.627999982328677,-3.356999984134009,-0.015999999942759198
0.04787445813417435,-0.042616792023181915,9.841940879821777,-0.21119999885559082,0.0064999996684491634,0.022599998861551285,-1.0789999879064105,0.1629999966029081,0.08700000146050021
0.05362053960561752,-0.02670971490442753,9.847323417663574,-0.2101999968290329,0.009399999864399433,0.03240000084042549,-0.6889999749192377,-0.6249999818183075,-0.15399999507179982
0.05362053960561752,-0.02670971490442753,9.847323417663574,-0.19679999351501465,0.027799999341368675,0.03229999914765358,-0.6889999749192377,-0.6249999818183075,-0.15399999507179982
0.03274310380220413,-0.03318363428115845,9.8514404296875,-0.21739999949932098,0.019600000232458115,0.03229999914765358,-0.09500000059811649,-1.6110000072641188,-0.008999999863581633
0.03718674182891846,-0.03855622559785843,9.851373672485352,-0.22119998931884766,0.009999999776482582,0.03240000084042549,1.0530000190571107,-0.09500000059811649,0.14099999730693671
0.04073973372578621,-0.028299463912844658,9.848835945129395,-0.2110999971628189,0.02669999934732914,0.03240000084042549,-0.6239999994351354,-0.2250000115972807,-0.09999999922536333
0.037742193788290024,-0.014116212725639343,9.848366737365723,-0.2110999971628189,0.008799999952316284,0.03240000084042549,-0.38999998630674637,0.564999971610919,-0.0019999999928448997
0.031478963792324066,-0.05032612010836601,9.863727569580078,-0.22369998693466187,0.03619999811053276,0.032499998807907104,0.26200000010488605,0.6260000175623326,0.10199999734224074
0.033356018364429474,-0.03819230571389198,9.845637321472168,-0.219200000166893,0.016899999231100082,0.03229999914765358,0.8399999828208814,-0.44399999549339614,0.13600000534979648
0.033356018364429474,-0.03819230571389198,9.845637321472168,-0.219200000166893,0.016899999231100082,0.03229999914765358,0.8399999828208814,-0.44399999549339614,0.13600000534979648
0.04074931517243385,-0.03837426379323006,9.8363676071167,-0.20819999277591705,0.005399999674409628,0.022499999031424522,0.3819999938392367,2.551000096032069,0.04600000004387353
0.023520637303590775,-0.0368419773876667,9.841882705688477,-0.22019998729228973,0.014099999330937862,0.022299999371170998,-0.6939999935568044,-0.7239999986604987,0.02800000031671026
0.044963106513023376,-0.04062481224536896,9.846891403198242,-0.2019999921321869,0.006199999712407589,0.03219999745488167,-0.021999999295971403,-0.4999999961268166,0.0429999995335041
0.04138138145208359,-0.04453215003013611,9.85859489440918,-0.202799990773201,0.006199999712407589,0.041999999433755875,0.7510000032538235,-0.656000022666027,0.10199999734224074
0.04558560252189636,-0.030157363042235374,9.840829849243164,-0.20409999787807465,0.0139999995008111,0.02239999920129776,0.0269999995907449,0.8189999792482954,0.08100000043976135
0.02713109366595745,-0.04810430109500885,9.846355438232422,-0.22089999914169312,-0.00559999980032444,0.032099999487400055,0.07000000079177565,-1.1550000364096713,-0.009999999755783667
0.039896976202726364,-0.040394969284534454,9.84196949005127,-0.20389999449253082,0.0038999998942017555,0.02239999920129776,0.59999999535218,-0.2159999967259592,0.049999999612681666
0.054702721536159515,-0.04592078924179077,9.84392261505127,-0.19409999251365662,0.002199999988079071,0.02239999920129776,-0.41499999945330046,0.7209999981501293,-0.015999999942759198
0.04209006577730179,-0.028385654091835022,9.844354629516602,-0.2013999968767166,0.02290000021457672,0.022299999371170998,0.42599999243117953,-0.029999998433587676,0.149999998838045
0.033854011446237564,-0.03192907199263573,9.849190711975098,-0.21079999208450317,0.011799999512732029,0.032099999487400055,0.3049999896332302,0.16500000138989213,0.06299999737754478
0.039063792675733566,-0.03748362511396408,9.850961685180664,-0.19999998807907104,0.010999999940395355,0.032099999487400055,0.6129999797768299,-0.46900000863995017,0.23900000508552924
0.03867114707827568,-0.04225287213921547,9.84086799621582,-0.20089998841285706,-0.0005999999702908099,0.022299999371170998,-0.07199999890865307,1.4820000386790861,0.019999999511567335
0.036794088780879974,-0.04273171350359917,9.852828979492188,-0.20659999549388885,-0.00039999998989515007,0.03199999779462814,-1.1370000333474548,0.6549999869220019,-0.14300000209392072
0.03877649083733559,-0.04649539664387703,9.839345932006836,-0.19449999928474426,0.0026000000070780516,0.022199999541044235,-0.49199997697888054,0.8149999963547537,0.01400000015835513
0.049445051699876785,-0.03788584843277931,9.838923454284668,-0.18199999630451202,0.013700000010430813,0.022099999710917473,-0.0039999999856897995,-0.07399999702553048,-0.010999999647985701
0.04794149473309517,-0.02857719175517559,9.8370943069458,-0.10719999670982361,0.013799999840557575,0.02070000022649765,-0.3759999928184979,-0.9570000027252891,0.04600000004387353
0.03367205336689949,-0.04225287213921547,9.842974662780762,-0.14720000326633453,-0.002199999988079071,0.020999999716877937,-0.433000002515517,0.3529999977991411,-0.031999999885518396
0.036411017179489136,-0.043900080025196075,9.854667663574219,-0.16019999980926514,0.0005999999702908099,0.04089999943971634,-0.7059999955982822,0.38999998630674637,-0.06399999977103679
0.028500577434897423,-0.03862326219677925,9.844286918640137,-0.17949999868869781,0.0038999998942017555,0.021399999037384987,0.1509999945614304,1.0379999631444108,-0.017999999727163266
0.05252878740429878,-0.02602018415927887,9.847600936889648,-0.1550000011920929,0.02410000003874302,0.03139999881386757,0.6300000004558742,1.550000014673558,0.057000003026912535
0.043785158544778824,-0.03203441947698593,9.843703269958496,-0.16619999706745148,0.013399999588727951,0.02159999869763851,0.8780000070725118,-1.3980000243887423,0.09000000197086964
0.04639962688088417,-0.023539790883660316,9.848845481872559,-0.1744999885559082,0.020999999716877937,0.03150000050663948,-0.3669999912873896,-0.12299999424472013,0.1419999930303221
0.053850382566452026,-0.03398808836936951,9.841988563537598,-0.16779999434947968,0.01249999925494194,0.021800000220537186,0.30799999014359963,1.7200000080205904,0.057000003026912535
0.040845081210136414,-0.035300109535455704,9.854927062988281,-0.17479999363422394,0.011899999342858791,0.0414000004529953,0.8960000101347283,0.05300000012305109,0.07600000181251451
0.04056735336780548,-0.042118798941373825,9.850617408752441,-0.17599999904632568,0,0.031599998474121094,-0.6089999968832882,-0.7309999820644097,-0.07900000232288394
0.03628652170300484,-0.041218578815460205,9.850244522094727,-0.18859998881816864,0.0016999999061226845,0.031599998474121094,0.6960000116840017,1.0359999983780663,0.02899999937514897
0.04177403077483177,-0.0528448186814785,9.836241722106934,-0.1761000007390976,-0.00019999999494757503,0.0414000004529953,-0.1319999957758284,1.6950000215544627,-0.03899999996469596
0.0466773584485054,-0.015102623961865902,9.841730117797852,-0.17919999361038208,-0.010099999606609344,0.021800000220537186,-0.13700000107318186,-1.089000025181544,-0.049999999612681666
0.034543540328741074,-0.0322355292737484,9.849937438964844,-0.18729999661445618,0.010199999436736107,0.031599998474121094,0.9060000474098617,-1.1409999628801435,0.10299999973573276
0.038900990039110184,-0.02296518348157406,9.852398872375488,-0.18039999902248383,0.01759999990463257,0.031700000166893005,-0.6189999807975687,0.9800000244250723,0.02899999937514897
0.04577713832259178,-0.034227509051561356,9.850435256958008,-0.17739999294281006,0.00969999935477972,0.031599998474121094,-0.0269999995907449,-1.9220000779593671,0.024000000747902123
0.02986048348248005,-0.04773080348968506,9.838866233825684,-0.19179999828338623,0,0.021900000050663948,0.9999999922536332,-0.4500000231945614,0.10199999734224074
0.03172796219587326,-0.03597048670053482,9.83815860748291,-0.19299998879432678,0.00699999975040555,0.021900000050663948,-0.13300000483942703,1.0280000325909833,-0.02600000053230619
0.03685155138373375,-0.030444670468568802,9.831693649291992,-0.19020000100135803,0.007400000002235174,0.012000000104308128,-0.5939999943314411,1.291999970781787,-0.01700000066872456
0.041199423372745514,-0.03505111485719681,9.835906982421875,-0.1768999993801117,0.008999999612569809,0.021800000220537186,-0.6579999874323713,-0.9389999996630725,0.023000000021936765
0.03924575448036194,-0.0286729596555233,9.830208778381348,-0.17949999868869781,0.020600000396370888,0.012000000104308128,-0.4519999879609058,-1.4369999776626918,0.0539999991814898
0.034352004528045654,-0.03779008239507675,9.832804679870605,-0.1931999921798706,0.012000000104308128,0.01209999993443489,0.07199999890865307,-1.6530000144092907,-0.057000003026912535
0.04637089744210243,-0.0542621873319149,9.837794303894043,-0.18789999186992645,-0.007699999958276749,0.02199999988079071,0.15500000413539844,-1.6960000039376348,0
0.03770388662815094,-0.03598963841795921,9.836223602294922,-0.20239999890327454,0.011399999260902405,0.022099999710917473,0.4720000091503196,-1.4410000139170864,-0.05999999686717535
0.041553765535354614,-0.040864236652851105,9.843137741088867,-0.1964999884366989,0.00029999998514540493,0.022199999541044235,0.11699999322398127,-1.375000002688959,0.1070000026395942
0.03872860595583916,-0.04736688733100891,9.840254783630371,-0.20069999992847443,0,0.022299999371170998,-0.8129999782275565,0.33000000277978425,-0.08899999957737763
0.033710360527038574,-0.03462973237037659,9.85700511932373,-0.20969998836517334,0.011699999682605267,0.04189999774098396,-0.8269999983962315,0.5270000007201415,-0.01700000066872456
0.040270473808050156,-0.03341347724199295,9.845724105834961,-0.19849999248981476,0.0139999995008111,0.032099999487400055,-0.21999999295971404,1.5550000333111247,0.019999999511567335
0.0303297471255064,-0.042521022260189056,9.847054481506348,-0.20399999618530273,0.004799999762326479,0.03199999779462814,0.7279999815540403,0.08299999855663877,0.12100000279794933
0.03275267779827118,-0.051264647394418716,9.837736129760742,-0.2037999927997589,-0.006899999920278788,0.022199999541044235,0.4519999879609058,-1.4689999475327304,-0.017999999727163266
0.02438254840672016,-0.03651636466383934,9.851872444152832,-0.21809999644756317,0.01119999960064888,0.032099999487400055,-0.8189999792482954,0.6600000055595685,0.019999999511567335
0.044350191950798035,-0.03085647150874138,9.846891403198242,-0.19689999520778656,0.013199999928474426,0.03199999779462814,0.6170000160312243,0.8149999963547537,0.149999998838045
0.03973417356610298,-0.044110771268606186,9.835293769836426,-0.1946999877691269,0.0016999999061226845,0.012399999424815178,-0.325000010822644,-1.1469999639008823,-0.038000000906257256
0.03203441947698593,-0.04923436418175697,9.844076156616211,-0.20759999752044678,-0.0071000000461936,0.022299999371170998,0.17700000343136985,1.264000037166143,0.1319999957758284
0.030205247923731804,-0.04398627579212189,9.832019805908203,-0.20419999957084656,0.002099999925121665,0.012399999424815178,-0.024000000747902123,-1.3250000297567037,0.01700000066872456
0.03179499879479408,-0.03521391749382019,9.846633911132812,-0.2078000009059906,-0.007599999662488699,0.012399999424815178,0.09099999769425504,0.7189999800229321,-0.046999999102312236
0.04931097850203514,-0.03715800866484642,9.840350151062012,-0.20579999685287476,0.011699999682605267,0.03199999779462814,0.32899999371618566,-0.7390000012123459,0.08799999718388561
0.03469676896929741,-0.03394978120923042,9.830506324768066,-0.18949998915195465,0.012399999424815178,0.022299999371170998,-0.4139999903897018,0.9970000451041168,0.06399999977103679
0.03517561033368111,-0.029803022742271423,9.834920883178711,-0.20829999446868896,0.012600000016391277,0.01249999925494194,-0.15900000036915327,-0.815999978737926,-0.05099999867112037
0.04120900109410286,-0.027648240327835083,9.831549644470215,-0.20069999992847443,0.02290000021457672,0.01249999925494194,0.38400001196643396,-0.7780000078471484,0.043999998591942806
0.045231256633996964,-0.037952885031700134,9.849803924560547,-0.2028999924659729,0.012000000104308128,0.03219999745488167,0.35199998873554245,0.13300000483942703,0.019000000453128628
0.03552995249629021,-0.03568318113684654,9.854524612426758,-0.21229998767375946,0.011099999770522118,0.03219999745488167,-0.37200000992495624,0.9870000078289833,-0.007999999971379599
0.035434186458587646,-0.030530860647559166,9.851373672485352,-0.20960000157356262,0.01209999993443489,0.032099999487400055,-0.2899999870813831,0.6320000185830715,0.0009999999964224499
0.026345795020461082,-0.0394468680024147,9.82899284362793,-0.2175999879837036,0.0030999998562037945,0.012399999424815178,-0.46600000812958076,0.739999983595518,-0.03100000082707969
0.03148854151368141,-0.038900990039110184,9.839585304260254,-0.20579999685287476,0.004299999680370092,0.022199999541044235,-0.325000010822644,-0.02899999937514897,-0.05799999875029794
0.044512998312711716,-0.04234864190220833,9.836568832397461,-0.19599999487400055,0.005200000014156103,0.022199999541044235,-0.33600000380052314,-0.14399999781730613,0.0019999999928448997
0.039705440402030945,-0.04257848486304283,9.840005874633789,-0.1964000016450882,0.006199999712407589,0.022199999541044235,-0.4270000014947782,0.36099999026665075,-0.007999999971379599
0.03142150491476059,-0.033260248601436615,9.831310272216797,-0.20520000159740448,0.017099998891353607,0.012399999424815178,-0.4709999734062945,0.7630000052953013,0.0329999989439571
0.03227383643388748,-0.03170880675315857,9.84420108795166,-0.20309999585151672,0.018400000408291817,0.022199999541044235,0.1400000015835513,0.6810000091321545,-0.017999999727163266
0.04258805885910988,-0.04736688733100891,9.844430923461914,-0.19119998812675476,0.008200000040233135,0.022099999710917473,0.26200000010488605,0.28499999512424284,0.08700000146050021
0.05139872431755066,-0.043402086943387985,9.851622581481934,-0.18069998919963837,0.007599999662488699,0.03189999982714653,0.07399999702553048,-0.4199999914104407,-0.008999999863581633
0.03793372958898544,-0.047213658690452576,9.845724105834961,-0.2013999968767166,0.007400000002235174,0.03189999982714653,-0.06399999977103679,-0.3119999997175677,-0.08499999667351618
0.020906168967485428,-0.03539587929844856,9.842007637023926,-0.21199999749660492,0.01730000041425228,0.022099999710917473,0.05799999875029794,0.5059999971475555,-0.0269999995907449
0.04137180745601654,-0.03627694398164749,9.86295223236084,-0.19099999964237213,0.01719999872148037,0.04169999808073044,0.536999984634422,0.13100000005244303,0.13600000534979648
0.03253241255879402,-0.03769431263208389,9.850991249084473,-0.2012999951839447,0.01599999889731407,0.03189999982714653,0.1800000039417393,0.1830000044521087,0.09399999820462447
0.03747404366731644,-0.025388114154338837,9.851296424865723,-0.20080000162124634,0.025299999862909317,0.03189999982714653,0.007000000079177565,-0.4879999940853389,-0.03599999945432653
0.039015911519527435,-0.04372769966721535,9.84633731842041,-0.1922999918460846,0.005699999630451202,0.03189999982714653,0.16899999762364695,0.32299999269544677,0.03999999902313467
0.04320097714662552,-0.032101456075906754,9.855339050292969,-0.19129998981952667,0.015099999494850636,0.04169999808073044,-0.007000000079177565,-0.09600000299160849,-0.021999999295971403
0.04320097714662552,-0.032101456075906754,9.855339050292969,-0.19129998981952667,0.015099999494850636,0.04169999808073044,-0.007000000079177565,-0.09600000299160849,-0.021999999295971403
0.044512998312711716,-0.04463749751448631,9.850665092468262,-0.1906999945640564,0.004999999888241291,0.03189999982714653,-0.06200000165415938,0.37100000086135765,-0.09000000197086964
0.04749138653278351,-0.026001030579209328,9.843223571777344,-0.18959999084472656,0.024699999019503593,0.022099999710917473,0.09300000248123906,-0.13700000107318186,0.11299999699022645
0.04749138653278351,-0.026001030579209328,9.843223571777344,-0.18959999084472656,0.024699999019503593,0.022099999710917473,0.09300000248123906,-0.13700000107318186,0.11299999699022645
0.045346178114414215,-0.0486980639398098,9.852273941040039,-0.18969999253749847,-0.0050999997183680534,0.03189999982714653,0.1180000022875799,0.6450000030077214,0.06500000216452881
0.037550657987594604,-0.040653545409440994,9.8469877243042,-0.19749999046325684,0.00419999985024333,0.03179999813437462,-0.18700000068586353,0.27200001069959295,0.10199999734224074
0.0390925258398056,-0.030243555083870888,9.846834182739258,-0.18699999153614044,0.014499999582767487,0.03179999813437462,-0.021000000237532696,-0.40599999792219216,0.08200000283325337
0.047098737210035324,-0.034562695771455765,9.842782974243164,-0.18809999525547028,0.014499999582767487,0.02199999988079071,-0.3130000087811663,-0.24800000661663751,0.06800000267489824
0.045987825840711594,-0.0261829886585474,9.849515914916992,-0.18869999051094055,0.025200000032782555,0.03189999982714653,0.0539999991814898,-0.015999999942759198,0.09099999769425504
0.03733997046947479,-0.04073973372578621,9.851698875427246,-0.19820000231266022,0.005399999674409628,0.03189999982714653,0.07300000130214508,-0.3540000068627397,-0.024999999806340833
0.0321110337972641,-0.029678523540496826,9.856152534484863,-0.19919998943805695,0.014999999664723873,0.04169999808073044,0.031999999885518396,-0.049999999612681666,0.024000000747902123
0.039140406996011734,-0.02966894768178463,9.867185592651367,-0.18930000066757202,0.01489999983459711,0.051500000059604645,-0.15500000413539844,-0.07000000079177565,0
0.037378277629613876,-0.03154600039124489,9.859868049621582,-0.19900000095367432,0.01529999915510416,0.04169999808073044,-0.2909999961449817,-0.09600000299160849,0.048000001495804245
0.02587653137743473,-0.04209006577730179,9.864494323730469,-0.20899999141693115,0.006300000008195639,0.051500000059604645,-0.1199999937343507,0.3890000039235742,0.07000000079177565
0.03805823251605034,-0.04482903331518173,9.851019859313965,-0.20789998769760132,0.02630000002682209,0.04169999808073044,0.004999999877891834,0.31600000929153577,-0.0019999999928448997
0.04142926633358002,-0.042501870542764664,9.85104751586914,-0.1867000013589859,0.0064999996684491634,0.03179999813437462,0.019999999511567335,-0.1199999937343507,0.0030000000934877653
0.04296155646443367,-0.05106353387236595,9.847639083862305,-0.1867000013589859,-0.0031999999191612005,0.03179999813437462,-0.46099998949201404,-0.03599999945432653,-0.023000000021936765
0.0361332930624485,-0.04389050602912903,9.850262641906738,-0.1964999884366989,0.007799999788403511,0.03179999813437462,0.12599999475508955,-0.149999998838045,-0.05099999867112037
0.0361332930624485,-0.04389050602912903,9.850262641906738,-0.1964999884366989,0.007799999788403511,0.03179999813437462,0.12599999475508955,-0.149999998838045,-0.05099999867112037
0.0477403849363327,-0.04142926633358002,9.831031799316406,-0.19669999182224274,0.017099998891353607,0.041600000113248825,-0.03400000133744912,0.06299999737754478,-0.006000000186975531
0.03643017262220383,-0.029707254841923714,9.861831665039062,-0.19550000131130219,0.017400000244379044,0.041600000113248825,0.024999999806340833,-0.2399999874687014,-0.03100000082707969
0.03711012750864029,-0.049607861787080765,9.851373672485352,-0.19599999487400055,-0.002199999988079071,0.03179999813437462,0.015999999942759198,0.128999995265459,0.07999999804626934
0.03683239594101906,-0.038805220276117325,9.85925579071045,-0.19539999961853027,0.007499999832361937,0.041600000113248825,-0.06500000216452881,-0.06500000216452881,0.06200000165415938
0.031057585030794144,-0.036554671823978424,9.865097999572754,-0.19529999792575836,0.017400000244379044,0.05139999836683273,0.2780000117203318,0.012000000373951061,0.05200000106461238
0.04464707151055336,-0.03397851064801216,9.856152534484863,-0.18529999256134033,0.016699999570846558,0.041600000113248825,0.13300000483942703,0.03100000082707969,-0.019000000453128628
0.03566402941942215,-0.03615244850516319,9.849717140197754,-0.19460000097751617,0.016300000250339508,0.03179999813437462,-0.03899999996469596,-0.11299999699022645,0.10600000024610218
0.043497856706380844,-0.0501154288649559,9.872749328613281,-0.18490000069141388,-0.0030999998562037945,0.05139999836683273,0.21700000578955783,-0.019999999511567335,0.10299999973573276
0.042310334742069244,-0.025866955518722534,9.855530738830566,-0.18479999899864197,0.025599999353289604,0.041600000113248825,-0.1070000026395942,-0.04600000004387353,0.03599999945432653
0.03746446967124939,-0.04272213205695152,9.864245414733887,-0.19449999928474426,0.006300000008195639,0.05139999836683273,0.11400000605382507,-0.038000000906257256,0.06800000267489824
0.03054043836891651,-0.03376782312989235,9.858325958251953,-0.19419999420642853,0.015699999406933784,0.041600000113248825,-0.13400000056281244,-0.22400000253368207,0.03599999945432653
0.028347346931695938,-0.04071100801229477,9.852197647094727,-0.2044999897480011,0.006300000008195639,0.03179999813437462,-0.0329999989439571,0.023000000021936765,-0.024999999806340833
0.0399257093667984,-0.04210921749472618,9.864858627319336,-0.18459999561309814,0.006399999838322401,0.05139999836683273,-0.22700000304405152,0.08499999667351618,0.012000000373951061
0.0401747040450573,-0.034543540328741074,9.843463897705078,-0.1841999888420105,0.01679999940097332,0.02199999988079071,-0.11699999322398127,-0.02800000031671026,0.048000001495804245
0.035319264978170395,-0.040251318365335464,9.860116958618164,-0.19380000233650208,0.0072999997064471245,0.041600000113248825,0.024000000747902123,-0.19600000221697184,-0.021000000237532696
0.04094085097312927,-0.03242706507444382,9.85090446472168,-0.18400000035762787,0.016999999061226845,0.03179999813437462,0.009999999755783667,0.024000000747902123,0.16699999283666295
0.03993528336286545,-0.04183149337768555,9.843310356140137,-0.1833999902009964,0.007199999876320362,0.021900000050663948,-0.27899999410350396,0.0269999995907449,-0.021000000237532696
0.043277591466903687,-0.04073015972971916,9.84189224243164,-0.18320000171661377,0.007999999448657036,0.021900000050663948,-0.024000000747902123,0.08400000095013078,-0.006000000186975531
0.04180276021361351,-0.03665044158697128,9.858384132385254,-0.1825999915599823,0.017799999564886093,0.04149999842047691,0.1070000026395942,-0.013000000266153095,0.009999999755783667
0.04723281040787697,-0.030396783724427223,9.859198570251465,-0.18219999969005585,0.017500000074505806,0.04149999842047691,-0.0269999995907449,-0.03599999945432653,-0.0329999989439571
0.028854919597506523,-0.028347346931695938,9.851585388183594,-0.1915999948978424,0.017500000074505806,0.031700000166893005,-0.03999999902313467,-0.11299999699022645,0.02600000053230619
0.03179499879479408,-0.053045932203531265,9.863698959350586,-0.1906999945640564,0.02709999866783619,0.031700000166893005,0.1800000039417393,-0.035000000395887826,0.019000000453128628
0.04557602480053902,-0.03908294811844826,9.864665985107422,-0.19059999287128448,-0.002099999925121665,0.04149999842047691,0.024999999806340833,0.283000003677472,0.05499999823992851
0.037167586386203766,-0.03428496792912483,9.853519439697266,-0.18949998915195465,0.01679999940097332,0.031700000166893005,-0.05999999686717535,0.0019999999928448997,0
0.04170699417591095,-0.04755842313170433,9.86900520324707,-0.1793999969959259,0.007199999876320362,0.05130000039935112,0.06099999926066736,0.007000000079177565,-0.013000000266153095
0.046121902763843536,-0.04783615097403526,9.855846405029297,-0.17889998853206635,0.00699999975040555,0.04149999842047691,0.10100000161885533,0.05900000114378995,0.07099999651516105
0.03374866768717766,-0.051954176276922226,9.851842880249023,-0.18809999525547028,-0.002899999963119626,0.031599998474121094,0.03699999851276524,-0.1529999993484144,0.07199999890865307
0.03283886983990669,-0.03725377470254898,9.866477012634277,-0.18809999525547028,0.016499999910593033,0.05130000039935112,0.18700000068586353,-0.02800000031671026,-0.05499999823992851
0.04571009799838066,-0.03047339990735054,9.844985961914062,-0.17790000140666962,0.01589999906718731,0.031599998474121094,-0.15800000464576788,0.1199999937343507,-0.09300000248123906
0.04144842177629471,-0.03559699282050133,9.848203659057617,-0.1770000010728836,0.016300000250339508,0.031599998474121094,0.1930000017066024,0.09099999769425504,-0.15500000413539844
0.029937097802758217,-0.04090254381299019,9.850176811218262,-0.18649999797344208,0.006099999882280827,0.031599998474121094,-0.07999999804626934,0.07600000181251451,0.1620000008795227
0.05242343991994858,-0.02921883761882782,9.851910591125488,-0.16619999706745148,0.016099998727440834,0.031599998474121094,0.22299999347008345,0.09500000059811649,0.24399999704266945
0.032455798238515854,-0.04729027301073074,9.846441268920898,-0.18539999425411224,0.005699999630451202,0.031599998474121094,-0.006000000186975531,0.13400000056281244,-0.04600000004387353
0.029965827241539955,-0.030741550028324127,9.859370231628418,-0.18459999561309814,0.015399999916553497,0.0414000004529953,0.15200000362502902,-0.007000000079177565,0.24899998899980968
0.048947058618068695,-0.04752011597156525,9.852876663208008,-0.1648000031709671,0.005200000014156103,0.031599998474121094,0.05600000063342052,-0.16899999762364695,-0.06700000028140622
0.03812526538968086,-0.03622906282544136,9.863306999206543,-0.18439999222755432,0.014800000004470348,0.0414000004529953,-0.14699999832767557,0.14099999730693671,-0.03100000082707969
0.034208353608846664,-0.03518518805503845,9.85722541809082,-0.18359999358654022,0.015199999324977398,0.04129999876022339,0.0659999978879142,-0.07699999753589991,0.08200000283325337
0.04810430109500885,-0.03881479799747467,9.862655639648438,-0.16380000114440918,0.005200000014156103,0.04129999876022339,0.05099999867112037,0.0749999994190225,0.021000000237532696
0.03066493570804596,-0.04588248208165169,9.861889839172363,-0.18279999494552612,0.004999999888241291,0.04129999876022339,-0.03100000082707969,0.10900000075647161,0.13100000005244303
0.02308010496199131,-0.04749138653278351,9.857608795166016,-0.19179999828338623,0.0050999997183680534,0.04129999876022339,0.06099999926066736,-0.0859999990670082,-0.09200000008774706
0.043114785104990005,-0.033901896327733994,9.871657371520996,-0.171999990940094,0.014800000004470348,0.0510999970138073,0.0659999978879142,0.017999999727163266,0.038000000906257256
0.026364948600530624,-0.035367149859666824,9.856104850769043,-0.19110000133514404,0.014499999582767487,0.04129999876022339,0.1319999957758284,-0.11299999699022645,-0.007999999971379599
0.022141577675938606,-0.032522834837436676,9.843645095825195,-0.19049999117851257,0.014099999330937862,0.021699998527765274,-0.007999999971379599,0.07300000130214508,0.08499999667351618
0.048640601336956024,-0.03386358916759491,9.862396240234375,-0.16049998998641968,0.014099999330937862,0.04129999876022339,0.012000000373951061,-0.03699999851276524,-0.012000000373951061
0.033518824726343155,-0.033423058688640594,9.856488227844238,-0.17979998886585236,0.0139999995008111,0.04129999876022339,0.031999999885518396,0.04900000055424296,0.10999999647985702
0.04955039918422699,-0.027025749906897545,9.847371101379395,-0.1559000015258789,0.023099999874830246,0.03139999881386757,0.0539999991814898,0.06099999926066736,0.10299999973573276
0.036985624581575394,-0.02881661243736744,9.851248741149902,-0.1671999990940094,0.012799999676644802,0.031199999153614044,0.06399999977103679,0.18400000017549412,0.06500000216452881
0.036985624581575394,-0.02881661243736744,9.851248741149902,-0.1671999990940094,0.012799999676644802,0.031199999153614044,0.06399999977103679,0.18400000017549412,0.06500000216452881
0.03241749107837677,-0.027811046689748764,9.85754108428955,-0.16339999437332153,0.012399999424815178,0.04089999943971634,-0.019000000453128628,0.19600000221697184,0.048000001495804245
0.04791276529431343,-0.042837053537368774,9.86943531036377,-0.13750000298023224,0.0023999998811632395,0.050599999725818634,-0.03699999851276524,-0.11099999887334903,0.014999999216793838
0.027830200269818306,-0.027811046689748764,9.87940502166748,-0.16489998996257782,0.021900000050663948,0.06039999797940254,0.0749999994190225,0.009999999755783667,-0.024999999806340833
0.04130476713180542,-0.04189852997660637,9.865221977233887,-0.14299999177455902,0.001999999862164259,0.05049999803304672,-0.07300000130214508,-0.04600000004387353,0.05600000063342052
0.0383838415145874,-0.04673481732606888,9.86410140991211,-0.140299990773201,0.002199999988079071,0.040699999779462814,0.007000000079177565,0.05799999875029794,0.008999999863581633
0.03584598749876022,-0.0329442135989666,9.874932289123535,-0.14790000021457672,0.011799999512732029,0.06030000001192093,-0.05799999875029794,-0.041000001416626686,0.07099999651516105
0.030913932248950005,-0.03359543904662132,9.858527183532715,-0.1453000009059906,0.011699999682605267,0.0405999980866909,0.031999999885518396,0.12799999954207358,0.08799999718388561
0.04533660411834717,-0.036765363067388535,9.855951309204102,-0.13259999454021454,0.011399999260902405,0.0405999980866909,0.1509999945614304,-0.05300000012305109,-0.05799999875029794
0.03558741509914398,-0.0299754049628973,9.848376274108887,-0.13920000195503235,0.010699999518692493,0.030700000002980232,0.012000000373951061,0.019999999511567335,0.08200000283325337
0.036075834184885025,-0.04269340634346008,9.861228942871094,-0.13660000264644623,0.0008999999845400453,0.04050000011920929,0.4139999903897018,-0.0659999978879142,0.12299999424472013
0.03609498590230942,-0.04023216664791107,9.85007095336914,-0.13669998943805695,-0.00009999999747378752,0.030700000002980232,-0.10600000024610218,-0.18400000017549412,-0.015999999942759198
0.04004063084721565,-0.041697416454553604,9.862454414367676,-0.12709999084472656,0,0.04050000011920929,0.03400000133744912,-0.11200000126684104,0.0749999994190225
0.03881479799747467,-0.029439104720950127,9.84730339050293,-0.12709999084472656,0.00969999935477972,0.030700000002980232,-0.04500000098543482,0,0.043999998591942806
0.04373727738857269,-0.024286780506372452,9.843443870544434,-0.1265999972820282,0.019600000232458115,0.020800000056624413,0.07900000232288394,0.17799999915475526,0.12799999954207358
0.05417599529027939,-0.048190489411354065,9.86410140991211,-0.11620000004768372,-0.00989999994635582,0.04050000011920929,-0.008999999863581633,-0.0859999990670082,-0.1189999980109653
0.04618893936276436,-0.03941813483834267,9.857608795166016,-0.125900000333786,-0.00009999999747378752,0.04050000011920929,0.04900000055424296,-0.2639999915516568,-0.012000000373951061
0.03139277175068855,-0.04257848486304283,9.854907035827637,-0.1363999992609024,-0.00019999999494757503,0.04050000011920929,0.015999999942759198,-0.015999999942759198,0.0969999987149939
0.028988994657993317,-0.025206156075000763,9.87183952331543,-0.13609999418258667,0.019199999049305916,0.0502999983727932,-0.031999999885518396,-0.010999999647985701,0.006000000186975531
0.031095892190933228,-0.02827073261141777,9.86976146697998,-0.13589999079704285,0.019299998879432678,0.0502999983727932,-0.035000000395887826,-0.06800000267489824,0.10400000212922476
0.047596730291843414,-0.029755137860774994,9.865269660949707,-0.12600000202655792,0.009599999524652958,0.0502999983727932,0.07699999753589991,0.048000001495804245,-0.06899999839828364
0.025062503293156624,-0.028309039771556854,9.868305206298828,-0.1451999992132187,0.019099999219179153,0.0502999983727932,-0.04200000047506539,0.021999999295971403,0.07600000181251451
0.04710831493139267,-0.03380613029003143,9.871599197387695,-0.12520000338554382,0.009399999864399433,0.050200000405311584,0.08200000283325337,0.048000001495804245,-0.04600000004387353
0.030214823782444,-0.03768473491072655,9.870565414428711,-0.13459999859333038,0.009099999442696571,0.050200000405311584,0,-0.0539999991814898,-0.01400000015835513
0.03853707015514374,-0.02976471558213234,9.862081527709961,-0.12459999322891235,0.009099999442696571,0.04039999842643738,0.1509999945614304,0.03699999851276524,-0.05799999875029794
0.03682282194495201,-0.03239833936095238,9.860260963439941,-0.1340000033378601,0.008700000122189522,0.04039999842643738,-0.0749999994190225,-0.0030000000934877653,0.03699999851276524
0.03941813483834267,-0.032120607793331146,9.862961769104004,-0.12389999628067017,0.008799999952316284,0.04039999842643738,0.10900000075647161,0.0659999978879142,0.06099999926066736
0.03232172504067421,-0.029400797560811043,9.855731010437012,-0.1331000030040741,-0.0011999999405816197,0.04039999842643738,0.05499999823992851,-0.14300000209392072,0.10100000161885533
0.058897361159324646,-0.04488649219274521,9.885591506958008,-0.10019999742507935,-0.001500000013038516,0.0697999969124794,-0.14499999354069154,0.07600000181251451,-0.009999999755783667
0.047165773808956146,-0.038355108350515366,9.853835105895996,-0.11649999767541885,-0.0010999999940395355,0.030499998480081558,-0.24899998899980968,-0.048000001495804245,-0.07099999651516105
0.04106534644961357,-0.0312778502702713,9.87205982208252,-0.11659999936819077,0.009399999864399433,0.05009999871253967,-0.021000000237532696,0.08400000095013078,0.03400000133744912
0.03846045583486557,-0.027150247246026993,9.875737190246582,-0.11620000004768372,0.019199999049305916,0.05989999696612358,0.043999998591942806,-0.02600000053230619,0.0329999989439571
0.041457995772361755,-0.03574064373970032,9.867280960083008,-0.11599999666213989,0.00930000003427267,0.05009999871253967,-0.0659999978879142,-0.14099999730693671,0.013000000266153095
0.03950433060526848,-0.024449586868286133,9.878074645996094,-0.11620000004768372,0.019199999049305916,0.05989999696612358,-0.024000000747902123,0.1419999930303221,0.13799999679656727
0.04649539664387703,-0.03855622559785843,9.868104934692383,-0.11559999734163284,-0.00019999999494757503,0.05009999871253967,0.11099999887334903,0.06399999977103679,0.05600000063342052
0.02812708169221878,-0.03262818232178688,9.868937492370605,-0.1347000002861023,0.009099999442696571,0.05009999871253967,0.029999998433587676,0.05099999867112037,0.06700000028140622
0.04447469115257263,-0.031881190836429596,9.870834350585938,-0.11469999700784683,0.008999999612569809,0.05009999871253967,0.1830000044521087,-0.010999999647985701,0.04900000055424296
0.03628652170300484,-0.03322194144129753,9.868765830993652,-0.1241999939084053,0.008499999530613422,0.05009999871253967,0.07999999804626934,-0.04500000098543482,0.008999999863581633
0.05031654238700867,-0.05270116776227951,9.872308731079102,-0.10449999570846558,-0.01119999960064888,0.05009999871253967,0.05099999867112037,0.08400000095013078,0.03100000082707969
0.040509890764951706,-0.0483437180519104,9.856191635131836,-0.11379999667406082,-0.011299999430775642,0.040300000458955765,-0.038000000906257256,-0.10999999647985702,0.035000000395887826
0.040203433483839035,-0.031191660091280937,9.851038932800293,-0.11369999498128891,0.008299999870359898,0.030499998480081558,0.149999998838045,-0.128999995265459,0.019000000453128628
0.04625597596168518,-0.03855622559785843,9.845120429992676,-0.11099999397993088,-0.0016999999061226845,0.030399998649954796,-0.05900000114378995,-0.0429999995335041,-0.128999995265459
0.045298296958208084,-0.04167826473712921,9.852350234985352,-0.10830000042915344,-0.001500000013038516,0.030399998649954796,0.1849999958988795,-0.1419999930303221,0.04200000047506539
0.04952166602015495,-0.03452438861131668,9.849306106567383,-0.09879999607801437,0.007699999958276749,0.030399998649954796,0.0659999978879142,-0.06200000165415938,0.019000000453128628
0.03693774342536926,-0.03929363936185837,9.84561824798584,-0.11819999665021896,-0.002199999988079071,0.030399998649954796,0.14499999354069154,-0.18900000547284757,0.05799999875029794
0.03426581621170044,-0.03953305631875992,9.871752738952637,-0.11869999766349792,-0.0026000000070780516,0.04999999701976776,-0.03699999851276524,-0.049999999612681666,0.029999998433587676
0.037426162511110306,-0.03941813483834267,9.86971378326416,-0.1184999942779541,-0.0024999999441206455,0.04999999701976776,0.03899999996469596,-0.03599999945432653,-0.09999999922536333
0.04153461009263992,-0.03985866904258728,9.866390228271484,-0.10859999805688858,-0.0026000000070780516,0.04999999701976776,0.038000000906257256,0.009999999755783667,0.04600000004387353
0.04061523824930191,-0.038211461156606674,9.865738868713379,-0.10830000042915344,0.00699999975040555,0.04999999701976776,0.0329999989439571,-0.0269999995907449,-0.03599999945432653
0.028213271871209145,-0.047568000853061676,9.869790077209473,-0.12770000100135803,-0.00279999990016222,0.04999999701976776,0.128999995265459,0.27599999359313454,0.128999995265459
0.028567615896463394,-0.05252878740429878,9.867587089538574,-0.12680000066757202,-0.012899999506771564,0.04999999701976776,0.019999999511567335,-0.024999999806340833,-0.0429999995335041
0.029678523540496826,-0.028423961251974106,9.870403289794922,-0.11679999530315399,0.016300000250339508,0.04999999701976776,-0.09099999769425504,0.05300000012305109,-0.01400000015835513
0.04410119727253914,-0.03693774342536926,9.86082649230957,-0.10659999400377274,0.0066999997943639755,0.04019999876618385,-0.15200000362502902,-0.25100000712700693,0.05499999823992851
0.03296336904168129,-0.034361582249403,9.843960762023926,-0.0973999947309494,0.007199999876320362,0.04019999876618385,-0.010999999647985701,-0.07000000079177565,0.024000000747902123
0.04583459720015526,-0.0357789508998394,9.868975639343262,-0.11649999767541885,0.0071000000461936,0.020499998703598976,0.13700000107318186,-0.010999999647985701,0.08700000146050021
0.05379292368888855,-0.03399766609072685,9.846805572509766,-0.0965999960899353,0.0066999997943639755,0.030299998819828033,0.015999999942759198,0.0539999991814898,-0.06299999737754478
0.046246398240327835,-0.04482903331518173,9.869349479675293,-0.0965999960899353,0.0066999997943639755,0.030299998819828033,-0.004999999877891834,-0.08499999667351618,0.12400000330831876
0.04498226195573807,-0.045346178114414215,9.859628677368164,-0.10589999705553055,-0.003000000026077032,0.04010000079870224,0.03999999902313467,0.1390000058601659,-0.07600000181251451
0.03582683578133583,-0.03087562508881092,9.85570240020752,-0.11499999463558197,0.0064999996684491634,0.04010000079870224,-0.049999999612681666,-0.09800000110848592,0.09399999820462447
0.03116292878985405,-0.04343082010746002,9.867156028747559,-0.11499999463558197,-0.003000000026077032,0.04989999905228615,-0.06200000165415938,0.16999999334703236,0.15500000413539844
0.029439104720950127,-0.029554026201367378,9.86420726776123,-0.1143999993801117,0.006899999920278788,0.04989999905228615,0.0009999999964224499,-0.08700000146050021,-0.04600000004387353
0.04167826473712921,-0.04437892138957977,9.86792278289795,-0.1143999993801117,0.006899999920278788,0.04989999905228615,-0.03400000133744912,-0.007000000079177565,0.019000000453128628
0.032666489481925964,-0.027169400826096535,9.868305206298828,-0.11409999430179596,0.016699999570846558,0.04989999905228615,0.16500000138989213,-0.1509999945614304,0.05999999686717535
0.024602817371487617,-0.026594793424010277,9.868209838867188,-0.1241999939084053,0.016300000250339508,0.04989999905228615,0.08299999855663877,0.16599999711327754,0.08100000043976135
0.034112587571144104,-0.03674620762467384,9.875038146972656,-0.11369999498128891,0.006300000008195639,0.059699997305870056,0.03100000082707969,-0.07699999753589991,0.05999999686717535
0.03936067596077919,-0.035980064421892166,9.870652198791504,-0.10379999876022339,0.006199999712407589,0.04989999905228615,0.0019999999928448997,0.20599999947146552,0.03100000082707969
0.034658461809158325,-0.04000232368707657,9.87122631072998,-0.1127999946475029,-0.003499999875202775,0.04989999905228615,0.07300000130214508,0.02899999937514897,0.0659999978879142
0.028759151697158813,-0.03529053181409836,9.862683296203613,-0.11239999532699585,0.006000000052154064,0.04010000079870224,0,0.11500000177721047,0.021999999295971403
0.03912125527858734,-0.04193683713674545,9.873706817626953,-0.10199999809265137,-0.003700000001117587,0.059699997305870056,0.021999999295971403,-0.014999999216793838,0.06299999737754478
0.03627694398164749,-0.03574064373970032,9.86136245727539,-0.11149999499320984,0.0058999997563660145,0.04010000079870224,0.13600000534979648,0.1629999966029081,0.12700000381868817
0.03837426379323006,-0.05437710881233215,9.854199409484863,-0.10109999775886536,-0.0139999995008111,0.030299998819828033,-0.0030000000934877653,-0.023000000021936765,-0.007999999971379599
0.04345954954624176,-0.046342168003320694,9.863795280456543,-0.10089999437332153,-0.004100000020116568,0.04010000079870224,0.07199999890865307,-0.07099999651516105,-0.057000003026912535
0.04068227484822273,-0.029142223298549652,9.874013900756836,-0.10080000013113022,0.005399999674409628,0.059699997305870056,0.09500000059811649,0.18400000017549412,0.10100000161885533
0.04948335886001587,-0.03449565917253494,9.858154296875,-0.09039999544620514,0.0050999997183680534,0.04010000079870224,0.06099999926066736,0.15800000464576788,0.024999999806340833
0.03277183324098587,-0.04232948645949364,9.857033729553223,-0.10920000076293945,-0.004799999762326479,0.04010000079870224,-0.0429999995335041,-0.02800000031671026,-0.012000000373951061
0.03315490484237671,-0.02635537087917328,9.865011215209961,-0.10899999737739563,0.014800000004470348,0.04989999905228615,0.06500000216452881,-0.08899999957737763,0.021999999295971403
0.034352004528045654,-0.02966894768178463,9.87536334991455,-0.10899999737739563,0.004799999762326479,0.059699997305870056,-0.12599999475508955,0.013000000266153095,-0.07199999890865307
0.038115691393613815,-0.04268382489681244,9.871312141418457,-0.10859999805688858,-0.0044999998062849045,0.04989999905228615,0.048000001495804245,0.08499999667351618,0.11200000126684104
0.042616792023181915,-0.02627875655889511,9.878323554992676,-0.09839999675750732,0.014800000004470348,0.059699997305870056,0.08200000283325337,0.07900000232288394,0.014999999216793838
0.02696828916668892,-0.045125916600227356,9.8621187210083,-0.09789999574422836,0.004799999762326479,0.049799997359514236,0.18099999966512467,-0.03599999945432653,0.017999999727163266
0.03712927922606468,-0.03862326219677925,9.87592887878418,-0.11710000038146973,-0.0050999997183680534,0.03999999910593033,-0.0039999999856897995,-0.017999999727163266,0.029999998433587676
0.0293816439807415,-0.04135265201330185,9.86899471282959,-0.1070999950170517,-0.00559999980032444,0.05959999933838844,0.031999999885518396,-0.0539999991814898,0.05799999875029794
0.03947559744119644,-0.040462009608745575,9.863497734069824,-0.09690000116825104,-0.00559999980032444,0.03999999910593033,0.19999999845072666,0.08700000146050021,0.07600000181251451
0.02926672250032425,-0.04156334325671196,9.85535717010498,-0.09690000116825104,-0.00559999980032444,0.03999999910593033,0.1849999958988795,-0.10400000212922476,-0.01700000066872456
0.034677617251873016,-0.046840161085128784,9.851766586303711,-0.10610000044107437,-0.006599999964237213,0.03019999898970127,0.043999998591942806,-0.007999999971379599,0.09999999922536333
0.04758715257048607,-0.048640601336956024,9.854859352111816,-0.09600000083446503,-0.016499999910593033,0.03999999910593033,0.021999999295971403,-0.015999999942759198,0.14399999781730613
0.034514810889959335,-0.03674620762467384,9.8527250289917,-0.10539999604225159,0.003000000026077032,0.03019999898970127,-0.06399999977103679,0.019000000453128628,-0.1180000022875799
0.030042441561818123,-0.03509899601340294,9.864312171936035,-0.10499999672174454,0.0030999998562037945,0.049799997359514236,0.038000000906257256,0.04200000047506539,0.07099999651516105
0.0349457673728466,-0.024152705445885658,9.86233901977539,-0.10449999570846558,0.012799999676644802,0.03999999910593033,-0.02600000053230619,0.03999999902313467,0.1070000026395942
0.035012807697057724,-0.02981259860098362,9.863632202148438,-0.10409999638795853,0.003000000026077032,0.03999999910593033,-0.15900000036915327,0.029999998433587676,0.007999999971379599
0.03978205472230911,-0.025675419718027115,9.851546287536621,-0.09380000084638596,0.013199999928474426,0.03019999898970127,0.14799999405106096,0.17599999436777122,-0.043999998591942806
0.044110771268606186,-0.02933375909924507,9.864494323730469,-0.09319999814033508,0.003000000026077032,0.049799997359514236,-0.16599999711327754,-0.02800000031671026,-0.0019999999928448997
0.04193683713674545,-0.032120607793331146,9.857675552368164,-0.09290000051259995,0.003499999875202775,0.03999999910593033,-0.07000000079177565,0.029999998433587676,0.09099999769425504
0.0351947620511055,-0.031028853729367256,9.872117042541504,-0.1022999957203865,0.003700000001117587,0.049799997359514236,-0.03999999902313467,-0.30100000673968863,0.0859999990670082
0.027600357308983803,-0.035510800778865814,9.858116149902344,-0.11270000040531158,0.0037999998312443495,0.03999999910593033,0.05300000012305109,0.021000000237532696,-0.10100000161885533
0.03066493570804596,-0.0342370830476284,9.868803977966309,-0.10249999910593033,0.003599999938160181,0.049799997359514236,0.013000000266153095,0.08400000095013078,-0.1319999957758284
0.03768473491072655,-0.03948517516255379,9.859888076782227,-0.10189999639987946,-0.006099999882280827,0.03999999910593033,-0.09200000008774706,0.09200000008774706,-0.07799999992939192
0.033710360527038574,-0.040605660527944565,9.843214988708496,-0.10109999775886536,-0.005799999926239252,0.02029999904334545,0.16699999283666295,0.07399999702553048,0.06500000216452881
0.038853105157613754,-0.041955988854169846,9.85063648223877,-0.09070000052452087,-0.006300000008195639,0.03009999915957451,0.23699998695833197,-0.07099999651516105,0.0859999990670082
0.04107492417097092,-0.052787356078624725,9.860471725463867,-0.09070000052452087,-0.016599999740719795,0.03989999741315842,0.007999999971379599,0.0030000000934877653,0.057000003026912535
0.047386039048433304,-0.03847961127758026,9.859092712402344,-0.09030000120401382,-0.006799999624490738,0.03989999741315842,0.26500000061525547,-0.03599999945432653,0.06899999839828364
0.04298070818185806,-0.03444777429103851,9.852705001831055,-0.09030000120401382,0.002199999988079071,0.03009999915957451,-0.006000000186975531,-0.05300000012305109,0.01400000015835513
0.038517918437719345,-0.03772304207086563,9.853575706481934,-0.08999999612569809,0.002199999988079071,0.03009999915957451,-0.09200000008774706,-0.22299999347008345,0.09000000197086964
0.04641878232359886,-0.04884171113371849,9.868066787719727,-0.08069999516010284,0.0024999999441206455,0.03989999741315842,0.004999999877891834,0.03400000133744912,0.013000000266153095
0.04092169553041458,-0.025991452857851982,9.865346908569336,-0.08999999612569809,-0.01730000041425228,0.04969999939203262,0.0329999989439571,-0.0019999999928448997,0.10499999785261017
0.04149630293250084,-0.048755522817373276,9.866275787353516,-0.08940000087022781,-0.01730000041425228,0.04969999939203262,0.021999999295971403,0.09500000059811649,-0.14300000209392072
0.03559699282050133,-0.04802768677473068,9.856066703796387,-0.09860000014305115,-0.01730000041425228,0.03989999741315842,0.010999999647985701,-0.18900000547284757,0.01400000015835513
0.04085465520620346,-0.04142926633358002,9.864034652709961,-0.08899999409914017,-0.007499999832361937,0.03989999741315842,-0.038000000906257256,-0.02600000053230619,0.07799999992939192
0.045259989798069,-0.04118984565138817,9.864838600158691,-0.08879999816417694,-0.007400000002235174,0.04969999939203262,-0.10999999647985702,-0.008999999863581633,-0.09399999820462447
0.0439479686319828,-0.01523669995367527,9.849812507629395,-0.08839999884366989,0.022099999710917473,0.03009999915957451,-0.043999998591942806,0.08100000043976135,0.11699999322398127
0.037330396473407745,-0.03862326219677925,9.867128372192383,-0.09769999980926514,-0.0071000000461936,0.04969999939203262,0.09300000248123906,-0.09800000110848592,-0.0039999999856897995
0.045202530920505524,-0.04661031812429428,9.84713077545166,-0.0876999944448471,-0.0072999997064471245,0.03009999915957451,0.010999999647985701,0.02600000053230619,0.11500000177721047
0.04752011597156525,-0.030597899109125137,9.848423957824707,-0.08720000088214874,0.0023999998811632395,0.03009999915957451,0.048000001495804245,0.02899999937514897,0.12299999424472013
0.04554729536175728,-0.05930916592478752,9.854141235351562,-0.08399999886751175,-0.026099998503923416,0.03009999915957451,0.05900000114378995,0.0269999995907449,-0.024000000747902123
0.05501875653862953,-0.03412216156721115,9.859619140625,-0.07199999690055847,0.003000000026077032,0.039799999445676804,0.05600000063342052,-0.23000000355442093,0.05300000012305109
0.03820187970995903,-0.036621708422899246,9.835504531860352,-0.09209999442100525,0.002899999963119626,0.02019999921321869,0.021000000237532696,0.024000000747902123,-0.0269999995907449
0.04197514429688454,-0.03608540818095207,9.856554985046387,-0.08190000057220459,0.00279999990016222,0.039799999445676804,0.06099999926066736,0.09899999683187131,0.057000003026912535
0.04597824811935425,-0.0229843370616436,9.843798637390137,-0.0810999944806099,0.012299999594688416,0.02019999921321869,0.1719999981340164,-0.031999999885518396,0.0749999994190225
0.0334039032459259,-0.04186980053782463,9.840551376342773,-0.08980000019073486,-0.007699999958276749,0.02019999921321869,-0.10499999785261017,0.15699999558216926,0.0009999999964224499
0.0334039032459259,-0.04186980053782463,9.840551376342773,-0.08980000019073486,-0.007699999958276749,0.02019999921321869,-0.10499999785261017,0.15699999558216926,0.0009999999964224499
0.031220389530062675,-0.03556825965642929,9.868295669555664,-0.08909999579191208,0.002300000051036477,0.04959999769926071,-0.07399999702553048,-0.2519999895101791,0.010999999647985701
0.032953791320323944,-0.038805220276117325,9.857962608337402,-0.08959999680519104,-0.007199999876320362,0.039799999445676804,-0.013000000266153095,-0.006000000186975531,0.16599999711327754
0.04903325065970421,-0.03464888781309128,9.865518569946289,-0.0697999969124794,0.0026000000070780516,0.04959999769926071,-0.008999999863581633,-0.09000000197086964,0.024000000747902123
0.053141701966524124,-0.03834553435444832,9.867501258850098,-0.06989999860525131,-0.0071000000461936,0.04959999769926071,0.07300000130214508,0.30400000725005805,-0.05099999867112037
0.05696284770965576,-0.03407428041100502,9.860587120056152,-0.06879999488592148,0.0023999998811632395,0.039799999445676804,0.10299999973573276,-0.019999999511567335,0.12100000279794933
0.03871902823448181,-0.05498044937849045,9.858585357666016,-0.07840000092983246,-0.01730000041425228,0.039799999445676804,-0.08100000043976135,-0.0269999995907449,-0.0329999989439571
0.04028962552547455,-0.047031696885824203,9.848644256591797,-0.07809999585151672,-0.007199999876320362,0.029999999329447746,0.1629999966029081,-0.02899999937514897,0.06500000216452881
0.0329442135989666,-0.03230256959795952,9.844535827636719,-0.0778999999165535,-0.007599999662488699,0.039799999445676804,0.1620000008795227,-0.09600000299160849,0.03999999902313467
0.037569813430309296,-0.02931460551917553,9.859417915344238,-0.08749999850988388,0.0015999999595806003,0.02019999921321869,-0.02600000053230619,0.009999999755783667,0.09899999683187131
0.0350702665746212,-0.046696510165929794,9.853920936584473,-0.08630000054836273,-0.00839999970048666,0.029999999329447746,-0.049999999612681666,0.07000000079177565,0.09300000248123906
0.03561614453792572,-0.03258029371500015,9.856632232666016,-0.08579999953508377,0.00139999995008111,0.039799999445676804,0.04900000055424296,-0.06299999737754478,0.031999999885518396
0.04351700842380524,-0.038422148674726486,9.859696388244629,-0.07589999586343765,-0.00839999970048666,0.039799999445676804,0.0009999999964224499,-0.0329999989439571,-0.0269999995907449
0.03839341551065445,-0.03283886983990669,9.855195045471191,-0.07569999992847443,0.0013000000035390258,0.039799999445676804,0.09600000299160849,0.048000001495804245,0.09500000059811649
0.029592333361506462,-0.03410300984978676,9.850760459899902,-0.08500000089406967,0.0010999999940395355,0.029899999499320984,-0.07699999753589991,0.10100000161885533,-0.01400000015835513
0.042837053537368774,-0.03318363428115845,9.867807388305664,-0.07459999620914459,0.0013000000035390258,0.04959999769926071,0.11099999887334903,-0.4139999903897018,0.021999999295971403
0.03455311805009842,-0.04248271510004997,9.873141288757324,-0.08540000021457672,-0.008700000122189522,0.04959999769926071,-0.009999999755783667,-0.16599999711327754,-0.06500000216452881
0.04061523824930191,-0.040797196328639984,9.866006851196289,-0.07589999586343765,-0.008700000122189522,0.04959999769926071,-0.18400000017549412,-0.12100000279794933,0.012000000373951061
0.03507984057068825,-0.03729208931326866,9.857397079467773,-0.08559999614953995,0.001500000013038516,0.039799999445676804,-0.035000000395887826,-0.1070000026395942,0.05200000106461238
0.03819230571389198,-0.038900990039110184,9.8450345993042,-0.08549999445676804,-0.008100000210106373,0.029999999329447746,0.15800000464576788,0.15800000464576788,0.10299999973573276
0.04127603769302368,-0.044541727751493454,9.863411903381348,-0.07509999722242355,-0.008499999530613422,0.039799999445676804,0.19499999315337319,-0.11299999699022645,-0.19200000598321698
0.03158430755138397,-0.021174320951104164,9.837037086486816,-0.08500000089406967,0.010499999858438969,0.020099999383091927,0.20299999896109608,0.01400000015835513,0.07799999992939192
0.034725502133369446,-0.039916131645441055,9.852015495300293,-0.08449999988079071,-0.009599999524652958,0.029899999499320984,-0.14799999405106096,-0.12400000330831876,-0.07600000181251451
0.04251144453883171,-0.02896026335656643,9.838837623596191,-0.07449999451637268,0.00039999998989515007,0.020099999383091927,-0.03100000082707969,-0.05600000063342052,0.11200000126684104
0.0407588891685009,-0.038144420832395554,9.847140312194824,-0.07429999858140945,0.0004999999655410647,0.029899999499320984,0.06299999737754478,-0.19900000272734125,0.049999999612681666
0.034849997609853745,-0.03635355830192566,9.854554176330566,-0.0843999981880188,0.00029999998514540493,0.03969999775290489,0.08700000146050021,0.07600000181251451,0.038000000906257256
0.053831230849027634,-0.03907337039709091,9.844621658325195,-0.0640999972820282,-0.009599999524652958,0.020099999383091927,0.12499999903170415,-0.20899999998183494,0.021999999295971403
0.03235045075416565,-0.040768466889858246,9.851278305053711,-0.08419999480247498,-0.00989999994635582,0.029899999499320984,0.10400000212922476,0.023000000021936765,0.11200000126684104
0.03535757213830948,-0.03633440285921097,9.861917495727539,-0.08379999548196793,-0.00039999998989515007,0.03969999775290489,-0.07099999651516105,-0.02899999937514897,0.008999999863581633
0.04767334461212158,-0.0366121344268322,9.868640899658203,-0.0737999975681305,-0.00019999999494757503,0.0494999997317791,-0.03400000133744912,-0.07799999992939192,-0.0539999991814898
0.027571626007556915,-0.03354755416512489,9.87674331665039,-0.09339999407529831,-0.00009999999747378752,0.05939999967813492,0.1719999981340164,0.04500000098543482,0.05999999686717535
0.03656424582004547,-0.03477338328957558,9.862942695617676,-0.08309999853372574,-0.0004999999655410647,0.03969999775290489,-0.17899999487814064,-0.27899999410350396,0.06500000216452881
0.05333323776721954,-0.030147787183523178,9.850846290588379,-0.08379999548196793,-0.009800000116229057,0.0494999997317791,0.031999999885518396,-0.046999999102312236,-0.013000000266153095
0.03534799441695213,-0.021049821749329567,9.862281799316406,-0.06399999558925629,-0.00009999999747378752,0.029899999499320984,-0.12299999424472013,0.023000000021936765,0.012000000373951061
0.038900990039110184,-0.03739742934703827,9.860672950744629,-0.07319999486207962,0.00039999998989515007,0.03969999775290489,-0.013000000266153095,0.05900000114378995,-0.019000000453128628
0.04861186817288399,-0.035865142941474915,9.856066703796387,-0.06289999932050705,0.00039999998989515007,0.03969999775290489,0.14499999354069154,0.10999999647985702,-0.0030000000934877653
0.04074931517243385,-0.03260902687907219,9.863814353942871,-0.0722000002861023,0,0.03969999775290489,0.07699999753589991,0.12299999424472013,0.09099999769425504
0.040462009608745575,-0.047692496329545975,9.85362434387207,-0.07149999588727951,-0.00989999994635582,0.029899999499320984,-0.046999999102312236,-0.13100000005244303,-0.08499999667351618
0.03550122305750847,-0.03677493706345558,9.851115226745605,-0.0811999961733818,0,0.029899999499320984,-0.0859999990670082,-0.09500000059811649,0.1070000026395942
0.03225468471646309,-0.04792233929038048,9.841978073120117,-0.08100000023841858,-0.019199999049305916,0.020099999383091927,0.07099999651516105,0.08799999718388561,0.031999999885518396
0.03251326084136963,-0.04139095917344093,9.854715347290039,-0.0803999975323677,-0.009499999694526196,0.03969999775290489,0.31099999065396905,-0.11599999750059588,0.03599999945432653
0.03460100293159485,-0.03170880675315857,9.847054481506348,-0.08049999922513962,-0.0005999999702908099,0.029899999499320984,-0.04500000098543482,0.07300000130214508,-0.05300000012305109
0.03881479799747467,-0.03844130411744118,9.83432674407959,-0.0697999969124794,-0.010199999436736107,0.010300000198185444,-0.13400000056281244,-0.04500000098543482,0.07300000130214508
0.03539587929844856,-0.027351360768079758,9.868401527404785,-0.0794999971985817,0.00969999935477972,0.0494999997317791,0.023000000021936765,0.024000000747902123,0.007999999971379599
0.04289451614022255,-0.04012681916356087,9.855731010437012,-0.06929999589920044,-0.00989999994635582,0.03969999775290489,-0.09800000110848592,-0.0030000000934877653,-0.05900000114378995
0.031909920275211334,-0.045039720833301544,9.865882873535156,-0.07889999449253082,-0.009599999524652958,0.0494999997317791,-0.05600000063342052,-0.09899999683187131,0.11500000177721047
0.03614286705851555,-0.027590779587626457,9.866620063781738,-0.07889999449253082,0.010099999606609344,0.0494999997317791,0.10900000075647161,-0.13000000432905762,-0.09999999922536333
