Accelerometer_Gx,Accelerometer_Gy,Accelerometer_Gz,Accelerometer_X,Accelerometer_Y,Accelerometer_Z,Gyroscope_Z,Gyroscope_X,Gyroscope_Y
0.012739812023937702,0.14385998249053955,9.750056266784668,0.002172938548028469,-0.0033099204301834106,-0.0021295547485351562,-0.009624990520590898,0.009406251044378595,-0.014437512461312793
0.008004773408174515,0.1507270336151123,9.752120971679688,0.00040295347571372986,0.0017843544483184814,0.00696563720703125,-0.04079025657917977,-0.029428416987742068,0.02439715557080787
0.011238920502364635,0.13898111879825592,9.739619255065918,-0.0027098674327135086,-0.0002053976058959961,-0.0031709671020507812,-1.4458047318330731,-1.442382166728662,-0.15183593234260326
0.005873544607311487,0.13911393284797668,9.747910499572754,0.0015218676999211311,-0.006709009408950806,0.004141807556152344,1.2739415909465082,3.859642996665356,-0.061092713742564995
0.01013148669153452,0.1429249495267868,9.752079010009766,0.017600854858756065,-0.010242342948913574,0.008290290832519531,2.9999512049413575,4.076806300004972,0.291503775957123
0.012792203575372696,0.14296816289424896,9.741440773010254,0.02752380445599556,-0.010907858610153198,0.001491546630859375,-0.28441801498219016,2.140644892018642,0.26556223724173855
0.012792203575372696,0.14296816289424896,9.741440773010254,0.02752380445599556,-0.010907858610153198,0.001491546630859375,-0.28441801498219016,2.140644892018642,0.26556223724173855
0.0040530851110816,0.14948762953281403,9.76192569732666,0.036982886493206024,-0.00586526095867157,-0.00048732757568359375,0.7063249098315337,3.5098216248316363,0.3200299009431226
0.008532119914889336,0.1430584341287613,9.743874549865723,0.05093521997332573,-0.017304986715316772,0.0011882781982421875,2.2589990502868575,5.529203338325871,0.37183699251937513
0.018374759703874588,0.14961911737918854,9.747246742248535,0.06065055727958679,-0.010833919048309326,-0.0033197402954101562,0.9469048764103044,0.1567668886963161,-0.2088999217022384
0.006051142234355211,0.1481579840183258,9.7522554397583,0.02958129346370697,-0.01439163088798523,0.007802009582519531,0.07333431371561208,-3.539826645855502,-0.09999837171935017
0.013408099301159382,0.13702890276908875,9.747910499572754,0.03654627874493599,-0.030104875564575195,0.0029001235961914062,1.5041582395636655,-0.9014157098163138,0.327738729916834
0.011065181344747543,0.13512302935123444,9.74911117553711,0.03218626230955124,-0.037215813994407654,0.00038051605224609375,2.720250476117693,3.5786088868496577,0.40559274789293015
0.013455048203468323,0.14230529963970184,9.743121147155762,0.027520043775439262,-0.02945515513420105,-0.0022535324096679688,0.6161531792958486,-1.8932558671676032,-0.042859610464601905
0.013455048203468323,0.14230529963970184,9.743121147155762,0.027520043775439262,-0.02945515513420105,-0.0022535324096679688,0.6161531792958486,-1.8932558671676032,-0.042859610464601905
0.005746853072196245,0.15199941396713257,9.749778747558594,0.02758544124662876,-0.032212838530540466,0.0073108673095703125,1.2747323987863486,-1.2082196964836471,0.21091340010457732
0.012560662813484669,0.13572832942008972,9.740872383117676,0.022649209946393967,-0.0423809289932251,-0.00228118896484375,0.03422470388897196,-1.8675169396106448,-0.06673800516381938
0.025187501683831215,0.14462006092071533,9.747672080993652,0.04158773273229599,-0.031074702739715576,0.00274658203125,0.7371711113403692,1.9661190445728298,0.014761639621984277
0.009337409399449825,0.13818767666816711,9.735269546508789,0.02409585379064083,-0.03499691188335419,-0.008675575256347656,-0.767139099932329,-1.168409298575993,0.03174433136405241
0.009590755216777325,0.14985516667366028,9.744134902954102,0.03214545547962189,-0.021675124764442444,0.0008697509765625,-0.8282808189481675,0.4020929696343862,-0.19219846833533083
0.011100469157099724,0.13787004351615906,9.743906021118164,0.010065114125609398,-0.017224490642547607,0.0034389495849609375,0.6761342997613138,0.7154908636151323,0.047138430494924
0.011100469157099724,0.13787004351615906,9.743906021118164,0.010065114125609398,-0.017224490642547607,0.0034389495849609375,0.6761342997613138,0.7154908636151323,0.047138430494924
0.012722691521048546,0.1365877389907837,9.755289077758789,0.016984742134809494,-0.017552629113197327,0.0010433197021484375,-0.8062408657135942,-0.5287970875237953,-0.069976328583412
0.012722691521048546,0.1365877389907837,9.755289077758789,0.022942092269659042,-0.030545711517333984,0.012628555297851562,0.2880841723800474,0.6810067325996187,-0.04367395044056725
0.013145710341632366,0.1470935195684433,9.750201225280762,0.021710539236664772,-0.016790732741355896,0.005138397216796875,-0.17557935076443365,0.055815785629028516,0.0235776262518989
0.010008050128817558,0.15082880854606628,9.740439414978027,0.018132001161575317,-0.01229618489742279,-0.0066986083984375,0.18644338028914717,-0.5419945071041409,0.03595559655461484
0.014610781334340572,0.14602042734622955,9.74749755859375,0.0183911994099617,-0.012890145182609558,-0.00925445556640625,-0.15325355678113792,-0.47454553527661875,-0.015647069594213293
0.006395572796463966,0.1493852734565735,9.74789047241211,0.024311522021889687,-0.023514777421951294,0.0003681182861328125,0.22120397388348745,0.503037616038474,0.021167756753861216
0.014754749834537506,0.14339971542358398,9.742676734924316,0.021797578781843185,-0.02050061523914337,0.0026149749755859375,0.05199510854141297,0.027048096061992623,-0.016831747229453492
0.0073875198140740395,0.1445348560810089,9.747580528259277,0.01001457404345274,-0.018034547567367554,-0.00197601318359375,0.46593277345493844,0.6153360645555329,0.11834149840586732
0.015849150717258453,0.1470601111650467,9.743640899658203,0.017773330211639404,-0.009740382432937622,-0.0044612884521484375,-0.007663765733445206,-0.14943625476746772,-0.014437512461312793
0.015849150717258453,0.1470601111650467,9.743640899658203,0.017773330211639404,-0.009740382432937622,-0.0044612884521484375,-0.007663765733445206,-0.14943625476746772,-0.014437512461312793
0.00459897518157959,0.13976715505123138,9.748342514038086,0.0056034838780760765,-0.01827181875705719,0.00238037109375,0.02958733894786387,0.2168037712530522,0.016350098831048588
0.005425282288342714,0.14315278828144073,9.748831748962402,0.005212831776589155,-0.012480676174163818,0.0070972442626953125,-0.11245335507300064,-0.216688378408676,-0.014437512461312793
0.006852519232779741,0.14767326414585114,9.754101753234863,0.01192923728376627,-0.004882797598838806,0.00664520263671875,0.25232284935059446,0.23144069322161762,0.049545125022214684
0.015581687912344933,0.13885442912578583,9.751093864440918,0.013423740863800049,-0.00615517795085907,-0.007816314697265625,-0.08287502076906209,-0.24617682635592011,-0.014437512461312793
0.0077699413523077965,0.14889436960220337,9.746716499328613,0.005996387917548418,-0.014987900853157043,-0.005446434020996094,0.029095325203784942,0.1494061325660109,0.012742558330091816
0.0077699413523077965,0.14889436960220337,9.746716499328613,0.005996387917548418,-0.014987900853157043,-0.005446434020996094,0.029095325203784942,0.1494061325660109,0.012742558330091816
0.006931052077561617,0.13099311292171478,9.742464065551758,0.007740240078419447,-0.021501243114471436,-0.005406379699707031,-0.11113342101589567,-0.060593689716437554,-0.0048146563748375235
0.01034591719508171,0.13775545358657837,9.755818367004395,0.009695283137261868,-0.015508756041526794,0.011054039001464844,-0.009624990520590898,-0.01862496537127274,-0.014437512461312793
0.01389474980533123,0.14592087268829346,9.744734764099121,0.014043456874787807,-0.005494356155395508,-0.0007343292236328125,0.01394671267663713,0.009406251044378595,-0.014437512461312793
0.010747031308710575,0.1463869959115982,9.753758430480957,0.013517857529222965,-0.010058820247650146,0.013272285461425781,-0.004461834415524052,-0.05543053361137071,0.05039927219443651
0.01526576653122902,0.13735613226890564,9.747750282287598,0.005756593309342861,-0.009283661842346191,0.005950927734375,0.003609521522620342,0.009406251044378595,0.042327922926398726
0.007816171273589134,0.14127635955810547,9.754399299621582,0.00999726913869381,-0.013658791780471802,-0.0036220550537109375,-0.009624990520590898,0.009406251044378595,0.017201951486596118
0.013668008148670197,0.13512302935123444,9.749053955078125,0.0049105193465948105,-0.015337333083152771,0.0031719207763671875,-0.009624990520590898,-0.010550681256325967,-0.014437512461312793
0.013668008148670197,0.13512302935123444,9.749053955078125,0.0049105193465948105,-0.015337333083152771,0.0031719207763671875,-0.009624990520590898,-0.010550681256325967,-0.014437512461312793
0.00981941819190979,0.140531986951828,9.757486343383789,0.006740637589246035,-0.009919852018356323,0.010046958923339844,0.007225272924815676,0.009406251044378595,-0.014437512461312793
-0.0008841999806463718,0.13991966843605042,9.759872436523438,-0.005218269769102335,-0.00941099226474762,0.011824607849121094,-0.009624990520590898,-0.025346711947998316,-0.014437512461312793
0.006272748112678528,0.14390340447425842,9.751422882080078,0.0016674655489623547,-0.0018612444400787354,0.004519462585449219,0.04403046763894341,-0.060593689716437554,-0.014437512461312793
0.007259055972099304,0.13822241127490997,9.756500244140625,0.006435547489672899,-0.0013845562934875488,0.0040798187255859375,0.05832237167293064,0.007353672477083982,0.05350984973220874
0.01784709468483925,0.14722557365894318,9.738465309143066,0.006285796407610178,0.0011782944202423096,-0.0074596405029296875,-0.009624990520590898,0.07940619180519475,-0.014437512461312793
0.006492495536804199,0.1493777483701706,9.751066207885742,-0.008403962478041649,0.005863666534423828,0.004652976989746094,-0.009624990520590898,-0.052871653931635676,-0.014437512461312793
0.006492495536804199,0.1493777483701706,9.751066207885742,-0.008403962478041649,0.005863666534423828,0.004652976989746094,-0.009624990520590898,-0.052871653931635676,-0.014437512461312793
0.006432685069739819,0.14369620382785797,9.75169563293457,0.008207841776311398,-0.003540828824043274,0.0044612884521484375,-0.06828635035172309,0.020744845314275777,-0.014437512461312793
0.015849150717258453,0.14267924427986145,9.753446578979492,0.010244516655802727,-0.005471721291542053,0.00428009033203125,-0.03369108201985149,-0.06279201011318995,-0.014437512461312793
0.013710684143006802,0.1404224932193756,9.761763572692871,0.007268575951457024,-0.007531017065048218,0.013225555419921875,0.005324105777598494,0.011779021409444002,-0.014437512461312793
0.010176079347729683,0.14558428525924683,9.746036529541016,0.005140217486768961,-0.0028460919857025146,-0.008252143859863281,0.06037495024022525,0.09766390110644707,0.05556242829950336
0.002998932031914592,0.13600274920463562,9.75333309173584,-0.004329544026404619,-0.009387344121932983,0.00112152099609375,-0.06106690710008572,-0.14491949869410586,-0.00515850037065213
0.009923888370394707,0.14633546769618988,9.746274948120117,-0.002039701212197542,-0.004317119717597961,0.00080108642578125,0.018053697420437866,0.06476362692643611,-0.014437512461312793
0.009923888370394707,0.14633546769618988,9.746274948120117,-0.002039701212197542,-0.004317119717597961,0.00080108642578125,0.018053697420437866,0.06476362692643611,-0.014437512461312793
0.006904091220349073,0.15049609541893005,9.745893478393555,0.0047706663608551025,0.0051336586475372314,-0.0060977935791015625,0.0142933581172285,0.03507970483484004,-0.014437512461312793
0.011817293241620064,0.14142389595508575,9.760130882263184,0.0046130153350532055,-0.006687730550765991,0.015054702758789062,-0.05385528121339685,-0.1803997434309569,-0.014437512461312793
0.012821167707443237,0.1489805281162262,9.745643615722656,0.006644140928983688,0.002892926335334778,-0.004002571105957031,-0.017038547214831497,-0.012834419038343198,-0.014437512461312793
0.014726183377206326,0.14369453489780426,9.749801635742188,0.011168364435434341,-0.001736968755722046,0.0008077621459960938,0.06944453432350305,0.07723523218576206,-0.014437512461312793
0.011060953140258789,0.13638514280319214,9.753960609436035,0.0036805616691708565,-0.0084439218044281,0.0053558349609375,0.05847340956703783,0.13989840251964736,-0.014437512461312793
0.006546973716467619,0.1487177014350891,9.749038696289062,0.013186072930693626,-0.006230682134628296,-0.004116058349609375,0.04387817576479328,0.013419093903466867,-0.014437512461312793
0.013455048203468323,0.14469940960407257,9.750414848327637,0.005775811616331339,-0.0013151615858078003,0.007424354553222656,0.02527618224069,-0.060791271614478684,-0.014437512461312793
0.013455048203468323,0.14469940960407257,9.750414848327637,0.005775811616331339,-0.0013151615858078003,0.007424354553222656,0.02527618224069,-0.060791271614478684,-0.014437512461312793
0.007411491591483355,0.14697690308094025,9.752581596374512,-0.0017093047499656677,-0.001104995608329773,0.0002918243408203125,-0.011328555759447115,0.00599912056666616,-0.014437512461312793
0.014830730855464935,0.13940200209617615,9.748929023742676,0.007652432657778263,-0.005906805396080017,-0.0021800994873046875,0.010486875016481882,-0.05014616832896258,0.005674353075759988
0.006512757390737534,0.1352430284023285,9.741327285766602,-0.0018035480752587318,-0.010254770517349243,-0.009172439575195312,0.02186639706054625,0.0338804730269739,-0.014437512461312793
0.01210123673081398,0.14455406367778778,9.75269889831543,0.00758766382932663,-0.0029568374156951904,0.002643585205078125,-0.022707490834129686,-0.0036762425990535816,-0.0013550188178806156
0.009394107386469841,0.14607827365398407,9.748197555541992,-0.004260112531483173,-0.0005664527416229248,0.005084991455078125,-0.014939471334349228,0.004091776900726877,-0.009123038317661075
0.015605540946125984,0.14015482366085052,9.75509262084961,0.004962245002388954,-0.0027682632207870483,0.0048065185546875,-0.009624990520590898,0.033127017784156866,-0.014437512461312793
0.004552967846393585,0.14317825436592102,9.744867324829102,0.00931417103856802,-0.00019425153732299805,-0.0024394989013671875,-0.009624990520590898,-0.10271656022539045,-0.014437512461312793
0.004552967846393585,0.14317825436592102,9.744867324829102,0.00931417103856802,-0.00019425153732299805,-0.0024394989013671875,-0.009624990520590898,-0.10271656022539045,-0.014437512461312793
0.01223343051970005,0.1431969553232193,9.745516777038574,0.0003246646374464035,-0.002416446805000305,-0.0045032501220703125,-0.009624990520590898,0.07940619180519475,-0.014437512461312793
0.013225083239376545,0.14069843292236328,9.750041961669922,0.007169196382164955,-0.004754215478897095,0.0003986358642578125,0.01770230286393922,0.036733544428908714,-0.014437512461312793
-0.0040379795245826244,0.13695886731147766,9.74588394165039,-0.011170939542353153,-0.009312644600868225,-0.0042133331298828125,-0.009624990520590898,0.009406251044378595,0.05556242829950336
0.00906810350716114,0.13950994610786438,9.752297401428223,0.0032861297950148582,-0.006638750433921814,0.0004138946533203125,-0.009624990520590898,0.07353892590602157,-0.014437512461312793
0.013544607907533646,0.13674893975257874,9.748767852783203,0.0006793169304728508,-0.0085725337266922,-0.0042629241943359375,-0.009624990520590898,0.009406251044378595,-0.014437512461312793
0.01628103107213974,0.14415018260478973,9.755033493041992,0.0008661714382469654,-0.010508432984352112,-0.004221916198730469,0.029434380063052604,0.009406251044378595,-0.014437512461312793
0.010249050334095955,0.1432712823152542,9.751424789428711,-0.004176078364253044,0.0035670101642608643,0.0026702880859375,0.011032403025903593,0.009406251044378595,-0.014437512461312793
0.010249050334095955,0.1432712823152542,9.751424789428711,-0.004176078364253044,0.0035670101642608643,0.0026702880859375,0.011032403025903593,0.009406251044378595,-0.014437512461312793
0.02109702117741108,0.14515909552574158,9.752054214477539,0.014272307977080345,0.0035956650972366333,0.0025882720947265625,-0.009624990520590898,-0.006739782545002641,-0.014437512461312793
0.01815185509622097,0.14232052862644196,9.752668380737305,0.009168846532702446,-0.0010323822498321533,0.0025110244750976562,-0.009624990520590898,0.04485178454642422,0.02011689479745773
0.009219009429216385,0.13757894933223724,9.749690055847168,0.0021017882972955704,-0.007993161678314209,0.00017452239990234375,-0.009624990520590898,0.009406251044378595,-0.014437512461312793
0.0076091717928647995,0.13645943999290466,9.752883911132812,-0.00518517941236496,-0.009982079267501831,-0.0023555755615234375,-0.009624990520590898,-0.059234135226061226,-0.014437512461312793
0.01813509874045849,0.14720167219638824,9.752374649047852,0.006878082640469074,0.006844714283943176,-0.004488945007324219,0.040617053920803094,-0.010351645275043564,-0.014437512461312793
0.010323365218937397,0.14543700218200684,9.746992111206055,-0.0006271647289395332,0.0042369067668914795,0.000217437744140625,-0.009624990520590898,0.04756838556709101,-0.014437512461312793
0.014482257887721062,0.14025089144706726,9.746194839477539,0.004138953983783722,-0.0007748007774353027,0.00033664703369140625,0.06037495024022525,0.07444144469138883,-0.014437512461312793
0.014482257887721062,0.14025089144706726,9.746194839477539,0.004138953983783722,-0.0007748007774353027,0.00033664703369140625,0.06037495024022525,0.07444144469138883,-0.014437512461312793
0.010265618562698364,0.13950544595718384,9.749906539916992,0.0014389697462320328,-0.005228161811828613,0.0005769729614257812,-0.009624990520590898,-0.037220595613668805,-0.014437512461312793
0.01059785671532154,0.13867485523223877,9.741421699523926,0.0017386693507432938,-0.005342945456504822,-0.008699417114257812,0.03214476454435763,0.07940619180519475,-0.014437512461312793
0.01297236979007721,0.14690430462360382,9.747910499572754,-0.0010192617774009705,0.006377547979354858,-0.0014324188232421875,0.00019666809343537692,-0.10112864796506826,-0.004615847177179906
0.008080162107944489,0.14496909081935883,9.75147819519043,0.0013478323817253113,-0.005579784512519836,-0.0038747787475585938,-0.001049387862842379,0.017981847032020503,-0.005861916473670885
0.009021990932524204,0.14088474214076996,9.754474639892578,0.001604645512998104,-0.01000736653804779,0.015280723571777344,0.03339362194541214,0.06846212100114513,-0.014437512461312793
0.005847610533237457,0.14371493458747864,9.753683090209961,-0.0007192017510533333,-0.0004853159189224243,0.005457878112792969,0.014990957887282165,-0.011361792900691425,-0.059821504814255876
0.005847610533237457,0.14371493458747864,9.753683090209961,-0.0007192017510533333,-0.0004853159189224243,0.005457878112792969,0.014990957887282165,-0.011361792900691425,-0.059821504814255876
0.015069035813212395,0.14152519404888153,9.758374214172363,0.006462411023676395,-0.0006043910980224609,0.01220703125,0.04818356949985495,0.009406251044378595,-0.014437512461312793
0.017187049612402916,0.14469940960407257,9.752397537231445,0.0084196412935853,0.0018510520458221436,0.002552032470703125,-0.009624990520590898,-0.03000558131282137,-0.014437512461312793
0.012977012433111668,0.14661483466625214,9.740248680114746,0.0061134761199355125,0.004110395908355713,-0.011425971984863281,0.018368219627589017,0.009406251044378595,-0.014437512461312793
0.011417334899306297,0.14323508739471436,9.746050834655762,0.00606419425457716,-0.0031755268573760986,0.0031671524047851562,0.057768125834167905,0.07419254299308005,-0.014437512461312793
0.008666850626468658,0.14948762953281403,9.748800277709961,-0.0010298201814293861,0.005969211459159851,0.007843971252441406,-0.009624990520590898,0.04780434725857379,-0.014437512461312793
0.004480733536183834,0.1345493495464325,9.749688148498535,-0.0031614266335964203,0.0035135746002197266,-0.008618354797363281,0.06037495024022525,-0.02479525421379912,-0.014437512461312793
0.00736630242317915,0.14230529963970184,9.744353294372559,-0.0053290873765945435,-0.0008514821529388428,-0.0038137435913085938,-0.009624990520590898,0.008396196800223292,-0.014437512461312793
0.00736630242317915,0.14230529963970184,9.744353294372559,-0.0053290873765945435,-0.0008514821529388428,-0.0038137435913085938,-0.009624990520590898,0.008396196800223292,-0.014437512461312793
0.014510244131088257,0.14656023681163788,9.745516777038574,0.008761496283113956,0.0037724673748016357,-0.0035390853881835938,0.009781858087876407,-0.021779992499502944,-0.014437512461312793
0.010675797238945961,0.1424015909433365,9.763897895812988,0.0018925033509731293,-0.0009946823120117188,0.0152740478515625,-0.009624990520590898,0.04159092950669849,-0.014437512461312793
0.012004024349153042,0.14114467799663544,9.739059448242188,0.004100083373486996,-0.005759254097938538,-0.010519981384277344,-0.009624990520590898,-0.004381846497040856,-0.014437512461312793
0.011468121781945229,0.14230529963970184,9.754054069519043,0.008865844458341599,-0.0009988844394683838,0.003570556640625,-0.009624990520590898,0.004786121658754208,-0.014437512461312793
0.011060953140258789,0.14296428859233856,9.744439125061035,0.0013612238690257072,0.0060688406229019165,0.008223533630371094,0.01339402764282145,0.032425269207790944,0.03254341013609101
0.00063545280136168,0.14145620167255402,9.753311157226562,-0.010321235284209251,-0.003350004553794861,0.022127151489257812,-0.009624990520590898,0.009406251044378595,-0.014437512461312793
0.00063545280136168,0.14145620167255402,9.753311157226562,-0.010321235284209251,-0.003350004553794861,0.022127151489257812,-0.009624990520590898,0.009406251044378595,-0.014437512461312793
0.017327550798654556,0.14322100579738617,9.745306015014648,0.008938443847000599,-0.0008734613656997681,-0.008568763732910156,-0.009624990520590898,0.01763145299151356,-0.014437512461312793
0.0010935035534203053,0.13358737528324127,9.743979454040527,-0.010078887455165386,-0.010170459747314453,-0.006094932556152344,-0.009624990520590898,0.009406251044378595,0.02892887936340555
0.011747082695364952,0.13786017894744873,9.752355575561523,0.0016872016713023186,-0.005121901631355286,0.0033559799194335938,-0.009624990520590898,0.009406251044378595,0.030592684096751567
0.006422472186386585,0.14514829218387604,9.746039390563965,-0.012599324807524681,0.004258781671524048,-0.006073951721191406,-0.0030637934100002898,0.009406251044378595,-0.014437512461312793
0.012627794407308102,0.14871294796466827,9.751114845275879,0.011072087101638317,-0.0008399635553359985,-0.0013418197631835938,0.002211353785070964,0.009406251044378595,-0.014437512461312793
0.012460924685001373,0.1509483903646469,9.756026268005371,0.00836201012134552,0.0038913339376449585,0.010175704956054688,0.02061653914350003,0.009406251044378595,0.015804017202778138
0.012460924685001373,0.1509483903646469,9.756026268005371,0.00836201012134552,0.0038913339376449585,0.010175704956054688,0.02061653914350003,0.009406251044378595,0.015804017202778138
0.011060953140258789,0.13711285591125488,9.749410629272461,0.001035545952618122,-0.0010761767625808716,-0.004218101501464844,-0.009624990520590898,-0.011948949045474513,-0.014437512461312793
0.01796296238899231,0.1412484049797058,9.746853828430176,0.010317733511328697,-0.0031671077013015747,-0.0041790008544921875,0.0449231146665259,0.009406251044378595,0.0010143231123865616
0.008784986101090908,0.14462065696716309,9.752619743347168,-0.0015983544290065765,0.001562461256980896,0.002902984619140625,-0.009624990520590898,0.009406251044378595,0.019411037435419227
0.0068296464160084724,0.14712683856487274,9.751518249511719,-0.0064409393817186356,0.006291478872299194,0.0028734207153320312,-0.009624990520590898,-0.008336659428610466,-0.014437512461312793
0.009841487742960453,0.14347994327545166,9.749129295349121,0.0006874902173876762,0.0015156269073486328,-0.0018749237060546875,-0.009624990520590898,-0.060593689716437554,-0.014437512461312793
0.00404707994312048,0.13776974380016327,9.75509262084961,-0.0014749802649021149,0.001462697982788086,0.005274772644042969,-0.009624990520590898,0.0603454550287899,-0.014437512461312793
0.011774522252380848,0.14133836328983307,9.749338150024414,0.0033093243837356567,0.0016065984964370728,0.0026578903198242188,-0.009624990520590898,0.009406251044378595,-0.014437512461312793
0.011774522252380848,0.14133836328983307,9.749338150024414,0.0033093243837356567,0.0016065984964370728,0.0026578903198242188,-0.009624990520590898,0.009406251044378595,-0.014437512461312793
0.022856436669826508,0.14440739154815674,9.75404167175293,0.019624022766947746,-0.0006496310234069824,0.0049686431884765625,-0.009624990520590898,0.013676399936105942,-0.014437512461312793
0.011482744477689266,0.13751710951328278,9.747203826904297,0.0003028577193617821,-0.005368471145629883,-0.0045490264892578125,-0.009624990520590898,-0.013260665531234306,-0.014437512461312793
-0.0018491549417376518,0.14844870567321777,9.741973876953125,-0.013716948218643665,0.0065937340259552,-0.009214401245117188,-0.009624990520590898,0.02155697081484616,-0.014437512461312793
0.010340883396565914,0.14146828651428223,9.75125789642334,-0.0016388706862926483,-0.00046162307262420654,-0.0021791458129882812,-0.009624990520590898,0.019934293958865673,-0.014437512461312793
0.011211255565285683,0.1421550214290619,9.744976997375488,-0.006365056149661541,0.0067058950662612915,-0.00193023681640625,-0.009624990520590898,-0.044833801939000044,-0.014437512461312793
0.0010773958638310432,0.14882531762123108,9.754098892211914,0.0031931959092617035,0.0020801424980163574,-0.0018262863159179688,-0.05334554833110489,0.035685643999840665,-0.014437512461312793
0.012494449503719807,0.14566001296043396,9.754132270812988,0.0009975889697670937,0.004086554050445557,0.0027360916137695312,0.015692813185353868,0.009406251044378595,0.030244624593558592
0.012494449503719807,0.14566001296043396,9.754132270812988,0.0009975889697670937,0.004086554050445557,0.0027360916137695312,0.015692813185353868,0.009406251044378595,0.030244624593558592
0.009434018284082413,0.14075246453285217,9.757486343383789,0.0031248778104782104,-0.007680580019950867,0.007176399230957031,-0.009624990520590898,-0.0491084865032231,-0.014437512461312793
0.00662206532433629,0.14674420654773712,9.747910499572754,-0.003678811714053154,0.003847643733024597,-0.00252532958984375,0.020268266196895493,-0.0008071896216779912,-0.014437512461312793
0.01687958464026451,0.14618439972400665,9.755668640136719,0.00805843435227871,0.0036851316690444946,0.0069255828857421875,0.012085072581198753,0.03598606560161544,-0.014437512461312793
0.006498668342828751,0.13968528807163239,9.755995750427246,-0.0012769810855388641,-0.005778759717941284,0.013854026794433594,-0.0063234878511756526,0.009406251044378595,0.05226092563008811
0.013783741742372513,0.1416012942790985,9.751337051391602,0.010399526916444302,0.008533507585525513,-0.0028743743896484375,0.005471341710937226,-0.04549735748490943,-0.014437512461312793
0.005613103974610567,0.14643386006355286,9.746508598327637,0.0008081533014774323,0.008225411176681519,0.013575553894042969,-0.009624990520590898,0.042907208345380435,-0.014437512461312793
0.005613103974610567,0.14643386006355286,9.746508598327637,0.0008081533014774323,0.008225411176681519,0.013575553894042969,-0.009624990520590898,0.042907208345380435,-0.014437512461312793
0.013475884683430195,0.14467857778072357,9.750263214111328,0.005640058778226376,-0.0014226734638214111,-0.005139350891113281,0.06007170051324726,-0.0599872036026948,-0.014437512461312793
0.014012154191732407,0.1399112194776535,9.751028060913086,0.0031629055738449097,-0.003771543502807617,0.0018663406372070312,-0.009624990520590898,0.009406251044378595,-0.014437512461312793
0.018171142786741257,0.1445551961660385,9.757125854492188,0.007502278313040733,0.001120343804359436,0.0066127777099609375,-0.009624990520590898,-0.027701979953315563,-0.014437512461312793
0.017128951847553253,0.1456901580095291,9.74634075164795,0.009705975651741028,0.003262266516685486,-0.010103225708007812,0.06037495024022525,0.009406251044378595,0.00004569023028768295
0.019574206322431564,0.14469940960407257,9.750572204589844,0.00676566269248724,0.0007395446300506592,-0.0028867721557617188,-0.005711338816919871,0.009406251044378595,-0.010523867427748378
0.009253954514861107,0.14489510655403137,9.755483627319336,0.0041188085451722145,0.0028809309005737305,0.008717536926269531,0.012695187232938075,-0.060593689716437554,-0.014437512461312793
0.013455048203468323,0.143130362033844,9.746502876281738,0.0017896471545100212,0.00038219988346099854,0.006043434143066406,0.06037495024022525,0.009406251044378595,-0.014437512461312793
0.013455048203468323,0.143130362033844,9.746502876281738,0.0017896471545100212,0.00038219988346099854,0.006043434143066406,0.06037495024022525,0.009406251044378595,-0.014437512461312793
0.00918181985616684,0.14521437883377075,9.745000839233398,-0.0006075119599699974,0.002783745527267456,-0.007801055908203125,-0.009624990520590898,0.009406251044378595,0.04803262498724031
0.011991924606263638,0.1384480744600296,9.753008842468262,-0.0004148092120885849,-0.006519779562950134,0.0018091201782226562,-0.009624990520590898,0.009406251044378595,-0.014437512461312793
0.012018710374832153,0.14054971933364868,9.757166862487793,-0.000447884202003479,-0.003998875617980957,0.0062999725341796875,-0.009624990520590898,0.05374090222522558,-0.014437512461312793
0.015894874930381775,0.15287593007087708,9.74501895904541,0.009092938154935837,0.012241467833518982,-0.00775146484375,0.05310621490073008,0.016674986383873765,-0.014437512461312793
0.012693174183368683,0.14469940960407257,9.7543306350708,0.004228345118463039,0.0002862215042114258,0.006381034851074219,-0.009624990520590898,0.020545249044038025,-0.014437512461312793
0.010618327185511589,0.1399112194776535,9.756601333618164,-0.0027620140463113785,-0.004465699195861816,0.0015087127685546875,-0.009624990520590898,0.009406251044378595,-0.014437512461312793
0.0033788010478019714,0.14098329842090607,9.759380340576172,-0.0026452383026480675,-0.0019714385271072388,0.012935638427734375,0.06037495024022525,0.009406251044378595,-0.014437512461312793
0.007974112406373024,0.13959532976150513,9.754715919494629,-0.0022131958976387978,-0.006531804800033569,0.005504608154296875,0.005119580298574958,0.009406251044378595,0.00030705168774645215
0.007974112406373024,0.13959532976150513,9.754715919494629,-0.0022131958976387978,-0.006531804800033569,0.005504608154296875,0.005119580298574958,0.009406251044378595,0.00030705168774645215
0.008666850626468658,0.13997438549995422,9.740854263305664,-0.001997179351747036,-0.004010245203971863,-0.010831832885742188,-0.009624990520590898,0.009406251044378595,-0.014437512461312793
0.010494904592633247,0.14596141874790192,9.75100040435791,0.0004699490964412689,0.002938508987426758,0.0012750625610351562,0.06037495024022525,0.009406251044378595,-0.014437512461312793
0.008675744757056236,0.13752895593643188,9.7503080368042,0.00538653414696455,0.0033249706029891968,0.0013341903686523438,-0.009624990520590898,0.009406251044378595,0.05552063341147669
0.013394849374890327,0.1472139209508896,9.745576858520508,0.0006603272631764412,0.007634148001670837,-0.0033941268920898438,-0.009624990520590898,0.009406251044378595,-0.014437512461312793
0.008341629058122635,0.1450246423482895,9.74892520904541,0.0028060926124453545,-0.004262655973434448,-0.00547027587890625,-0.009624990520590898,0.009406251044378595,-0.014437512461312793
0.008341629058122635,0.1450246423482895,9.74892520904541,0.0005519455298781395,-0.008848205208778381,-0.007628440856933594,-0.009624990520590898,0.009406251044378595,-0.014437512461312793
0.011060953140258789,0.1394236832857132,9.744196891784668,0.0005519455298781395,-0.008848205208778381,-0.007628440856933594,-0.009624990520590898,0.07228110388168141,-0.014437512461312793
0.014957896433770657,0.14035683870315552,9.750749588012695,0.005095906555652618,-0.003936827182769775,-0.0002918243408203125,-0.009624990520590898,-0.03862282544614449,-0.014437512461312793
0.013271461240947247,0.13567379117012024,9.75269889831543,0.0026469677686691284,-0.008410796523094177,0.001987457275390625,-0.009624990520590898,0.009406251044378595,0.02593002611137327
0.015758460387587547,0.1406790018081665,9.753466606140137,0.009819953702390194,-0.0010018348693847656,0.0042705535888671875,-0.009624990520590898,0.020630146160987167,-0.014437512461312793
0.012012617662549019,0.14423851668834686,9.753680229187012,0.0025910213589668274,-0.00337374210357666,-0.0030107498168945312,-0.009624990520590898,-0.04624718418972989,-0.014437512461312793
0.004800159018486738,0.14586485922336578,9.75926685333252,0.0001697838306427002,-0.005532935261726379,0.003945350646972656,-0.009624990520590898,0.03498522944479701,-0.014437512461312793
0.005230588838458061,0.14376290142536163,9.750199317932129,0.00038145389407873154,-0.0008031725883483887,0.005927085876464844,0.03435627841198726,-0.008556332719748356,-0.014437512461312793
0.005230588838458061,0.14376290142536163,9.750199317932129,0.00038145389407873154,-0.0008031725883483887,0.005927085876464844,0.03435627841198726,-0.008556332719748356,-0.014437512461312793
0.010413187555968761,0.13503284752368927,9.75417423248291,-0.0040089963003993034,-0.00544893741607666,0.005925178527832031,-0.009624990520590898,-0.039016134952588793,-0.014437512461312793
0.013653903268277645,0.13831253349781036,9.754495620727539,0.002897174097597599,-0.004926398396492004,0.0035314559936523438,-0.009624990520590898,-0.002222652945670575,-0.014437512461312793
0.01781253144145012,0.13727663457393646,9.75576400756836,0.007467174902558327,-0.007320672273635864,0.005859375,0.03796898157546121,0.057000209800217486,-0.014437512461312793
0.014789176173508167,0.14469940960407257,9.75509262084961,0.004889923147857189,0.0021622180938720703,0.0032758712768554688,-0.009624990520590898,0.009406251044378595,-0.014437512461312793
0.014015378430485725,0.1449795812368393,9.75875186920166,-0.00716016162186861,-0.0026458650827407837,-0.0017528533935546875,-0.009624990520590898,-0.04619594443074157,-0.014437512461312793
0.012169115245342255,0.14230529963970184,9.75269889831543,0.004614783450961113,-0.000013828277587890625,0.000606536865234375,-0.009624990520590898,-0.027795481507793336,0.05556242829950336
0.012169115245342255,0.14230529963970184,9.75269889831543,0.004614783450961113,-0.000013828277587890625,0.000606536865234375,-0.009624990520590898,-0.027795481507793336,0.05556242829950336
0.011114940047264099,0.1326749175786972,9.76222038269043,-0.004901716485619545,-0.004746109247207642,0.014537811279296875,0.009175078489442753,-0.041793620706403904,0.004362556548720859
0.002716094721108675,0.1459309458732605,9.75509262084961,-0.0070781409740448,0.005113005638122559,0.0023622512817382812,-0.009624990520590898,0.06140269360711383,-0.014437512461312793
0.0014362640213221312,0.13292209804058075,9.748055458068848,-0.008863266557455063,-0.008973181247711182,-0.004750251770019531,-0.009624990520590898,0.012230080698929297,0.019150543091819933
0.009705925360321999,0.14230529963970184,9.758525848388672,0.0006142938509583473,0.0004890859127044678,0.0069561004638671875,0.005566464101321554,-0.060593689716437554,-0.014437512461312793
0.009533974342048168,0.1399112194776535,9.755960464477539,0.0030676554888486862,-0.0018786042928695679,0.006770133972167969,0.06037495024022525,0.006189738873405052,-0.014437512461312793
0.004736931063234806,0.13956791162490845,9.751505851745605,0.0055143143981695175,-0.00640067458152771,0.01312255859375,-0.009624990520590898,0.009406251044378595,-0.014437512461312793
0.003878660500049591,0.14547297358512878,9.752689361572266,-0.006072378717362881,-0.008696094155311584,-0.005761146545410156,0.0203562582433123,0.009406251044378595,0.02558117953560016
0.003878660500049591,0.14547297358512878,9.752689361572266,-0.006072378717362881,-0.008696094155311584,-0.005761146545410156,0.0203562582433123,0.009406251044378595,0.02558117953560016
0.008666850626468658,0.1389475017786026,9.756026268005371,-0.0009432686492800713,-0.0017240345478057861,0.0059986114501953125,-0.009624990520590898,0.07258472713462963,-0.014437512461312793
0.009335174225270748,0.13406556844711304,9.748912811279297,-0.0008630929514765739,-0.008517533540725708,-0.005709648132324219,-0.009624990520590898,0.009406251044378595,0.030332616639975395
0.017653146758675575,0.13810721039772034,9.75929069519043,0.00839539710432291,-0.003624260425567627,0.006047248840332031,-0.009624990520590898,0.009406251044378595,-0.014437512461312793
0.011226201429963112,0.1399112194776535,9.75471305847168,0.006025910377502441,-0.001132667064666748,0.0036468505859375,-0.009624990520590898,0.009406251044378595,-0.014437512461312793
0.020637348294258118,0.1479337364435196,9.753412246704102,0.010250240564346313,0.00807604193687439,-0.0034704208374023438,-0.009624990520590898,0.009406251044378595,0.0451303281985138
0.0075286440551280975,0.13877300918102264,9.755929946899414,0.002800680696964264,0.0031377971172332764,0.005965232849121094,-0.009624990520590898,0.009406251044378595,-0.014437512461312793
0.0075286440551280975,0.13877300918102264,9.755929946899414,0.002800680696964264,0.0031377971172332764,0.005965232849121094,-0.009624990520590898,0.009406251044378595,-0.014437512461312793
0.014503013342618942,0.14335326850414276,9.75614070892334,0.005197359248995781,0.0030820220708847046,0.00344085693359375,0.013134467114147744,0.009406251044378595,0.008321945173425849
0.012494223192334175,0.1480543464422226,9.745987892150879,0.0003522103652358055,0.007555082440376282,-0.010648727416992188,0.004422427425664252,0.009406251044378595,-0.014437512461312793
0.006622398737818003,0.14461199939250946,9.759881019592285,-0.004421480931341648,0.0026453733444213867,0.005970001220703125,-0.009624990520590898,0.009406251044378595,-0.014437512461312793
0.01214527990669012,0.13860143721103668,9.754324913024902,0.00024744588881731033,-0.004387617111206055,-0.0013399124145507812,-0.009624990520590898,0.009406251044378595,-0.014437512461312793
0.012386122718453407,0.1421515792608261,9.751424789428711,0.007266432046890259,-0.006879046559333801,-0.005986213684082031,-0.008874103268819232,-0.05984279579455928,-0.013686618539434516
0.004023347049951553,0.14702117443084717,9.755128860473633,0.0024356618523597717,0.00020875036716461182,0.0035886764526367188,0.06037495024022525,0.009406251044378595,0.05556242829950336
0.010792942717671394,0.14669598639011383,9.75788402557373,-0.006719429045915604,0.009408503770828247,-0.00119781494140625,-0.009624990520590898,0.009406251044378595,-0.014437512461312793
0.010792942717671394,0.14669598639011383,9.75788402557373,-0.006719429045915604,0.009408503770828247,-0.00119781494140625,-0.009624990520590898,0.009406251044378595,-0.014437512461312793
0.0075677540153265,0.14140212535858154,9.763961791992188,-0.002035783603787422,0.0021343380212783813,0.014967918395996094,-0.009624990520590898,-0.05772843869983043,-0.014437512461312793
0.005802910774946213,0.14375972747802734,9.749834060668945,-0.004157090559601784,0.0022414475679397583,-0.004150390625,-0.009624990520590898,0.009406251044378595,-0.014437512461312793
0.008347378112375736,0.14437994360923767,9.756847381591797,-0.0016150632873177528,0.002278044819831848,0.003124237060546875,-0.009624990520590898,-0.030264194686356265,-0.014437512461312793
0.007850680500268936,0.14788249135017395,9.759881019592285,-0.0037806611508131027,0.004381641745567322,0.0052165985107421875,-0.009624990520590898,0.06747326435580067,-0.014437512461312793
0.01256937999278307,0.1437237709760666,9.757929801940918,0.00802671443670988,-0.0006378889083862305,0.00027751922607421875,0.05389977082449449,0.009406251044378595,0.0490872488837726
0.02246525138616562,0.14230529963970184,9.749042510986328,0.00770142674446106,-0.000748559832572937,0.002849578857421875,0.01524901097186171,-0.03571968822398495,0.05556242829950336
0.019037732854485512,0.13934218883514404,9.749166488647461,-0.0021286094561219215,-0.0007884949445724487,0.0006256103515625,0.03365199519510904,-0.01731670400073762,-0.014437512461312793
0.019037732854485512,0.13934218883514404,9.749166488647461,-0.0021286094561219215,-0.0007884949445724487,0.0006256103515625,0.03365199519510904,-0.01731670400073762,-0.014437512461312793
0.003878660500049591,0.13922163844108582,9.749614715576172,-0.007091270759701729,-0.005352124571800232,-0.006131172180175781,0.050294951727035145,0.009406251044378595,0.04548242978631325
0.010838230140507221,0.143808513879776,9.744680404663086,0.00019882898777723312,0.0018249154090881348,-0.010581016540527344,-0.009624990520590898,-0.01908188101436279,0.05556242829950336
-0.005246398970484734,0.14108583331108093,9.759881019592285,-0.01844772696495056,-0.0004218965768814087,0.0058422088623046875,0.037259629077558365,-0.03747836855377067,0.032447107136836476
0.01720721833407879,0.1419832855463028,9.751340866088867,0.007438908331096172,-0.002980157732963562,-0.0035915374755859375,0.06037495024022525,0.004699490314086117,-0.014437512461312793
0.010124373249709606,0.14469940960407257,9.752490043640137,0.002772974781692028,0.001631021499633789,0.0035886764526367188,0.06037495024022525,0.05202431026815742,-0.014437512461312793
0.010000783950090408,0.13832096755504608,9.749518394470215,-0.004590223543345928,-0.009807631373405457,-0.015034675598144531,-0.009624990520590898,0.009406251044378595,-0.014437512461312793
0.010985649190843105,0.1388271152973175,9.746976852416992,0.0024367952719330788,-0.007106602191925049,-0.014598846435546875,-0.009624990520590898,-0.010094365922830934,-0.014437512461312793
0.010985649190843105,0.1388271152973175,9.746976852416992,0.0024367952719330788,-0.007106602191925049,-0.014598846435546875,-0.009624990520590898,-0.010094365922830934,-0.014437512461312793
0.011034319177269936,0.1399112194776535,9.762825965881348,0.002351580187678337,-0.0022259652614593506,0.013678550720214844,-0.009624990520590898,-0.0432877912884103,-0.014437512461312793
0.010988856665790081,0.14228126406669617,9.750304222106934,0.00007583573460578918,0.00014249980449676514,-0.0029096603393554688,0.02467235082937856,-0.026296348366468096,-0.014437512461312793
0.003878660500049591,0.14469940960407257,9.75487232208252,-0.006688612513244152,0.0024278610944747925,0.004296302795410156,-0.009624990520590898,0.009406251044378595,0.03967358068084219
0.006869006901979446,0.1421336531639099,9.760052680969238,0.005475210957229137,0.002343103289604187,0.003931999206542969,-0.009624990520590898,0.009406251044378595,-0.014437512461312793
0.0041738818399608135,0.15339015424251556,9.75674819946289,-0.0015219971537590027,-0.0019575655460357666,-0.0077915191650390625,0.01128926883150632,0.009406251044378595,0.03464817561751275
0.015072183683514595,0.14469940960407257,9.75832748413086,0.0032632267102599144,0.0022279322147369385,0.0016241073608398438,0.021059047356309587,0.009406251044378595,0.02487839042260287
0.015072183683514595,0.14469940960407257,9.75832748413086,0.0032632267102599144,0.0022279322147369385,0.0016241073608398438,0.021059047356309587,0.009406251044378595,0.02487839042260287
0.014442692510783672,0.14736230671405792,9.750723838806152,0.0030499277636408806,0.011335238814353943,-0.0009202957153320312,0.05425113870056669,0.009406251044378595,-0.014437512461312793
0.004595452919602394,0.14434100687503815,9.754375457763672,-0.006357233040034771,0.0018867552280426025,0.0015859603881835938,-0.009624990520590898,0.03392681692770949,0.05556242829950336
0.010789785534143448,0.14442823827266693,9.75242805480957,0.0008746348321437836,0.0017700642347335815,-0.000698089599609375,0.033303628867011936,0.009406251044378595,-0.014437512461312793
0.005965638905763626,0.1467864066362381,9.748217582702637,-0.0012121526524424553,0.006423056125640869,-0.0076427459716796875,-0.009624990520590898,0.009406251044378595,-0.014437512461312793
0.008199642412364483,0.14057691395282745,9.750502586364746,0.005885332822799683,-0.0054508596658706665,0.0020227432250976562,0.050641863971890966,0.009406251044378595,-0.014437512461312793
0.0066672880202531815,0.14472627639770508,9.744699478149414,-0.0013038478791713715,-0.010147124528884888,-0.00028324127197265625,-0.009624990520590898,-0.060593689716437554,-0.014437512461312793
0.0066672880202531815,0.14472627639770508,9.744699478149414,-0.0013038478791713715,-0.010147124528884888,-0.00028324127197265625,-0.009624990520590898,-0.060593689716437554,-0.014437512461312793
0.014493446797132492,0.14435327053070068,9.755424499511719,-0.0034652510657906532,0.004016518592834473,0.00930023193359375,0.03691016885197701,0.009406251044378595,-0.014437512461312793
0.015279904939234257,0.13808636367321014,9.749734878540039,0.007895107381045818,-0.007681995630264282,-0.00019550323486328125,-0.009624990520590898,-0.003931921125679489,0.04222425612944527
0.01094968244433403,0.14024503529071808,9.757152557373047,0.0007669022306799889,-0.0028343945741653442,0.0047283172607421875,-0.009624990520590898,0.009406251044378595,0.02381589580026921
0.008666850626468658,0.15272198617458344,9.755932807922363,-0.0015079434961080551,0.011011466383934021,0.0046634674072265625,0.010231890180943554,0.009406251044378595,-0.014437512461312793
0.01325670350342989,0.13906127214431763,9.748108863830566,-0.001761890947818756,0.004102051258087158,0.00014209747314453125,-0.009624990520590898,-0.05914510264301305,-0.014437512461312793
0.01340665016323328,0.14466311037540436,9.757462501525879,-0.006227424368262291,-0.005449369549751282,0.0002002716064453125,-0.009624990520590898,0.009406251044378595,-0.014437512461312793
0.004989722743630409,0.1379866749048233,9.75252628326416,-0.008663155138492584,-0.0099698007106781,-0.006922721862792969,0.025728735634056234,-0.02523996356179042,0.05556242829950336
0.004989722743630409,0.1379866749048233,9.75252628326416,-0.008663155138492584,-0.0099698007106781,-0.006922721862792969,0.025728735634056234,-0.02523996356179042,0.05556242829950336
0.014045235700905323,0.13961613178253174,9.752845764160156,0.012660619802772999,-0.00725989043712616,0.0025081634521484375,-0.009624990520590898,0.009406251044378595,-0.014437512461312793
0.010148080997169018,0.14857475459575653,9.749810218811035,-0.001560843549668789,0.004547387361526489,-0.002155303955078125,-0.009624990520590898,-0.01115782104051663,0.006126559623582433
0.004556016996502876,0.13620680570602417,9.75694465637207,-0.0064055100083351135,-0.007503584027290344,0.0050106048583984375,-0.009624990520590898,-0.02163292998893611,-0.014437512461312793
0.008666850626468658,0.14240433275699615,9.752032279968262,-0.0016097398474812508,0.002183288335800171,0.0027322769165039062,-0.009624990520590898,-0.0032244896184807073,-0.014437512461312793
0.00887763500213623,0.14469940960407257,9.75051498413086,0.005620663054287434,0.0018745958805084229,0.005169868469238281,0.05460898992026511,0.0036402907244184562,-0.014437512461312793
0.01559009961783886,0.14178720116615295,9.743898391723633,0.00303488876670599,-0.0051807016134262085,-0.0022897720336914062,0.014547182354216454,-0.036421516841630204,-0.014437512461312793
0.008320637047290802,0.1435399353504181,9.753857612609863,0.005164788104593754,-0.004996120929718018,0.007340431213378906,-0.009624990520590898,-0.018019333031176237,0.028136844223948524
0.008320637047290802,0.1435399353504181,9.753857612609863,0.005164788104593754,-0.004996120929718018,0.007340431213378906,-0.009624990520590898,-0.018019333031176237,0.028136844223948524
0.006976403295993805,0.14621730148792267,9.754858016967773,-0.011054884642362595,0.0043594688177108765,0.004868507385253906,-0.009624990520590898,0.06064296846408214,-0.014437512461312793
0.007754629943519831,0.13801106810569763,9.752204895019531,-0.004015151411294937,-0.0050950199365615845,0.000141143798828125,-0.009624990520590898,0.023849486457163917,-0.014437512461312793
0.01259133592247963,0.14230529963970184,9.741875648498535,0.0005052844062447548,-0.0003710836172103882,-0.01137542724609375,0.014188143855541215,-0.01296742096417333,-0.014437512461312793
0.006272748112678528,0.14921659231185913,9.739715576171875,-0.004129311069846153,0.011209309101104736,-0.010686874389648438,0.05495833008392746,0.003989630888080808,-0.014437512461312793
0.005519971251487732,0.133962944149971,9.756462097167969,-0.006094152107834816,0.004353821277618408,0.012851715087890625,-0.009624990520590898,0.0534249526152596,-0.014437512461312793
0.004890570417046547,0.14419345557689667,9.756104469299316,-0.0012224791571497917,-0.0004916489124298096,0.0074939727783203125,-0.009624990520590898,0.009406251044378595,0.016953409974044344
0.004890570417046547,0.14419345557689667,9.756104469299316,-0.0012224791571497917,-0.0004916489124298096,0.0074939727783203125,-0.009624990520590898,0.009406251044378595,0.016953409974044344
0.007038324140012264,0.1387758105993271,9.747910499572754,0.005767516791820526,-0.005154475569725037,-0.004425048828125,0.040167822240529304,0.03899193580580285,-0.014437512461312793
0.014466733671724796,0.14230529963970184,9.745133399963379,0.0082618473097682,-0.0002514868974685669,-0.011165618896484375,-0.009624990520590898,0.009406251044378595,-0.014437512461312793
0.003878660500049591,0.14230529963970184,9.757486343383789,-0.005846365354955196,-0.0002076178789138794,0.00528717041015625,-0.009624990520590898,-0.025598094925966517,-0.014437512461312793
0.004508028272539377,0.14179933071136475,9.756474494934082,-0.005452590994536877,-0.0027310997247695923,0.00008487701416015625,0.0437759630510811,0.06280720461605059,-0.014437512461312793
0.012319836765527725,0.14129376411437988,9.75509262084961,0.0014892686158418655,-0.005008310079574585,0.0023431777954101562,-0.009624990520590898,0.009406251044378595,-0.014437512461312793
0.010937437415122986,0.14052879810333252,9.759140014648438,-0.0011334540322422981,0.009326621890068054,-0.007094383239746094,-0.009624990520590898,-0.010801237141074364,0.035354940114050395
0.010925672948360443,0.14722879230976105,9.758992195129395,0.005876901559531689,-0.0002494305372238159,0.009199142456054688,0.02176369075894483,-0.029205008436901825,0.02417374701996763
0.010925672948360443,0.14722879230976105,9.758992195129395,0.005876901559531689,-0.0002494305372238159,0.009199142456054688,0.02176369075894483,-0.029205008436901825,0.02417374701996763
0.006643134169280529,0.13889935612678528,9.756203651428223,-0.001203770749270916,-0.002727225422859192,0.008825302124023438,-0.009624990520590898,0.009406251044378595,-0.014437512461312793
0.009431485086679459,0.13464049994945526,9.751069068908691,-0.0011976193636655807,-0.009465888142585754,-0.0029087066650390625,-0.009624990520590898,-0.060593689716437554,-0.014437512461312793
0.007013441529124975,0.15114101767539978,9.750798225402832,-0.0034476593136787415,0.0093802809715271,-0.0028791427612304688,-0.009624990520590898,0.037187645287008776,-0.014437512461312793
0.010184507817029953,0.15036407113075256,9.754216194152832,0.0013618804514408112,0.006349697709083557,0.0018711090087890625,0.06037495024022525,0.009406251044378595,-0.014437512461312793
0.0071611180901527405,0.1399112194776535,9.758646011352539,-0.000772855244576931,-0.003019854426383972,0.011078834533691406,-0.0006009432551487293,0.07038215120985919,-0.014437512461312793
0.01308458298444748,0.14358800649642944,9.756574630737305,0.001756511628627777,-0.005198433995246887,0.010666847229003906,-0.009624990520590898,0.009406251044378595,-0.014437512461312793
0.013849552720785141,0.1450939178466797,9.759486198425293,0.001624125987291336,-0.0004222095012664795,0.008013725280761719,0.03620731303791361,0.009406251044378595,-0.014437512461312793
0.013849552720785141,0.1450939178466797,9.759486198425293,0.001624125987291336,-0.0004222095012664795,0.008013725280761719,0.03620731303791361,0.009406251044378595,-0.014437512461312793
0.02236638031899929,0.14067600667476654,9.756422996520996,0.015293476171791553,-0.0029370486736297607,-0.003932952880859375,0.04773553843877121,-0.0032331607570754498,-0.014437512461312793
-0.0003672902239486575,0.14004677534103394,9.74605941772461,-0.010859177447855473,-0.002699553966522217,-0.008891105651855469,-0.04858879181670712,0.009406251044378595,-0.014437512461312793
0.0010664639994502068,0.1556059718132019,9.745591163635254,-0.010713602416217327,0.016034647822380066,-0.010992050170898438,-0.009624990520590898,-0.060593689716437554,0.03500670718808553
0.011208534240722656,0.14611783623695374,9.759733200073242,0.003721567802131176,0.00622047483921051,0.00305938720703125,0.05821575668885497,0.011565444595748877,-0.014437512461312793
0.004050011746585369,0.1418353170156479,9.744575500488281,0.0013242512941360474,0.0038407891988754272,0.0010175704956054688,-0.009624990520590898,-0.028097383873235834,-0.014437512461312793
0.010443592444062233,0.1458587944507599,9.762274742126465,-0.0010008569806814194,-0.0010411441326141357,0.00788116455078125,-0.009624990520590898,-0.025242564903368844,0.020913612351755918
0.014801462180912495,0.14365172386169434,9.763521194458008,0.008110604248940945,0.0033526569604873657,0.009779930114746094,0.06037495024022525,-0.060593689716437554,-0.014437512461312793
0.014801462180912495,0.14365172386169434,9.763521194458008,0.008110604248940945,0.0033526569604873657,0.009779930114746094,0.06037495024022525,-0.060593689716437554,-0.014437512461312793
0.018047330901026726,0.1470935195684433,9.767385482788086,0.010324445553123951,0.00339314341545105,0.013965606689453125,-0.009624990520590898,0.029259983455592494,0.005416219949901107
0.010949392803013325,0.14024589955806732,9.748468399047852,0.0008049346506595612,-0.00374545156955719,-0.0074901580810546875,-0.009624990520590898,0.002882673335075948,-0.014437512461312793
0.009976671077311039,0.141392782330513,9.75839900970459,-0.004167908802628517,-0.003750532865524292,0.0043659210205078125,0.003716603414158804,-0.04725210245179446,-0.0010959251966697022
0.005233308300375938,0.14605407416820526,9.758856773376465,0.0031529031693935394,0.010342776775360107,0.001800537109375,0.06037495024022525,0.009406251044378595,0.05556242829950336
0.008431930094957352,0.14254021644592285,9.751008987426758,-0.004107994958758354,0.0007079541683197021,0.0015735626220703125,-0.009624990520590898,0.07901057444186291,0.00902768247354535
0.009332241490483284,0.13884788751602173,9.758817672729492,-0.00403172429651022,-0.010874077677726746,-0.0029735565185546875,0.032243428761352576,-0.04619906604063568,-0.014437512461312793
0.009332241490483284,0.13884788751602173,9.758817672729492,-0.00403172429651022,-0.010874077677726746,-0.0029735565185546875,0.032243428761352576,-0.04619906604063568,-0.014437512461312793
0.011654135771095753,0.14680759608745575,9.758386611938477,0.003066561184823513,-0.0011965185403823853,0.0015850067138671875,-0.009624990520590898,-0.09590982315022317,-0.014437512461312793
0.004420467186719179,0.14628081023693085,9.765166282653809,-0.006260181777179241,0.0031231045722961426,0.010744094848632812,0.017454308300129576,-0.02227646187479825,0.02848312947878288
0.008666850626468658,0.1338038593530655,9.758447647094727,-0.0012531382963061333,-0.010789543390274048,0.0036258697509765625,-0.009624990520590898,0.0548821841468524,-0.014437512461312793
0.01204879954457283,0.14526885747909546,9.765087127685547,0.0010470207780599594,-0.0014217495918273926,0.010345458984375,-0.0035091564284395003,-0.04836202153213476,-0.014437512461312793
0.008666850626468658,0.1397847682237625,9.75832748413086,-0.0014593321830034256,0.005863010883331299,-0.0016641616821289062,0.0026567568241498427,-0.09374837510281826,-0.014437512461312793
0.01967359520494938,0.1408596783876419,9.763222694396973,0.005559500306844711,-0.008630871772766113,0.0006256103515625,0.029688084238121557,0.0880324005618035,0.02487556229739966
0.009949748404324055,0.1388000100851059,9.757658958435059,-0.001496562734246254,-0.005994349718093872,-0.00193023681640625,-0.009624990520590898,-0.06786309206659386,0.03465225772275889
0.009949748404324055,0.1388000100851059,9.757658958435059,-0.001496562734246254,-0.005994349718093872,-0.00193023681640625,-0.009624990520590898,-0.06786309206659386,0.03465225772275889
0.010193010792136192,0.1342550665140152,9.756399154663086,-0.00410878099501133,-0.01279132068157196,-0.0019521713256835938,0.006271834545577431,-0.11469680541108537,0.001459312604855537
0.008642690256237984,0.14230529963970184,9.759904861450195,-0.0018057897686958313,-0.0008104294538497925,0.0026807785034179688,-0.009624990520590898,0.04369959033038125,-0.014437512461312793
0.0009066634811460972,0.14230529963970184,9.747964859008789,-0.011361083947122097,-0.0007359534502029419,-0.013825416564941406,-0.009624990520590898,-0.1305936304772537,-0.014437512461312793
0.011060953140258789,0.14353998005390167,9.75269889831543,0.0007173456251621246,-0.0007302016019821167,-0.0040149688720703125,-0.009624990520590898,0.007209624854705471,-0.014437512461312793
0.00856744684278965,0.14899061620235443,9.745516777038574,-0.0039289044216275215,-0.005620434880256653,-0.010840415954589844,-0.009624990520590898,0.028911296962378055,-0.014437512461312793
0.010332189500331879,0.14063997566699982,9.767478942871094,-0.0016398578882217407,-0.0010586082935333252,0.001392364501953125,0.06037495024022525,-0.060593689716437554,-0.014437512461312793
0.010332189500331879,0.14063997566699982,9.767478942871094,-0.0016398578882217407,-0.0010586082935333252,0.001392364501953125,0.06037495024022525,-0.060593689716437554,-0.014437512461312793
0.004523399285972118,0.13648125529289246,9.753089904785156,-0.0016926461830735207,-0.005561068654060364,-0.008381843566894531,-0.009624990520590898,0.004692246578306201,-0.014437512461312793
0.011060953140258789,0.14031782746315002,9.759474754333496,0.0011245040223002434,-0.002945244312286377,0.0033922195434570312,0.03726419143048052,0.0325169965139101,-0.014437512461312793
0.0023764101788401604,0.13796304166316986,9.755315780639648,-0.008328547701239586,-0.005365356802940369,-0.0013818740844726562,0.06037495024022525,-0.01907451721666387,-0.014437512461312793
0.004893294535577297,0.13666492700576782,9.750994682312012,-0.008100781589746475,-0.00497668981552124,-0.0034399032592773438,-0.009624990520590898,0.009406251044378595,-0.014437512461312793
0.008097575977444649,0.1428745836019516,9.760449409484863,0.0015542088076472282,-0.0025403201580047607,0.0011444091796875,-0.009624990520590898,0.009406251044378595,-0.014437512461312793
0.002523493953049183,0.14469940960407257,9.759504318237305,-0.0007637571543455124,0.0018527805805206299,-0.012819290161132812,0.033652061896175145,0.009406251044378595,-0.014437512461312793
0.002523493953049183,0.14469940960407257,9.759504318237305,-0.0006059277802705765,-0.00043506920337677,-0.014963150024414062,0.033652061896175145,0.009406251044378595,-0.014437512461312793
0.0029935073107481003,0.14372363686561584,9.75349235534668,-0.0006059277802705765,-0.00043506920337677,-0.014963150024414062,-0.009624990520590898,-0.015468497500014482,-0.014437512461312793
0.008666850626468658,0.13672806322574615,9.75269889831543,-0.000395176000893116,-0.0051009804010391235,-0.0030870437622070312,-0.009624990520590898,-0.048665337960178856,-0.014437512461312793
0.012976537458598614,0.14565642178058624,9.74822998046875,0.004311795346438885,0.0021479427814483643,-0.007572174072265625,0.020711508121432298,0.009406251044378595,-0.014437512461312793
0.01012152899056673,0.14559327065944672,9.766169548034668,0.001972074620425701,-0.0007632076740264893,0.013663291931152344,0.039107982320626955,0.009406251044378595,-0.014437512461312793
0.013063839636743069,0.1399112194776535,9.757290840148926,-0.0008466662839055061,-0.002954229712486267,-0.0007925033569335938,-0.009624990520590898,-0.060593689716437554,-0.014437512461312793
0.007603860460221767,0.13552044332027435,9.749638557434082,0.0019525233656167984,-0.012119248509407043,-0.0076007843017578125,-0.009624990520590898,0.048327870586284696,-0.014437512461312793
0.009853431023657322,0.13450878858566284,9.767698287963867,0.003980811685323715,-0.002437874674797058,-0.0005245208740234375,0.02431864841599239,0.04123722709331232,0.021618789362920065
0.009853431023657322,0.13450878858566284,9.767698287963867,0.003980811685323715,-0.002437874674797058,-0.0005245208740234375,0.02431864841599239,0.04123722709331232,0.021618789362920065
0.011060953140258789,0.1386886090040207,9.757486343383789,0.0017026448622345924,-0.0045159608125686646,0.0013799667358398438,-0.008879419343788471,0.0101518088809678,-0.014437512461312793
0.01160292886197567,0.14415742456912994,9.75509262084961,0.0016410015523433685,0.002679780125617981,-0.0010223388671875,-0.009624990520590898,0.041098462195369986,0.004716352343599586
0.008841326460242271,0.14230529963970184,9.750478744506836,-0.0009238263592123985,0.00040830671787261963,-0.005623817443847656,-0.04717555297326941,-0.023043123928705733,0.018011862511771535
0.003634949214756489,0.1456599235534668,9.745028495788574,-0.007941761054098606,0.005071371793746948,-0.014756202697753906,-0.009624990520590898,0.03728241416174271,-0.000396257693566521
0.0031286650337278843,0.14365138113498688,9.75509262084961,-0.009936582297086716,0.000125005841255188,-0.00036907196044921875,0.05601931726216696,0.06633929287101988,-0.010081879483254504
0.011482561007142067,0.1405436247587204,9.752909660339355,0.006543262861669064,0.004260942339897156,-0.000347137451171875,0.03761286458348174,-0.013355834612364914,0.08003819774683249
0.01022079773247242,0.14230529963970184,9.757025718688965,-0.0006384691223502159,-0.0005117207765579224,0.013703346252441406,0.06037495024022525,0.009406251044378595,-0.03909222752881097
0.01022079773247242,0.14230529963970184,9.757025718688965,-0.0006384691223502159,-0.0005117207765579224,0.013703346252441406,0.06037495024022525,0.009406251044378595,-0.03909222752881097
0.0033334800973534584,0.14176014065742493,9.752153396606445,-0.007731892168521881,-0.0028892606496810913,-0.005150794982910156,-0.0016539196353480095,-0.052622618831194665,-0.12255311044197353
0.002370223868638277,0.13869799673557281,9.750894546508789,-0.007521797902882099,-0.005157604813575745,-0.00499725341796875,-0.009624990520590898,-0.034225904508162,0.021033660930546826
0.016905836760997772,0.14503376185894012,9.765390396118164,0.00879574567079544,0.0017712414264678955,0.011440277099609375,0.03515122171792683,-0.04104119266000501,0.049891210173850696
0.011468429118394852,0.1375468373298645,9.754566192626953,0.013531358912587166,-0.009933456778526306,0.006805419921875,-0.009624990520590898,0.002578703236583935,0.05556242829950336
0.011870941147208214,0.1431153118610382,9.764668464660645,0.008441641926765442,0.0066291093826293945,0.008695602416992188,-0.009624990520590898,-0.060593689716437554,0.05556242829950336
0.014370477758347988,0.14800894260406494,9.746432304382324,0.00770255271345377,0.00875304639339447,-0.0055522918701171875,0.02035521770668093,0.009406251044378595,0.015542695765959036
0.014370477758347988,0.14800894260406494,9.746432304382324,0.00770255271345377,0.00875304639339447,-0.0055522918701171875,0.02035521770668093,0.009406251044378595,0.015542695765959036
0.016068924218416214,0.1372973471879959,9.755971908569336,0.0027816034853458405,-0.0033128857612609863,-0.009772300720214844,0.011992718285058131,-0.03897598091078852,0.05556242829950336
0.005233982112258673,0.14402174949645996,9.758209228515625,-0.006780346855521202,0.0016831904649734497,0.00653839111328125,-0.009624990520590898,0.009406251044378595,-0.014437512461312793
0.015656737610697746,0.14948762953281403,9.766773223876953,0.005128274671733379,0.006341069936752319,0.01122283935546875,-0.009624990520590898,0.009406251044378595,0.021969050001294784
0.013524702750146389,0.13679669797420502,9.761763572692871,0.005139173939824104,-0.010269418358802795,0.008667945861816406,-0.009624990520590898,-0.02457377999387617,-0.014437512461312793
0.008694012649357319,0.14591003954410553,9.747963905334473,-0.00429332721978426,0.001573309302330017,-0.012433052062988281,-0.009624990520590898,0.009804483089502073,-0.014437512461312793
0.01569862850010395,0.14462414383888245,9.755017280578613,0.0004946738481521606,-0.0011152774095535278,-0.0029554367065429688,-0.009624990520590898,0.009406251044378595,0.03676602784810594
0.010076205246150494,0.145684152841568,9.754108428955078,0.0025848187506198883,-0.001088753342628479,0.0017957687377929688,0.027575421350471988,0.009406251044378595,0.02276289940975009
0.004938770085573196,0.13618314266204834,9.758546829223633,-0.006707737222313881,-0.00811108946800232,0.0018262863159179688,-0.009624990520590898,0.009406251044378595,-0.014437512461312793
0.004938770085573196,0.13618314266204834,9.758546829223633,-0.006707737222313881,-0.00811108946800232,0.0018262863159179688,-0.009624990520590898,0.009406251044378595,-0.014437512461312793
0.010819744318723679,0.13880884647369385,9.753990173339844,-0.001613144762814045,-0.005484789609909058,-0.0029916763305664062,0.0379640323563556,0.03181716892824825,0.0331515104156337
0.02283281832933426,0.1403084695339203,9.75549030303955,0.012147678062319756,-0.0030205994844436646,-0.00069427490234375,-0.009624990520590898,0.009406251044378595,-0.014437512461312793
0.0077482168562710285,0.13908302783966064,9.750214576721191,0.00045621953904628754,-0.002760380506515503,-0.0027246475219726562,-0.009624990520590898,0.009406251044378595,-0.014437512461312793
0.017306623980402946,0.14667773246765137,9.757071495056152,0.004921008832752705,-0.0006180554628372192,-0.0027685165405273438,0.052761984038732015,0.009406251044378595,0.04794946209801012
0.0030955784022808075,0.1322680413722992,9.748555183410645,0.0024832580238580704,0.001360282301902771,-0.0026140213012695312,0.034356478515185605,0.009406251044378595,-0.014437512461312793
0.008636380545794964,0.1427963227033615,9.745024681091309,0.005028211511671543,-0.003059491515159607,-0.0069942474365234375,0.06037495024022525,0.009406251044378595,-0.014437512461312793
0.008636380545794964,0.1427963227033615,9.745024681091309,0.005028211511671543,-0.003059491515159607,-0.0069942474365234375,0.06037495024022525,0.009406251044378595,-0.014437512461312793
0.015036087483167648,0.1399112194776535,9.768644332885742,0.005106145516037941,-0.003099203109741211,0.014468193054199219,0.0016030734126497603,0.009406251044378595,-0.014437512461312793
0.011060953140258789,0.14469940960407257,9.75122356414795,0.0002660006284713745,0.0016446858644485474,-0.0048809051513671875,0.030750151973632095,0.009406251044378595,-0.014437512461312793
0.013009315356612206,0.1369059681892395,9.754481315612793,0.0026091495528817177,-0.007833793759346008,-0.0026082992553710938,0.03840788793070065,0.009406251044378595,-0.014437512461312793
0.011305078864097595,0.13908036053180695,9.757730484008789,0.002625643275678158,-0.0003917962312698364,0.004452705383300781,-0.009624990520590898,0.009406251044378595,-0.014437512461312793
0.007977214641869068,0.1429949402809143,9.751358985900879,-0.004341564141213894,0.001987367868423462,0.0045318603515625,-0.009624990520590898,0.009406251044378595,-0.014437512461312793
0.008549116551876068,0.13694801926612854,9.757035255432129,0.005172145552933216,-0.007466450333595276,-0.007225990295410156,-0.009624990520590898,0.009406251044378595,-0.014437512461312793
0.008549116551876068,0.13694801926612854,9.757035255432129,0.005172145552933216,-0.007466450333595276,-0.007225990295410156,-0.009624990520590898,0.009406251044378595,-0.014437512461312793
0.0014815556351095438,0.1399112194776535,9.75269889831543,-0.011115653440356255,-0.0026560574769973755,-0.0024957656860351562,0.06037495024022525,0.009406251044378595,-0.014437512461312793
0.008666850626468658,0.13455674052238464,9.746648788452148,-0.001408255659043789,-0.007135540246963501,-0.009341239929199219,-0.009624990520590898,-0.04215167202930067,0.004004505225824097
0.01099767442792654,0.1327289193868637,9.761958122253418,0.0010249949991703033,-0.009085476398468018,0.007334709167480469,0.027225240753376605,0.009406251044378595,0.01871219702553585
0.018559850752353668,0.14432351291179657,9.756477355957031,0.010244701988995075,0.005059391260147095,0.0000171661376953125,0.06037495024022525,0.009406251044378595,-0.014437512461312793
0.017743386328220367,0.14041107892990112,9.758809089660645,0.012123873457312584,-0.006760776042938232,0.0022144317626953125,-0.005969998881201048,-0.056938698077047704,0.05190743666011351
0.01124759204685688,0.14544597268104553,9.754719734191895,0.0025673462077975273,0.012195825576782227,-0.004694938659667969,-0.009624990520590898,0.009406251044378595,0.007615941069041894
0.011931128799915314,0.13844141364097595,9.748726844787598,0.007067020051181316,0.007161349058151245,-0.004567146301269531,-0.009624990520590898,-0.020136878436865308,0.01510561701993111
0.011931128799915314,0.13844141364097595,9.748726844787598,0.007067020051181316,0.007161349058151245,-0.004567146301269531,-0.009624990520590898,-0.020136878436865308,0.01510561701993111
0.012506312690675259,0.1447439342737198,9.752654075622559,0.00231340155005455,0.0072516947984695435,-0.006579399108886719,-0.009624990520590898,0.009406251044378595,-0.014437512461312793
0.013614827767014503,0.1470935195684433,9.757486343383789,0.004499342292547226,0.0047722309827804565,0.00276947021484375,0.016042580235839345,-0.016261319712051647,0.029894857543073115
0.009510823525488377,0.14500944316387177,9.747066497802734,0.00008035171777009964,0.0022132694721221924,-0.009019851684570312,-0.009624990520590898,0.009406251044378595,-0.014437512461312793
0.005333190783858299,0.14282028377056122,9.756880760192871,-0.00435517355799675,0.0022514164447784424,-0.0044536590576171875,-0.009624990520590898,0.009406251044378595,-0.014437512461312793
0.013291808776557446,0.14560626447200775,9.744935989379883,-0.006737322546541691,0.009097546339035034,0.0030965805053710938,0.049505051021693745,0.009406251044378595,-0.014437512461312793
0.009967626072466373,0.14164559543132782,9.750738143920898,0.005105913616716862,0.006560280919075012,-0.0013399124145507812,-0.009624990520590898,0.009406251044378595,-0.014437512461312793
0.009967626072466373,0.14164559543132782,9.750738143920898,0.005105913616716862,0.006560280919075012,-0.0013399124145507812,-0.009624990520590898,0.009406251044378595,-0.014437512461312793
0.009461515583097935,0.14496766030788422,9.75536060333252,0.002722678706049919,-0.0006012916564941406,-0.0012006759643554688,0.012697041522576029,0.009406251044378595,-0.014437512461312793
0.011762626469135284,0.1392095386981964,9.759591102600098,0.00047001056373119354,-0.0029951483011245728,0.0033903121948242188,-0.009624990520590898,0.009406251044378595,-0.014437512461312793
0.010698683559894562,0.1470210701227188,9.762202262878418,0.00030167121440172195,0.00424647331237793,0.0076656341552734375,-0.009624990520590898,-0.02347518675456193,-0.014437512461312793
0.006438402459025383,0.13551448285579681,9.761717796325684,-0.0016906512901186943,-0.009968042373657227,0.0073108673095703125,0.009085412246266503,0.009406251044378595,0.036852032202752565
0.014684135094285011,0.14707216620445251,9.750304222106934,0.007566670887172222,0.0016854554414749146,-0.004403114318847656,0.06006106836330879,0.009092355827248908,-0.014437512461312793
0.020637348294258118,0.1399112194776535,9.750252723693848,0.009639181196689606,-0.002967327833175659,-0.006748199462890625,-0.009624990520590898,-0.008686786664852956,-0.014437512461312793
0.013455048203468323,0.14023898541927338,9.75819206237793,0.0021584508940577507,0.004100054502487183,-0.006442070007324219,0.02388084929845044,0.009406251044378595,-0.014437512461312793
0.013455048203468323,0.14023898541927338,9.75819206237793,0.0021584508940577507,0.004100054502487183,-0.006442070007324219,0.02388084929845044,0.009406251044378595,-0.014437512461312793
0.010383626446127892,0.1327289193868637,9.75662899017334,-0.0072400569915771484,-0.009801462292671204,0.005160331726074219,-0.009624990520590898,0.009406251044378595,-0.014437512461312793
0.016878532245755196,0.14139549434185028,9.747336387634277,0.006875522434711456,0.00007593631744384766,-0.008893966674804688,-0.009624990520590898,0.057707534585710485,-0.014437512461312793
0.011060953140258789,0.13973656296730042,9.75953197479248,-0.00026147160679101944,-0.0020962804555892944,0.005299568176269531,-0.009624990520590898,0.009406251044378595,0.015455517472548815
0.018208127468824387,0.13749955594539642,9.758255004882812,0.011485612019896507,-0.001757398247718811,0.007595062255859375,-0.009624990520590898,0.009406251044378595,-0.014437512461312793
0.012006300501525402,0.14756619930267334,9.749343872070312,-0.005104623734951019,0.002765551209449768,-0.006463050842285156,-0.009624990520590898,0.07249481409750876,-0.014437512461312793
0.01705118641257286,0.1381131410598755,9.75718879699707,-0.0023379605263471603,0.00038117170333862305,0.0005512237548828125,-0.009624990520590898,0.009406251044378595,-0.014437512461312793
0.013605989515781403,0.14577782154083252,9.745903968811035,-0.004877141676843166,-0.0018078982830047607,-0.004199028015136719,-0.009624990520590898,0.009406251044378595,-0.014437512461312793
0.013605989515781403,0.14577782154083252,9.745903968811035,-0.004877141676843166,-0.0018078982830047607,-0.004199028015136719,-0.009624990520590898,0.009406251044378595,-0.014437512461312793
0.021474706009030342,0.14469940960407257,9.758088111877441,0.009060916490852833,0.002717941999435425,0.007863044738769531,-0.009624990520590898,0.009406251044378595,-0.003921635821284802
0.025217736139893532,0.14449161291122437,9.754884719848633,0.013185200281441212,0.0025991350412368774,0.0007734298706054688,-0.009624990520590898,0.009406251044378595,-0.014437512461312793
0.019086051732301712,0.13638722896575928,9.75269889831543,0.005574875511229038,-0.006758883595466614,-0.0015316009521484375,-0.009624990520590898,0.009406251044378595,-0.014437512461312793
0.00837462954223156,0.14814446866512299,9.75269889831543,-0.006144453771412373,0.004891529679298401,-0.0014476776123046875,-0.009624990520590898,0.009406251044378595,-0.014437512461312793
0.016563018783926964,0.14637964963912964,9.757234573364258,0.00538244191557169,0.0023260414600372314,0.007876396179199219,-0.009624990520590898,-0.04646715096555868,-0.014437512461312793
0.016277596354484558,0.1414295881986618,9.755423545837402,-0.011046185158193111,-0.011736899614334106,0.009707450866699219,-0.009624990520590898,-0.023125019497679773,-0.014437512461312793
0.016277596354484558,0.1414295881986618,9.755423545837402,-0.011046185158193111,-0.011736899614334106,0.009707450866699219,-0.009624990520590898,-0.023125019497679773,-0.014437512461312793
0.013455048203468323,0.14113102853298187,9.761100769042969,0.0007098298519849777,-0.0022525042295455933,0.004845619201660156,-0.009624990520590898,0.009406251044378595,-0.014437512461312793
0.0014516187366098166,0.13932092487812042,9.74968147277832,-0.013375695794820786,-0.002382919192314148,-0.0071201324462890625,0.06037495024022525,-0.04285230002775588,-0.014437512461312793
0.0227979589253664,0.14222747087478638,9.740961074829102,0.01040454301983118,0.00016993284225463867,-0.013907432556152344,-0.009624990520590898,0.009406251044378595,-0.014437512461312793
0.013843689113855362,0.14431077241897583,9.753087043762207,0.003377772867679596,-0.0000029653310775756836,0.0006265640258789062,-0.009624990520590898,0.02485998092835557,0.05556242829950336
0.010859555564820766,0.1412089616060257,9.750907897949219,0.0009780433028936386,-0.0023003071546554565,-0.011111259460449219,-0.009624990520590898,0.01234891531831694,-0.011494848187374448
0.004528631456196308,0.14660604298114777,9.755905151367188,0.0009513869881629944,-0.0022085607051849365,0.012515068054199219,-0.009624990520590898,-0.011943079351656534,0.03421309790346823
0.0054623340256512165,0.14149489998817444,9.746308326721191,-0.003467199392616749,0.002403736114501953,-0.006466865539550781,-0.009624990520590898,0.009406251044378595,0.025313521497500283
0.0054623340256512165,0.14149489998817444,9.746308326721191,-0.003467199392616749,0.002403736114501953,-0.006466865539550781,-0.009624990520590898,0.009406251044378595,0.025313521497500283
0.005375652574002743,0.1432780772447586,9.749482154846191,-0.01010062824934721,-0.000004231929779052734,-0.013031005859375,-0.0030664481124316034,0.009406251044378595,-0.014437512461312793
0.011737394146621227,0.13718421757221222,9.750990867614746,0.0018621962517499924,-0.0070213377475738525,-0.0035877227783203125,-0.009624990520590898,0.009406251044378595,-0.014437512461312793
0.012024879455566406,0.13473115861415863,9.752985000610352,0.0021103667095303535,-0.009429961442947388,-0.0011911392211914062,0.033738359735512674,0.009406251044378595,0.05556242829950336
0.009018569253385067,0.14434769749641418,9.756219863891602,-0.004957927390933037,0.0047772228717803955,0.0059223175048828125,-0.0013849209058192553,0.009406251044378595,-0.014437512461312793
0.010519461706280708,0.14570267498493195,9.748913764953613,0.006981801241636276,0.009222015738487244,0.001331329345703125,0.06037495024022525,0.009406251044378595,-0.014437512461312793
0.014273815788328648,0.14189592003822327,9.745577812194824,0.006952707655727863,-0.0026971250772476196,0.0035219192504882812,-0.009624990520590898,0.009406251044378595,-0.014437512461312793
0.010654956102371216,0.14469940960407257,9.756447792053223,-0.007234341464936733,0.0020712614059448242,0.0013895034790039062,-0.009624990520590898,0.009406251044378595,-0.014437512461312793
0.010654956102371216,0.14469940960407257,9.756447792053223,-0.007234341464936733,0.0020712614059448242,0.0013895034790039062,-0.009624990520590898,0.009406251044378595,-0.014437512461312793
0.012945204973220825,0.13998878002166748,9.754366874694824,0.0045068105682730675,-0.009761258959770203,0.0012502670288085938,0.04660274089275401,0.009406251044378595,-0.014437512461312793
0.008859706111252308,0.13579802215099335,9.752602577209473,-0.002434147521853447,-0.007515355944633484,-0.0010814666748046875,-0.009624990520590898,0.009406251044378595,-0.014437512461312793
0.011593726463615894,0.14629773795604706,9.752165794372559,-0.00007238611578941345,0.0017842501401901245,-0.000957489013671875,-0.009624990520590898,0.009406251044378595,-0.014437512461312793
0.013455048203468323,0.1449078768491745,9.750304222106934,0.0021165702491998672,0.00889335572719574,-0.0031681060791015625,-0.009624990520590898,-0.059579073119360094,-0.014437512461312793
0.018243253231048584,0.14222452044487,9.750357627868652,0.006750595755875111,-0.0074690282344818115,0.0017251968383789062,-0.009624990520590898,0.009406251044378595,-0.014437512461312793
0.014767756685614586,0.14338670670986176,9.760961532592773,0.006302834488451481,-0.002568542957305908,0.0040874481201171875,-0.009624990520590898,-0.024806406632053284,-0.014437512461312793
0.013809487223625183,0.14230529963970184,9.756732940673828,0.006116976961493492,-0.00030753016471862793,0.008390426635742188,-0.00703562178353543,0.009406251044378595,-0.014437512461312793
0.013809487223625183,0.14230529963970184,9.756732940673828,0.006116976961493492,-0.00030753016471862793,0.008390426635742188,-0.00703562178353543,0.009406251044378595,-0.014437512461312793
0.013933485373854637,0.14326265454292297,9.760359764099121,0.0037430068477988243,0.0020670145750045776,0.0059261322021484375,-0.009624990520590898,0.009406251044378595,-0.014437512461312793
0.01076037622988224,0.13751710951328278,9.74432373046875,-0.0009365668520331383,-0.00480496883392334,-0.0107574462890625,-0.009624990520590898,-0.029987718767316197,-0.014437512461312793
0.010281100869178772,0.1366281807422638,9.755818367004395,-0.0007904879748821259,-0.009471967816352844,-0.001373291015625,0.0025724733570089433,0.009406251044378595,-0.014437512461312793
0.011197643354535103,0.14413858950138092,9.757486343383789,0.006395038217306137,-0.0023280978202819824,0.00322723388671875,-0.0034257467452646862,0.009406251044378595,-0.014437512461312793
0.01133480854332447,0.1399112194776535,9.758511543273926,0.0016948077827692032,-0.0024754703044891357,-0.0059986114501953125,-0.009624990520590898,0.009406251044378595,0.030957085361142323
0.015261447988450527,0.13661392033100128,9.758074760437012,0.006351936608552933,-0.006964966654777527,0.0009889602661132812,0.03338246952715798,-0.03360120900337029,-0.014437512461312793
0.015261447988450527,0.13661392033100128,9.758074760437012,0.006351936608552933,-0.006964966654777527,0.0009889602661132812,0.03338246952715798,-0.03360120900337029,-0.014437512461312793
0.015659015625715256,0.13837853074073792,9.761032104492188,0.0061633894219994545,-0.004290401935577393,0.012442588806152344,-0.009624990520590898,0.009406251044378595,-0.014437512461312793
0.006272748112678528,0.1470935195684433,9.75416374206543,-0.00558818131685257,0.005220487713813782,0.0005769729614257812,-0.009624990520590898,0.009406251044378595,-0.014437512461312793
0.014259599149227142,0.1510869413614273,9.75749683380127,0.004058470018208027,0.009400531649589539,0.0054607391357421875,0.06037495024022525,0.009406251044378595,-0.014437512461312793
0.011060953140258789,0.14333194494247437,9.74859619140625,-0.0008788555860519409,-0.0003088712692260742,-0.008607864379882812,0.05539080645639356,-0.060593689716437554,-0.014437512461312793
0.01437318790704012,0.14765134453773499,9.75527286529541,-0.0009315228089690208,0.011092409491539001,-0.003803253173828125,0.046951534107674234,-0.004017165088172421,-0.014437512461312793
0.006793494336307049,0.14230529963970184,9.754571914672852,-0.002919361926615238,-0.0009079724550247192,-0.001201629638671875,0.06037495024022525,0.009406251044378595,0.017385886346510445
0.006793494336307049,0.14230529963970184,9.754571914672852,-0.002919361926615238,-0.0009079724550247192,-0.001201629638671875,0.06037495024022525,0.009406251044378595,0.017385886346510445
0.013361354358494282,0.14479310810565948,9.750304222106934,0.00431655440479517,-0.0009391754865646362,-0.0035276412963867188,-0.009624990520590898,0.009406251044378595,0.005337192526769945
0.012904845178127289,0.14948762953281403,9.74502944946289,-0.00041727256029844284,0.0058879554271698,-0.012643814086914062,0.007403404791978137,0.009406251044378595,0.002590882851256243
0.015864083543419838,0.13521263003349304,9.755107879638672,0.003988879732787609,-0.008370116353034973,0.0015621185302734375,-0.009624990520590898,-0.026030344514807832,-0.014437512461312793
0.00884934514760971,0.14212282001972198,9.757486343383789,-0.005509920418262482,0.0014288723468780518,0.0037393569946289062,-0.009624990520590898,0.009406251044378595,-0.014437512461312793
0.011367402970790863,0.1432725340127945,9.754632949829102,-0.005436566658318043,0.003837600350379944,0.008448600769042969,-0.009624990520590898,0.009406251044378595,-0.014437512461312793
0.006549334153532982,0.14414623379707336,9.759881019592285,-0.000626126304268837,-0.00798054039478302,0.006175994873046875,-0.009624990520590898,-0.03995409868448873,-0.014437512461312793
0.003878660500049591,0.14316397905349731,9.755950927734375,-0.007415189407765865,-0.003227829933166504,-0.0011444091796875,-0.009624990520590898,0.009406251044378595,-0.014437512461312793
0.003878660500049591,0.14316397905349731,9.755950927734375,-0.007415189407765865,-0.003227829933166504,-0.0011444091796875,-0.009624990520590898,0.009406251044378595,-0.014437512461312793
0.012857900001108646,0.14370232820510864,9.757086753845215,0.00465913861989975,0.0013969093561172485,0.001117706298828125,-0.0037793757874781298,0.009406251044378595,-0.014437512461312793
0.020826131105422974,0.1406463235616684,9.755459785461426,0.011610777117311954,-0.003240063786506653,0.000926971435546875,-0.009624990520590898,0.009406251044378595,-0.014437512461312793
0.008666850626468658,0.14043454825878143,9.751089096069336,-0.0025728344917297363,-0.003161787986755371,-0.0038442611694335938,-0.009624990520590898,0.009406251044378595,-0.014437512461312793
0.00838733185082674,0.14080241322517395,9.758989334106445,-0.000056016258895397186,-0.0031312108039855957,0.005484580993652344,0.05143339218324553,0.00046469298739887534,-0.014437512461312793
0.008440142497420311,0.14055809378623962,9.758359909057617,-0.007007249630987644,-0.005432873964309692,0.005249977111816406,-0.009624990520590898,-0.000049532211695815127,-0.014437512461312793
0.007043206132948399,0.14794671535491943,9.751378059387207,0.00013092625886201859,-0.003384709358215332,0.014470100402832031,0.06037495024022525,0.009406251044378595,0.013423616235749357
0.007043206132948399,0.14794671535491943,9.751378059387207,-0.004623797722160816,0.005923807621002197,-0.006878852844238281,0.06037495024022525,0.009406251044378595,0.013423616235749357
0.012440486811101437,0.14469940960407257,9.754158020019531,0.00006395112723112106,0.0011193007230758667,-0.011343955993652344,0.06037495024022525,-0.014329910301458646,-0.014437512461312793
0.01674317568540573,0.15366974472999573,9.751198768615723,0.007008721120655537,0.012726053595542908,-0.0019273757934570312,-0.009624990520590898,0.009406251044378595,-0.014437512461312793
-0.004731234163045883,0.14900436997413635,9.768733024597168,-0.016602950170636177,0.005223676562309265,0.014603614807128906,0.028907708445021153,-0.029126447921233457,-0.014437512461312793
0.013455048203468323,0.1417965590953827,9.764518737792969,0.002221035771071911,-0.001864701509475708,0.011864662170410156,0.04025054490272315,-0.060593689716437554,-0.014437512461312793
0.021657275035977364,0.14230529963970184,9.757486343383789,0.0064614322036504745,-0.00173245370388031,0.002162933349609375,-0.009624990520590898,0.009406251044378595,-0.014437512461312793
0.015835437923669815,0.13273440301418304,9.764643669128418,-0.007569385692477226,-0.006262660026550293,-0.011598587036132812,-0.009624990520590898,0.009406251044378595,-0.014437512461312793
0.0033808588050305843,0.14469940960407257,9.756854057312012,-0.002794305793941021,0.00111466646194458,0.000095367431640625,0.025294978601120757,0.009406251044378595,-0.014437512461312793
0.0033808588050305843,0.14469940960407257,9.756854057312012,-0.002794305793941021,0.00111466646194458,0.000095367431640625,0.025294978601120757,0.009406251044378595,-0.014437512461312793
0.013455048203468323,0.14961665868759155,9.75509262084961,0.0023492230102419853,0.008066490292549133,0.00002574920654296875,-0.009624990520590898,0.07751831151034735,-0.014437512461312793
0.01912754215300083,0.1399112194776535,9.748794555664062,0.009233455173671246,-0.00385400652885437,-0.00463104248046875,-0.009624990520590898,0.009406251044378595,-0.014437512461312793
0.011187249794602394,0.1512502282857895,9.758996963500977,-0.00035867840051651,0.008025199174880981,0.005126953125,-0.009624990520590898,0.009406251044378595,-0.014437512461312793
0.014465699903666973,0.1376446932554245,9.754209518432617,0.0068032024428248405,-0.003505125641822815,-0.0020723342895507812,-0.009624990520590898,0.009406251044378595,-0.014437512461312793
0.008666850626468658,0.13890214264392853,9.753331184387207,-0.002591153606772423,-0.005610629916191101,0.0027599334716796875,-0.009624990520590898,0.009406251044378595,-0.014437512461312793
0.010561663657426834,0.1484890580177307,9.755342483520508,-0.004423420876264572,-0.0030748695135116577,0.0026092529296875,-0.009624990520590898,0.009406251044378595,-0.014437512461312793
0.00978907197713852,0.14621444046497345,9.749032974243164,0.005028539337217808,0.0015203654766082764,0.0002040863037109375,-0.009624990520590898,0.009406251044378595,0.013263493656437515
0.00978907197713852,0.14621444046497345,9.749032974243164,0.005028539337217808,0.0015203654766082764,0.0002040863037109375,-0.009624990520590898,0.009406251044378595,0.013263493656437515
0.01647178828716278,0.14115649461746216,9.750567436218262,0.007369403727352619,0.0012944340705871582,-0.006529808044433594,-0.0005234899771778425,0.009406251044378595,-0.014437512461312793
0.0022530951537191868,0.1377732902765274,9.759368896484375,-0.009171291254460812,-0.005578383803367615,0.0052738189697265625,0.017884850341678388,0.009406251044378595,0.05556242829950336
0.014730078168213367,0.1358690708875656,9.757113456726074,0.0051296669989824295,-0.007853910326957703,0.0027875900268554688,0.06037495024022525,0.009406251044378595,0.05556242829950336
0.009055830538272858,0.14230529963970184,9.758264541625977,0.00048056431114673615,-0.0006046295166015625,0.007419586181640625,-0.009624990520590898,0.009406251044378595,-0.00875219373028376
-0.001886530313640833,0.14622390270233154,9.747588157653809,-0.003831065259873867,0.006265714764595032,0.007596015930175781,-0.009624990520590898,0.009406251044378595,-0.0017255565803538074
0.013951638713479042,0.14040780067443848,9.75509262084961,0.00571774784475565,-0.0010120272636413574,0.0005865097045898438,0.021492003976451703,-0.021710743452664008,0.05556242829950336
0.012329135090112686,0.13723257184028625,9.7608642578125,0.0007360344752669334,-0.0010810643434524536,0.009867668151855469,0.06037495024022525,-0.011073724336360849,-0.014437512461312793
0.012329135090112686,0.13723257184028625,9.7608642578125,0.0007360344752669334,-0.0010810643434524536,0.009867668151855469,0.06037495024022525,-0.011073724336360849,-0.014437512461312793
0.007389498874545097,0.1394331455230713,9.752537727355957,-0.0016680462285876274,-0.005388215184211731,0.0002117156982421875,-0.009624990520590898,0.009406251044378595,0.03923580824372669
-0.003294178284704685,0.13510410487651825,9.755121231079102,-0.013161668553948402,-0.007692679762840271,0.00046062469482421875,0.025098330518005214,-0.02531706999421752,-0.04971413218353283
0.007960427552461624,0.14097878336906433,9.75340461730957,0.001490413211286068,0.002198517322540283,-0.004414558410644531,-0.009624990520590898,0.009406251044378595,-0.014437512461312793
0.011165590956807137,0.14220067858695984,9.757486343383789,-0.0009533688426017761,0.002129390835762024,0.00261688232421875,0.05884680213514068,0.009406251044378595,-0.014437512461312793
0.004449179396033287,0.14948762953281403,9.762046813964844,0.006003694608807564,0.00695665180683136,0.002796173095703125,-0.009624990520590898,-0.04065890216968264,-0.014437512461312793
0.008175631985068321,0.14246904850006104,9.760208129882812,0.012899814173579216,-0.005140453577041626,-0.004467964172363281,0.022038805976236184,0.009406251044378595,-0.014437512461312793
0.0076456861570477486,0.14026297628879547,9.75850772857666,-0.0011604540050029755,-0.0003675222396850586,0.0023717880249023438,-0.009624990520590898,0.009406251044378595,-0.014437512461312793
0.0076456861570477486,0.14026297628879547,9.75850772857666,-0.0011604540050029755,-0.0003675222396850586,0.0023717880249023438,-0.009624990520590898,0.009406251044378595,-0.014437512461312793
0.007491102907806635,0.1435236632823944,9.751872062683105,-0.001002107746899128,0.0021396130323410034,-0.004805564880371094,-0.009624990520590898,0.009406251044378595,-0.014437512461312793
0.016579709947109222,0.14398646354675293,9.757723808288574,0.008585694245994091,0.002246558666229248,0.0021820068359375,-0.009624990520590898,0.009406251044378595,0.027511081502098998
0.011721279472112656,0.13859055936336517,9.754225730895996,0.0037472574040293694,-0.007264763116836548,-0.00013446807861328125,0.05072011766265522,0.009406251044378595,-0.004782679883742757
0.007170476485043764,0.14110851287841797,9.754493713378906,-0.0008891401812434196,-0.007095307111740112,0.0022649765014648438,-0.009624990520590898,0.009406251044378595,-0.005684758442073679
0.006994741037487984,0.1470935195684433,9.74876594543457,0.0013414714485406876,0.004896804690361023,0.011837959289550781,-0.009624990520590898,0.009406251044378595,-0.014437512461312793
0.01667557843029499,0.14527663588523865,9.756082534790039,0.001319320872426033,0.006986245512962341,0.0024614334106445312,-0.009624990520590898,-0.060593689716437554,-0.014437512461312793
0.01667557843029499,0.14527663588523865,9.756082534790039,0.001319320872426033,0.006986245512962341,0.0024614334106445312,-0.009624990520590898,-0.060593689716437554,-0.014437512461312793
0.007047129329293966,0.1438540667295456,9.762345314025879,-0.0036398526281118393,-0.00026310980319976807,0.009374618530273438,0.0027323891630158335,0.009406251044378595,0.05556242829950336
0.0046028075739741325,0.14216047525405884,9.751028060913086,-0.005913741886615753,-0.0003479123115539551,-0.004910469055175781,-0.009624990520590898,-0.02982815647695971,-0.014437512461312793
0.01393943466246128,0.1399112194776535,9.758455276489258,0.003427468240261078,-0.0026728659868240356,0.0020189285278320312,0.011212956141765972,0.009406251044378595,-0.014437512461312793
0.004992567468434572,0.142471581697464,9.755258560180664,-0.005846599116921425,0.002050742506980896,0.0020389556884765625,0.057945550670029565,0.009406251044378595,-0.014437512461312793
0.012153285555541515,0.14383912086486816,9.76315689086914,-0.0012076841667294502,-0.007406547665596008,-0.0029859542846679688,-0.009624990520590898,-0.04462554787038077,-0.014437512461312793
0.017065051943063736,0.14766377210617065,9.747303009033203,0.010461944155395031,-0.00018189847469329834,-0.01006317138671875,-0.009624990520590898,0.009406251044378595,-0.014437512461312793
0.017065051943063736,0.14766377210617065,9.747303009033203,0.010461944155395031,-0.00018189847469329834,-0.01006317138671875,-0.009624990520590898,0.009406251044378595,-0.014437512461312793
0.007349156308919191,0.14106804132461548,9.744440078735352,-0.006244939751923084,-0.0026633739471435547,-0.0072498321533203125,-0.009624990520590898,0.009406251044378595,-0.014437512461312793
0.006800064351409674,0.13565033674240112,9.758013725280762,-0.003739079460501671,-0.007207214832305908,0.002651214599609375,-0.009624990520590898,0.009406251044378595,-0.014437512461312793
0.013251249678432941,0.13980932533740997,9.74612808227539,0.0033012758940458298,-0.0021916627883911133,-0.009195327758789062,-0.009624990520590898,-0.022614476197434542,0.02354170105769022
0.0031472020782530308,0.14509887993335724,9.755291938781738,-0.005838152952492237,0.0072902292013168335,0.0028171539306640625,0.04676234320375017,0.009406251044378595,0.04194982126302828
0.01274904701858759,0.14230529963970184,9.760258674621582,-0.0011578602716326714,0.00013218820095062256,0.012037277221679688,-0.009624990520590898,0.009406251044378595,0.05077810756953421
0.006498213857412338,0.13774257898330688,9.75269889831543,-0.001321345567703247,-0.0019786804914474487,-0.0021982192993164062,-0.009624990520590898,0.009406251044378595,-0.061247140050830755
0.009691971354186535,0.14145049452781677,9.75423812866211,0.005826993845403194,-0.0018835067749023438,-0.0020771026611328125,0.018782620011138385,0.009406251044378595,-0.014437512461312793
0.009691971354186535,0.14145049452781677,9.75423812866211,0.005826993845403194,-0.0018835067749023438,-0.0020771026611328125,0.018782620011138385,0.009406251044378595,-0.014437512461312793
0.0020590447820723057,0.14584839344024658,9.75509262084961,-0.005841479636728764,0.007495522499084473,0.0002994537353515625,-0.009624990520590898,0.009406251044378595,-0.014437512461312793
0.009938651695847511,0.14526055753231049,9.759881019592285,0.0016207434237003326,0.0027183890342712402,0.0049381256103515625,-0.009624990520590898,0.009406251044378595,-0.014437512461312793
0.007619849406182766,0.1392621099948883,9.755790710449219,-0.00039574597030878067,-0.004404440522193909,0.00001049041748046875,-0.05482947696440959,0.03420170536137606,-0.014437512461312793
0.016724418848752975,0.13653887808322906,9.7493257522583,0.011229394935071468,-0.004068389534950256,-0.004451751708984375,-0.009624990520590898,0.009406251044378595,-0.014437512461312793
0.01749183051288128,0.14066264033317566,9.75269889831543,0.0013339510187506676,0.005275741219520569,-0.0019426345825195312,0.04836657054484369,0.009406251044378595,-0.014437512461312793
0.011533300392329693,0.14567647874355316,9.754620552062988,0.003618585877120495,-0.001818537712097168,-0.00189971923828125,0.020783145066438097,0.009406251044378595,-0.014437512461312793
0.005361457355320454,0.14158453047275543,9.754901885986328,0.003618585877120495,-0.001818537712097168,-0.00189971923828125,0.03918508875305405,0.009406251044378595,0.006752349025858406
0.005361457355320454,0.14158453047275543,9.754901885986328,-0.008235597983002663,-0.006649032235145569,0.002796173095703125,0.03918508875305405,0.009406251044378595,0.006752349025858406
0.00999290682375431,0.14097924530506134,9.754834175109863,-0.0009670574218034744,0.00029684603214263916,0.002773284912109375,0.0059882749733161204,0.009406251044378595,0.0011757530325942262
0.006172343622893095,0.13282932341098785,9.750370979309082,-0.0033424850553274155,-0.008870288729667664,-0.0041027069091796875,-0.009624990520590898,0.009406251044378595,0.021540975899192166
0.009880569763481617,0.1435079127550125,9.758689880371094,0.003934767097234726,0.0028706490993499756,0.005306243896484375,0.06037495024022525,-0.008175816477784599,0.03798036077734016
0.013511481694877148,0.14353056252002716,9.758655548095703,0.0012473836541175842,0.0003079026937484741,0.005082130432128906,0.06037495024022525,-0.060593689716437554,-0.014437512461312793
0.00672222301363945,0.1399112194776535,9.754822731018066,0.008190346881747246,-0.002243727445602417,-0.006961822509765625,0.04115063576928389,0.009406251044378595,0.004786802009628565
0.012016423046588898,0.13632547855377197,9.754857063293457,-0.0012153508141636848,0.0024532973766326904,0.004864692687988281,-0.009624990520590898,0.009406251044378595,0.023190573305456028
0.012016423046588898,0.13632547855377197,9.754857063293457,-0.0012153508141636848,0.0024532973766326904,0.004864692687988281,-0.009624990520590898,0.009406251044378595,0.023190573305456028
0.008227616548538208,0.14156295359134674,9.754349708557129,0.0035153087228536606,0.002672240138053894,0.00246429443359375,-0.009624990520590898,0.013836375773072335,-0.014437512461312793
0.012308822944760323,0.14126071333885193,9.754363059997559,0.001348523423075676,-0.0042328983545303345,-0.0021314620971679688,-0.009624990520590898,0.009406251044378595,-0.014437512461312793
0.016062399372458458,0.1459788978099823,9.76009464263916,0.005656367167830467,0.0024301111698150635,0.0047092437744140625,-0.009624990520590898,-0.03182845474863463,0.02679719333170044
0.012612244114279747,0.14385659992694855,9.750035285949707,0.0031783245503902435,0.002391725778579712,0.00031375885009765625,-0.009624990520590898,0.009406251044378595,-0.014437512461312793
0.0014845579862594604,0.14102709293365479,9.752148628234863,-0.008281974121928215,0.011924579739570618,0.0004253387451171875,-0.009624990520590898,0.009406251044378595,0.04752225510976698
0.011060953140258789,0.14335215091705322,9.749594688415527,0.001318284310400486,-0.0069961100816726685,0.004862785339355469,-0.009624990520590898,0.009406251044378595,-0.014437512461312793
0.015849150717258453,0.1399112194776535,9.750808715820312,0.005928186699748039,-0.0022940337657928467,0.0002651214599609375,0.015526807572010822,0.009406251044378595,0.010714285631288928
0.015849150717258453,0.1399112194776535,9.750808715820312,0.005928186699748039,-0.0022940337657928467,0.0002651214599609375,0.015526807572010822,0.009406251044378595,0.010714285631288928
0.010263756848871708,0.14310376346111298,9.755890846252441,-0.001349249854683876,0.00018930435180664062,0.0004444122314453125,-0.009624990520590898,0.009406251044378595,-0.014437512461312793
0.012270482257008553,0.1443609595298767,9.74670124053955,0.0032806741073727608,0.002363920211791992,-0.008954048156738281,0.020426934692966064,0.009406251044378595,-0.014437512461312793
0.004431383218616247,0.1418449580669403,9.752606391906738,-0.0033991560339927673,0.00006620585918426514,-0.004261016845703125,-0.009624990520590898,0.009406251044378595,-0.014437512461312793
0.011060953140258789,0.1399112194776535,9.756397247314453,0.0014511356130242348,-0.002170264720916748,0.0028257369995117188,-0.009624990520590898,0.0762627840026815,-0.014437512461312793
0.005597724113613367,0.13782313466072083,9.762274742126465,-0.005453343503177166,0.0027633309364318848,0.0071964263916015625,-0.009624990520590898,0.009406251044378595,-0.014437512461312793
0.011120292358100414,0.14592613279819489,9.758010864257812,-0.005383091047406197,-0.00016342103481292725,0.011781692504882812,0.02671062868809846,0.009406251044378595,0.019226809090814
0.018211042508482933,0.1399112194776535,9.7586030960083,0.006321306340396404,-0.002581268548965454,-0.0025053024291992188,-0.009624990520590898,0.009406251044378595,-0.014437512461312793
0.018211042508482933,0.1399112194776535,9.7586030960083,0.006321306340396404,-0.002581268548965454,-0.0025053024291992188,-0.009624990520590898,0.009406251044378595,-0.014437512461312793
0.007740486413240433,0.15133002400398254,9.752885818481445,-0.005762159824371338,0.009117037057876587,-0.00036334991455078125,0.041506192472308016,0.009406251044378595,-0.014437512461312793
0.0136887077242136,0.14485518634319305,9.754780769348145,0.0034414445981383324,0.001621440052986145,-0.00008392333984375,0.02765216759714207,0.009406251044378595,-0.014437512461312793
0.0019188346341252327,0.14834623038768768,9.749597549438477,-0.010661318898200989,0.00867481529712677,-0.004540443420410156,-0.009624990520590898,-0.0462671278084978,-0.014437512461312793
0.0073302448727190495,0.1409687101840973,9.756928443908691,-0.0009307116270065308,-0.0007574707269668579,0.007282257080078125,-0.009624990520590898,0.009406251044378595,-0.014437512461312793
-0.00010461080819368362,0.13812081515789032,9.756882667541504,-0.0009126244112849236,0.0015123039484024048,-0.004689216613769531,-0.009624990520590898,0.009406251044378595,-0.014437512461312793
0.009497512131929398,0.14240320026874542,9.75333309173584,0.0017537102103233337,0.003981113433837891,-0.009281158447265625,-0.009624990520590898,0.009406251044378595,-0.055321023801025715
0.009497512131929398,0.14240320026874542,9.75333309173584,0.0017524147406220436,-0.010086610913276672,0.007198333740234375,-0.009624990520590898,0.009406251044378595,-0.055321023801025715
0.011060953140258789,0.13646548986434937,9.758538246154785,0.0017524147406220436,-0.010086610913276672,0.007198333740234375,-0.0019390133321299284,0.009406251044378595,-0.014437512461312793
0.016720222309231758,0.14169609546661377,9.759576797485352,0.008669339120388031,-0.000452190637588501,0.004734992980957031,-0.009624990520590898,0.009406251044378595,-0.014437512461312793
0.010411734692752361,0.13958661258220673,9.759556770324707,0.0015650046989321709,-0.0025956034660339355,0.004540443420410156,-0.009624990520590898,0.009406251044378595,-0.014437512461312793
0.01728910207748413,0.14469940960407257,9.751727104187012,0.008472434245049953,0.0019915103912353516,-0.0072803497314453125,-0.002523801589065991,0.01650743330579689,-0.007336316859681274
0.0031437454745173454,0.14149464666843414,9.743084907531738,0.0015712184831500053,-0.002785995602607727,-0.016126632690429688,0.06037495024022525,0.02070255683835988,-0.0031412066673315087
0.005977866239845753,0.14080753922462463,9.750151634216309,-0.014844163320958614,0.002052024006843567,0.005253791809082031,-0.009624990520590898,0.009406251044378595,0.05556242829950336
0.014293426647782326,0.14757174253463745,9.750543594360352,0.008776062168180943,-0.00022858381271362305,-0.006348609924316406,-0.009624990520590898,0.009406251044378595,-0.014437512461312793
0.014293426647782326,0.14757174253463745,9.750543594360352,0.008776062168180943,-0.00022858381271362305,-0.006348609924316406,-0.009624990520590898,0.009406251044378595,-0.014437512461312793
0.006605564616620541,0.14230529963970184,9.758506774902344,-0.0010102642700076103,-0.0005526542663574219,0.005509376525878906,0.005286099510127076,-0.060593689716437554,-0.014437512461312793
0.008956276811659336,0.1397375613451004,9.757312774658203,-0.0007308414205908775,-0.0028198659420013428,0.0030088424682617188,-0.009624990520590898,0.009406251044378595,-0.014437512461312793
0.016992513090372086,0.1327289193868637,9.752126693725586,0.005998852662742138,-0.009424149990081787,-0.0016164779663085938,-0.009624990520590898,0.009406251044378595,-0.014437512461312793
0.015833579003810883,0.1399189829826355,9.755077362060547,0.010484845377504826,-0.004481211304664612,0.005519866943359375,-0.009624990520590898,0.009406251044378595,-0.014437512461312793
0.008995228447020054,0.1399768888950348,9.747976303100586,0.01013135351240635,0.0003851354122161865,-0.0038347244262695312,-0.009624990520590898,0.009406251044378595,0.0370434375820716
0.00974789448082447,0.13720810413360596,9.76497745513916,0.007382909767329693,0.00045877695083618164,0.0057506561279296875,-0.009624990520590898,-0.023673569065396423,0.02248260818972834
0.00974789448082447,0.13720810413360596,9.76497745513916,0.007382909767329693,0.00045877695083618164,0.0057506561279296875,0.005054239934210266,-0.060593689716437554,-0.014437512461312793
0.012895293533802032,0.14311999082565308,9.75295352935791,0.0072237662971019745,-0.0018891245126724243,0.0005884170532226562,0.06037495024022525,0.0056783818201532376,-0.014437512461312793
0.007593769580125809,0.14186495542526245,9.752450942993164,-0.004456588067114353,0.00037807226181030273,0.0006847381591796875,-0.009624990520590898,0.009406251044378595,-0.014437512461312793
0.004635559394955635,0.13550147414207458,9.751752853393555,-0.006703878752887249,-0.006530672311782837,-0.0012922286987304688,-0.009624990520590898,0.009406251044378595,-0.014437512461312793
0.008666850626468658,0.1399112194776535,9.768577575683594,-0.0017790617421269417,-0.0016170591115951538,0.017141342163085938,-0.009624990520590898,0.009406251044378595,-0.07336639025830602
0.01874503679573536,0.14564557373523712,9.744569778442383,0.004898352548480034,0.005355238914489746,-0.011018753051757812,-0.009624990520590898,-0.05325673252652159,-0.014437512461312793
0.01282990351319313,0.13751710951328278,9.74354076385498,-0.0021949829533696175,-0.0042183250188827515,0.007754325866699219,-0.009624990520590898,0.009406251044378595,0.011298413547670468
0.017301242798566818,0.1442674845457077,9.758938789367676,0.004808872938156128,-0.0016295462846755981,0.0032558441162109375,-0.009624990520590898,0.009406251044378595,0.029701264368785566
0.017301242798566818,0.1442674845457077,9.758938789367676,0.004808872938156128,-0.0016295462846755981,0.0032558441162109375,-0.009624990520590898,0.009406251044378595,0.029701264368785566
0.006124130915850401,0.14627070724964142,9.755241394042969,-0.00014586932957172394,0.005278781056404114,-0.003970146179199219,-0.009624990520590898,0.009406251044378595,-0.003496029658628382
0.024072736501693726,0.14411963522434235,9.75652027130127,0.014245742000639439,0.0027567297220230103,0.002841949462890625,-0.009624990520590898,0.009406251044378595,-0.014437512461312793
0.0184575617313385,0.1394752562046051,9.751391410827637,0.00918157771229744,-0.001825183629989624,-0.0016450881958007812,-0.009624990520590898,-0.03833971944113275,0.05556242829950336
0.007864508777856827,0.14123982191085815,9.74897575378418,-0.00036835018545389175,0.0006324648857116699,-0.006145477294921875,-0.009624990520590898,-0.060593689716437554,-0.014437512461312793
0.005680492613464594,0.14639419317245483,9.755281448364258,0.00459575280547142,0.002826198935508728,-0.015506744384765625,-0.009624990520590898,-0.005145560363826129,-0.014437512461312793
0.0006129294633865356,0.14062677323818207,9.751422882080078,0.002305113710463047,-0.006220996379852295,0.0010538101196289062,-0.009624990520590898,0.009406251044378595,-0.014437512461312793
0.0006129294633865356,0.14062677323818207,9.751422882080078,0.002305113710463047,-0.006220996379852295,0.0010538101196289062,-0.009624990520590898,0.009406251044378595,-0.014437512461312793
0.00987212173640728,0.13750068843364716,9.751493453979492,-0.001993679441511631,-0.0015000402927398682,-0.0012006759643554688,-0.009624990520590898,0.009406251044378595,-0.014437512461312793
0.009909437969326973,0.13809287548065186,9.757486343383789,0.00040703359991312027,-0.0036940276622772217,0.0035858154296875,0.008541244938593503,0.009406251044378595,0.0037287229978716094
0.01797596365213394,0.1399112194776535,9.748124122619629,0.007414232008159161,-0.0011984854936599731,-0.00592041015625,-0.009624990520590898,-0.02403075327443371,0.02212542398069105
0.01448311097919941,0.1392281949520111,9.754064559936523,0.00490292813628912,-0.0011491179466247559,-0.00119781494140625,0.005403906933096573,0.009406251044378595,0.0005913849923746782
0.008205890655517578,0.13751710951328278,9.756865501403809,0.0026601096615195274,-0.0034270882606506348,-0.0037183761596679688,0.06037495024022525,0.009406251044378595,-0.011069588870261817
0.01123796496540308,0.14008823037147522,9.754561424255371,0.0025444962084293365,0.0013166368007659912,-0.0057773590087890625,-0.009624990520590898,0.009406251044378595,-0.014437512461312793
0.016605529934167862,0.14311166107654572,9.751867294311523,-0.002155330963432789,0.0036668479442596436,-0.007982254028320312,-0.009624990520590898,0.009406251044378595,-0.014437512461312793
0.016605529934167862,0.14311166107654572,9.751867294311523,-0.002155330963432789,0.0036668479442596436,-0.007982254028320312,-0.009624990520590898,0.009406251044378595,-0.014437512461312793
0.015849150717258453,0.1384722888469696,9.753178596496582,0.004652388393878937,0.0012331008911132812,-0.0031490325927734375,-0.009624990520590898,0.009406251044378595,-0.014437512461312793
0.011389965191483498,0.14437039196491241,9.75368595123291,-0.0002291286364197731,0.0035627782344818115,-0.0008401870727539062,0.06037495024022525,0.009406251044378595,0.010942256535051325
0.017642147839069366,0.15067949891090393,9.753600120544434,0.006731684319674969,0.010337069630622864,-0.0009870529174804688,0.03416283198004516,0.009406251044378595,-0.014437512461312793
0.007737057749181986,0.14309586584568024,9.756556510925293,-0.002595731057226658,-0.004164591431617737,0.0036563873291015625,-0.009624990520590898,0.009406251044378595,-0.006621948441606698
0.00543793523684144,0.14781798422336578,9.756037712097168,-0.007013952359557152,0.0026450902223587036,0.008241653442382812,0.04978306106525442,0.009406251044378595,-0.0038456232863419643
0.013878947123885155,0.1431531012058258,9.755790710449219,0.004972119815647602,0.0049873292446136475,-0.0059814453125,-0.009624990520590898,0.009406251044378595,-0.014437512461312793
0.013878947123885155,0.1431531012058258,9.755790710449219,0.004972119815647602,0.0049873292446136475,-0.0059814453125,-0.009624990520590898,0.009406251044378595,-0.014437512461312793
0.00521940877661109,0.13809192180633545,9.758827209472656,-0.006843481212854385,-0.009092092514038086,0.0033969879150390625,-0.009624990520590898,0.009406251044378595,0.032956129652774314
0.007955371402204037,0.14469940960407257,9.751208305358887,-0.0018479302525520325,0.002815455198287964,-0.00849151611328125,-0.009624990520590898,0.009406251044378595,-0.014437512461312793
0.00842108391225338,0.14717544615268707,9.753108024597168,-0.0016534989699721336,0.005019038915634155,-0.001560211181640625,-0.009624990520590898,0.009406251044378595,0.018167262655602548
0.008871784433722496,0.15318123996257782,9.751741409301758,0.0009887609630823135,0.011692315340042114,-0.006453514099121094,-0.009624990520590898,0.009406251044378595,-0.014437512461312793
0.008707321248948574,0.14230529963970184,9.757567405700684,0.0010923976078629494,-0.00023277103900909424,0.0077362060546875,-0.009624990520590898,0.009406251044378595,-0.013846981242584365
0.0016917185857892036,0.14465798437595367,9.748242378234863,0.0035179955884814262,-0.0001251697540283203,0.0121612548828125,-0.009624990520590898,0.009406251044378595,0.05556242829950336
0.015270557254552841,0.14306841790676117,9.751935958862305,-0.00796253141015768,-0.009463027119636536,0.007358551025390625,-0.009624990520590898,0.009406251044378595,0.01935109985740972
0.015270557254552841,0.14306841790676117,9.751935958862305,-0.00796253141015768,-0.009463027119636536,0.007358551025390625,-0.009624990520590898,0.009406251044378595,0.01935109985740972
0.0112671609967947,0.14469940960407257,9.753998756408691,0.0036229798570275307,0.002335652709007263,0.0003604888916015625,-0.009624990520590898,0.009406251044378595,-0.011424065016014902
0.012990627437829971,0.13126365840435028,9.748446464538574,0.0035839341580867767,-0.01172780990600586,-0.004250526428222656,-0.009624990520590898,0.009406251044378595,-0.014437512461312793
0.019978174939751625,0.14404024183750153,9.756332397460938,0.01046516839414835,0.0027810484170913696,0.003223419189453125,-0.009624990520590898,0.009406251044378595,-0.014437512461312793
0.007872503250837326,0.13988910615444183,9.750293731689453,-0.0013280929997563362,-0.006780907511711121,-0.006197929382324219,-0.009624990520590898,0.009406251044378595,-0.014437512461312793
0.00918416865170002,0.1399112194776535,9.755998611450195,0.0033849962055683136,-0.0019614100456237793,-0.00385284423828125,0.0537516144164434,-0.0539703538926557,0.0489390924757215
0.005320398136973381,0.13694041967391968,9.76016902923584,0.005557280965149403,-0.009129941463470459,0.007737159729003906,-0.009624990520590898,0.009406251044378595,-0.014437512461312793
0.005554817616939545,0.14653480052947998,9.75269889831543,-0.013014567084610462,0.0075642019510269165,-0.0019321441650390625,-0.009624990520590898,0.009406251044378595,-0.014437512461312793
-0.0009095445275306702,0.13891762495040894,9.751151084899902,-0.010331809520721436,0.0003263801336288452,-0.004155158996582031,-0.009624990520590898,0.009406251044378595,-0.014437512461312793
-0.0009095445275306702,0.13891762495040894,9.751151084899902,-0.010331809520721436,0.0003263801336288452,-0.004155158996582031,-0.009624990520590898,0.009406251044378595,-0.014437512461312793
0.008666850626468658,0.14230529963970184,9.759010314941406,-0.0005333665758371353,0.00048604607582092285,0.0053195953369140625,0.03174006249582115,-0.019228636700025507,-0.014437512461312793
0.016595738008618355,0.14428752660751343,9.760215759277344,0.008836371824145317,0.0028171539306640625,0.0076141357421875,-0.009624990520590898,0.009406251044378595,-0.014437512461312793
0.007313876412808895,0.13887009024620056,9.754051208496094,-0.003108138218522072,-0.0017683207988739014,0.0004730224609375,-0.009624990520590898,0.004845792432499261,-0.014437512461312793
0.01033745240420103,0.13846422731876373,9.751975059509277,-0.000820615328848362,-0.006515800952911377,-0.0041408538818359375,0.046528235801905335,-0.0044404633939413175,-0.014437512461312793
0.015060719102621078,0.14069963991641998,9.744192123413086,0.010957104153931141,-0.006624743342399597,-0.006304740905761719,0.06037495024022525,-0.022840699533264768,-0.014437512461312793
0.013584531843662262,0.1351877599954605,9.753863334655762,-0.0010570669546723366,-0.008972540497779846,0.0011539459228515625,0.009726429501936166,0.009406251044378595,-0.014437512461312793
0.013584531843662262,0.1351877599954605,9.753863334655762,-0.0010570669546723366,-0.008972540497779846,0.0011539459228515625,0.009726429501936166,0.009406251044378595,-0.014437512461312793
0.00986715592443943,0.14888747036457062,9.759273529052734,-0.0012292703613638878,0.007713109254837036,0.008137702941894531,-0.009624990520590898,0.009406251044378595,0.03811070800073898
0.006360980216413736,0.14945821464061737,9.750304222106934,-0.0035887202247977257,0.007385313510894775,-0.0036220550537109375,-0.009624990520590898,0.009406251044378595,-0.014437512461312793
0.011656973510980606,0.14164668321609497,9.749886512756348,0.00859926175326109,0.00028659403324127197,-0.0058803558349609375,-0.009624990520590898,0.009406251044378595,-0.014437512461312793
0.007756014354526997,0.13880525529384613,9.751774787902832,0.010846922174096107,-0.004289448261260986,-0.0057525634765625,-0.009624990520590898,-0.057929302290324336,-0.014437512461312793
0.004642448388040066,0.1399112194776535,9.753157615661621,0.00577346608042717,-0.00195525586605072,0.005942344665527344,-0.009624990520590898,-0.011656438190140785,0.006625176773206587
0.017413511872291565,0.14303994178771973,9.75758171081543,0.010465763509273529,0.007492348551750183,-0.0058269500732421875,-0.009624990520590898,-0.030059956021917016,0.025028694604982818
0.017413511872291565,0.14303994178771973,9.75758171081543,0.010465763509273529,0.007492348551750183,-0.0058269500732421875,-0.009624990520590898,-0.030059956021917016,0.025028694604982818
0.01640290394425392,0.1464148759841919,9.755949974060059,0.00306905061006546,0.012133851647377014,0.005740165710449219,-0.01589355004382216,0.009406251044378595,-0.014437512461312793
0.003878660500049591,0.14674043655395508,9.751363754272461,-0.00657330546528101,0.004925578832626343,-0.0036249160766601562,0.015051522455313137,0.009406251044378595,-0.014437512461312793
0.020822415128350258,0.13834549486637115,9.75536823272705,0.01232653483748436,-0.004559919238090515,0.0010347366333007812,-0.009624990520590898,-0.01752066252069919,-0.014437512461312793
0.007178417406976223,0.140234112739563,9.752375602722168,-0.004223893396556377,-0.0044739991426467896,0.0011720657348632812,-0.009624990520590898,0.009406251044378595,-0.014437512461312793
0.004554449114948511,0.13512302935123444,9.758838653564453,-0.008617576211690903,-0.006569817662239075,-0.0014123916625976562,0.050496522348829856,0.009406251044378595,-0.014437512461312793
0.010657278820872307,0.13632206618785858,9.747514724731445,-0.013266566209495068,0.0004150271415710449,0.0031900405883789062,-0.009624990520590898,-0.03230979632213542,-0.014437512461312793
0.010657278820872307,0.13632206618785858,9.747514724731445,-0.0036534396931529045,-0.001711130142211914,-0.005970954895019531,-0.009624990520590898,0.009406251044378595,0.008876044269843134
0.006272748112678528,0.14264138042926788,9.754735946655273,-0.0036534396931529045,-0.001711130142211914,-0.005970954895019531,-0.009624990520590898,0.009406251044378595,0.008876044269843134
0.0060854144394397736,0.14230529963970184,9.755279541015625,-0.005752339027822018,0.0006110817193984985,0.0033426284790039062,-0.009624990520590898,0.009406251044378595,-0.0009442336321145948
0.01760508306324482,0.1400175839662552,9.75072956085205,0.008253376930952072,-0.0017198771238327026,-0.0036287307739257812,-0.009624990520590898,-0.028703883327191808,-0.014437512461312793
0.007620448712259531,0.1441762000322342,9.758009910583496,-0.0010926956310868263,0.0029950737953186035,0.0032939910888671875,-0.009624990520590898,0.009406251044378595,0.035860587556042905
0.012391801923513412,0.13973282277584076,9.76209545135498,0.006091240793466568,-0.006449297070503235,0.0028543472290039062,-0.009624990520590898,0.010711937753761737,-0.014437512461312793
0.01826043613255024,0.13753429055213928,9.747944831848145,0.01050751842558384,-0.0015400201082229614,-0.0018911361694335938,-0.009624990520590898,0.026507550622209584,-0.014437512461312793
0.015202600508928299,0.14386077225208282,9.758587837219238,0.003043864853680134,-0.00601610541343689,0.0006694793701171875,-0.009624990520590898,0.009406251044378595,-0.014437512461312793
0.015202600508928299,0.14386077225208282,9.758587837219238,0.003043864853680134,-0.00601610541343689,0.0006694793701171875,-0.009624990520590898,0.009406251044378595,-0.014437512461312793
0.006272748112678528,0.14629128575325012,9.75876235961914,-0.004141784273087978,0.010313600301742554,0.005158424377441406,-0.009624990520590898,0.009406251044378595,-0.012127441098393988
0.011988558806478977,0.14704348146915436,9.748449325561523,0.0030980240553617477,0.007774367928504944,-0.009024620056152344,-0.009624990520590898,0.009406251044378595,-0.014437512461312793
0.015286206267774105,0.1510372906923294,9.757627487182617,0.00547998771071434,0.010029405355453491,0.0027189254760742188,-0.009624990520590898,0.009406251044378595,-0.014437512461312793
0.014309250749647617,0.14161960780620575,9.760565757751465,0.005339207127690315,0.002979844808578491,0.00231170654296875,-0.009624990520590898,0.009406251044378595,-0.014437512461312793
0.013050243258476257,0.14510421454906464,9.755682945251465,0.005207758396863937,0.00045430660247802734,0.004642486572265625,-0.009624990520590898,0.009406251044378595,-0.014437512461312793
0.01000466663390398,0.1425693780183792,9.746573448181152,-0.008754394948482513,0.0029810667037963867,-0.00013828277587890625,-0.009624990520590898,0.009406251044378595,-0.038755507206857276
0.0032715704292058945,0.15098820626735687,9.760167121887207,-0.0039562052115798,0.0075677186250686646,0.00943756103515625,-0.009624990520590898,-0.017872990892123426,-0.014437512461312793
