Accelerometer_Gx,Accelerometer_Gy,Accelerometer_Gz,Accelerometer_X,Accelerometer_Y,Accelerometer_Z,Gyroscope_Z,Gyroscope_X,Gyroscope_Y
0.01345762424170971,0.15665702521800995,9.719195365905762,-0.0022751055657863617,0.01906678080558777,-0.007576942443847656,-2.0753549002990783,-3.8467979721575007,-0.2222498199197192
0.009095607325434685,0.14301101863384247,9.735234260559082,-0.018937062472105026,0.008560329675674438,0.0075397491455078125,-1.8984472378236361,-3.8715650918616134,-0.06788350259282457
0.011172186583280563,0.14611363410949707,9.738879203796387,-0.008020374923944473,0.010733172297477722,0.012849807739257812,-1.111072848701498,-2.280781163880263,0.11505176180451447
0.011172186583280563,0.14611363410949707,9.738879203796387,-0.008020374923944473,0.010733172297477722,0.012849807739257812,-1.111072848701498,-2.280781163880263,0.11505176180451447
0.011266629211604595,0.14318066835403442,9.733983039855957,-0.012829934246838093,0.00858624279499054,0.0050525665283203125,0.3807304324272606,1.3660287626575587,0.24067921776514745
0.003777997335419059,0.14689218997955322,9.733646392822266,-0.005736934952437878,0.01132848858833313,0.0000934600830078125,1.1164992205536615,3.056044773830322,0.10893759523901592
0.011060953140258789,0.14841119945049286,9.725881576538086,-0.007788628339767456,0.009728103876113892,-0.009233474731445312,-0.3236507016160227,-2.119554548522112,-0.08930314925275644
0.00883795227855444,0.14692240953445435,9.734058380126953,0.0015251846052706242,0.00375211238861084,0.0021314620971679688,0.9897281347938746,3.4234560172109405,0.14776007031625105
0.011308437213301659,0.13903068006038666,9.741360664367676,-0.005750253796577454,0.0014992505311965942,0.01080322265625,-1.1105946287378914,-1.0337166874828723,-0.35299476843555777
0.011847009882330894,0.14310932159423828,9.735099792480469,0.0002959771081805229,0.00697152316570282,-0.008374214172363281,-0.7886133214045549,-0.13746279975030312,0.058802752751079386
0.003878660500049591,0.14531485736370087,9.732930183410645,-0.011674730107188225,0.01084931194782257,-0.0010309219360351562,-0.792177986460214,0.2515995163092342,-0.12552591025758192
0.003878660500049591,0.14531485736370087,9.732930183410645,-0.011674730107188225,0.01084931194782257,-0.0010309219360351562,-0.792177986460214,0.2515995163092342,-0.12552591025758192
0.0065292781218886375,0.13751710951328278,9.730381965637207,-0.006872505880892277,0.0009079128503799438,-0.007966995239257812,-0.8815306812648794,-1.8277485900550687,-0.19974986945280138
0.005196176469326019,0.14409959316253662,9.726122856140137,-0.006026876159012318,0.00382271409034729,-0.007895469665527344,0.6721069427502393,1.3610837056984695,0.19774982464517768
0.007262176834046841,0.15223288536071777,9.73629093170166,-0.005221973173320293,0.01359143853187561,0.0037336349487304688,-0.5656292027882064,-1.189335183923914,-0.1233195857328959
0.009210051037371159,0.14336656033992767,9.727424621582031,-0.00113674346357584,0.005068153142929077,-0.005587577819824219,-0.5543978104717667,0.15393871013225482,-0.21033759648124672
0.022506430745124817,0.15153169631958008,9.74055290222168,-0.005676099099218845,0.00441955029964447,0.0039691925048828125,0.3482009094531344,1.2917737207655304,0.04095682915158478
0.008666006848216057,0.14150755107402802,9.730354309082031,-0.0014899400994181633,0.0007475614547729492,-0.003345489501953125,0.05634239054599385,-0.3993039579363467,0.020191559970865077
0.007780789863318205,0.14266322553157806,9.732659339904785,-0.004252281971275806,0.008241549134254456,0.0014181137084960938,-0.625701463590409,-0.6373190817600718,-0.13406410028734742
0.007780789863318205,0.14266322553157806,9.732659339904785,-0.004252281971275806,0.008241549134254456,0.0014181137084960938,-0.625701463590409,-0.6373190817600718,-0.13406410028734742
0.012752101756632328,0.1448751538991928,9.729108810424805,0.00032892264425754547,0.004602521657943726,-0.0032320022583007812,0.33874891481761527,-0.2607934845406003,-0.012249997637270759
0.005738126114010811,0.14523403346538544,9.735404968261719,-0.004507121630012989,0.004195868968963623,0.0037975311279296875,-0.0847021630731066,0.6141310164147017,-0.07477621734221201
0.007508710492402315,0.1401446908712387,9.740727424621582,-0.0044026123359799385,-0.008487686514854431,0.008126258850097656,-0.21046363481577463,-1.082839407993604,-0.07804247516829294
0.010579908266663551,0.14697325229644775,9.726964950561523,-0.009801709093153477,0.0038972049951553345,0.005278587341308594,0.04117093957380882,0.005845881537377222,0.007861694477030126
0.011060953140258789,0.1390165388584137,9.741767883300781,-0.000010464340448379517,0.0007967352867126465,0.0006647109985351562,0.11900793543783279,0.24130524729126143,-0.019282411099526133
0.005543780047446489,0.1401970535516739,9.733545303344727,-0.008634032681584358,-0.005966603755950928,0.00030231475830078125,0.10306947556619647,0.5695414604395956,-0.012249997637270759
0.0034117901232093573,0.14392851293087006,9.740342140197754,-0.009615934453904629,0.0037122219800949097,0.00726318359375,-0.1490928776791159,-0.4153114133907707,-0.012249997637270759
0.004855537787079811,0.13776132464408875,9.740483283996582,-0.006416996009647846,-0.003857940435409546,0.0069370269775390625,0.17185935226600965,0.21349980064419075,-0.012249997637270759
0.004855537787079811,0.13776132464408875,9.740483283996582,-0.006416996009647846,-0.003857940435409546,0.0069370269775390625,0.17185935226600965,0.21349980064419075,-0.012249997637270759
0.006272748112678528,0.1470935195684433,9.725489616394043,-0.004019053652882576,0.005437314510345459,-0.006957054138183594,-0.010281248969867474,0.0867417349325091,-0.012249997637270759
0.007163698785007,0.14859667420387268,9.741339683532715,-0.0016754847019910812,0.004885062575340271,0.004612922668457031,-0.010281248969867474,-0.15440160219086863,-0.012249997637270759
0.0005623754113912582,0.14193731546401978,9.739623069763184,-0.0012425016611814499,-0.002428889274597168,-0.0006160736083984375,0.001778997474523868,0.04614653228096476,-0.012249997637270759
0.013854101300239563,0.14390131831169128,9.734542846679688,0.0013154195621609688,0.006868034601211548,0.001552581787109375,0.10275284560535614,0.07077555409779605,-0.012249997637270759
0.01038629375398159,0.14316503703594208,9.748188018798828,0.0034562377259135246,0.002124190330505371,0.02015209197998047,0.03458406255276454,0.048365303224587534,-0.012249997637270759
0.01038629375398159,0.14316503703594208,9.748188018798828,0.0034562377259135246,0.002124190330505371,0.02015209197998047,0.03458406255276454,0.048365303224587534,-0.012249997637270759
0.008666850626468658,0.15625730156898499,9.729170799255371,-0.0010103173553943634,0.013696298003196716,-0.0059719085693359375,0.02874006198545172,0.03447862150745247,-0.012249997637270759
0.002959898207336664,0.14758530259132385,9.732134819030762,-0.00781532283872366,0.0038616806268692017,-0.0035114288330078125,-0.010281248969867474,0.02412176020903884,-0.012249997637270759
0.012031033635139465,0.14118391275405884,9.741999626159668,-0.0008917469531297684,-0.0008868873119354248,0.008060455322265625,0.05750787161440662,0.0012891581852002387,-0.012249997637270759
0.002592085860669613,0.13880367577075958,9.727649688720703,-0.010015570558607578,-0.0007847398519515991,-0.0035648345947265625,0.0435282886523888,0.0411191128454387,-0.012249997637270759
0.011607810854911804,0.14887188374996185,9.738333702087402,-0.002712847664952278,0.0036437660455703735,0.0035495758056640625,0.02512148912815979,-0.03109722430104659,-0.012249997637270759
0.012498523108661175,0.1458483636379242,9.731151580810547,0.00878346897661686,0.0010840147733688354,-0.0036268234252929688,-0.010281248969867474,0.0020947469812915083,-0.012249997637270759
0.006272748112678528,0.1401137262582779,9.737814903259277,-0.0028900010511279106,-0.006209507584571838,0.0035572052001953125,0.05971869179094867,0.053683459267088715,-0.012249997637270759
0.006272748112678528,0.1401137262582779,9.737814903259277,-0.0028900010511279106,-0.006209507584571838,0.0035572052001953125,0.05971869179094867,0.053683459267088715,-0.012249997637270759
0.017693281173706055,0.14720351994037628,9.742791175842285,0.009136614389717579,0.0030389726161956787,0.008082389831542969,0.021502809549162075,0.07349991912255845,-0.012249997637270759
0.007187551353126764,0.14948762953281403,9.741466522216797,-0.0004936959594488144,0.005059689283370972,0.005314826965332031,0.04634584840672484,-0.06649996239907385,-0.012249997637270759
0.006953855976462364,0.14401832222938538,9.742777824401855,0.002550317905843258,-0.004649937152862549,0.00968170166015625,0.05469163254117962,0.12841869547428067,-0.012249997637270759
0.002654358744621277,0.1485517919063568,9.739791870117188,0.004546166397631168,-0.004316791892051697,-0.004557609558105469,0.013154784258885886,0.07380807804800238,-0.012249997637270759
0.004938202910125256,0.14203031361103058,9.735075950622559,0.0027434099465608597,0.009440064430236816,-0.0022373199462890625,-0.023963078372755048,-0.093863621204849,0.015909058041693527
0.005963552743196487,0.14799462258815765,9.735966682434082,0.00021054130047559738,0.002597227692604065,-0.0068359375,-0.018935338772111638,-0.07515405220131802,-0.020904087439514923
0.005963552743196487,0.14799462258815765,9.735966682434082,0.00021054130047559738,0.002597227692604065,-0.0068359375,-0.018935338772111638,-0.07515405220131802,-0.020904087439514923
0.011552741751074791,0.14388413727283478,9.734088897705078,0.005161336623132229,-0.00000998377799987793,-0.002323150634765625,0.0008799471445944943,-0.0012313417010931386,-0.012249997637270759
0.008913504891097546,0.1517704576253891,9.73222541809082,0.0033479295670986176,0.009308204054832458,-0.004650115966796875,0.05971869179094867,0.0771049783438558,-0.012249997637270759
0.00908646173775196,0.1532885730266571,9.743541717529297,0.0034255720674991608,0.008781015872955322,0.009313583374023438,-0.061873776556646366,-0.16354919984107266,-0.012249997637270759
0.011185584589838982,0.14715583622455597,9.738333702087402,-0.006406037136912346,-0.003287583589553833,0.0020160675048828125,0.01426833187722275,-0.0628511472784061,-0.012249997637270759
0.003892834298312664,0.1485384851694107,9.739749908447266,0.005480347201228142,0.008451685309410095,-0.009924888610839844,0.02039642562532579,0.042822231187151956,-0.012249997637270759
0.010889271274209023,0.14213363826274872,9.739788055419922,0.005619711242616177,-0.0012035220861434937,-0.0005216598510742188,0.05971869179094867,-0.05282948551763878,-0.012249997637270759
0.012148020789027214,0.1466599553823471,9.73485279083252,0.005559064447879791,-0.0009762495756149292,-0.0030155181884765625,-0.010281248969867474,-0.01882558883792864,-0.02814145993772357
0.012148020789027214,0.1466599553823471,9.73485279083252,0.005559064447879791,-0.0009762495756149292,-0.0030155181884765625,-0.010281248969867474,-0.01882558883792864,-0.02814145993772357
0.003902510041370988,0.1423768550157547,9.738286018371582,-0.003693118691444397,-0.0035231858491897583,0.0016765594482421875,0.02541620111867526,0.07489487853882777,-0.012249997637270759
0.009850021451711655,0.15127624571323395,9.731757164001465,0.0035559944808483124,0.005815282464027405,-0.005269050598144531,-0.0456849642385133,-0.05000933776193754,-0.012249997637270759
0.007431766949594021,0.14686532318592072,9.733697891235352,0.0010696002282202244,0.008287593722343445,-0.007503509521484375,-0.07805457474168591,-0.13093337902760896,-0.012249997637270759
-0.0005099456757307053,0.13592222332954407,9.73364543914795,0.0012317285872995853,0.008192062377929688,-0.0006923675537109375,0.040204441125825566,0.07349991912255845,-0.012249997637270759
0.004402243532240391,0.14469940960407257,9.739997863769531,0.004088713321834803,-0.0011287480592727661,0.0017385482788085938,-0.04820203235495514,-0.008183273656976077,-0.012249997637270759
0.007243431638926268,0.14670535922050476,9.735551834106445,0.006356195546686649,0.005947932600975037,0.00390625,-0.010281248969867474,-0.0012290738648452829,-0.01697904986385834
0.007243431638926268,0.14670535922050476,9.735551834106445,0.006356195546686649,0.005947932600975037,0.00390625,-0.010281248969867474,-0.0012290738648452829,-0.01697904986385834
0.003878660500049591,0.13913966715335846,9.74352741241455,-0.00279341172426939,-0.008096083998680115,0.006343841552734375,0.012858764927474592,0.026639992259084363,-0.05910991783063823
0.010389953851699829,0.14492307603359222,9.730323791503906,0.004357018042355776,-0.0008962750434875488,-0.008032798767089844,-0.010281248969867474,-0.009578740001347863,-0.012249997637270759
-0.000056216842494904995,0.14624018967151642,9.742600440979004,-0.007030683569610119,0.0015125423669815063,0.0011348724365234375,-0.010281248969867474,0.07349991912255845,-0.012249997637270759
0.006272748112678528,0.14435933530330658,9.734796524047852,0.00015481747686862946,-0.005520999431610107,0.00359344482421875,-0.010281248969867474,0.011850791756582026,-0.012249997637270759
0.004226291552186012,0.14674589037895203,9.747870445251465,0.00039812130853533745,-0.0007715076208114624,-0.0034551620483398438,-0.010281248969867474,0.003499978361742296,-0.012249997637270759
0.007249818183481693,0.1452365219593048,9.729294776916504,0.0029989215545356274,0.003893435001373291,-0.0037183761596679688,0.034883243514709616,0.07349991912255845,-0.012249997637270759
0.004634267184883356,0.14473123848438263,9.735119819641113,-0.004071989096701145,0.001470714807510376,-0.0033197402954101562,0.0016963081628630788,0.003499978361742296,-0.012249997637270759
0.004634267184883356,0.14473123848438263,9.735119819641113,-0.004071989096701145,0.001470714807510376,-0.0033197402954101562,0.0016963081628630788,0.003499978361742296,-0.012249997637270759
0.003878660500049591,0.14022743701934814,9.73322868347168,-0.0015495801344513893,-0.005366578698158264,-0.0032672882080078125,-0.010281248969867474,0.07349991912255845,-0.012249997637270759
0.007723736576735973,0.14469940960407257,9.73644733428955,0.003202012274414301,-0.0005145817995071411,0.0016965866088867188,-0.010281248969867474,0.003499978361742296,-0.012249997637270759
0.009243729524314404,0.14580032229423523,9.726363182067871,0.010214870795607567,-0.0005189329385757446,-0.009711265563964844,-0.010281248969867474,0.003499978361742296,-0.012249997637270759
0.006012404337525368,0.1464299112558365,9.737006187438965,-0.006432440597563982,-0.0005230456590652466,-0.0025205612182617188,-0.010281248969867474,0.003499978361742296,-0.012249997637270759
0.009870341047644615,0.1399240791797638,9.73652172088623,0.0006556333974003792,-0.012402087450027466,0.0093231201171875,0.025717636576654965,0.003499978361742296,-0.012249997637270759
0.008666850626468658,0.14102479815483093,9.739558219909668,0.002829525154083967,-0.007293984293937683,0.004479408264160156,-0.010281248969867474,0.003499978361742296,-0.012249997637270759
0.00017021165695041418,0.15134184062480927,9.737019538879395,-0.0067353215999901295,0.006798386573791504,-0.00035381317138671875,0.040504542562483,-0.047285813170608176,-0.012249997637270759
0.00017021165695041418,0.15134184062480927,9.737019538879395,-0.0067353215999901295,0.006798386573791504,-0.00035381317138671875,0.040504542562483,-0.047285813170608176,-0.012249997637270759
0.010791586712002754,0.14257466793060303,9.731511116027832,0.005153855308890343,-0.002787679433822632,-0.00511932373046875,-0.010281248969867474,0.003499978361742296,-0.012249997637270759
0.0065095191821455956,0.1406303197145462,9.744796752929688,0.002924996893852949,-0.005041390657424927,0.0088043212890625,0.0036938850310405777,0.017475105692543735,-0.012249997637270759
0.007453501224517822,0.14618350565433502,9.743864059448242,0.012126438319683075,0.009232491254806519,0.010778427124023438,-0.0058455013413003755,-0.05762846714193966,-0.012249997637270759
0.003878660500049591,0.14384526014328003,9.736153602600098,-0.0019514947198331356,-0.00934465229511261,0.0011358261108398438,-0.010281248969867474,0.027825430286478256,-0.012249997637270759
0.009374815039336681,0.15103864669799805,9.742413520812988,0.00038661761209368706,0.004906371235847473,0.008122444152832031,-0.010281248969867474,0.015986471299024748,0.02899321921177854
0.007925172336399555,0.14966757595539093,9.730780601501465,0.007338319905102253,0.0091523677110672,-0.0038309097290039062,-0.002229876671130657,0.011551357330585725,-0.012249997637270759
0.006564753595739603,0.14621751010417938,9.748844146728516,0.00046697910875082016,0.0019126087427139282,0.012867927551269531,0.033256351151350755,0.0641128112841544,-0.012249997637270759
0.002496490254998207,0.1440247893333435,9.742446899414062,-0.004485780373215675,-0.0002937018871307373,0.0055027008056640625,-0.010281248969867474,-0.06649996239907385,-0.012249997637270759
0.002496490254998207,0.1440247893333435,9.742446899414062,-0.004485780373215675,-0.0002937018871307373,0.0055027008056640625,-0.010281248969867474,-0.06649996239907385,-0.012249997637270759
0.000010858755558729172,0.14423920214176178,9.74404239654541,-0.0016021430492401123,-0.0027456581592559814,0.009987831115722656,0.05299195597447782,0.1233196390937488,-0.012249997637270759
0.012658932246267796,0.1454971730709076,9.736737251281738,-0.004115245305001736,0.0019196271896362305,0.000453948974609375,0.04804525816916219,0.10847955901801515,-0.012249997637270759
0.0037908870726823807,0.14570972323417664,9.738795280456543,0.007627323269844055,-0.005114808678627014,0.0030164718627929688,0.029637404768088592,0.013337345076838278,0.017831289385589325
0.010422765277326107,0.14751896262168884,9.747910499572754,0.01219637505710125,-0.0027767419815063477,0.009900093078613281,0.011231585749531446,-0.023474292960276012,-0.012249997637270759
0.0028321698773652315,0.13886472582817078,9.744468688964844,-0.004368602763861418,-0.007614210247993469,0.004702568054199219,0.0050182547090420835,-0.035900955041254734,-0.012249997637270759
0.003834162373095751,0.15635840594768524,9.747688293457031,-0.0019225673750042915,0.011218607425689697,0.008973121643066406,0.02341761039429284,0.0008977563292467736,-0.012249997637270759
0.003834162373095751,0.15635840594768524,9.747688293457031,-0.0019225673750042915,0.011218607425689697,0.008973121643066406,0.02341761039429284,0.0008977563292467736,-0.012249997637270759
0.006911347154527903,0.15257371962070465,9.735939979553223,0.0029110414907336235,0.010869830846786499,-0.00283050537109375,0.05971869179094867,0.0377199998358731,-0.012249997637270759
0.010921156965196133,0.14587898552417755,9.729937553405762,0.014706023037433624,0.001208379864692688,-0.0071353912353515625,-0.009772006340411456,0.002990729062179665,-0.012249997637270759
0.0020407158881425858,0.1470935195684433,9.738492965698242,0.011993642896413803,0.0013036131858825684,0.004698753356933594,0.008637721360619934,-0.028662021738099036,-0.012249997637270759
0.0026350338011980057,0.14257265627384186,9.741263389587402,0.004814806394279003,-0.008153975009918213,-0.0070648193359375,0.02239560331909001,0.036176830650699786,-0.012249997637270759
0.004727300256490707,0.14920473098754883,9.740238189697266,0.004996804520487785,0.0014412850141525269,0.006899833679199219,-0.010281248969867474,0.06936325240433724,-0.012249997637270759
0.008503352291882038,0.1470935195684433,9.743121147155762,0.005013185553252697,0.0012650787830352783,0.0045166015625,-0.010281248969867474,-0.04396388663474901,-0.05971385596365545
0.008503352291882038,0.1470935195684433,9.743121147155762,0.005013185553252697,0.0012650787830352783,0.0045166015625,-0.010281248969867474,-0.04396388663474901,-0.05971385596365545
0.0120312524959445,0.1449028104543686,9.738739967346191,0.007465538568794727,-0.0012107044458389282,-0.00038433074951171875,0.018771547634163558,0.003499978361742296,-0.02414434519002484
0.009395506232976913,0.14771810173988342,9.733649253845215,0.0049344440922141075,0.005891948938369751,-0.007344245910644531,0.04906510412982294,0.003499978361742296,-0.012249997637270759
0.005470256321132183,0.14124424755573273,9.736742973327637,-0.009289948269724846,0.0013340115547180176,0.0070247650146484375,-0.010281248969867474,0.003499978361742296,-0.012249997637270759
0.005618481431156397,0.14121975004673004,9.739418983459473,-0.004437577910721302,0.00370672345161438,-0.007065773010253906,0.03355958753811552,0.003499978361742296,-0.012249997637270759
0.013935800641775131,0.14326198399066925,9.739770889282227,0.004998126532882452,-0.0009718090295791626,0.0000476837158203125,-0.010281248969867474,0.003499978361742296,-0.012249997637270759
0.009474900551140308,0.14625543355941772,9.74234390258789,0.002278928179293871,0.003722444176673889,0.0023097991943359375,0.04834577315242953,0.003499978361742296,-0.012249997637270759
0.009474900551140308,0.14625543355941772,9.74234390258789,0.002278928179293871,0.003722444176673889,0.0023097991943359375,0.04834577315242953,0.003499978361742296,-0.012249997637270759
0.01495716255158186,0.14487780630588531,9.745695114135742,0.009083747863769531,-0.0008459687232971191,0.006710052490234375,-0.010281248969867474,0.003499978361742296,-0.012249997637270759
0.0174809992313385,0.1470935195684433,9.740137100219727,0.013576103374361992,0.001495450735092163,-0.000705718994140625,-0.010281248969867474,0.003499978361742296,-0.012249997637270759
0.0054252492263913155,0.14493243396282196,9.7381010055542,0.0017231237143278122,0.0013560503721237183,-0.0030546188354492188,0.05971869179094867,0.003499978361742296,-0.012249997637270759
0.013112486340105534,0.14777769148349762,9.734230041503906,-0.0009892098605632782,0.0035305023193359375,-0.0028209686279296875,0.004713657620528605,-0.05150505580867777,-0.012249997637270759
0.0056032403372228146,0.14776304364204407,9.73412036895752,0.0037300409749150276,-0.0035488903522491455,-0.002666473388671875,0.023120964072860076,0.003499978361742296,-0.012249997637270759
0.007448148913681507,0.1470935195684433,9.737129211425781,-0.003251614049077034,0.0010279268026351929,-0.0024538040161132812,0.059508930278235235,0.003499978361742296,-0.012249997637270759
0.004845833405852318,0.1487741619348526,9.737060546875,-0.005583526566624641,0.0007848441600799561,-0.00238037109375,0.05971869179094867,0.003499978361742296,-0.012249997637270759
0.004845833405852318,0.1487741619348526,9.737060546875,-0.005583526566624641,0.0007848441600799561,-0.00238037109375,0.05971869179094867,0.003499978361742296,-0.012249997637270759
0.006549118086695671,0.14962580800056458,9.736078262329102,-0.001000529620796442,0.002799808979034424,-0.0023775100708007812,0.026738776537998315,0.003499978361742296,0.020729917615679598
0.013752891682088375,0.1406099647283554,9.735939979553223,0.008419455960392952,-0.006545811891555786,-0.002246856689453125,0.04514992497173792,0.058931152303347695,-0.012249997637270759
0.006534893065690994,0.1452237069606781,9.742597579956055,-0.0034742895513772964,-0.006413713097572327,0.009449958801269531,-0.010281248969867474,0.003499978361742296,-0.012249997637270759
-0.002338477410376072,0.14288440346717834,9.745323181152344,0.0017292737029492855,0.003021642565727234,0.004469871520996094,-0.010281248969867474,0.051260396298173805,-0.012249997637270759
0.011060953140258789,0.14395025372505188,9.740653991699219,0.004189036786556244,0.0007545799016952515,-0.0028209686279296875,-0.010281248969867474,0.014788066584378408,0.028394016854455372
0.003368635894730687,0.14085325598716736,9.731073379516602,-0.005342395976185799,-0.006216034293174744,-0.012169837951660156,-0.002824156489774657,-0.05158577743888822,-0.012249997637270759
0.003368635894730687,0.14085325598716736,9.731073379516602,-0.005342395976185799,-0.006216034293174744,-0.012169837951660156,-0.002824156489774657,-0.05158577743888822,-0.012249997637270759
0.003878660500049591,0.14116205275058746,9.736565589904785,-0.0027305972762405872,-0.005907982587814331,-0.0025157928466796875,-0.010281248969867474,0.04764343760668181,0.031893448267455535
0.012187217362225056,0.14533333480358124,9.74903678894043,0.006632989272475243,-0.0012666136026382446,0.011460304260253906,0.015451128542398553,-0.040767584886807824,-0.012249997637270759
0.0048249466344714165,0.14703676104545593,9.737330436706543,-0.0028352877125144005,-0.003862321376800537,-0.005265235900878906,-0.002948073730400142,0.003499978361742296,-0.012249997637270759
0.0070909736678004265,0.14160823822021484,9.738333702087402,0.001811106689274311,0.0034935176372528076,-0.00045108795166015625,0.0007959504920378825,0.003499978361742296,-0.012249997637270759
0.010370202362537384,0.14469940960407257,9.732913970947266,-0.009917670860886574,-0.001299545168876648,0.0020952224731445312,0.030238874961659615,0.014540285463980328,-0.012249997637270759
0.005258205346763134,0.1444457769393921,9.742051124572754,0.00891021266579628,0.0010234713554382324,0.0022401809692382812,0.011834009768347893,-0.0001541728442145261,-0.012249997637270759
0.018553877249360085,0.14161081612110138,9.739338874816895,0.013602939434349537,-0.0036342889070510864,0.0020532608032226562,0.004412082090310063,-0.03711330027871878,-0.012249997637270759
0.018553877249360085,0.14161081612110138,9.739338874816895,0.013602939434349537,-0.0036342889070510864,0.0020532608032226562,0.004412082090310063,-0.03711330027871878,-0.012249997637270759
0.022901758551597595,0.13344217836856842,9.735810279846191,0.015390818938612938,-0.012756705284118652,-0.002582550048828125,0.022822716925840595,0.003499978361742296,-0.012249997637270759
0.003606158308684826,0.14808617532253265,9.747618675231934,-0.008476503193378448,-0.0012099146842956543,0.013982772827148438,0.008215470261589019,0.02199669092309218,-0.012249997637270759
0.012255031615495682,0.13872307538986206,9.738333702087402,0.003249451983720064,-0.003291502594947815,-0.00035953521728515625,-0.010195751543323311,0.003499978361742296,-0.012249997637270759
0.006331645883619785,0.13763490319252014,9.743239402770996,0.0008169142529368401,-0.0031869709491729736,0.008907318115234375,0.05971869179094867,0.05518466014146347,-0.012249997637270759
0.010043681599199772,0.14332258701324463,9.734233856201172,0.005503528751432896,-0.005397424101829529,-0.003086090087890625,0.022996713326904027,-0.033222000102302356,-0.012249997637270759
-0.0017443150281906128,0.14948762953281403,9.739409446716309,-0.006295132916420698,0.00411146879196167,-0.0005245208740234375,-0.010281248969867474,0.003499978361742296,-0.012249997637270759
0.00732684088870883,0.1503809690475464,9.746570587158203,0.0012379935942590237,0.003918349742889404,0.00875091552734375,-0.010281248969867474,0.003499978361742296,-0.012249997637270759
0.00732684088870883,0.1503809690475464,9.746570587158203,0.0012379935942590237,0.003918349742889404,0.00875091552734375,-0.010281248969867474,0.003499978361742296,-0.012249997637270759
0.012541874311864376,0.15206433832645416,9.727458953857422,0.005811961833387613,0.005934074521064758,-0.012483596801757812,-0.010281248969867474,-0.06649996239907385,-0.012249997637270759
0.006956767290830612,0.1439298838376999,9.73837661743164,0.006022314541041851,-0.0037588775157928467,-0.0029382705688476562,0.05971869179094867,0.003499978361742296,-0.012249997637270759
0.005783533677458763,0.14804595708847046,9.749326705932617,0.001415227074176073,0.003224790096282959,0.015585899353027344,0.05971869179094867,0.066349244670084,-0.012249997637270759
0.01136752963066101,0.14439283311367035,9.730290412902832,0.00593976303935051,-0.0038165301084518433,0.0014791488647460938,0.034159403545246936,0.003499978361742296,-0.012249997637270759
0.011583034880459309,0.1413692981004715,9.735417366027832,0.001035346183925867,-0.005967572331428528,-0.0006055831909179688,-0.010281248969867474,0.003499978361742296,-0.012249997637270759
0.011583034880459309,0.1413692981004715,9.735417366027832,0.001035346183925867,-0.005967572331428528,-0.0006055831909179688,-0.010281248969867474,0.003499978361742296,-0.012249997637270759
0.014192154631018639,0.14856770634651184,9.736030578613281,0.007843641564249992,0.0058568865060806274,-0.005096435546875,0.0004955155500498802,0.003499978361742296,-0.012249997637270759
0.008268499746918678,0.1399112194776535,9.751105308532715,0.0005719764158129692,-0.005811229348182678,0.013609886169433594,-0.010281248969867474,0.003499978361742296,-0.012249997637270759
0.005842259619385004,0.14187481999397278,9.737472534179688,-0.0016461359336972237,-0.0032410919666290283,-0.000583648681640625,0.037305986318507185,0.003499978361742296,-0.012249997637270759
0.005212920252233744,0.1404600888490677,9.745004653930664,-0.0014797891490161419,-0.0005098432302474976,0.011086463928222656,-0.010281248969867474,0.003499978361742296,-0.012249997637270759
0.0072574615478515625,0.14878292381763458,9.74213695526123,-0.0037794476374983788,0.0017485171556472778,0.006083488464355469,-0.010281248969867474,0.003499978361742296,-0.012249997637270759
0.013455048203468323,0.14525362849235535,9.739996910095215,0.005620194599032402,0.0016848444938659668,0.005879402160644531,-0.010281248969867474,0.003499978361742296,-0.012249997637270759
0.014665376394987106,0.14827729761600494,9.740727424621582,0.00532382819801569,0.003905937075614929,0.0010967254638671875,-0.010281248969867474,0.003499978361742296,-0.012249997637270759
0.006202553398907185,0.14897684752941132,9.749723434448242,-0.004331342875957489,0.006116315722465515,0.010347366333007812,-0.010281248969867474,0.003499978361742296,-0.012249997637270759
0.006202553398907185,0.14897684752941132,9.749723434448242,-0.004331342875957489,0.006116315722465515,0.010347366333007812,-0.010281248969867474,0.003499978361742296,-0.012249997637270759
0.0017279712483286858,0.1610199511051178,9.743218421936035,-0.006668758578598499,0.01544700562953949,0.00286102294921875,-0.010281248969867474,0.003499978361742296,-0.012249997637270759
0.005594759248197079,0.1440214216709137,9.739371299743652,-0.0017013764008879662,-0.001143038272857666,0.0005712509155273438,-0.010281248969867474,0.003499978361742296,-0.012249997637270759
0.00780145637691021,0.1460070163011551,9.739419937133789,-0.0040535470470786095,-0.0011129528284072876,0.0006046295166015625,-0.010281248969867474,0.003499978361742296,-0.012249997637270759
0.015504340641200542,0.1511920839548111,9.747737884521484,0.0027316538617014885,-0.0031535178422927856,0.0050334930419921875,-0.010281248969867474,-0.044865138099860126,-0.012249997637270759
0.00466888677328825,0.14547796547412872,9.73355770111084,-0.006957178004086018,-0.007970362901687622,-0.0022878646850585938,0.019678068483497634,0.003499978361742296,-0.012249997637270759
0.0058042136952281,0.14326807856559753,9.747910499572754,-0.004366236738860607,-0.003169700503349304,0.007342338562011719,-0.010281248969867474,0.003499978361742296,-0.012249997637270759
0.0058042136952281,0.14326807856559753,9.747910499572754,-0.004366236738860607,-0.003169700503349304,0.007342338562011719,-0.010281248969867474,0.003499978361742296,-0.012249997637270759
0.006605902686715126,0.14536571502685547,9.746516227722168,-0.002025175839662552,-0.0008119791746139526,0.004614830017089844,0.03445927819827958,-0.021759435230926792,-0.012249997637270759
0.006568899843841791,0.14319375157356262,9.742208480834961,-0.0020783785730600357,-0.003300189971923828,-0.0004863739013671875,0.03337732020485403,-0.022841393224352347,-0.012249997637270759
0.0029528674203902483,0.13735787570476532,9.741270065307617,-0.004154356196522713,-0.012570247054100037,0.0019330978393554688,0.05178849531902008,0.05763952617870126,-0.012249997637270759
0.004001321736723185,0.13763979077339172,9.748381614685059,0.0008045881986618042,-0.002711683511734009,-0.0054759979248046875,0.049248812206112484,-0.006969901223093891,-0.012249997637270759
0.001064466079697013,0.1514616161584854,9.741567611694336,-0.008455420844256878,0.004168227314949036,0.004009246826171875,0.03084098548546533,0.003499978361742296,-0.012249997637270759
0.00820748507976532,0.13932107388973236,9.746106147766113,-0.005720843095332384,-0.0008557885885238647,-0.000736236572265625,0.05971869179094867,-0.021066411154008508,-0.012249997637270759
0.004842779133468866,0.14087532460689545,9.746946334838867,-0.00106873270124197,-0.002845674753189087,0.0037021636962890625,-0.010281248969867474,-0.038308623404110675,0.0436542736260638
0.004842779133468866,0.14087532460689545,9.746946334838867,-0.00106873270124197,-0.002845674753189087,0.0037021636962890625,-0.010281248969867474,-0.038308623404110675,0.0436542736260638
0.00858116801828146,0.14469940960407257,9.747910499572754,0.0013472186401486397,-0.0003086477518081665,0.00569915771484375,0.022213402686894635,-0.034005310742311744,-0.012249997637270759
0.006272748112678528,0.1409991830587387,9.747910499572754,-0.0009780148975551128,-0.005025818943977356,0.005389213562011719,0.008812925050980016,0.003499978361742296,-0.012249997637270759
0.011013522744178772,0.14944018423557281,9.746689796447754,0.0011127912439405918,0.0018301457166671753,0.0027685165405273438,-0.00958623720117901,-0.06580495063038538,-0.012249997637270759
0.006464000791311264,0.1471317708492279,9.738333702087402,0.0104384059086442,0.004024982452392578,-0.004172325134277344,0.0074333268902366115,0.003499978361742296,-0.012249997637270759
0.005605045706033707,0.1460348218679428,9.73393726348877,-0.0036563025787472725,0.0036823153495788574,-0.013251304626464844,0.02360047803714935,0.03738171870897235,-0.012249997637270759
0.008666850626468658,0.14300130307674408,9.738533973693848,0.0011460552923381329,-0.007995977997779846,-0.0010824203491210938,-0.010281248969867474,0.003499978361742296,-0.012249997637270759
0.016784129664301872,0.14615853130817413,9.742597579956055,0.00807759165763855,0.001461327075958252,-0.0008935928344726562,-0.010281248969867474,0.003499978361742296,-0.012249997637270759
0.016784129664301872,0.14615853130817413,9.742597579956055,0.00807759165763855,0.001461327075958252,-0.0008935928344726562,-0.010281248969867474,0.003499978361742296,-0.012249997637270759
0.011709658429026604,0.13784146308898926,9.745841026306152,0.002862105146050453,-0.007878720760345459,0.0035552978515625,0.019976902599898917,0.003499978361742296,-0.012249997637270759
0.005442033521831036,0.1398915946483612,9.742350578308105,-0.0066582150757312775,-0.007608935236930847,0.0036191940307617188,-0.010281248969867474,0.003499978361742296,-0.012249997637270759
0.010087932460010052,0.14717040956020355,9.738333702087402,0.0004422347992658615,0.008784964680671692,-0.00336456298828125,0.053167286396863515,0.003499978361742296,-0.012249997637270759
0.011346850544214249,0.14173351228237152,9.758451461791992,0.005084725096821785,-0.008000627160072327,0.0060024261474609375,0.05971869179094867,0.003499978361742296,-0.012249997637270759
0.009793361648917198,0.14230529963970184,9.734460830688477,-0.004428038373589516,-0.0032232850790023804,-0.0062847137451171875,0.01635995724862015,0.003499978361742296,-0.012249997637270759
0.0031831504311412573,0.1470935195684433,9.744359016418457,-0.006868084892630577,0.0014216899871826172,0.008093833923339844,0.05971869179094867,-0.006666838259101021,-0.012249997637270759
0.0031831504311412573,0.1470935195684433,9.744359016418457,-0.006868084892630577,0.0014216899871826172,0.008093833923339844,0.05971869179094867,-0.006666838259101021,-0.012249997637270759
0.010621625930070877,0.1486089676618576,9.7337646484375,0.002700772136449814,0.0035925358533859253,-0.008189201354980469,0.03114111360254921,0.003499978361742296,-0.012249997637270759
0.0042882999405264854,0.14388012886047363,9.739908218383789,-0.0042891474440693855,-0.0009687542915344238,-0.0008220672607421875,-0.010281248969867474,0.003499978361742296,-0.012249997637270759
0.021899566054344177,0.14844834804534912,9.742806434631348,0.021366965025663376,0.003707021474838257,-0.0009069442749023438,-0.010281248969867474,0.003499978361742296,-0.012249997637270759
0.006054992321878672,0.14230529963970184,9.742178916931152,0.0024062776938080788,-0.0032527893781661987,0.0037984848022460938,-0.010281248969867474,0.05971190162241833,-0.012249997637270759
0.015849150717258453,0.13965143263339996,9.74179458618164,0.007007487118244171,0.0015480071306228638,0.0036554336547851562,-0.010281248969867474,0.003499978361742296,-0.012249997637270759
0.00989796407520771,0.14941948652267456,9.744353294372559,-0.00034933164715766907,0.0064092278480529785,0.001255035400390625,-0.010281248969867474,0.003499978361742296,-0.06285160084565568
0.00747575843706727,0.1399112194776535,9.740752220153809,-0.0027109291404485703,-0.0056373924016952515,-0.005856513977050781,0.05971869179094867,0.003499978361742296,-0.012249997637270759
0.00747575843706727,0.1399112194776535,9.740752220153809,-0.0027109291404485703,-0.0056373924016952515,-0.005856513977050781,0.05971869179094867,0.003499978361742296,-0.012249997637270759
0.013427247293293476,0.14227749407291412,9.745628356933594,0.004191570915281773,-0.00307677686214447,0.0032596588134765625,0.025531540602198564,-0.030687172827007815,-0.012249997637270759
0.005193568766117096,0.1457785964012146,9.744672775268555,-0.005096585489809513,0.0017791390419006348,-0.0018339157104492188,-0.010281248969867474,0.01927638132314948,-0.012249997637270759
0.004237710032612085,0.14323307573795319,9.743121147155762,-0.009590376168489456,0.0019077807664871216,0.0005292892456054688,-0.010281248969867474,0.006122957766012309,-0.012249997637270759
0.009998857975006104,0.147396981716156,9.743121147155762,-0.013902634382247925,0.006490603089332581,0.000629425048828125,-0.010281248969867474,0.003499978361742296,-0.012249997637270759
0.008616267703473568,0.14631234109401703,9.751816749572754,0.0050387149676680565,-0.0006863176822662354,0.016889572143554688,-0.010281248969867474,0.003499978361742296,-0.012249997637270759
0.0057167778722941875,0.14893163740634918,9.741582870483398,0.0003129672259092331,0.006301566958427429,0.0023221969604492188,-0.010281248969867474,0.003499978361742296,-0.012249997637270759
0.0057167778722941875,0.14893163740634918,9.741582870483398,0.0003129672259092331,0.006301566958427429,0.0023221969604492188,-0.010281248969867474,0.003499978361742296,-0.012249997637270759
0.005210681818425655,0.1358310729265213,9.751720428466797,-0.001824687235057354,-0.010110810399055481,0.007107734680175781,-0.010281248969867474,0.003499978361742296,-0.036898482825193944
0.003327394835650921,0.13779273629188538,9.740814208984375,-0.003954793326556683,-0.007437556982040405,-0.005176544189453125,0.01665928495291067,-0.039559428476295705,-0.012249997637270759
0.009251030161976814,0.14496281743049622,9.7449312210083,0.003191559575498104,0.0045320987701416016,-0.0004949569702148438,0.051177126687237826,0.003499978361742296,0.040666812916123694
0.003878660500049591,0.14383985102176666,9.736245155334473,-0.0038716322742402554,-0.002537563443183899,-0.019087791442871094,-0.010281248969867474,0.003499978361742296,-0.02211890061642516
0.010661600157618523,0.1347256749868393,9.738335609436035,0.0008101193234324455,-0.00010345876216888428,0.0071735382080078125,-0.010281248969867474,0.016958039028032616,-0.012249997637270759
0.009359410032629967,0.14333419501781464,9.739362716674805,0.005367802456021309,0.0002576112747192383,-0.0021429061889648438,-0.010281248969867474,-0.04317602698203068,-0.012249997637270759
0.010138536803424358,0.1406470537185669,9.737048149108887,0.0007319590076804161,-0.0044228434562683105,-0.0019598007202148438,0.0032029318339128546,0.016984159165522626,-0.012249997637270759
0.010138536803424358,0.1406470537185669,9.737048149108887,0.0007319590076804161,-0.0044228434562683105,-0.0019598007202148438,0.0032029318339128546,0.016984159165522626,-0.012249997637270759
0.011167151853442192,0.144168421626091,9.752593040466309,0.0029047448188066483,0.0003310889005661011,0.010110855102539062,0.027823709398972527,0.009709954338606155,-0.012249997637270759
0.009713063016533852,0.13834190368652344,9.752175331115723,0.000256943516433239,-0.003986835479736328,0.009621620178222656,-0.010281248969867474,-0.04679409291122015,-0.012249997637270759
0.004942716099321842,0.14611810445785522,9.748974800109863,-0.006839443929493427,0.007793739438056946,0.0021142959594726562,0.05842402409768747,0.0022053106684810897,-0.012249997637270759
0.020497096702456474,0.14471694827079773,9.743191719055176,-0.006905822083353996,0.003002360463142395,0.009045600891113281,-0.010281248969867474,-0.013605630104959618,-0.012249997637270759
0.0029726531356573105,0.14754651486873627,9.743768692016602,0.0044968100264668465,-0.001720532774925232,0.0018253326416015625,-0.010281248969867474,-0.0309874210060107,-0.012249997637270759
0.007707963697612286,0.14836996793746948,9.74743366241455,0.00221126526594162,0.005086779594421387,-0.0028638839721679688,-0.00796137255023,-0.06418008597943638,-0.012249997637270759
0.004366711247712374,0.14132919907569885,9.74414348602295,-0.0047951508313417435,-0.002077922224998474,-0.0030946731567382812,-0.010281248969867474,-0.01723057958417199,-0.012249997637270759
0.004366711247712374,0.14132919907569885,9.74414348602295,-0.0047951508313417435,-0.002077922224998474,-0.0030946731567382812,-0.010281248969867474,-0.01723057958417199,-0.012249997637270759
0.013031290844082832,0.14878137409687042,9.743968963623047,0.004724787548184395,0.005180194973945618,-0.0010509490966796875,-0.010281248969867474,0.003499978361742296,-0.012249997637270759
0.014225946739315987,0.14153440296649933,9.740646362304688,0.004412820562720299,-0.0019066929817199707,-0.005710601806640625,0.002177836499348978,0.003499978361742296,-0.012249997637270759
0.0034722224809229374,0.13851094245910645,9.748090744018555,-0.0025848904624581337,-0.003968372941017151,0.010766029357910156,-0.004340972083726561,-0.06055968551293294,-0.012249997637270759
0.0014845579862594604,0.14017640054225922,9.745516777038574,-0.006634388118982315,-0.0016285479068756104,0.0009975433349609375,0.03536984113222013,0.003499978361742296,-0.012249997637270759
0.0068776244297623634,0.14319992065429688,9.750304222106934,-0.0039334651082754135,0.0007741004228591919,0.005599021911621094,-0.010281248969867474,0.003499978361742296,-0.012249997637270759
0.0038712332025170326,0.14600799977779388,9.748995780944824,-0.013146172277629375,0.00526466965675354,0.0006418228149414062,0.05971869179094867,0.003499978361742296,-0.012249997637270759
0.001725140493363142,0.1444588303565979,9.739295959472656,-0.0061428663320839405,0.00039277970790863037,-0.0066318511962890625,0.05971869179094867,0.003499978361742296,-0.012249997637270759
0.001725140493363142,0.1444588303565979,9.739295959472656,-0.0061428663320839405,0.00039277970790863037,-0.0066318511962890625,0.05971869179094867,0.003499978361742296,-0.012249997637270759
0.00989373680204153,0.14030028879642487,9.74991512298584,0.0034509114921092987,-0.004187136888504028,0.005110740661621094,-0.010281248969867474,0.003499978361742296,-0.012249997637270759
0.010042540729045868,0.13925006985664368,9.746587753295898,0.0035570524632930756,-0.0014687329530715942,0.0074825286865234375,-0.010281248969867474,0.07349991912255845,-0.012249997637270759
0.002665343228727579,0.14065733551979065,9.744770050048828,0.008418461307883263,-0.001402631402015686,-0.0020437240600585938,-0.010281248969867474,0.016685231667628787,-0.012249997637270759
0.003365876153111458,0.13461025059223175,9.7443208694458,-0.005545862019062042,-0.010841205716133118,-0.013825416564941406,0.05971869179094867,0.003499978361742296,-0.043838235166404574
0.00888572633266449,0.144918292760849,9.741978645324707,-0.0029675844125449657,-0.0035160481929779053,-0.004207611083984375,0.009726336120443607,0.003499978361742296,0.03774235803323431
0.017620837315917015,0.13708582520484924,9.746665000915527,0.010913481004536152,-0.010532692074775696,0.0029420852661132812,-0.010281248969867474,0.003499978361742296,-0.012249997637270759
0.017620837315917015,0.13708582520484924,9.746665000915527,0.010913481004536152,-0.010532692074775696,0.0029420852661132812,-0.010281248969867474,0.003499978361742296,-0.012249997637270759
0.015849150717258453,0.14471390843391418,9.755056381225586,0.00806418713182211,0.0010428428649902344,0.009896278381347656,0.05971869179094867,0.003499978361742296,-0.012249997637270759
0.013939516618847847,0.15172964334487915,9.745516777038574,0.007716833613812923,0.0103282630443573,0.0003032684326171875,-0.010281248969867474,-0.012889273995114863,-0.012249997637270759
0.00811405573040247,0.14018762111663818,9.741718292236328,0.01008578296750784,-0.008678629994392395,0.0004825592041015625,-0.010281248969867474,0.0014781623261391852,-0.012249997637270759
0.008797811344265938,0.1444374918937683,9.738595962524414,0.002710995264351368,-0.003774389624595642,-0.0019378662109375,0.010141276782628493,-0.046077429976471275,-0.012249997637270759
0.014328207820653915,0.14720620214939117,9.751065254211426,0.00274663046002388,-0.001337200403213501,0.007609367370605469,-0.010281248969867474,0.03467117414510865,0.026578747340179034
0.01044234074652195,0.14269094169139862,9.748143196105957,0.004917028360068798,0.0009018480777740479,-0.0020542144775390625,-0.010281248969867474,0.06786343891213766,-0.012249997637270759
0.01044234074652195,0.14269094169139862,9.748143196105957,0.004917028360068798,0.0009018480777740479,-0.0020542144775390625,-0.010281248969867474,0.06786343891213766,-0.012249997637270759
0.004253273364156485,0.14140968024730682,9.736689567565918,-0.004565225914120674,-0.0037523657083511353,-0.009244918823242188,0.0356716100955304,-0.020547103333675976,-0.012249997637270759
0.01269097626209259,0.14092998206615448,9.753564834594727,0.005048440769314766,-0.0037731975317001343,0.009753227233886719,-0.010281248969867474,0.04594621563921298,0.015303705846074702
0.003512064926326275,0.14355622231960297,9.745774269104004,-0.009120621718466282,0.0035130977630615234,-0.0022907257080078125,-0.010281248969867474,0.055214382136523604,-0.012249997637270759
0.00211784103885293,0.142552450299263,9.749176979064941,-0.008740358985960484,0.0034388750791549683,-0.0024213790893554688,0.05046183779445088,-0.005756875634755494,0.0484930891270476
0.005393077619373798,0.14835181832313538,9.75156307220459,0.0055185286328196526,-0.0014372318983078003,-0.00002384185791015625,-0.010281248969867474,0.04583485153923004,-0.012249997637270759
0.0072807795368134975,0.14495137333869934,9.74413013458252,0.0009375200606882572,0.007790178060531616,-0.00021648406982421875,-0.010281248969867474,-0.0186402932762656,0.011679836924133368
0.003878660500049591,0.14293715357780457,9.75345516204834,-0.0035848701372742653,-0.0041382163763046265,0.0068454742431640625,0.05971869179094867,0.016382302105768142,-0.012249997637270759
0.003878660500049591,0.14293715357780457,9.75345516204834,-0.0035848701372742653,-0.0041382163763046265,0.0068454742431640625,0.05971869179094867,0.016382302105768142,-0.012249997637270759
0.012946387752890587,0.14281396567821503,9.731659889221191,0.0059334211982786655,-0.0018104016780853271,-0.014542579650878906,-0.010281248969867474,0.003499978361742296,-0.012249997637270759
-0.0017961668781936169,0.14242367446422577,9.738836288452148,-0.01041160337626934,-0.004265278577804565,-0.007021903991699219,-0.010281248969867474,-0.025884936190680607,-0.012249997637270759
0.00727416854351759,0.1457008272409439,9.746648788452148,-0.0033474923111498356,-0.00193043053150177,0.000087738037109375,-0.010281248969867474,0.0015916208395980885,0.055841585601401185
0.013455048203468323,0.14659753441810608,9.744386672973633,0.005899184383451939,0.007453218102455139,0.0024747848510742188,-0.010281248969867474,-0.01300126508511927,-0.012249997637270759
0.01095026545226574,0.14105290174484253,9.741242408752441,-0.0033318400382995605,-0.006629914045333862,-0.009169578552246094,-0.010281248969867474,-0.031595374543207946,-0.012249997637270759
0.008432049304246902,0.14344365894794464,9.74539852142334,-0.0033964086323976517,-0.0018166601657867432,-0.0018777847290039062,-0.008563656496807608,0.003499978361742296,-0.012249997637270759
0.0011264511849731207,0.14057110249996185,9.746891975402832,-0.008114289492368698,-0.006515815854072571,0.00275421142578125,0.039601663591358714,0.003499978361742296,0.03763291492395543
0.0011264511849731207,0.14057110249996185,9.746891975402832,-0.008114289492368698,-0.006515815854072571,0.00275421142578125,0.039601663591358714,0.003499978361742296,0.03763291492395543
0.013213738799095154,0.14506137371063232,9.7499418258667,0.006048726383596659,0.0002491176128387451,0.005063056945800781,0.05971869179094867,0.003499978361742296,-0.012249997637270759
0.006878537125885487,0.14141115546226501,9.7513427734375,-0.003692558966577053,-0.004387587308883667,0.009634971618652344,-0.010281248969867474,-0.00957311043136789,-0.012249997637270759
0.007936842739582062,0.15188170969486237,9.744136810302734,0.005831634160131216,0.007199645042419434,0.0001201629638671875,-0.010281248969867474,-0.0018374276084392115,-0.012249997637270759
0.007005836348980665,0.14039994776248932,9.741216659545898,0.006065974477678537,0.000048533082008361816,0.00024318695068359375,-0.010281248969867474,0.04976122313620889,-0.012249997637270759
0.015202818438410759,0.13793587684631348,9.752470970153809,0.01048329658806324,-0.013977304100990295,0.002689361572265625,0.017574343538707262,0.04564432661398371,-0.012249997637270759
0.0035446439869701862,0.1399112194776535,9.741339683532715,-0.008572567254304886,-0.004192233085632324,-0.0023088455200195312,-0.010281248969867474,0.003499978361742296,-0.0032979941933376803
0.0035446439869701862,0.1399112194776535,9.741339683532715,-0.008572567254304886,-0.004192233085632324,-0.0023088455200195312,-0.010281248969867474,0.003499978361742296,-0.0032979941933376803
0.010016139596700668,0.1484428197145462,9.741250038146973,0.003442345652729273,0.005160927772521973,-0.004378318786621094,0.05971869179094867,0.07349991912255845,-0.012249997637270759
0.007562581449747086,0.14598925411701202,9.749567985534668,0.0010868832468986511,0.002733290195465088,0.0050449371337890625,0.03548060492260805,-0.020738108506598324,-0.03648808450561138
0.00607236847281456,0.14430074393749237,9.750304222106934,0.00362507626414299,-0.0022585541009902954,0.004772186279296875,0.05971869179094867,0.003499978361742296,-0.012249997637270759
0.0071328612975776196,0.13186880946159363,9.746469497680664,-0.003372165374457836,-0.008762180805206299,-0.007126808166503906,0.002291721899631007,0.060926954923166576,-0.012249997637270759
0.00486267264932394,0.14715944230556488,9.745516777038574,0.00154392933472991,0.012719646096229553,-0.0001392364501953125,0.028738234376240214,0.003499978361742296,-0.012249997637270759
0.003727393690496683,0.1421540528535843,9.744091987609863,-0.0006163655780255795,0.0007402598857879639,0.0021953582763671875,-0.010281248969867474,0.003499978361742296,-0.012249997637270759
0.009774787351489067,0.15538373589515686,9.73897647857666,0.004213429056107998,0.012388080358505249,-0.0070400238037109375,0.04352077811234443,0.003499978361742296,-0.012249997637270759
0.009774787351489067,0.15538373589515686,9.73897647857666,0.004213429056107998,0.012388080358505249,-0.0070400238037109375,0.04352077811234443,0.003499978361742296,-0.012249997637270759
0.003892436157912016,0.1589951068162918,9.743134498596191,-0.002859358210116625,0.014198467135429382,-0.0020647048950195312,-0.010281248969867474,0.003499978361742296,-0.012249997637270759
0.009829189628362656,0.13998064398765564,9.75085163116455,0.004338001366704702,-0.007280275225639343,0.007296562194824219,0.04272667523983789,0.02049199491285308,-0.012249997637270759
0.002633422613143921,0.14020034670829773,9.739675521850586,-0.00250759394839406,-0.01187095046043396,-0.009137153625488281,0.05831143269808804,0.07349991912255845,0.05634268403068476
-0.0005791331641376019,0.14447914063930511,9.745406150817871,-0.00005097081884741783,-0.00465819239616394,-0.0016546249389648438,-0.010281248969867474,0.003499978361742296,0.05774994312354539
0.006272748112678528,0.14469940960407257,9.74660587310791,0.00004934147000312805,0.000043958425521850586,-0.006281852722167969,-0.010281248969867474,0.009940366501388303,-0.012249997637270759
0.010380184277892113,0.1402553915977478,9.747910499572754,0.007145854644477367,-0.002361893653869629,0.0030508041381835938,-0.005248166613828382,-0.05140070866084996,-0.012249997637270759
0.013059426099061966,0.13512302935123444,9.748286247253418,0.007070924621075392,-0.009164884686470032,0.00055694580078125,0.03628658058488278,0.050067807916492554,-0.012249997637270759
0.013059426099061966,0.13512302935123444,9.748286247253418,0.007070924621075392,-0.009164884686470032,0.00055694580078125,0.03628658058488278,0.050067807916492554,-0.012249997637270759
0.004580756649374962,0.1372830718755722,9.744993209838867,-0.002655547112226486,-0.006303086876869202,-0.002254486083984375,-0.010281248969867474,-0.05202915276555725,-0.012249997637270759
0.003682680893689394,0.14489537477493286,9.74465274810791,-0.00003856699913740158,-0.001704782247543335,0.00019931793212890625,-0.0005233165544059477,-0.0469840975681508,-0.012249997637270759
0.005963383242487907,0.14320646226406097,9.747600555419922,-0.004741700831800699,0.0007452964782714844,-0.0022706985473632812,-0.06297659864355219,-0.049195371311942425,-0.012249997637270759
0.007345966063439846,0.13787485659122467,9.743836402893066,0.007104370277374983,-0.0036599040031433105,0.0023813247680664062,0.01677297024999436,-0.012391510619136962,-0.012249997637270759
0.0048659262247383595,0.1493394523859024,9.74129581451416,-0.00005906820297241211,-0.0011460930109024048,0.00005340576171875,-0.010281248969867474,0.02441844655111127,0.0332092068378218
0.014294230379164219,0.14793270826339722,9.743961334228516,0.009336922317743301,0.005608394742012024,0.00024509429931640625,-0.010281248969867474,0.09443138067960631,-0.012249997637270759
-0.00271237432025373,0.14679788053035736,9.741170883178711,-0.009762518107891083,0.0029159486293792725,-0.004291534423828125,0.05971869179094867,-0.027178083099634428,-0.012249997637270759
-0.00271237432025373,0.14679788053035736,9.741170883178711,-0.009762518107891083,0.0029159486293792725,-0.004291534423828125,0.05971869179094867,-0.027178083099634428,-0.012249997637270759
0.0043601347133517265,0.1480432003736496,9.744084358215332,-0.0024981964379549026,0.005137309432029724,-0.0019216537475585938,0.03879570126929721,0.059807871116342295,-0.012249997637270759
-0.002020636573433876,0.14615432918071747,9.7477388381958,-0.006703088525682688,0.004974007606506348,0.00031948089599609375,0.057206516197706246,0.07098774352931601,-0.012249997637270759
0.004098996054381132,0.13708385825157166,9.747689247131348,0.0050330557860434055,-0.0018612444400787354,-0.0044841766357421875,-0.010281248969867474,-0.1047231684179197,-0.012249997637270759
0.006878139451146126,0.1423327922821045,9.741966247558594,0.0025461604818701744,0.004932418465614319,0.007464408874511719,-0.010281248969867474,0.0749096061342256,-0.012249997637270759
0.004811521619558334,0.13867641985416412,9.746675491333008,-0.009042594581842422,-0.006684988737106323,0.00046062469482421875,-0.010281248969867474,0.1401938615621033,-0.011148002643584738
0.0004042480140924454,0.14230529963970184,9.747105598449707,-0.008994595147669315,-0.00191497802734375,0.00037384033203125,0.05971869179094867,-0.027474102431045724,0.05774994312354539
0.0004042480140924454,0.14230529963970184,9.747105598449707,-0.008994595147669315,-0.00191497802734375,0.00037384033203125,0.05971869179094867,-0.027474102431045724,0.05774994312354539
0.008866043761372566,0.1445998102426529,9.74351978302002,0.0025855223648250103,0.0005497485399246216,-0.0021696090698242188,-0.010281248969867474,-0.03441190710112584,0.02566188782559738
0.012932168319821358,0.14095698297023773,9.751033782958984,0.00972189661115408,-0.009128272533416748,0.0046749114990234375,0.003396044760524387,0.07349991912255845,-0.012249997637270759
0.005237250588834286,0.1470935195684433,9.752375602722168,-0.0020722243934869766,0.002499699592590332,0.009077072143554688,0.05971869179094867,0.07349991912255845,-0.012249997637270759
0.010837442241609097,0.14058175683021545,9.741397857666016,0.0025124461390078068,0.0024596303701400757,0.0018558502197265625,0.012849666902056724,0.003499978361742296,0.05774994312354539
0.004731597378849983,0.14401118457317352,9.752203941345215,0.00010204687714576721,0.002439931035041809,-0.0073604583740234375,-0.010281248969867474,0.031964738366917544,-0.012249997637270759
0.0020554810762405396,0.14948762953281403,9.747339248657227,-0.0021549570374190807,0.00479532778263092,-0.0005550384521484375,-0.010281248969867474,0.003499978361742296,-0.012249997637270759
0.0020554810762405396,0.14948762953281403,9.747339248657227,-0.0021549570374190807,0.00479532778263092,-0.0005550384521484375,-0.010281248969867474,0.003499978361742296,-0.012249997637270759
0.005289954133331776,0.14019347727298737,9.749739646911621,-0.0018960773013532162,-0.0047456324100494385,0.004000663757324219,-0.010281248969867474,0.003499978361742296,-0.012249997637270759
0.007662334479391575,0.13616521656513214,9.74346923828125,0.00022363848984241486,-0.009284436702728271,-0.003070831298828125,0.014561162897673825,0.003499978361742296,-0.012249997637270759
0.0014845579862594604,0.149392232298851,9.753233909606934,-0.004302977118641138,0.009575173258781433,0.0036945343017578125,0.053275088659916,0.003499978361742296,-0.012249997637270759
0.011848757043480873,0.13751710951328278,9.747879981994629,0.007212575059384108,-0.006757870316505432,0.005949974060058594,-0.010281248969867474,0.003499978361742296,-0.012249997637270759
0.012041770853102207,0.14375722408294678,9.75269889831543,0.00010319100692868233,-0.0041389018297195435,0.005690574645996094,-0.010281248969867474,-0.026869123761397135,0.02738084100040596
-0.00019459053874015808,0.14211247861385345,9.75011157989502,-0.00008489936590194702,0.000645861029624939,0.00537872314453125,0.03849217139784155,0.003499978361742296,-0.012249997637270759
0.003878660500049591,0.13671357929706573,9.74658203125,-0.002076147124171257,-0.010866060853004456,0.0005578994750976562,-0.010281248969867474,-0.03533702420769234,-0.012249997637270759
0.003878660500049591,0.13671357929706573,9.74658203125,-0.002076147124171257,-0.010866060853004456,0.0005578994750976562,-0.010281248969867474,-0.03533702420769234,-0.012249997637270759
0.015607872977852821,0.1446649432182312,9.745516777038574,0.009685506112873554,0.0009004175662994385,-0.0016689300537109375,0.025726481138021604,0.003499978361742296,0.021742213015656313
0.004488238599151373,0.14410457015037537,9.747315406799316,0.0004165894351899624,0.0008399039506912231,0.000751495361328125,0.04210993050212689,0.05589115783373667,-0.012249997637270759
0.010896661318838596,0.14491848647594452,9.740838050842285,0.01211102120578289,-0.008854031562805176,-0.010862350463867188,-0.010281248969867474,-0.06569784205842048,-0.012249997637270759
0.006272748112678528,0.15188170969486237,9.745695114135742,-0.00007781386375427246,0.007719054818153381,0.00344085693359375,0.05971869179094867,0.022702601645983575,-0.012249997637270759
0.010580083355307579,0.14398066699504852,9.746710777282715,-0.0023848935961723328,-0.0022012293338775635,-0.008254051208496094,0.02210965584866184,-0.10410899834136068,-0.012249997637270759
0.011363117955625057,0.13751710951328278,9.747910499572754,0.0067010740749537945,-0.006771445274353027,0.0011854171752929688,0.05088605657493214,-0.0009163392462659685,-0.012249997637270759
0.011363117955625057,0.13751710951328278,9.747910499572754,0.0067010740749537945,-0.006771445274353027,0.0011854171752929688,0.05088605657493214,-0.0009163392462659685,-0.012249997637270759
0.011373297311365604,0.14782223105430603,9.738750457763672,0.00647168280556798,0.005269661545753479,-0.008191108703613281,-0.010281248969867474,-0.02084615089348882,0.012096131617960356
0.008028019219636917,0.14209236204624176,9.742908477783203,0.0017936001531779766,-0.0018190592527389526,-0.0031518936157226562,0.03094458558135267,0.01595170670336644,-0.024701725978894903
0.0064064087346196175,0.144966721534729,9.749462127685547,-0.0030160555616021156,-0.004446089267730713,0.003875732421875,0.04935536048912204,0.05277325651890518,-0.012249997637270759
0.015849150717258453,0.14562156796455383,9.742377281188965,0.008472411893308163,0.0025751441717147827,-0.012564659118652344,0.05168249398475266,0.05742752351016641,0.11167748827196951
0.0031687915325164795,0.14436255395412445,9.754419326782227,0.005818522535264492,-0.0022969990968704224,0.004288673400878906,0.03327430707834848,0.02061114969735807,0.02197237171438723
0.00912840198725462,0.1413390338420868,9.752193450927734,-0.0011512464843690395,-0.004639238119125366,0.001598358154296875,0.014869388524183872,-0.01619868741097116,-0.05164732918269767
0.01584790088236332,0.1423046886920929,9.743123054504395,0.012755000963807106,0.0001266002655029297,-0.007992744445800781,0.04805723768063616,-0.043177040838235606,-0.04726554938672293
0.01584790088236332,0.1423046886920929,9.743123054504395,0.012755000963807106,0.0001266002655029297,-0.007992744445800781,0.04805723768063616,-0.043177040838235606,-0.04726554938672293
0.017398642376065254,0.1445304900407791,9.75647258758545,0.010345548391342163,0.00023478269577026367,0.010678291320800781,0.029658135459436637,0.07349991912255845,0.017810558694241276
0.012072883546352386,0.14617207646369934,9.741188049316406,0.005458212457597256,0.002646505832672119,-0.005812644958496094,-0.010281248969867474,-0.023442316469181244,0.05774994312354539
0.008880821987986565,0.14796960353851318,9.749661445617676,0.0029244106262922287,0.00007684528827667236,-0.003620147705078125,-0.010281248969867474,0.00037031097884840614,0.0546202757406515
0.0066434117034077644,0.14678969979286194,9.749259948730469,-0.006358938291668892,-0.004898771643638611,0.005763053894042969,0.04443866482334423,-0.011780048605862148,-0.012249997637270759
0.011060953140258789,0.14224889874458313,9.734658241271973,0.002941644750535488,0.004453524947166443,-0.0013418197631835938,0.023401722200344626,0.0371829495319544,-0.012249997637270759
0.003878660500049591,0.14345161616802216,9.75013542175293,-0.004190773703157902,-0.005029171705245972,-0.007861137390136719,0.05971869179094867,0.003499978361742296,-0.012249997637270759
0.0027770912274718285,0.1404619961977005,9.747719764709473,-0.003949674777686596,-0.004804402589797974,-0.001094818115234375,-0.06138613840250448,0.003499978361742296,-0.012249997637270759
0.0027770912274718285,0.1404619961977005,9.747719764709473,-0.003949674777686596,-0.004804402589797974,-0.001094818115234375,-0.06138613840250448,0.003499978361742296,-0.012249997637270759
-0.003224779851734638,0.14462055265903473,9.752778053283691,-0.010575275868177414,-0.000029593706130981445,0.0056915283203125,0.022412878895213383,0.003499978361742296,-0.012249997637270759
0.005295000970363617,0.14453043043613434,9.754653930664062,-0.0033264905214309692,0.004874750971794128,0.010165214538574219,0.04542351940472189,0.003499978361742296,0.043454770737318606
0.008666850626468658,0.14202390611171722,9.741783142089844,0.0013931477442383766,0.0001321732997894287,-0.0039033889770507812,-0.010281248969867474,0.003499978361742296,-0.012249997637270759
0.0034735482186079025,0.13313403725624084,9.745718955993652,-0.007852738723158836,-0.006567120552062988,0.0007724761962890625,0.012235243361446475,0.003499978361742296,-0.012249997637270759
0.009498924016952515,0.14626143872737885,9.747706413269043,0.004097660072147846,0.0009368956089019775,-0.008516311645507812,-0.010281248969867474,0.003499978361742296,-0.012249997637270759
0.01463763415813446,0.1369883120059967,9.741131782531738,0.015587344765663147,-0.008565306663513184,-0.008435249328613281,-0.002551695974914617,0.003499978361742296,-0.012249997637270759
0.012242935597896576,0.14291135966777802,9.743727684020996,0.006014806218445301,-0.0012103766202926636,-0.003513336181640625,-0.010281248969867474,0.003499978361742296,0.031609835334341335
0.012242935597896576,0.14291135966777802,9.743727684020996,0.006014806218445301,-0.0012103766202926636,-0.003513336181640625,-0.010281248969867474,0.003499978361742296,0.031609835334341335
0.010082157328724861,0.14502567052841187,9.754114151000977,0.0036278381012380123,0.0009783953428268433,0.008191108703613281,0.03425777427755099,0.003499978361742296,-0.012249997637270759
0.0014845579862594604,0.1471022367477417,9.750295639038086,-0.005722245201468468,0.00795796513557434,-0.0016298294067382812,-0.0032311330446656026,-0.003550137563459577,-0.012249997637270759
0.0007729260250926018,0.152658149600029,9.744739532470703,0.006433103699237108,0.0051620155572891235,0.0008516311645507812,0.0010684576976442016,-0.00784972830576938,0.046400236456033715
0.009710447862744331,0.14469940960407257,9.744921684265137,-0.002896514255553484,0.0005148500204086304,0.00591278076171875,-0.010281248969867474,0.003499978361742296,0.027992609838584894
0.0030339928343892097,0.1433848887681961,9.74204158782959,-0.007575482130050659,0.0005187839269638062,-0.005791664123535156,-0.010281248969867474,0.003499978361742296,-0.012249997637270759
0.012430799193680286,0.139571875333786,9.751335144042969,0.004184003919363022,-0.006506726145744324,0.0014467239379882812,0.044744089005077516,-0.0515253596132027,-0.012249997637270759
0.0013176891952753067,0.13295140862464905,9.743566513061523,-0.005473385564982891,-0.010967284440994263,-0.003612518310546875,-0.010281248969867474,0.003499978361742296,-0.012249997637270759
0.0013176891952753067,0.13295140862464905,9.743566513061523,-0.005473385564982891,-0.010967284440994263,-0.003612518310546875,-0.010281248969867474,0.003499978361742296,-0.012249997637270759
0.005222725681960583,0.14412538707256317,9.747713088989258,0.002014726400375366,0.00104503333568573,-0.003931999206542969,-0.010281248969867474,0.003499978361742296,-0.012249997637270759
0.007476122584193945,0.13631375133991241,9.73949909210205,-0.00041332049295306206,-0.005812168121337891,-0.0011272430419921875,0.05953551732318804,0.003499978361742296,0.05756676865578476
-0.0007729972712695599,0.14463113248348236,9.745448112487793,-0.0025790794752538204,-0.0012840330600738525,-0.0035219192504882812,0.0411261164573806,0.003499978361742296,-0.012249997637270759
0.006970466114580631,0.13642263412475586,9.748908996582031,0.002247147262096405,-0.015211805701255798,-0.001064300537109375,0.026714844195476827,0.003499978361742296,0.024746095528073542
0.008666850626468658,0.14230529963970184,9.749002456665039,0.00220021465793252,-0.0009230524301528931,-0.008116722106933594,0.05971869179094867,0.003499978361742296,-0.012249997637270759
0.0025661741383373737,0.14186780154705048,9.745516777038574,-0.0025655776262283325,-0.0009513497352600098,-0.0013341903686523438,0.03751093201424723,0.003499978361742296,0.009957762139430679
0.0025661741383373737,0.14186780154705048,9.745516777038574,-0.0025655776262283325,-0.0009513497352600098,-0.0013341903686523438,0.03751093201424723,0.003499978361742296,0.009957762139430679
0.012109935283660889,0.13770927488803864,9.736708641052246,0.0069812024012207985,-0.005457550287246704,-0.010571479797363281,-0.010281248969867474,-0.037118462941235955,0.01713150182056714
0.0030571925453841686,0.14230529963970184,9.740656852722168,-0.002378432545810938,-0.0006004869937896729,-0.0030107498168945312,-0.010281248969867474,0.003499978361742296,0.04676727908264256
0.012439022772014141,0.14520741999149323,9.744500160217285,0.011599663645029068,-0.0006647408008575439,0.0042018890380859375,-0.010281248969867474,0.003499978361742296,-0.012249997637270759
-0.001408587209880352,0.13638639450073242,9.747145652770996,0.004316192120313644,0.0018607228994369507,-0.01891613006591797,-0.010281248969867474,0.003499978361742296,-0.012249997637270759
0.007218117360025644,0.14135994017124176,9.738211631774902,0.0021515716798603535,-0.0027167052030563354,0.007079124450683594,-0.010281248969867474,0.003499978361742296,-0.012249997637270759
-0.0009735214989632368,0.1399751901626587,9.750112533569336,-0.004872922785580158,-0.004927992820739746,0.011992454528808594,-0.010281248969867474,0.003499978361742296,-0.012249997637270759
-0.0009735214989632368,0.1399751901626587,9.750112533569336,-0.004872922785580158,-0.004927992820739746,0.011992454528808594,-0.010281248969867474,0.003499978361742296,-0.012249997637270759
0.013644780032336712,0.14891843497753143,9.747910499572754,0.007124850992113352,0.0065991878509521484,0.0026102066040039062,0.05971869179094867,-0.03704723954284006,0.017202725218963034
0.008031045086681843,0.1481689065694809,9.747910499572754,-0.00008237781003117561,0.006463780999183655,0.0024671554565429688,-0.010281248969867474,0.07349991912255845,-0.012249997637270759
0.005761284381151199,0.1433744877576828,9.747910499572754,-0.004850846249610186,-0.0008227676153182983,0.0023326873779296875,-0.006543581359030058,0.003499978361742296,-0.012249997637270759
0.00488167442381382,0.13682158291339874,9.752002716064453,-0.0045965625904500484,-0.007598936557769775,0.004403114318847656,0.0043812195070193904,0.05883745064567158,-0.012249997637270759
0.006413002964109182,0.13681340217590332,9.73819351196289,-0.006984108127653599,-0.00016772747039794922,-0.00029850006103515625,-0.010281248969867474,0.003499978361742296,0.02081953716810957
0.011052580550312996,0.14711862802505493,9.751481056213379,0.007116985972970724,-0.002479046583175659,0.011615753173828125,0.008243397997970702,0.003499978361742296,-0.012249997637270759
0.009346033446490765,0.136481374502182,9.747910499572754,0.0045403288677334785,-0.0026990175247192383,0.0019922256469726562,-0.010281248969867474,0.003499978361742296,-0.012249997637270759
0.009346033446490765,0.136481374502182,9.747910499572754,0.0045403288677334785,-0.0026990175247192383,0.0019922256469726562,-0.010281248969867474,0.003499978361742296,-0.012249997637270759
0.0202337633818388,0.1442381739616394,9.740900039672852,0.013807468116283417,0.0023050457239151,-0.0050983428955078125,0.05971869179094867,0.003499978361742296,-0.012249997637270759
0.010373645462095737,0.1409536451101303,9.745848655700684,0.004077077843248844,-0.005012333393096924,0.0021648406982421875,0.004622303840379684,0.003499978361742296,-0.027153550447517917
0.007589404936879873,0.14362196624279022,9.757965087890625,-0.0008363798260688782,-0.00046341121196746826,0.006317138671875,0.05971869179094867,0.003499978361742296,-0.015745547048223126
0.008122183382511139,0.14673040807247162,9.748273849487305,-0.005581773817539215,-0.0005998462438583374,0.0057773590087890625,0.011623247739642753,-0.018404518347767934,-0.012249997637270759
0.011910812929272652,0.14466054737567902,9.75103759765625,0.010834756307303905,-0.0029917359352111816,-0.0037221908569335938,-0.010281248969867474,0.04380841978985188,-0.012249997637270759
0.005319204647094011,0.14230529963970184,9.7435884475708,-0.0011266670189797878,-0.0006620883941650391,-0.006168365478515625,-0.010281248969867474,0.003499978361742296,-0.012249997637270759
0.005319204647094011,0.14230529963970184,9.7435884475708,-0.0011266670189797878,-0.0006620883941650391,-0.006168365478515625,-0.010281248969867474,0.003499978361742296,-0.012249997637270759
0.010412506759166718,0.13816554844379425,9.737885475158691,0.0036664269864559174,-0.005356833338737488,-0.010678291320800781,0.01523856558490835,0.003499978361742296,-0.012249997637270759
0.006272748112678528,0.14230529963970184,9.744037628173828,-0.0010503926314413548,-0.0006132423877716064,-0.003498077392578125,0.033649260451398384,0.003499978361742296,0.0316805117839951
0.011995701119303703,0.14627321064472198,9.742597579956055,0.0035862596705555916,0.008784323930740356,-0.0056972503662109375,0.05204804250748057,0.06582926983909033,-0.004579348353802651
0.0056334673427045345,0.1399112194776535,9.754262924194336,0.005987520795315504,-0.0030905455350875854,0.00586700439453125,-0.010281248969867474,0.003499978361742296,-0.0015105923844835232
-0.002693934366106987,0.1418761909008026,9.755950927734375,0.0037114922888576984,-0.003018319606781006,0.012593269348144531,0.018860340093373725,0.003499978361742296,-0.012249997637270759
0.0025432026013731956,0.1406930387020111,9.754310607910156,-0.002904115244746208,0.0017697960138320923,0.0027217864990234375,-0.010281248969867474,0.07349991912255845,0.05774994312354539
0.006272748112678528,0.14230529963970184,9.748891830444336,-0.0003412659280002117,-0.00042866170406341553,0.0023794174194335938,-0.010281248969867474,0.003499978361742296,-0.012249997637270759
0.006272748112678528,0.14230529963970184,9.748891830444336,-0.0003412659280002117,-0.00042866170406341553,0.0023794174194335938,-0.010281248969867474,0.003499978361742296,-0.012249997637270759
0.018090330064296722,0.1355053335428238,9.745746612548828,0.011326950043439865,-0.007355809211730957,-0.0022764205932617188,-0.010281248969867474,0.003499978361742296,-0.012249997637270759
0.00609003147110343,0.14156974852085114,9.75085735321045,-0.0031183315441012383,-0.0025887787342071533,0.0023088455200195312,-0.010281248969867474,0.003499978361742296,-0.012249997637270759
0.011090165004134178,0.1398235708475113,9.755122184753418,0.006243468727916479,-0.009591490030288696,0.009099960327148438,-0.010281248969867474,0.003499978361742296,-0.011824017948644105
0.006319988518953323,0.14474664628505707,9.759833335876465,0.0017103273421525955,0.004673078656196594,0.008925437927246094,-0.010281248969867474,0.003499978361742296,0.005724458916624378
0.0025251959450542927,0.138506680727005,9.74104118347168,-0.00761759327724576,0.004513874650001526,-0.00093841552734375,-0.010281248969867474,0.003499978361742296,-0.012249997637270759
0.014761175028979778,0.14339327812194824,9.749435424804688,0.008973492309451103,-0.000141143798828125,0.004027366638183594,-0.007093438267642529,0.003499978361742296,0.054562139091427056
0.017326511442661285,0.14719577133655548,9.751884460449219,0.008973492309451103,-0.000141143798828125,0.004027366638183594,0.03812032629447253,0.003499978361742296,-0.012249997637270759
0.017326511442661285,0.14719577133655548,9.751884460449219,0.01088568102568388,0.006705820560455322,0.006328582763671875,0.03812032629447253,0.003499978361742296,-0.012249997637270759
0.006785521749407053,0.14863300323486328,9.745003700256348,-0.0010967436246573925,0.006582781672477722,-0.0028743743896484375,0.019721544238390353,0.03350278491021334,-0.012249997637270759
0.005472197663038969,0.1423204392194748,9.742328643798828,-0.0009621237404644489,-0.005667388439178467,-0.007370948791503906,0.05971869179094867,0.003499978361742296,-0.0006580727182748614
0.00913260132074356,0.14566358923912048,9.747878074645996,-0.0010287915356457233,0.003680676221847534,-0.007289886474609375,-0.003473738162333282,0.003499978361742296,0.05774994312354539
0.013749863021075726,0.1368919163942337,9.743380546569824,0.008001078851521015,0.005536824464797974,0.01354217529296875,0.05971869179094867,-0.041284398087267714,-0.012249997637270759
0.008666850626468658,0.14910899102687836,9.745516777038574,0.0006561391055583954,0.000887259840965271,-0.0029087066650390625,-0.010281248969867474,-0.040120304401030114,-0.012249997637270759
-0.0056977421045303345,0.1463799923658371,9.743375778198242,-0.013333875685930252,0.0005688220262527466,-0.009730339050292969,0.00015091116208158057,0.003499978361742296,-0.012249997637270759
0.006483712699264288,0.14469940960407257,9.75269889831543,-0.000953911803662777,0.00044049322605133057,0.0043811798095703125,-0.010281248969867474,0.003499978361742296,-0.012249997637270759
0.006483712699264288,0.14469940960407257,9.75269889831543,-0.000953911803662777,0.00044049322605133057,0.0043811798095703125,-0.010281248969867474,0.003499978361742296,-0.012249997637270759
0.010642273351550102,0.14469940960407257,9.754673957824707,0.0037004193291068077,0.0004485100507736206,0.0064678192138671875,-0.010281248969867474,0.003499978361742296,-0.012249997637270759
0.005974668078124523,0.1499394327402115,9.747458457946777,-0.0034089135006070137,0.00013281404972076416,0.004174232482910156,-0.010281248969867474,0.003499978361742296,-0.012249997637270759
0.012510971166193485,0.1470935195684433,9.747666358947754,-0.008253765292465687,0.002309545874595642,0.004141807556152344,-0.010281248969867474,0.003499978361742296,-0.012249997637270759
0.008124490268528461,0.1470935195684433,9.742578506469727,-0.0010028989054262638,0.002473875880241394,-0.007724761962890625,0.02217172786078698,0.003499978361742296,-0.012249997637270759
0.002757068956270814,0.14587131142616272,9.751425743103027,-0.00798548199236393,0.002151474356651306,0.006603240966796875,0.008861630169456026,0.003499978361742296,0.05774994312354539
0.008666850626468658,0.14531496167182922,9.740750312805176,0.0015799370594322681,0.0020193159580230713,-0.0052013397216796875,0.04205368816318007,0.003499978361742296,-0.012249997637270759
0.011024161241948605,0.13519661128520966,9.759476661682129,0.003832513000816107,-0.009611204266548157,0.011637687683105469,0.025794316122258937,0.003499978361742296,-0.012249997637270759
0.011024161241948605,0.13519661128520966,9.759476661682129,0.003832513000816107,-0.009611204266548157,0.011637687683105469,0.025794316122258937,0.003499978361742296,-0.012249997637270759
0.009332938119769096,0.14842569828033447,9.742330551147461,0.001306483056396246,0.00202178955078125,-0.009753227233886719,0.005244271271567359,0.003499978361742296,-0.012249997637270759
0.016947567462921143,0.1410096287727356,9.743121147155762,0.010362880304455757,-0.00251808762550354,-0.004693031311035156,-0.007396141045878387,0.003499978361742296,-0.012249997637270759
0.0019659819081425667,0.14693304896354675,9.74040699005127,0.0006256094202399254,0.00010891258716583252,-0.011547088623046875,-0.010281248969867474,0.003499978361742296,-0.012249997637270759
0.011947624385356903,0.1398870348930359,9.744726181030273,-0.013170374557375908,0.00007052719593048096,-0.004061698913574219,-0.010281248969867474,0.003499978361742296,0.01805829979399969
0.010000713169574738,0.14372466504573822,9.742677688598633,0.007796606048941612,0.0002929270267486572,-0.006230354309082031,-0.010281248969867474,0.003499978361742296,0.05774994312354539
0.0004709594650194049,0.14435428380966187,9.747587203979492,-0.00863698311150074,0.0002626776695251465,-0.0013599395751953125,0.034809392094308854,-0.04159066270243403,0.03284064342690557
0.0004709594650194049,0.14435428380966187,9.747587203979492,-0.00863698311150074,0.0002626776695251465,-0.0013599395751953125,0.034809392094308854,-0.04159066270243403,0.03284064342690557
-0.0018828008323907852,0.14652517437934875,9.745110511779785,-0.010740119963884354,0.002453729510307312,-0.003998756408691406,0.05971869179094867,0.003499978361742296,0.03105807077523802
0.010494427755475044,0.14674624800682068,9.751564979553223,0.0010451851412653923,0.004808366298675537,0.00048828125,-0.010281248969867474,0.003499978361742296,-0.012249997637270759
0.0016432860866189003,0.14060340821743011,9.74705982208252,-0.0010695401579141617,-0.006866961717605591,-0.001865386962890625,-0.010281248969867474,0.003499978361742296,-0.012249997637270759
0.009428729303181171,0.14031927287578583,9.751174926757812,-0.005654616747051477,-0.0022164732217788696,0.019123077392578125,0.03119246008324331,0.003499978361742296,-0.012249997637270759
0.013774207793176174,0.14845015108585358,9.752059936523438,0.0037184590473771095,0.002437889575958252,0.009286880493164062,0.05971869179094867,0.003499978361742296,-0.012249997637270759
0.009606856852769852,0.13585007190704346,9.744575500488281,0.0033969739452004433,-0.00947415828704834,-0.004927635192871094,0.0034617853312857595,0.003499978361742296,-0.012249997637270759
0.009606856852769852,0.13585007190704346,9.744575500488281,0.0033969739452004433,-0.00947415828704834,-0.004927635192871094,0.0034617853312857595,0.003499978361742296,-0.012249997637270759
0.006370491348206997,0.1468980312347412,9.734424591064453,-0.0013034944422543049,0.002650320529937744,-0.014097213745117188,-0.010281248969867474,0.003499978361742296,-0.012249997637270759
0.004942459985613823,0.15161630511283875,9.751368522644043,-0.003612804226577282,0.009541377425193787,0.00238800048828125,0.0402713956559902,0.003499978361742296,-0.012249997637270759
0.008881734684109688,0.14948762953281403,9.749429702758789,0.00829927809536457,0.004524946212768555,0.011891365051269531,-0.010281248969867474,0.003499978361742296,-0.012249997637270759
0.0015368065796792507,0.13283342123031616,9.731307983398438,-0.001197286881506443,-0.0024795830249786377,-0.0022726058959960938,-0.010281248969867474,0.003499978361742296,-0.012249997637270759
0.00843863282352686,0.13840092718601227,9.74246597290039,-0.005646058823913336,0.002494245767593384,-0.0064144134521484375,0.023954860801409877,0.003499978361742296,0.02351383335226804
0.010708650574088097,0.13436633348464966,9.75345516204834,-0.000928657129406929,-0.004269778728485107,0.0008554458618164062,-0.010281248969867474,0.003499978361742296,-0.012249997637270759
0.013455048203468323,0.13656596839427948,9.747430801391602,0.005857923533767462,-0.010663256049156189,0.000484466552734375,-0.010281248969867474,0.003499978361742296,-0.012249997637270759
0.013455048203468323,0.13656596839427948,9.747430801391602,0.005857923533767462,-0.010663256049156189,0.000484466552734375,-0.010281248969867474,0.003499978361742296,-0.012249997637270759
0.01569913700222969,0.14066128432750702,9.747760772705078,0.007876137271523476,-0.0035813748836517334,0.000522613525390625,-0.010281248969867474,0.003499978361742296,-0.012249997637270759
0.005493434611707926,0.14469940960407257,9.74067211151123,-0.0014229649677872658,0.001061767339706421,-0.008749961853027344,0.0019338106489730827,0.06128487284393111,-0.012249997637270759
0.008804665878415108,0.14610831439495087,9.741290092468262,0.008041562512516975,0.0008630901575088501,-0.0012845993041992188,0.05971869179094867,0.003499978361742296,-0.012249997637270759
0.019268933683633804,0.14469940960407257,9.742847442626953,0.0006960434839129448,0.0007185488939285278,-0.0061931610107421875,-0.010281248969867474,0.003499978361742296,-0.012249997637270759
0.00541283655911684,0.14533039927482605,9.749401092529297,0.007440042681992054,0.01002173125743866,0.0010652542114257812,-0.010281248969867474,0.003499978361742296,-0.055251708053120664
0.0021556043066084385,0.14335733652114868,9.747239112854004,-0.004141435958445072,-0.004072815179824829,-0.001384735107421875,-0.010281248969867474,0.003499978361742296,-0.012249997637270759
0.0021556043066084385,0.14335733652114868,9.747239112854004,-0.004141435958445072,-0.004072815179824829,-0.001384735107421875,-0.010281248969867474,0.003499978361742296,-0.012249997637270759
0.006504656281322241,0.13914047181606293,9.74984073638916,-0.0014461465179920197,-0.006514847278594971,0.0032186508178710938,0.031499071543953414,0.003499978361742296,-0.012249997637270759
0.008666850626468658,0.1482856720685959,9.743518829345703,0.0009059007279574871,0.0027321279048919678,-0.0038118362426757812,-0.010281248969867474,0.003499978361742296,0.011131580841107618
-0.0056977421045303345,0.14606651663780212,9.744149208068848,-0.01270987931638956,0.0026792585849761963,-0.0036678314208984375,-0.010281248969867474,0.003499978361742296,-0.012249997637270759
0.01179866585880518,0.1452561616897583,9.748272895812988,0.006166130304336548,0.007238045334815979,-0.008378028869628906,-0.010281248969867474,0.003499978361742296,-0.012249997637270759
0.005442479625344276,0.1441781371831894,9.751443862915039,0.0035769185051321983,-0.002289190888404846,-0.008111000061035156,0.021554903081796646,0.003499978361742296,-0.012249997637270759
0.013362312689423561,0.14575734734535217,9.752791404724121,0.008241645991802216,0.00478653609752655,0.0035190582275390625,0.039960461966195945,0.003499978361742296,-0.012249997637270759
0.013455048203468323,0.14703227579593658,9.738395690917969,0.005603380501270294,0.004531368613243103,-0.01076507568359375,0.05971869179094867,0.003499978361742296,-0.012249997637270759
0.013455048203468323,0.14703227579593658,9.738395690917969,0.005603380501270294,0.004531368613243103,-0.01076507568359375,0.05971869179094867,0.003499978361742296,-0.012249997637270759
0.003940526396036148,0.1399112194776535,9.740757942199707,-0.004115172661840916,-0.0047364383935928345,-0.005779266357421875,-0.010281248969867474,-0.031047985574041672,0.02229796629851321
0.009311950765550137,0.1512366086244583,9.748368263244629,0.0005830181762576103,0.006934553384780884,0.0037841796875,-0.010281248969867474,0.003499978361742296,-0.012249997637270759
0.004998300690203905,0.1386367529630661,9.761964797973633,-0.0016356948763132095,-0.004882305860519409,0.01967906951904297,0.057457125443307534,0.003499978361742296,-0.012249997637270759
-0.0004915180616080761,0.1517423689365387,9.74804973602295,-0.0017301728948950768,0.004619792103767395,0.00289154052734375,0.05971869179094867,0.003499978361742296,-0.012249997637270759
0.007041528355330229,0.13435424864292145,9.741583824157715,0.0008960887789726257,-0.012177988886833191,-0.008836746215820312,0.020644380168495766,0.003499978361742296,0.05774994312354539
0.007459134329110384,0.13711455464363098,9.737126350402832,-0.005951614584773779,-0.009326830506324768,-0.015462875366210938,0.0538321359434555,0.009386534209235473,-0.012249997637270759
0.007459134329110384,0.13711455464363098,9.737126350402832,-0.005951614584773779,-0.009326830506324768,-0.015462875366210938,0.0538321359434555,0.009386534209235473,-0.012249997637270759
0.017143946141004562,0.14599421620368958,9.757682800292969,0.010291222482919693,0.0027249306440353394,0.012928009033203125,-0.010281248969867474,0.003499978361742296,-0.012249997637270759
0.008930059149861336,0.14630389213562012,9.739123344421387,0.000622529536485672,0.0026906877756118774,-0.00833892822265625,0.01702279242301551,0.003499978361742296,-0.012249997637270759
0.012562528252601624,0.1417383849620819,9.74068546295166,0.005190490745007992,0.002963349223136902,-0.012926101684570312,-0.010281248969867474,0.003499978361742296,-0.012249997637270759
0.004100575111806393,0.1503596305847168,9.749876022338867,0.0005857329815626144,0.007423684000968933,0.01073455810546875,-0.010281248969867474,0.003499978361742296,-0.012249997637270759
0.004579583182930946,0.1382908672094345,9.749143600463867,0.012201514095067978,-0.002350926399230957,-0.0034275054931640625,0.03181205962658396,0.003499978361742296,-0.012249997637270759
0.011422243900597095,0.14781609177589417,9.745222091674805,0.0004222393035888672,-0.002060607075691223,-0.008088111877441406,0.036029848181412284,0.003499978361742296,0.05774994312354539
0.010163523256778717,0.13811637461185455,9.748059272766113,0.00027972273528575897,-0.009156867861747742,0.00366973876953125,-0.010281248969867474,0.003499978361742296,0.0008687013448477741
0.011417062021791935,0.1469748169183731,9.733901023864746,0.0024742158129811287,0.002648293972015381,-0.012629508972167969,0.021247998136395642,0.003499978361742296,-0.012249997637270759
0.011417062021791935,0.1469748169183731,9.733901023864746,0.0024742158129811287,0.002648293972015381,-0.012629508972167969,0.021247998136395642,0.003499978361742296,-0.012249997637270759
0.012592723593115807,0.14469940960407257,9.746378898620605,0.0021562352776527405,0.000272408127784729,0.001834869384765625,-0.010281248969867474,0.003499978361742296,-0.012249997637270759
0.006272748112678528,0.1409376859664917,9.751444816589355,-0.0024762647226452827,-0.0069122314453125,0.003935813903808594,0.05971869179094867,0.003499978361742296,-0.012249997637270759
0.006282703019678593,0.13990624248981476,9.755077362060547,0.002259860746562481,-0.006824582815170288,0.001392364501953125,0.00645771707662227,0.003499978361742296,0.041010977077055644
0.006272748112678528,0.14596834778785706,9.754948616027832,-0.0024863099679350853,0.004935726523399353,0.001125335693359375,0.024573379787479487,-0.031354650395604665,-0.012249997637270759
0.0016181832179427147,0.1430346816778183,9.75003719329834,-0.00466782134026289,-0.009357750415802002,-0.00151824951171875,0.05971869179094867,0.003499978361742296,0.0557978964030969
0.0016181832179427147,0.1430346816778183,9.75003719329834,-0.00466782134026289,-0.009357750415802002,-0.00151824951171875,0.05971869179094867,0.003499978361742296,0.0557978964030969
0.011060953140258789,0.14180465042591095,9.745516777038574,0.002709861844778061,-0.0022826790809631348,-0.0016937255859375,-0.010281248969867474,0.003499978361742296,0.03738760174300355
0.017857279628515244,0.1399112194776535,9.75457763671875,0.009554130025207996,-0.004388332366943359,0.007708549499511719,-0.010281248969867474,0.003499978361742296,0.026511392603617717
0.01632615365087986,0.1496068686246872,9.742244720458984,0.016605276614427567,0.007392972707748413,-0.0064220428466796875,-0.010281248969867474,0.003499978361742296,0.0005780714595784425
0.013836243189871311,0.14053647220134735,9.744128227233887,0.002000158652663231,0.00020617246627807617,-0.0014753341674804688,0.054147418542760346,0.003499978361742296,-0.006678724389082429
0.006272748112678528,0.1498614400625229,9.74690055847168,-0.002623789943754673,-0.011648282408714294,-0.008440971374511719,0.05971869179094867,0.003499978361742296,-0.012249997637270759
0.007406502030789852,0.14621154963970184,9.738333702087402,0.004512667655944824,0.00014284253120422363,-0.008236885070800781,-0.010281248969867474,0.003499978361742296,0.015366151384170074
0.00778426555916667,0.14646458625793457,9.74514102935791,-0.00011960882693529129,0.00010250508785247803,-0.005457878112792969,-0.010281248969867474,0.003499978361742296,-0.012249997637270759
0.00778426555916667,0.14646458625793457,9.74514102935791,-0.00011960882693529129,0.00010250508785247803,-0.005457878112792969,-0.010281248969867474,0.003499978361742296,-0.012249997637270759
0.007032542955130339,0.1449526697397232,9.750557899475098,-0.0023644855245947838,-2.682209014892578e-7,0.0038280487060546875,-0.010281248969867474,0.003499978361742296,-0.012249997637270759
0.007401886861771345,0.1470935195684433,9.748662948608398,-0.0024173902347683907,0.002183765172958374,0.00122833251953125,0.013713525749504664,0.003499978361742296,-0.012249997637270759
0.008284151554107666,0.14091691374778748,9.736562728881836,-0.0024027451872825623,-0.004976257681846619,-0.012607574462890625,0.05971869179094867,0.003499978361742296,-0.012249997637270759
0.010302115231752396,0.1391523778438568,9.75672721862793,-0.00016929209232330322,-0.007110193371772766,0.008387565612792969,0.0025324060265946202,-0.05368631407271837,-0.012249997637270759
0.014349007979035378,0.14319926500320435,9.75080394744873,-0.00008549261838197708,-0.007076352834701538,0.005471229553222656,0.020934729909287422,0.003499978361742296,-0.012249997637270759
0.011195885948836803,0.14609886705875397,9.748769760131836,-0.0002648932859301567,-0.0023032277822494507,0.007564544677734375,0.0100988148839407,0.003499978361742296,0.037369885939843826
0.004171793349087238,0.13942261040210724,9.746787071228027,-0.009680161252617836,-0.007105022668838501,-0.001834869384765625,0.0432909662591573,0.003499978361742296,0.004177727894520612
0.02059859037399292,0.14468833804130554,9.75507640838623,0.011291177943348885,-0.0001137852668762207,0.007450103759765625,0.05971869179094867,0.003499978361742296,0.02291185623059455
0.02059859037399292,0.14468833804130554,9.75507640838623,0.011291177943348885,-0.0001137852668762207,0.007450103759765625,0.05971869179094867,0.003499978361742296,0.02291185623059455
0.003878660500049591,0.14876286685466766,9.744368553161621,-0.0051564667373895645,0.007036685943603516,-0.004403114318847656,-0.010281248969867474,0.003499978361742296,-0.012249997637270759
0.006385366432368755,0.14230529963970184,9.740839958190918,-0.005102849565446377,-0.002368450164794922,-0.008816719055175781,-0.010281248969867474,0.003499978361742296,-0.012249997637270759
0.006272748112678528,0.14230529963970184,9.745280265808105,-0.0025488492101430893,-0.002077251672744751,-0.006264686584472656,-0.010281248969867474,-0.016547947533354174,-0.012249997637270759
0.008515652269124985,0.14155766367912292,9.750455856323242,0.004585102200508118,-0.004369959235191345,-0.001392364501953125,-0.010281248969867474,0.003499978361742296,-0.012249997637270759
0.0107010118663311,0.1399112194776535,9.743121147155762,-0.00011579599231481552,-0.0042710453271865845,-0.00383758544921875,-0.005020549225716384,0.003499978361742296,-0.012249997637270759
0.0107010118663311,0.1399112194776535,9.743121147155762,-0.00011579599231481552,-0.0042710453271865845,-0.00383758544921875,-0.005020549225716384,0.003499978361742296,-0.012249997637270759
0.013524326495826244,0.14431193470954895,9.745903968811035,0.00675556343048811,0.0004311800003051758,-0.0012941360473632812,0.05971869179094867,0.003499978361742296,-0.012249997637270759
0.007941380143165588,0.14660987257957458,9.747910499572754,-0.00019787997007369995,0.0027208924293518066,0.001041412353515625,0.017648648526357596,0.003499978361742296,-0.012249997637270759
0.012363390997052193,0.13425157964229584,9.746607780456543,0.006871934048831463,-0.008865177631378174,-0.0037975311279296875,0.05971869179094867,0.003499978361742296,-0.012249997637270759
0.011668471619486809,0.1366238296031952,9.74433708190918,-0.00030316878110170364,-0.00852002203464508,-0.008372306823730469,0.05971869179094867,0.06461971270618984,-0.012249997637270759
0.010329577140510082,0.15151602029800415,9.746248245239258,-0.00262395478785038,0.005729198455810547,0.0038518905639648438,-0.05299327665558686,0.04621200604746168,-0.012249997637270759
0.006272748112678528,0.14410817623138428,9.747910499572754,-0.002597997896373272,-0.00403556227684021,0.0014448165893554688,0.014026086945312084,0.003499978361742296,-0.012249997637270759
0.006444447673857212,0.13982535898685455,9.750304222106934,0.0022094091400504112,-0.0063038170337677,0.003692626953125,-0.010281248969867474,0.003499978361742296,0.04524562766139743
0.006444447673857212,0.13982535898685455,9.750304222106934,0.0022094091400504112,-0.0063038170337677,0.003692626953125,-0.010281248969867474,0.003499978361742296,0.04524562766139743
0.010640623047947884,0.1470935195684433,9.751997947692871,0.002598884515464306,0.0030821412801742554,0.005820274353027344,0.020621768507083322,0.04259691498582087,-0.012249997637270759
-0.0018350379541516304,0.14518894255161285,9.740727424621582,-0.01130360085517168,0.0006178170442581177,-0.005814552307128906,-0.010281248969867474,0.003499978361742296,-0.012249997637270759
0.011373685672879219,0.1451685130596161,9.748222351074219,0.007689327001571655,0.007900848984718323,0.006076812744140625,-0.07799359662704504,0.003499978361742296,-0.012249997637270759
0.008478216826915741,0.1399112194776535,9.756007194519043,-0.0065566739067435265,-0.003925621509552002,-0.001430511474609375,-0.010281248969867474,0.003499978361742296,-0.012249997637270759
0.011060953140258789,0.14420364797115326,9.752143859863281,0.0031495243310928345,0.01257142424583435,0.010479927062988281,0.05971869179094867,0.038975180497995164,-0.012249997637270759
0.011335066519677639,0.14479078352451324,9.746759414672852,0.00986022874712944,0.0030570775270462036,0.000789642333984375,-0.010281248969867474,-0.06516273942563229,-0.012249997637270759
0.007622804958373308,0.1414772868156433,9.75113296508789,0.00040746014565229416,-0.004042729735374451,0.0054683685302734375,0.03998270010163816,0.003499978361742296,0.038013951434234874
0.007622804958373308,0.1414772868156433,9.75113296508789,0.00040746014565229416,-0.004042729735374451,0.0054683685302734375,0.03998270010163816,0.003499978361742296,0.038013951434234874
0.003878660500049591,0.153952956199646,9.761521339416504,-0.004129224456846714,0.009874507784843445,0.014674186706542969,0.02786530418380085,0.003499978361742296,-0.012249997637270759
0.011060953140258789,0.14432917535305023,9.746990203857422,0.002897336147725582,0.0052924007177352905,-0.0020990371704101562,-0.010281248969867474,0.003499978361742296,-0.012249997637270759
0.005922951735556126,0.15051522850990295,9.73490047454834,-0.00888785906136036,0.007254183292388916,-0.022866249084472656,0.054763122743839966,0.003499978361742296,-0.012249997637270759
0.008123058825731277,0.1401425004005432,9.746211051940918,0.016826219856739044,-0.0019042640924453735,0.0057353973388671875,-0.010281248969867474,0.003499978361742296,-0.012249997637270759
-0.0024428535252809525,0.1453719437122345,9.750493049621582,-0.008951312862336636,-0.0017031580209732056,0.00794219970703125,-0.010281248969867474,0.031737821339999736,-0.012249997637270759
-0.00032331678085029125,0.14528563618659973,9.750304222106934,-0.006057169288396835,0.0028371214866638184,0.003047943115234375,0.05114971254906522,0.003499978361742296,-0.012249997637270759
-0.00032331678085029125,0.14528563618659973,9.750304222106934,-0.01053827628493309,-0.0019916892051696777,0.0029649734497070312,0.05114971254906522,0.003499978361742296,-0.012249997637270759
0.005998420529067516,0.13676901161670685,9.741002082824707,-0.0009309733286499977,-0.008902758359909058,-0.006427764892578125,0.01669805161253578,0.003499978361742296,0.030770642541142132
0.009996025823056698,0.14133112132549286,9.743121147155762,0.003851403947919607,-0.004226699471473694,-0.0038118362426757812,0.014340382368838452,0.003499978361742296,-0.012249997637270759
0.011910815723240376,0.14188037812709808,9.743681907653809,0.008436441421508789,-0.0042003244161605835,-0.006058692932128906,0.05350758189596089,0.003499978361742296,-0.012249997637270759
0.014288852922618389,0.14303182065486908,9.746403694152832,0.0033289585262537003,0.005261331796646118,-0.008310317993164062,-0.010281248969867474,0.003499978361742296,-0.012249997637270759
0.003878760151565075,0.13608071208000183,9.742643356323242,0.005550360307097435,-0.004175856709480286,0.012900352478027344,0.02031430327272697,0.003499978361742296,0.018345554605323684
0.0064503587782382965,0.14266052842140198,9.756953239440918,-0.003729302901774645,-0.006224334239959717,0.017432212829589844,-0.010281248969867474,0.003499978361742296,-0.012249997637270759
0.011717230081558228,0.14207430183887482,9.76378059387207,0.0033400016836822033,0.0008729696273803711,0.01919269561767578,-0.010281248969867474,0.003499978361742296,-0.012249997637270759
0.01808137632906437,0.13999216258525848,9.747991561889648,0.010086697526276112,-0.003650382161140442,-0.000152587890625,0.02550759491946385,0.003499978361742296,-0.012249997637270759
0.01808137632906437,0.13999216258525848,9.747991561889648,0.010086697526276112,-0.003650382161140442,-0.000152587890625,0.02550759491946385,0.003499978361742296,-0.012249997637270759
0.0020872261375188828,0.14888495206832886,9.751509666442871,-0.006359626539051533,0.00569818913936615,0.0019884109497070312,-0.010281248969867474,0.003499978361742296,-0.012249997637270759
-0.0046055614948272705,0.14100340008735657,9.747770309448242,-0.008181389421224594,0.0009752213954925537,0.004403114318847656,-0.010281248969867474,0.003499978361742296,0.056729550214142506
0.010964060202240944,0.14660905301570892,9.743605613708496,0.001522427424788475,-0.00820574164390564,0.0066852569580078125,0.05971869179094867,-0.015929401866858116,-0.012249997637270759
0.005331326276063919,0.14658229053020477,9.746969223022461,0.0013843034394085407,-0.003611147403717041,0.0019893646240234375,0.02188578039035881,0.003499978361742296,0.05774994312354539
0.01305212639272213,0.1426229625940323,9.756766319274902,0.010759696364402771,0.001015394926071167,0.011321067810058594,-0.010281248969867474,0.003499978361742296,-0.012249997637270759
0.010652058757841587,0.14744316041469574,9.747501373291016,0.003522245679050684,0.005776435136795044,-0.000743865966796875,-0.010281248969867474,0.003499978361742296,-0.012249997637270759
0.013013571500778198,0.14838393032550812,9.747690200805664,0.00573306018486619,0.00559629499912262,-0.0006351470947265625,0.05971869179094867,0.003499978361742296,-0.012249997637270759
0.013013571500778198,0.14838393032550812,9.747690200805664,0.00573306018486619,0.00559629499912262,-0.0006351470947265625,0.05971869179094867,0.003499978361742296,-0.012249997637270759
0.0047287167981266975,0.13442903757095337,9.748221397399902,-0.0036859153769910336,-0.010648071765899658,-0.005515098571777344,-0.010281248969867474,0.003499978361742296,-0.012249997637270759
0.006622066721320152,0.14652836322784424,9.745864868164062,0.0033992244862020016,0.005937337875366211,0.0017709732055664062,-0.010281248969867474,0.003499978361742296,-0.012249997637270759
0.01447152066975832,0.14401060342788696,9.742432594299316,-0.0015599820762872696,-0.0035368800163269043,-0.01009368896484375,-0.010281248969867474,-0.023164706632017248,-0.012249997637270759
0.006800402421504259,0.1418590396642685,9.746490478515625,0.0029335888102650642,0.0011068880558013916,-0.00035762786865234375,0.014649328366862524,0.003499978361742296,-0.012249997637270759
0.012664233334362507,0.14309611916542053,9.743934631347656,0.005193226970732212,-0.0011198222637176514,-0.0026006698608398438,-0.010281248969867474,-0.05462317056692082,0.045873151291392356
0.022064300253987312,0.14660994708538055,9.7482328414917,0.014514399692416191,0.0036722421646118164,-0.000003814697265625,-0.040568448853926256,0.07349991912255845,-0.012249997637270759
0.022064300253987312,0.14660994708538055,9.7482328414917,0.014514399692416191,0.0036722421646118164,-0.000003814697265625,-0.040568448853926256,0.07349991912255845,-0.012249997637270759
0.01444484293460846,0.1495411992073059,9.75269889831543,0.00702319573611021,0.008352473378181458,0.004523277282714844,-0.010281248969867474,-0.01781414721159818,0.009064127936069715
0.00886554829776287,0.1425040066242218,9.753597259521484,0.0022517507895827293,0.0010485351085662842,0.001819610595703125,0.05971869179094867,0.003499978361742296,-0.009346406847861647
0.017576228827238083,0.1464264988899231,9.75069808959961,0.006599564105272293,0.0009586811065673828,-0.0029993057250976562,0.005215009513863407,0.003499978361742296,0.05774994312354539
0.003260460216552019,0.1452651470899582,9.746109008789062,-0.0003003273159265518,0.010075941681861877,-0.0006361007690429688,0.02581568714384167,0.03959691447545144,-0.012249997637270759
0.008618219755589962,0.14723941683769226,9.746689796447754,-0.002405996434390545,0.00987936556339264,-0.0028638839721679688,-0.010281248969867474,0.003499978361742296,-0.012249997637270759
0.008618219755589962,0.14723941683769226,9.746689796447754,-0.002405996434390545,0.00987936556339264,-0.0028638839721679688,0.04059895125145992,0.003499978361742296,-0.012249997637270759
0.00888835173100233,0.13860340416431427,9.75139045715332,0.0022632302716374397,-0.006646081805229187,0.0018854141235351562,0.04059895125145992,0.003499978361742296,-0.012249997637270759
0.019948191940784454,0.14230529963970184,9.741244316101074,0.011827772483229637,-0.001835063099861145,-0.007656097412109375,0.022200275917083515,0.04101839423560746,-0.012249997637270759
0.006988521199673414,0.14637774229049683,9.749835014343262,-0.002450985834002495,0.0028881728649139404,0.004337310791015625,-0.010281248969867474,0.003499978361742296,-0.012249997637270759
0.012702247127890587,0.1449955701828003,9.75584602355957,-0.0002362038940191269,-0.0018931180238723755,0.011082649230957031,-0.010281248969867474,0.003499978361742296,-0.012249997637270759
0.011480968445539474,0.1506216675043106,9.759461402893066,0.006706405431032181,-0.0061538368463516235,0.0062084197998046875,-0.010281248969867474,0.003499978361742296,-0.012249997637270759
0.009506289847195148,0.1377655565738678,9.754470825195312,0.0019326480105519295,0.003137916326522827,-0.01753711700439453,-0.010281248969867474,0.0323593685544709,-0.012249997637270759
0.007904386147856712,0.14361166954040527,9.73316478729248,0.0043416451662778854,-0.0035967230796813965,-0.012890815734863281,-0.010281248969867474,0.06554765793795954,-0.012249997637270759
0.007904386147856712,0.14361166954040527,9.73316478729248,0.0043416451662778854,-0.0035967230796813965,-0.012890815734863281,-0.010281248969867474,0.06554765793795954,-0.012249997637270759
0.009877796284854412,0.14531877636909485,9.77553939819336,0.0021756449714303017,0.003137543797492981,0.03456401824951172,0.05971869179094867,0.003499978361742296,-0.012249997637270759
0.0035448053386062384,0.13684940338134766,9.72708797454834,-0.004656198434531689,-0.006032690405845642,-0.01905059814453125,0.03448055583836976,0.003499978361742296,-0.012249997637270759
0.014885975979268551,0.14563493430614471,9.712029457092285,0.006881783716380596,0.005795329809188843,-0.12352275848388672,0.052879097770613934,-0.059660368378739115,-0.012249997637270759
0.003117266111075878,0.1423153132200241,9.818020820617676,0.011645381338894367,0.0034410059452056885,0.012231826782226562,-0.010281248969867474,-0.05492988874933671,-0.012249997637270759
0.009688419289886951,0.13786810636520386,9.640959739685059,-0.004584349691867828,0.005867809057235718,0.16602325439453125,-0.05030906567262474,0.04352779506449956,-0.012249997637270759
0.009340155869722366,0.14687347412109375,9.798147201538086,-0.02080884389579296,0.0059664249420166016,0.0916910171508789,0.03809499322956266,0.003499978361742296,-0.012249997637270759
0.003878660500049591,0.13643425703048706,9.714495658874512,-0.004463283345103264,-0.01303890347480774,-0.0950765609741211,0.05971869179094867,0.003499978361742296,-0.012249997637270759
0.003878660500049591,0.13643425703048706,9.714495658874512,-0.004463283345103264,-0.01303890347480774,-0.0950765609741211,0.05971869179094867,0.003499978361742296,-0.012249997637270759
0.020060431212186813,0.14704544842243195,9.661636352539062,0.01208593137562275,0.003310874104499817,-0.08883285522460938,0.023312916400921237,0.003499978361742296,-0.012249997637270759
0.008224105462431908,0.14288651943206787,9.777871131896973,0.00522839929908514,-0.0015400052070617676,0.0293121337890625,0.0077257510341843935,0.003499978361742296,-0.012249997637270759
0.01114349439740181,0.15064339339733124,9.746010780334473,-0.004486193880438805,0.010085225105285645,0.05815887451171875,-0.009877720860094592,0.003499978361742296,-0.012249997637270759
0.00896918959915638,0.13766828179359436,9.77812671661377,0.009476474486291409,-0.0018790960311889648,0.00150299072265625,-0.010281248969867474,0.003499978361742296,0.03894624557551517
0.009371920488774776,0.1399112194776535,9.754371643066406,0.0022446708753705025,-0.003942281007766724,-0.02495861053466797,-0.010281248969867474,0.003499978361742296,-0.012249997637270759
-0.00012471014633774757,0.14258012175559998,9.741552352905273,-0.011767714284360409,0.000961005687713623,-0.0014791488647460938,-0.010281248969867474,0.003499978361742296,-0.012249997637270759
-0.00012471014633774757,0.14258012175559998,9.741552352905273,-0.011767714284360409,0.000961005687713623,-0.0014791488647460938,-0.010281248969867474,0.003499978361742296,-0.012249997637270759
0.009956998750567436,0.14752356708049774,9.752942085266113,0.00033249612897634506,0.0032894015312194824,0.00597381591796875,0.012145250283046267,0.003499978361742296,-0.012249997637270759
0.013654293492436409,0.14070820808410645,9.745317459106445,0.0047870418056845665,-0.00401720404624939,-0.003337860107421875,0.018893530543871755,0.003499978361742296,-0.012249997637270759
0.011982343159615993,0.14571332931518555,9.754356384277344,-0.00024818163365125656,-0.004436671733856201,0.0035085678100585938,0.05971869179094867,0.003499978361742296,-0.012249997637270759
0.0029427921399474144,0.14563527703285217,9.748214721679688,-0.006857443600893021,0.002584010362625122,0.010622978210449219,0.05971869179094867,0.06586467476498332,-0.012249997637270759
0.004524877294898033,0.14884141087532043,9.752052307128906,0.00042660441249608994,0.0001036226749420166,-0.0008840560913085938,0.03367555401166029,0.07349991912255845,-0.012249997637270759
0.0019735984969884157,0.1470935195684433,9.752285957336426,-0.008767932653427124,0.0023284852504730225,-0.014931678771972656,-0.010281248969867474,0.003499978361742296,0.01330232701712874
0.008666850626468658,0.14469940960407257,9.739188194274902,0.0007923012599349022,-0.00009445846080780029,-0.01262664794921875,-0.010281248969867474,-0.05524092916083674,-0.0009909643990336468
0.008666850626468658,0.14469940960407257,9.739188194274902,0.0007923012599349022,-0.00009445846080780029,-0.01262664794921875,-0.010281248969867474,-0.05524092916083674,-0.0009909643990336468
0.012724257074296474,0.14636272192001343,9.761361122131348,0.005415619350969791,0.0021593868732452393,0.013411521911621094,0.030060929857482273,0.003499978361742296,-0.012249997637270759
0.007772982120513916,0.14335860311985016,9.754199028015137,0.0007322309538722038,-0.00010368227958679199,0.00601959228515625,0.03778695436603773,0.003499978361742296,0.009681739787640184
0.01237878855317831,0.14074589312076569,9.747075080871582,0.005290934816002846,-0.007159575819969177,0.0013589859008789062,-0.006748020126667646,0.003499978361742296,0.05774994312354539
0.0042078932747244835,0.14027024805545807,9.745185852050781,-0.008650997653603554,0.002356097102165222,0.0014820098876953125,0.05971869179094867,0.05862371374941778,0.002626207735869903
0.006384439766407013,0.1393406093120575,9.75406265258789,-0.008555124513804913,-0.007226914167404175,-0.005839347839355469,0.022997753863535395,0.003499978361742296,-0.012249997637270759
0.013455048203468323,0.14230529963970184,9.752680778503418,0.005630397237837315,-0.0024273693561553955,-0.003574371337890625,0.05971869179094867,0.003499978361742296,0.057658362559771685
0.005143500864505768,0.14244091510772705,9.747910499572754,-0.0015413155779242516,0.00006537139415740967,-0.0014390945434570312,-0.010281248969867474,0.021990340981598182,-0.012249997637270759
0.020117297768592834,0.15142667293548584,9.747910499572754,0.01264955010265112,0.0074433833360672,-0.001361846923828125,-0.04718198295604274,0.003499978361742296,-0.012249997637270759
0.020117297768592834,0.15142667293548584,9.747910499572754,0.01264955010265112,0.0074433833360672,-0.001361846923828125,-0.04718198295604274,0.003499978361742296,-0.012249997637270759
0.009744267910718918,0.14678232371807098,9.752004623413086,-0.0019328370690345764,0.00008496642112731934,0.00330352783203125,-0.010281248969867474,0.003499978361742296,-0.012249997637270759
-0.0016705594025552273,0.14734719693660736,9.754022598266602,-0.001429111696779728,-0.000016763806343078613,0.0030574798583984375,-0.010281248969867474,0.003499978361742296,0.05404029663058221
0.013455048203468323,0.1470935195684433,9.753960609436035,0.005363596603274345,0.002537861466407776,-0.008813858032226562,-0.010281248969867474,0.0513895562425958,-0.012249997637270759
0.006212381646037102,0.13675934076309204,9.7542142868042,-0.006556694395840168,-0.00466291606426239,-0.0017337799072265625,-0.010281248969867474,0.003499978361742296,-0.012249997637270759
0.0033776836935430765,0.13651517033576965,9.750359535217285,-0.0064879534766077995,-0.011228829622268677,0.005085945129394531,-0.010281248969867474,-0.003822598078319617,-0.012249997637270759
0.006589709781110287,0.1367078423500061,9.747101783752441,-0.001484015490859747,-0.008512541651725769,-0.0041790008544921875,-0.010281248969867474,0.04776702134197673,-0.012249997637270759
0.006585081107914448,0.14292997121810913,9.742914199829102,-0.0014558504335582256,-0.0013545602560043335,-0.008929252624511719,-0.010281248969867474,0.003499978361742296,-0.012249997637270759
0.006585081107914448,0.14292997121810913,9.742914199829102,-0.0014558504335582256,-0.0013545602560043335,-0.008929252624511719,-0.010281248969867474,0.003499978361742296,-0.012249997637270759
0.013455048203468323,0.13845905661582947,9.753641128540039,0.005424266681075096,-0.005949839949607849,0.0028133392333984375,-0.0028233560769812963,0.003499978361742296,-0.012249997637270759
0.007918335497379303,0.14462514221668243,9.744767189025879,0.0028969859704375267,-0.003633856773376465,-0.001735687255859375,0.000660300533883049,-0.05555841289532333,-0.012249997637270759
0.004751027096062899,0.14426322281360626,9.758572578430176,0.00042220205068588257,-0.000945746898651123,0.0032091140747070312,0.019067780408986417,0.003499978361742296,-0.012249997637270759
0.007864170707762241,0.14602792263031006,9.749502182006836,-0.004118511453270912,0.0014013350009918213,-0.004143714904785156,-0.010281248969867474,0.003499978361742296,0.009996035211166552
0.0048749083653092384,0.1449967622756958,9.750304222106934,-0.0017477413639426231,0.0036196857690811157,0.0005445480346679688,-0.010281248969867474,0.003499978361742296,-0.012249997637270759
0.0048749083653092384,0.1449967622756958,9.750304222106934,-0.0017477413639426231,0.0036196857690811157,0.0005445480346679688,-0.010281248969867474,0.003499978361742296,-0.012249997637270759
0.004226823337376118,0.15160317718982697,9.74107551574707,-0.0037307455204427242,0.008194684982299805,-0.008795738220214844,0.02268268470764211,0.03646391203925188,-0.012249997637270759
0.014015059918165207,0.1404712200164795,9.745361328125,0.005470640026032925,-0.003601372241973877,-0.00630950927734375,-0.010281248969867474,0.003499978361742296,0.00637536794039866
0.012296505272388458,0.14829827845096588,9.749131202697754,0.010029995813965797,0.005744606256484985,0.0032835006713867188,-0.010281248969867474,0.003499978361742296,-0.012023133971205843
0.0063811964355409145,0.14007389545440674,9.741052627563477,0.0029800264164805412,0.0032819360494613647,0.005238533020019531,-0.010281248969867474,0.003499978361742296,0.005932312778846973
0.01037728413939476,0.14606675505638123,9.754408836364746,0.0006284061819314957,0.005655944347381592,0.0030126571655273438,0.026304219092269477,-0.033085489700394655,0.021164475061408436
0.013687362894415855,0.1401435136795044,9.759729385375977,0.007522012107074261,-0.0014751851558685303,0.019077301025390625,-0.010281248969867474,0.003499978361742296,0.054352350898287174
0.013687362894415855,0.1401435136795044,9.759729385375977,0.007522012107074261,-0.0014751851558685303,0.019077301025390625,-0.010281248969867474,0.003499978361742296,0.054352350898287174
0.010609393008053303,0.13647770881652832,9.742082595825195,0.0025955727323889732,-0.008326798677444458,-0.009316444396972656,0.03792234419003472,0.003499978361742296,-0.012249997637270759
0.004234804771840572,0.14230529963970184,9.747910499572754,-0.004342123866081238,-0.001157715916633606,-0.0020160675048828125,0.02992548667263239,0.03329318348005858,-0.012249997637270759
0.007887506857514381,0.14631417393684387,9.745516777038574,-0.0018479954451322556,0.0010714977979660034,-0.004168510437011719,-0.010281248969867474,0.014894628207601185,-0.012249997637270759
0.005795407108962536,0.14182797074317932,9.75222110748291,-0.006455080583691597,-0.005937844514846802,-0.0018711090087890625,-0.010281248969867474,0.010515356371712307,-0.012249997637270759
0.007479662075638771,0.13663166761398315,9.751190185546875,0.007552389055490494,0.003557339310646057,-0.009267807006835938,0.034302037105023844,0.003499978361742296,-0.012249997637270759
0.015849150717258453,0.14749310910701752,9.747379302978516,0.0074071986600756645,0.008373156189918518,0.0002269744873046875,-0.010281248969867474,0.003499978361742296,0.013928409904095612
0.015742754563689232,0.14553290605545044,9.754985809326172,0.009340542368590832,0.0010466575622558594,0.007327079772949219,0.0490901303698287,0.003499978361742296,-0.012249997637270759
0.015742754563689232,0.14553290605545044,9.754985809326172,0.009340542368590832,0.0010466575622558594,0.007327079772949219,0.0490901303698287,0.003499978361742296,-0.012249997637270759
0.009278508834540844,0.13909567892551422,9.759269714355469,-0.00027607008814811707,-0.0036983639001846313,0.009448051452636719,-0.010281248969867474,0.003499978361742296,-0.012249997637270759
0.00797437783330679,0.14214695990085602,9.744823455810547,-0.0026629678905010223,0.0014501959085464478,-0.0071697235107421875,-0.010281248969867474,0.05093748309690558,-0.012249997637270759
0.008464088663458824,0.14392849802970886,9.758257865905762,0.006998795084655285,0.0038598328828811646,0.004344940185546875,-0.010281248969867474,0.003499978361742296,-0.012249997637270759
0.012745331041514874,0.14354492723941803,9.75101375579834,0.0020363647490739822,-0.007957443594932556,0.0019092559814453125,-0.010281248969867474,0.003499978361742296,-0.012249997637270759
0.0057234917767345905,0.1430516242980957,9.754190444946289,-0.004917156882584095,-0.005485028028488159,-0.007312774658203125,-0.010281248969867474,0.003499978361742296,-0.012249997637270759
0.007488188799470663,0.14105309545993805,9.753950119018555,-0.002373332157731056,0.0016364455223083496,-0.000316619873046875,-0.010281248969867474,0.003499978361742296,-0.012249997637270759
0.006272748112678528,0.13145585358142853,9.745465278625488,-0.002188408747315407,-0.014739453792572021,-0.0074748992919921875,0.05971869179094867,0.021371034922948434,-0.012249997637270759
0.006272748112678528,0.13145585358142853,9.745465278625488,-0.002188408747315407,-0.014739453792572021,-0.0074748992919921875,0.05971869179094867,0.021371034922948434,-0.012249997637270759
0.015675406903028488,0.1446559727191925,9.747997283935547,0.007253396324813366,0.0017863065004348755,-0.0026655197143554688,0.05971869179094867,0.003499978361742296,-0.012249997637270759
0.012483816593885422,0.14125734567642212,9.755765914916992,0.0071908263489604,-0.002934575080871582,0.004204750061035156,-0.010281248969867474,0.003499978361742296,-0.012249997637270759
0.007364438381046057,0.13814927637577057,9.74942398071289,0.00008423253893852234,-0.012181371450424194,-0.005270957946777344,-0.010281248969867474,0.003499978361742296,-0.012249997637270759
0.00950328167527914,0.1359594613313675,9.749248504638672,0.011729134246706963,0.004552721977233887,0.01583576202392578,-0.010281248969867474,0.003499978361742296,-0.012249997637270759
0.004675364121794701,0.1359197348356247,9.751906394958496,-0.002545849420130253,-0.00475957989692688,-0.005459785461425781,0.019827518892231333,0.003499978361742296,-0.012249997637270759
0.003878660500049591,0.15045545995235443,9.749336242675781,-0.00455133244395256,0.007236093282699585,-0.0007648468017578125,-0.010281248969867474,0.010202821856331333,-0.005547154142681723
0.003878660500049591,0.15045545995235443,9.749336242675781,-0.00455133244395256,0.007236093282699585,-0.0007648468017578125,-0.010281248969867474,0.010202821856331333,-0.005547154142681723
-0.001949560595676303,0.13853266835212708,9.751683235168457,-0.011273285374045372,-0.0048308223485946655,0.0016698837280273438,-0.010281248969867474,0.003499978361742296,-0.012249997637270759
0.012581711634993553,0.14049343764781952,9.756031036376953,0.005390380509197712,-0.0024003684520721436,0.006426811218261719,-0.010281248969867474,0.003499978361742296,-0.012249997637270759
0.009954456239938736,0.13567626476287842,9.755645751953125,-0.001942426897585392,-0.004589438438415527,0.006205558776855469,0.05971869179094867,0.003499978361742296,0.049660531206804095
0.005428643897175789,0.1399112194776535,9.748616218566895,-0.0040456149727106094,-0.0021508634090423584,-0.00557708740234375,0.05971869179094867,0.06317955664752206,0.047429580648509016
0.007837316021323204,0.14511418342590332,9.746346473693848,-0.003944971598684788,0.004852786660194397,-0.0008754730224609375,-0.010281248969867474,0.003499978361742296,0.02902775702381206
0.009277927689254284,0.13795031607151031,9.756442070007324,-0.003848268184810877,0.0023562461137771606,0.003956794738769531,-0.010281248969867474,0.003499978361742296,0.03487652004724538
0.01394279208034277,0.1473262459039688,9.746724128723145,0.0030966680496931076,0.007018744945526123,-0.007961273193359375,0.05971869179094867,0.003499978361742296,0.0016838017129668153
0.01394279208034277,0.1473262459039688,9.746724128723145,0.0030966680496931076,0.007018744945526123,-0.007961273193359375,0.05971869179094867,0.003499978361742296,0.0016838017129668153
0.015576639212667942,0.1511550098657608,9.761730194091797,0.007446257397532463,0.009187966585159302,0.010772705078125,-0.010281248969867474,0.04115577175137462,-0.012249997637270759
0.006811204366385937,0.13829585909843445,9.75718879699707,-0.0020665861666202545,-0.002623140811920166,0.008245468139648438,0.05971869179094867,0.003499978361742296,-0.012249997637270759
