Accelerometer_Gx,Accelerometer_Gy,Accelerometer_Gz,Accelerometer_X,Accelerometer_Y,Accelerometer_Z,Gyroscope_Z,Gyroscope_X,Gyroscope_Y
0.02368944324553013,0.13925321400165558,9.734203338623047,0.0012098029255867004,-0.008438527584075928,0.001384735107421875,0.603217974946608,-0.27381289231570244,0.16574980141428616
0.024070531129837036,0.14024995267391205,9.73353385925293,-0.0002743992954492569,-0.006978631019592285,0.005751609802246094,1.4107772806134262,2.717429821433889,0.1391844476481827
0.023350480943918228,0.13097289204597473,9.738652229309082,0.00859010312706232,-0.01734986901283264,0.003952980041503906,0.15027619461260738,1.0582093189597148,-0.09937563055579557
0.023421214893460274,0.14314033091068268,9.738723754882812,0.0006078761070966721,0.0019325166940689087,0.0032215118408203125,-1.2599357544448682,-2.0583596820967944,-0.2671145844936091
0.023421214893460274,0.14314033091068268,9.738723754882812,0.0006078761070966721,0.0019325166940689087,0.0032215118408203125,-1.2599357544448682,-2.0583596820967944,-0.2671145844936091
0.018243253231048584,0.1434040367603302,9.736644744873047,-0.0016600005328655243,-0.0009268224239349365,-0.004197120666503906,-0.4402525695165863,-0.8927885939252058,-0.004969109363529726
0.01848922297358513,0.14003419876098633,9.749566078186035,0.008166277781128883,0.0006463825702667236,0.00024890899658203125,0.44016879297754785,3.1484907439162098,-0.027142224606491863
0.015952104702591896,0.1415759176015854,9.738333702087402,-0.0007951352745294571,0.004727095365524292,0.0018072128295898438,-1.4089527663313866,-1.1110915250000097,-0.29791022659433053
0.016213057562708855,0.13496021926403046,9.742959976196289,0.004040243104100227,-0.0040180981159210205,0.008541107177734375,-0.1368917452428798,-0.07535391527582022,-0.16024007990990727
0.01810050942003727,0.13751710951328278,9.736083030700684,-0.0014515947550535202,-0.00513891875743866,-0.0010194778442382812,0.6803058377968991,-0.2425197936639072,0.05349796360222733
0.015849150717258453,0.1338626891374588,9.741987228393555,-0.00557437539100647,-0.011194974184036255,0.005913734436035156,0.9439460171175138,0.18768632797574403,0.0740057133068964
0.015849150717258453,0.1338626891374588,9.741987228393555,-0.00557437539100647,-0.011194974184036255,0.005913734436035156,0.9439460171175138,0.18768632797574403,0.0740057133068964
0.014572516083717346,0.13177061080932617,9.738492965698242,-0.0007492154836654663,-0.015958204865455627,-0.0013418197631835938,1.2143430677962694,1.5694800343515518,0.1899749082551611
0.01884768158197403,0.13542523980140686,9.735939979553223,0.005555028095841408,-0.006989762187004089,-0.001155853271484375,-0.8868020932002484,-0.9923612794406202,-0.14996028502328107
0.020637348294258118,0.13512302935123444,9.739715576171875,0.0019453465938568115,-0.009279534220695496,0.0012445449829101562,1.0621257921184826,0.4108891860683048,0.2522986502038085
0.010304415598511696,0.14028947055339813,9.741484642028809,-0.014076100662350655,-0.0012365281581878662,0.008078575134277344,0.04198962845928476,-0.8829605386789393,0.013221592046705073
0.01828135922551155,0.14219097793102264,9.73350715637207,-0.0024539679288864136,-0.0006379634141921997,-0.0036191940307617188,-0.10078294967961571,-0.10231027069148046,0.023167227932316337
0.01749507710337639,0.14080895483493805,9.73189926147461,-0.0025755055248737335,-0.0013622790575027466,-0.005734443664550781,0.3683765145289852,0.638983673565998,0.07240571481339447
0.021573156118392944,0.14230529963970184,9.74427604675293,0.0028888266533613205,-0.0019634217023849487,-0.005993843078613281,0.14087486610690794,0.25877745815753583,0.0045575637856100125
0.023515965789556503,0.1418207734823227,9.736424446105957,0.006485935300588608,-0.004356548190116882,0.0009326934814453125,-0.21830007626917422,-0.4354831498047869,-0.08071869536353468
0.023515965789556503,0.1418207734823227,9.736424446105957,0.006485935300588608,-0.004356548190116882,0.0009326934814453125,0.33337563701407796,0.8462610251339616,0.09511470642151171
0.025425538420677185,0.13275226950645447,9.739542007446289,0.00595974363386631,-0.012735292315483093,0.0009355545043945312,0.33337563701407796,0.8462610251339616,0.09511470642151171
0.018803728744387627,0.14485161006450653,9.740727424621582,-0.002163257449865341,0.004014924168586731,0.00315093994140625,0.019486709794924884,-0.3562355064337437,-0.062106970153885444
0.0183122381567955,0.13054177165031433,9.736078262329102,-0.0012878142297267914,-0.012673556804656982,-0.0016717910766601562,0.14894340058995575,0.28121345564226413,0.059281186158097625
0.027121523395180702,0.13003505766391754,9.740727424621582,0.00798414833843708,-0.014115363359451294,0.0029401779174804688,-0.1653573456814881,-0.18201433611772447,-0.05154036735307821
0.015849150717258453,0.13645052909851074,9.73966121673584,-0.004375003278255463,-0.006833180785179138,0.00045490264892578125,0.19942735645792983,0.23972517907631416,0.059281186158097625
0.0232233889400959,0.13751710951328278,9.738717079162598,0.0055871400982141495,-0.00412498414516449,0.005343437194824219,-0.16470124731477018,-0.17781243575684436,-0.010718754602718527
0.0232233889400959,0.13751710951328278,9.738717079162598,0.0055871400982141495,-0.00412498414516449,0.005343437194824219,-0.16470124731477018,-0.17781243575684436,-0.010718754602718527
0.01680983044207096,0.1304742395877838,9.741619110107422,0.007411489263176918,-0.0015739798545837402,0.009836196899414062,0.1633221760924491,0.23637641203145096,0.018669388281304267
0.020200558006763458,0.13751710951328278,9.74261474609375,0.0026519522070884705,-0.0031063854694366455,0.0025682449340820312,-0.02135033091202683,-0.04790621312674219,0.05187275210573453
0.020008964464068413,0.14042015373706818,9.735311508178711,0.0007632188498973846,0.0013863444328308105,-0.0023517608642578125,0.1150611933352629,0.08116216407169627,-0.010718754602718527
0.028324216604232788,0.13833661377429962,9.731151580810547,0.010224491357803345,-0.0007399320602416992,-0.006748199462890625,0.04508239681240471,0.05892346834053143,-0.010718754602718527
0.01969299279153347,0.1408555656671524,9.745077133178711,0.00041389837861061096,-0.0006558746099472046,0.009655952453613281,-0.0065125120024344335,-0.00006875545894969867,-0.010718754602718527
0.011060953140258789,0.13361699879169464,9.739974975585938,-0.008591001853346825,-0.0004689246416091919,0.004730224609375,0.10785286248124004,-0.010928275991593956,-0.010718754602718527
0.017378900200128555,0.13819025456905365,9.733545303344727,-0.008591001853346825,-0.0004689246416091919,0.004730224609375,0.10785286248124004,-0.010928275991593956,-0.010718754602718527
0.013485787436366081,0.12618836760520935,9.735502243041992,0.015097346156835556,-0.021505162119865417,-0.0045795440673828125,-0.02853427585627864,-0.01849695268518789,-0.010718754602718527
0.016079291701316833,0.1399112194776535,9.736199378967285,-0.017535315826535225,0.0003598630428314209,-0.0043926239013671875,0.048684294403168286,0.06990302411175336,0.059281186158097625
0.025030076503753662,0.14091052114963531,9.740030288696289,0.008387260138988495,0.002775907516479492,0.0026988983154296875,-0.05451481134996629,0.02209372763407396,-0.010718754602718527
0.013659860007464886,0.14682044088840485,9.738333702087402,-0.005709636956453323,0.007186710834503174,0.0002918243408203125,0.0708749253460918,0.02209372763407396,-0.010718754602718527
0.024303149431943893,0.13751710951328278,9.740166664123535,0.005897872149944305,-0.0022615939378738403,0.0026025772094726562,0.0008749845852756569,-0.04790621312674219,-0.010718754602718527
0.026615889742970467,0.13993802666664124,9.735939979553223,0.00547180138528347,0.004906952381134033,-0.0020647048950195312,0.0008749845852756569,-0.047708604548274615,-0.010718754602718527
0.023141195997595787,0.13757199048995972,9.745681762695312,0.00806809775531292,-0.00017406046390533447,0.014279365539550781,0.052668255700629454,0.02209372763407396,-0.010718754602718527
0.023141195997595787,0.13757199048995972,9.745681762695312,0.00806809775531292,-0.00017406046390533447,0.014279365539550781,0.052668255700629454,0.02209372763407396,-0.010718754602718527
0.02063819207251072,0.1364913284778595,9.740043640136719,0.012259762734174728,0.000008538365364074707,-0.00027751922607421875,0.03747952915232104,0.025302876007348585,0.022676641591052236
0.020404430106282234,0.13883061707019806,9.74034595489502,-0.0018538162112236023,0.000023826956748962402,0.008984565734863281,0.06746844853882729,0.08528071478036106,0.0558747093508331
0.024522673338651657,0.1327289193868637,9.741178512573242,0.005056709051132202,-0.006787434220314026,0.0019598007202148438,-0.04732474324784527,-0.05250551843952597,-0.010718754602718527
0.025069482624530792,0.14824143052101135,9.729825973510742,0.004984714090824127,0.009763836860656738,-0.009848594665527344,0.030669483704274542,0.0012718292482239758,-0.010718754602718527
0.02222427912056446,0.1343432515859604,9.742287635803223,0.002249985933303833,-0.006632804870605469,0.0067901611328125,-0.010525855119518557,-0.012108778140095457,-0.010718754602718527
0.019200291484594345,0.1308138221502304,9.742164611816406,0.007328987121582031,-0.01103539764881134,-0.0052852630615234375,0.05686710115268157,0.06407802000806964,-0.010718754602718527
0.020637348294258118,0.1336318850517273,9.738032341003418,0.00030201487243175507,0.001071736216545105,-0.00286102294921875,-0.04372505679742335,-0.08630649713590591,-0.05531879598541753
0.020637348294258118,0.1336318850517273,9.738032341003418,0.00030201487243175507,0.001071736216545105,-0.00286102294921875,-0.04372505679742335,-0.08630649713590591,-0.05531879598541753
0.024892063811421394,0.13658680021762848,9.733149528503418,0.007120437920093536,-0.0033428817987442017,-0.009752273559570312,0.01847480793123824,0.057293374325999125,-0.010718754602718527
0.025425538420677185,0.13356351852416992,9.740727424621582,0.00448446162045002,-0.005443841218948364,0.0022230148315429688,-0.058528291204235944,-0.13492276979185175,-0.010718754602718527
0.024399759247899055,0.13772226870059967,9.748867988586426,0.004299130290746689,-0.0004438459873199463,0.011409759521484375,-0.05211955939056736,-0.013895419556795921,-0.010718754602718527
0.025275900959968567,0.12809036672115326,9.733545303344727,0.006773235276341438,-0.01211857795715332,-0.0050563812255859375,0.05045606148212546,0.09646533630924206,0.036676488336955304
0.020158585160970688,0.1337823122739792,9.733545303344727,0.004414938390254974,-0.00461927056312561,-0.0047817230224609375,0.05827734845330409,0.14109766100793994,-0.010718754602718527
0.015589598566293716,0.1382286250591278,9.741438865661621,-0.00009704940021038055,0.0024877935647964478,0.004595756530761719,0.028289162778525098,0.09111732486954852,-0.010718754602718527
0.015589598566293716,0.1382286250591278,9.741438865661621,-0.00009704940021038055,0.0024877935647964478,0.004595756530761719,0.028289162778525098,0.09111732486954852,-0.010718754602718527
0.024878427386283875,0.13567014038562775,9.737581253051758,0.002471810206770897,-0.000024765729904174805,0.004344940185546875,-0.03172196649658458,0.0317058048282653,0.059281186158097625
0.012278717011213303,0.13268747925758362,9.736063957214355,-0.009401483461260796,-0.0025110989809036255,-0.009660720825195312,0.05187240526019075,-0.06690873321264325,0.04027866607219656
0.02664293348789215,0.13092316687107086,9.743669509887695,0.007303735241293907,-0.006683364510536194,0.0021152496337890625,-0.06912495617554049,0.004295708740262004,-0.010718754602718527
0.013618090189993382,0.1397889405488968,9.743284225463867,-0.00697718933224678,0.0028178393840789795,0.004004478454589844,0.03706648947052039,-0.009331625891610917,-0.010718754602718527
0.016519371420145035,0.14163509011268616,9.741397857666016,-0.004324035719037056,0.004877269268035889,0.0014581680297851562,0.016278141720925447,-0.017099898855442608,-0.010718754602718527
0.015439802780747414,0.13621772825717926,9.735939979553223,0.00043703988194465637,0.0002570301294326782,-0.0031480789184570312,0.0038656002556429294,-0.04192498178600764,-0.010718754602718527
0.02955809235572815,0.1356147676706314,9.747910499572754,0.0008059199899435043,0.004895344376564026,0.0084686279296875,0.0038656002556429294,-0.04192498178600764,-0.010718754602718527
0.02955809235572815,0.1356147676706314,9.747910499572754,0.0008059199899435043,0.004895344376564026,0.0084686279296875,-0.02051900884462901,-0.02069425922573537,-0.010718754602718527
0.022223681211471558,0.1391180455684662,9.742327690124512,0.005229471251368523,0.00016291439533233643,0.0010204315185546875,0.0008749845852756569,0.02209372763407396,-0.010718754602718527
0.013975650072097778,0.1322779506444931,9.746036529541016,-0.008823724463582039,-0.006896272301673889,0.00322723388671875,0.0008749845852756569,0.02209372763407396,-0.010718754602718527
0.021664604544639587,0.13375334441661835,9.754061698913574,0.0008456520736217499,-0.001995369791984558,0.01682281494140625,0.0008749845852756569,0.02209372763407396,-0.010718754602718527
0.021498478949069977,0.13186778128147125,9.746188163757324,0.0005670115351676941,-0.003957867622375488,0.007237434387207031,0.0008749845852756569,-0.021299304596450075,-0.010718754602718527
0.014932972379028797,0.1415964514017105,9.740935325622559,-0.003963634371757507,0.010329663753509521,0.004900932312011719,-0.06091130685305637,-0.03969256380425806,-0.010718754602718527
0.028668176382780075,0.146093487739563,9.733848571777344,0.009857473894953728,0.002713531255722046,0.0027551651000976562,0.0008749845852756569,-0.0377153574416716,-0.010718754602718527
0.028668176382780075,0.146093487739563,9.733848571777344,0.009857473894953728,0.002713531255722046,0.0027551651000976562,0.0008749845852756569,0.02209372763407396,-0.010718754602718527
0.02385142259299755,0.13833709061145782,9.749829292297363,0.00731646828353405,0.004695922136306763,-0.0043773651123046875,0.0008749845852756569,0.02209372763407396,-0.010718754602718527
0.012193235568702221,0.13679325580596924,9.743121147155762,0.0023498497903347015,-0.004744961857795715,0.0023908615112304688,0.0008749845852756569,-0.0009193808148807398,0.03626807770914292
0.022088535130023956,0.13418011367321014,9.734996795654297,0.00036931224167346954,-0.004681795835494995,-0.007050514221191406,0.0008749845852756569,-0.03412238445355399,-0.010718754602718527
0.02724277600646019,0.14240144193172455,9.738621711730957,0.007272137328982353,0.004752948880195618,-0.0021381378173828125,0.0008749845852756569,0.02209372763407396,-0.010718754602718527
0.020899571478366852,0.13539375364780426,9.738072395324707,0.0026760417968034744,-0.004996269941329956,-0.004540443420410156,0.020292618756133498,0.02209372763407396,-0.010718754602718527
0.02070668525993824,0.1325209140777588,9.740657806396484,0.002728322520852089,-0.01190212368965149,-0.0021581649780273438,0.0008749845852756569,0.02209372763407396,-0.010718754602718527
0.025425538420677185,0.13049568235874176,9.738306999206543,0.005299283191561699,0.0071739256381988525,-0.0045604705810546875,0.0008749845852756569,0.02209372763407396,-0.010718754602718527
0.025425538420677185,0.13049568235874176,9.738306999206543,0.005299283191561699,0.0071739256381988525,-0.0045604705810546875,0.0008749845852756569,0.02209372763407396,-0.010718754602718527
0.014997617341578007,0.13709135353565216,9.739184379577637,0.004858061671257019,0.004838675260543823,-0.011358261108398438,0.0008749845852756569,-0.012122518559714818,-0.010718754602718527
0.020460791885852814,0.1397346407175064,9.735939979553223,-0.001825474202632904,0.0000016689300537109375,-0.0041408538818359375,0.0034548951111562447,0.02467364483006116,-0.010718754602718527
0.015849150717258453,0.14278465509414673,9.753175735473633,-0.004331722855567932,0.004524663090705872,0.014706611633300781,0.0008749845852756569,-0.04790621312674219,-0.010718754602718527
0.027070846408605576,0.13796637952327728,9.745516777038574,0.007613133639097214,-0.0004458427429199219,0.0048503875732421875,0.0008749845852756569,0.02209372763407396,-0.010718754602718527
0.019078947603702545,0.1431410163640976,9.735770225524902,0.0004966221749782562,0.006494149565696716,-0.011837959289550781,0.0008749845852756569,-0.03568979280615292,0.001497665717870745
0.008384651504456997,0.13709448277950287,9.743121147155762,-0.0013854838907718658,0.0018500089645385742,0.0023860931396484375,0.0008749845852756569,0.08591632257956892,-0.0045414087873973455
0.01715165376663208,0.1377900093793869,9.743940353393555,-0.010183872655034065,0.001875177025794983,0.0091094970703125,-0.023705572236917632,0.018351997928310236,-0.010718754602718527
0.0212271586060524,0.13571281731128693,9.748499870300293,-0.0005015265196561813,-0.005259498953819275,0.004151344299316406,0.0008749845852756569,-0.0049267141659080456,-0.010718754602718527
0.0212271586060524,0.13571281731128693,9.748499870300293,-0.0005015265196561813,-0.005259498953819275,0.004151344299316406,0.0008749845852756569,-0.0049267141659080456,-0.010718754602718527
0.018049608916044235,0.13158467411994934,9.743791580200195,0.0016889609396457672,-0.012197285890579224,0.003795623779296875,0.06109441461975089,0.06275213621586737,-0.010718754602718527
0.024024879559874535,0.14423252642154694,9.738800048828125,0.006405668333172798,0.006525516510009766,-0.0032644271850585938,0.04270075520554622,-0.006080442506471625,0.031107016017552037
0.015057109296321869,0.13791313767433167,9.751114845275879,-0.0029076021164655685,-0.0005801171064376831,0.01074981689453125,-0.045704490975617997,-0.024485747926819696,0.03586072095817513
0.02303144335746765,0.13477924466133118,9.740384101867676,0.004110092297196388,-0.0052063316106796265,-0.0035467147827148438,0.0008749845852756569,0.02209372763407396,-0.010718754602718527
0.017328273504972458,0.1456143856048584,9.74199390411377,0.0018239561468362808,0.003995463252067566,-0.012922286987304688,-0.055747917294258126,-0.034529180915566435,-0.010718754602718527
0.007712118327617645,0.14094914495944977,9.736977577209473,0.011237943544983864,0.006119474768638611,-0.0012226104736328125,0.03264909130524109,0.015642000313188673,-0.048944588643569244
0.007712118327617645,0.14094914495944977,9.736977577209473,0.011237943544983864,0.006119474768638611,-0.0012226104736328125,0.03264909130524109,0.015642000313188673,-0.048944588643569244
0.024277232587337494,0.14355109632015228,9.738041877746582,0.004373917356133461,0.003475204110145569,0.003631591796875,0.0708749253460918,0.0722667498122538,-0.010718754602718527
0.019404103979468346,0.14346615970134735,9.740799903869629,0.0018085483461618423,0.005326062440872192,-0.0031595230102539062,0.0708749253460918,-0.013966296109648026,-0.010718754602718527
0.027755502611398697,0.14229246973991394,9.75029182434082,0.008891155943274498,0.002614259719848633,0.008396148681640625,0.0708749253460918,0.02209372763407396,-0.010718754602718527
0.01999540999531746,0.13640691339969635,9.74902057647705,0.0016384683549404144,-0.00444987416267395,0.008065223693847656,0.0008749845852756569,0.00586214325729567,-0.010718754602718527
0.01779743656516075,0.13527162373065948,9.735197067260742,0.006532099097967148,-0.006712183356285095,0.006009101867675781,0.0008749845852756569,0.019920206693702522,-0.010718754602718527
0.023167219012975693,0.1349872499704361,9.745381355285645,0.00632832944393158,-0.006218180060386658,0.0012178421020507812,0.021444065920236,0.02209372763407396,-0.060149614028574334
0.023167219012975693,0.1349872499704361,9.745381355285645,0.00632832944393158,-0.006218180060386658,0.0012178421020507812,0.021444065920236,0.02209372763407396,-0.060149614028574334
0.022833753377199173,0.13675203919410706,9.740060806274414,0.013098690658807755,-0.0037283897399902344,-0.008221626281738281,0.0008749845852756569,-0.01687576993308834,-0.010718754602718527
0.018637720495462418,0.1430942565202713,9.744516372680664,0.00109119713306427,0.008046165108680725,0.0036096572875976562,0.0008749845852756569,-0.042140626332752285,-0.07495310856954478
0.012172140181064606,0.13586382567882538,9.745688438415527,-0.00829903781414032,-0.0037768036127090454,0.0058040618896484375,0.0008749845852756569,-0.04790621312674219,-0.010718754602718527
0.013972485437989235,0.13777582347393036,9.742086410522461,-0.005641184747219086,-0.0013744384050369263,0.0012178421020507812,0.0008749845852756569,0.02209372763407396,-0.010718754602718527
0.02480776235461235,0.13601118326187134,9.746404647827148,0.003548895940184593,-0.003629520535469055,0.0033512115478515625,0.0008749845852756569,0.013063043612553508,-0.010718754602718527
0.019356168806552887,0.1396750509738922,9.742650032043457,0.005836157128214836,-0.0037382543087005615,-0.008533477783203125,0.0008749845852756569,-0.04790621312674219,0.049917503734112606
0.019356168806552887,0.1396750509738922,9.742650032043457,0.005836157128214836,-0.0037382543087005615,-0.008533477783203125,0.0008749845852756569,-0.04790621312674219,0.049917503734112606
0.022649584338068962,0.12707406282424927,9.743782043457031,0.0010601449757814407,-0.0037302225828170776,0.017149925231933594,0.028640970881633643,0.02209372763407396,-0.010718754602718527
0.020637348294258118,0.1289518028497696,9.745516777038574,0.001006999984383583,-0.007925286889076233,0.0027618408203125,0.0008749845852756569,0.02209372763407396,-0.010718754602718527
0.014962290413677692,0.14053159952163696,9.738200187683105,-0.006070856004953384,-0.0005572885274887085,-0.006697654724121094,0.057908731681534965,0.009127533969517118,0.0022474390618383165
0.018367746844887733,0.1326044201850891,9.738208770751953,-0.001142803579568863,-0.005443349480628967,-0.004197120666503906,0.0008749845852756569,0.02209372763407396,-0.010718754602718527
0.01874821074306965,0.13600222766399384,9.751052856445312,-0.0010752640664577484,-0.00042811036109924316,0.012391090393066406,0.0008749845852756569,0.02209372763407396,-0.010718754602718527
0.02051149308681488,0.13613128662109375,9.737199783325195,-0.0010760817676782608,-0.0051272958517074585,-0.004063606262207031,0.0008749845852756569,0.02209372763407396,-0.010718754602718527
0.017110370099544525,0.13714319467544556,9.737200736999512,0.0014446992427110672,0.011443987488746643,-0.0014495849609375,0.0008749845852756569,0.02209372763407396,-0.010718754602718527
0.017110370099544525,0.13714319467544556,9.737200736999512,0.0014446992427110672,0.011443987488746643,-0.0014495849609375,0.0008749845852756569,0.02209372763407396,-0.010718754602718527
0.015221246518194675,0.13221852481365204,9.745908737182617,-0.005547663196921349,-0.0006297826766967773,-0.008481979370117188,0.0008749845852756569,0.02209372763407396,-0.010718754602718527
0.016865581274032593,0.13033480942249298,9.739590644836426,-0.005346762016415596,-0.007386922836303711,-0.0014867782592773438,0.0008749845852756569,0.020331965715033797,-0.010718754602718527
0.021000701934099197,0.13410764932632446,9.746532440185547,0.004132157191634178,-0.0023298412561416626,0.0033159255981445312,0.0008749845852756569,0.02209372763407396,-0.010718754602718527
0.024816710501909256,0.1371518075466156,9.73667049407959,0.006561579182744026,0.00025187432765960693,-0.006305694580078125,0.0008749845852756569,0.02209372763407396,-0.010718754602718527
0.017350923269987106,0.14230529963970184,9.74340534210205,-0.0028014574199914932,0.004980117082595825,0.005738258361816406,-0.06912495617554049,0.07904736674993107,-0.010718754602718527
0.02035645954310894,0.13825003802776337,9.739713668823242,-0.005164621397852898,-0.004605889320373535,-0.003692626953125,-0.004483578963077023,0.02209372763407396,-0.010718754602718527
0.016093850135803223,0.13825121521949768,9.75054931640625,-0.0002648383378982544,0.0069119930267333984,0.010283470153808594,-0.004483578963077023,0.02209372763407396,-0.010718754602718527
0.016093850135803223,0.13825121521949768,9.75054931640625,-0.0002648383378982544,0.0069119930267333984,0.010283470153808594,0.0008749845852756569,-0.024151935771348547,-0.010718754602718527
0.017369234934449196,0.13208284974098206,9.738751411437988,-0.0025516394525766373,-0.0024779289960861206,-0.011165618896484375,0.015183370452699508,-0.005752046477568883,-0.010718754602718527
0.017352363094687462,0.13690480589866638,9.739503860473633,-0.00019034743309020996,-0.0022156834602355957,-0.006221771240234375,0.0008749845852756569,-0.03895571712690327,-0.010718754602718527
0.019591500982642174,0.13725565373897552,9.748735427856445,0.0021708905696868896,0.00010116398334503174,0.007825851440429688,0.0008749845852756569,-0.02055066517060643,-0.010718754602718527
0.023219633847475052,0.1391759216785431,9.748098373413086,0.007032256573438644,0.0024854838848114014,0.007784843444824219,0.0008749845852756569,0.02209372763407396,0.059281186158097625
0.025628304108977318,0.1341259479522705,9.750304222106934,0.01384698785841465,-0.0022226423025131226,0.0073604583740234375,0.06502912384999392,0.016247926137976074,-0.010718754602718527
0.015849150717258453,0.13187049329280853,9.745606422424316,-0.002682611346244812,-0.0019743740558624268,-0.002288818359375,0.0008749845852756569,0.009545229385732488,-0.010718754602718527
0.015849150717258453,0.13187049329280853,9.745606422424316,-0.002682611346244812,-0.0019743740558624268,-0.002288818359375,0.0008749845852756569,0.009545229385732488,-0.010718754602718527
0.01922483742237091,0.13653552532196045,9.746007919311523,0.004150165244936943,-0.004153326153755188,0.004429817199707031,-0.03817431080233142,-0.01695557108858642,-0.010718754602718527
0.02191142737865448,0.13751710951328278,9.747910499572754,0.00168616883456707,0.0005972832441329956,0.004252433776855469,0.0008749845852756569,0.00144445160732547,-0.010718754602718527
0.016953879967331886,0.1410159319639206,9.738518714904785,-0.0008398927748203278,0.005327999591827393,-0.007620811462402344,-0.052973839964921415,-0.03175509691612311,-0.010718754602718527
0.003956509754061699,0.13277563452720642,9.743167877197266,-0.014562102034687996,-0.004258573055267334,-0.0004787445068359375,0.03633040318531929,0.02209372763407396,0.02382576755805399
0.021189793944358826,0.13457056879997253,9.74852466583252,0.004494786262512207,-0.0042220354080200195,0.004010200500488281,0.0008749845852756569,-0.030855886503635063,-0.010718754602718527
0.023123428225517273,0.13733313977718353,9.747818946838379,0.0019258931279182434,0.005316838622093201,0.006182670593261719,0.0008749845852756569,0.02209372763407396,-0.010718754602718527
0.020422236993908882,0.13926587998867035,9.74540901184082,-0.0027902573347091675,-0.011030063033103943,-0.0008831024169921875,0.0008749845852756569,-0.02815946922557419,-0.010718754602718527
0.020422236993908882,0.13926587998867035,9.74540901184082,-0.0027902573347091675,-0.011030063033103943,-0.0008831024169921875,0.0008749845852756569,-0.02815946922557419,-0.010718754602718527
0.02211097627878189,0.1295979917049408,9.742938041687012,0.006613267585635185,-0.008488953113555908,0.0037565231323242188,-0.037269901041739835,-0.016051157992941528,-0.010718754602718527
0.02815789356827736,0.14161564409732819,9.753726959228516,0.01110508106648922,0.008201837539672852,0.00839996337890625,0.0008749845852756569,0.02209372763407396,-0.010718754602718527
0.02143634855747223,0.13951244950294495,9.737135887145996,0.003600219264626503,0.0032887011766433716,-0.008418083190917969,0.0008749845852756569,-0.024566442876603693,0.03594141590795913
0.019945316016674042,0.13751710951328278,9.740958213806152,0.0011845976114273071,0.0008427798748016357,-0.0034961700439453125,0.0008749845852756569,-0.04790621312674219,-0.010718754602718527
0.018243253231048584,0.13837692141532898,9.745330810546875,-0.0011815987527370453,0.0007291585206985474,0.0036792755126953125,0.0008749845852756569,-0.038044433821448696,-0.010718754602718527
0.031118646264076233,0.14166408777236938,9.739822387695312,0.012595046311616898,-0.004227384924888611,-0.005639076232910156,0.0008749845852756569,0.02209372763407396,-0.010718754602718527
0.02338504046201706,0.13583022356033325,9.730525970458984,0.005331868305802345,0.0031137168407440186,-0.00319671630859375,0.0008749845852756569,0.02209372763407396,0.03234246650431776
0.021192047744989395,0.1332836151123047,9.73888874053955,0.005062989890575409,0.0006340742111206055,-0.00036907196044921875,0.02553686334727441,-0.023244334364743432,-0.010718754602718527
0.021192047744989395,0.1332836151123047,9.73888874053955,0.005062989890575409,0.0006340742111206055,-0.00036907196044921875,0.02553686334727441,-0.023244334364743432,-0.010718754602718527
0.01497090607881546,0.1382991075515747,9.746394157409668,-0.00891641341149807,0.0007904917001724243,0.00682830810546875,0.0008749845852756569,0.02209372763407396,-0.010718754602718527
0.024967877194285393,0.1358858048915863,9.743731498718262,0.005283953621983528,-0.001647859811782837,-0.00020599365234375,0.0008749845852756569,0.02209372763407396,-0.010718754602718527
0.023995865136384964,0.13750581443309784,9.750781059265137,0.005039060488343239,-0.0018836408853530884,0.006529808044433594,0.0008749845852756569,-0.04790621312674219,-0.010718754602718527
0.01842539757490158,0.143229141831398,9.733545303344727,0.0004360247403383255,0.0025486648082733154,-0.009668350219726562,0.0008749845852756569,0.02209372763407396,-0.010718754602718527
0.01716700568795204,0.14098744094371796,9.744857788085938,0.0006110314279794693,-0.00009395182132720947,-0.0001506805419921875,0.055141984799364115,0.02209372763407396,-0.010718754602718527
0.0242215134203434,0.13631309568881989,9.744916915893555,-0.006232935935258865,-0.011664718389511108,0.0001163482666015625,0.0008749845852756569,-0.013772049264912566,-0.010718754602718527
0.0242215134203434,0.13631309568881989,9.744916915893555,-0.006232935935258865,-0.011664718389511108,0.0001163482666015625,0.0008749845852756569,-0.013772049264912566,-0.010718754602718527
0.020573638379573822,0.1316274255514145,9.760135650634766,-0.0015546157956123352,-0.002106010913848877,0.025650978088378906,0.0008749845852756569,0.02209372763407396,-0.010718754602718527
0.019850624725222588,0.1364455223083496,9.738367080688477,-0.001748163253068924,0.0005280971527099609,-0.010151863098144531,0.0008749845852756569,-0.04790621312674219,-0.010718754602718527
0.030027097091078758,0.12352582812309265,9.72978401184082,0.00986122339963913,-0.013447821140289307,-0.014830589294433594,0.03860326869356004,0.02209372763407396,-0.010718754602718527
0.01896602101624012,0.13227732479572296,9.748181343078613,-0.002096736803650856,-0.008575990796089172,-0.0008945465087890625,0.0008749845852756569,-0.03403976851306593,-0.010718754602718527
0.0264677032828331,0.13782688975334167,9.742812156677246,0.007093105465173721,-0.0014494210481643677,0.00154876708984375,0.0008749845852756569,0.02209372763407396,-0.010718754602718527
0.017377501353621483,0.13229604065418243,9.73288345336914,-0.011505132541060448,-0.008226335048675537,0.006183624267578125,0.0008749845852756569,-0.0008362846267166589,-0.010718754602718527
0.020637348294258118,0.13146641850471497,9.743967056274414,-0.011505132541060448,-0.008226335048675537,0.006183624267578125,0.0008749845852756569,-0.0008362846267166589,-0.010718754602718527
0.020637348294258118,0.13146641850471497,9.743967056274414,0.0004661642014980316,0.006057813763618469,0.0017080307006835938,0.0008749845852756569,-0.04790621312674219,-0.010718754602718527
0.019718308001756668,0.1378801465034485,9.749578475952148,0.0005102157592773438,-0.000918075442314148,0.010991096496582031,0.06274521264520479,0.02209372763407396,-0.010718754602718527
0.025425538420677185,0.14353980123996735,9.748564720153809,0.005163747817277908,0.008245840668678284,0.006121635437011719,0.0008749845852756569,-0.00442943103760616,-0.010718754602718527
0.03775282949209213,0.13306847214698792,9.744158744812012,0.018919123336672783,-0.0034801065921783447,0.0015192031860351562,-0.04405331942419386,0.002237060375951071,-0.010718754602718527
0.02348816581070423,0.13660366833209991,9.741129875183105,0.004395967349410057,-0.003550902009010315,0.004151344299316406,0.0008749845852756569,-0.04122782224299033,-0.010718754602718527
0.018231237307190895,0.13751710951328278,9.735939979553223,0.006766133010387421,0.0011669248342514038,-0.0073909759521484375,0.0008749845852756569,-0.03618021906485835,0.047555192096213776
0.018231237307190895,0.13751710951328278,9.735939979553223,0.006766133010387421,0.0011669248342514038,-0.0073909759521484375,0.0008749845852756569,-0.03618021906485835,0.047555192096213776
0.021099817007780075,0.1427677720785141,9.741652488708496,0.0022160448133945465,0.008212283253669739,0.0018720626831054688,0.0008749845852756569,0.02209372763407396,-0.010718754602718527
0.01496783085167408,0.1325184404850006,9.739635467529297,-0.009409099817276001,-0.0015941262245178223,-0.0050830841064453125,0.02235344824530634,-0.026427749466711503,-0.010718754602718527
0.021012088283896446,0.13579614460468292,9.750304222106934,0.0025120247155427933,-0.0014913231134414673,0.006770133972167969,0.05555689211101594,0.006775694398998098,-0.010718754602718527
0.018155908212065697,0.12559029459953308,9.742902755737305,-0.0022362228482961655,-0.010676443576812744,-0.0005846023559570312,-0.035401844303741346,-0.04790621312674219,-0.010718754602718527
0.0243070051074028,0.13336670398712158,9.732959747314453,0.007395558059215546,-0.0010675787925720215,-0.009534835815429688,0.0708749253460918,0.02209372763407396,-0.010718754602718527
0.025425538420677185,0.1399468034505844,9.739583969116211,0.0046890974044799805,0.0011217296123504639,-0.0069427490234375,0.0013967069842014941,-0.04738449072781635,-0.010718754602718527
0.020875107496976852,0.1374378502368927,9.731864929199219,0.00671837292611599,-0.0012054741382598877,0.009471893310546875,0.0008749845852756569,0.02209372763407396,-0.010718754602718527
0.020875107496976852,0.1374378502368927,9.731864929199219,0.00671837292611599,-0.0012054741382598877,0.009471893310546875,0.0008749845852756569,0.02209372763407396,-0.010718754602718527
0.0151405930519104,0.13512302935123444,9.735843658447266,-0.007351720705628395,-0.001206919550895691,0.009534835815429688,0.0008749845852756569,-0.015223210999489045,-0.010718754602718527
0.017749767750501633,0.13110971450805664,9.737839698791504,0.0022553149610757828,-0.008126437664031982,0.00034809112548828125,0.0008749845852756569,-0.04379331866848381,-0.010718754602718527
0.023458365350961685,0.13683071732521057,9.739187240600586,0.0023056399077177048,-0.0008952021598815918,-0.004002571105957031,0.0008749845852756569,-0.04790621312674219,-0.010718754602718527
0.021041730418801308,0.13593178987503052,9.747506141662598,-0.00014334172010421753,-0.0011075884103775024,0.005397796630859375,0.0008749845852756569,0.02209372763407396,-0.010718754602718527
0.02303144335746765,0.13356053829193115,9.739165306091309,0.002197032794356346,-0.003377363085746765,-0.0040149688720703125,0.0008749845852756569,0.02209372763407396,-0.010718754602718527
0.018770731985569,0.14149366319179535,9.741133689880371,-0.00488290935754776,-0.003583088517189026,0.0031881332397460938,0.0008749845852756569,0.02209372763407396,-0.010718754602718527
0.018770731985569,0.14149366319179535,9.741133689880371,-0.00488290935754776,-0.003583088517189026,0.0031881332397460938,0.0008749845852756569,-0.004018925996317815,-0.010718754602718527
0.020845705643296242,0.12729008495807648,9.734195709228516,0.016079289838671684,-0.01289394497871399,-0.0041637420654296875,0.0008749845852756569,-0.004018925996317815,-0.010718754602718527
0.020637348294258118,0.13222843408584595,9.740242958068848,-0.0007269065827131271,0.006301030516624451,0.0008487701416015625,0.0008749845852756569,-0.003394350553445106,-0.010718754602718527
0.021447524428367615,0.13029839098453522,9.751924514770508,-0.0007254518568515778,-0.0029048025608062744,0.007915496826171875,0.0008749845852756569,0.010781306862519678,-0.010718754602718527
0.020275237038731575,0.1334531456232071,9.742758750915527,-0.0007933191955089569,-0.0025543123483657837,0.00036907196044921875,0.0008749845852756569,-0.018200426425674134,0.018987032098349527
0.019740553572773933,0.1442510038614273,9.744171142578125,-0.0005509760230779648,0.008962169289588928,0.0028076171875,0.0008749845852756569,0.02209372763407396,-0.010718754602718527
0.019320793449878693,0.1324899047613144,9.732229232788086,-0.002999311313033104,-0.005238354206085205,-0.010989189147949219,0.0008749845852756569,-0.04790621312674219,-0.007222991748354598
0.018243253231048584,0.13410328328609467,9.74174690246582,-0.002876443788409233,0.0019639432430267334,-0.0037279129028320312,0.0008749845852756569,0.007185345666640191,0.004189627364715244
0.018243253231048584,0.13410328328609467,9.74174690246582,-0.002876443788409233,0.0019639432430267334,-0.0037279129028320312,0.0008749845852756569,0.007185345666640191,0.004189627364715244
0.021779978647828102,0.1386597454547882,9.748481750488281,0.004179203882813454,0.006444066762924194,0.007985115051269531,0.0008749845852756569,-0.04790621312674219,-0.010718754602718527
0.021852463483810425,0.13391512632369995,9.747902870178223,0.006476745009422302,-0.005420461297035217,0.0029573440551757812,0.0008749845852756569,0.02209372763407396,-0.010718754602718527
0.010923953726887703,0.13611456751823425,9.739599227905273,-0.012107515707612038,-0.00299246609210968,-0.0019903182983398438,0.0008749845852756569,0.02209372763407396,0.00778190666174527
0.020572183653712273,0.1354488581418991,9.735939979553223,0.000003170222043991089,-0.0008914321660995483,-0.0064067840576171875,0.0008749845852756569,0.02209372763407396,0.022375806442667553
0.021331628784537315,0.1341174840927124,9.745827674865723,-0.00010310299694538116,-0.0032376497983932495,0.0054531097412109375,0.0008749845852756569,0.007392465817135539,-0.010718754602718527
0.022524915635585785,0.1348697543144226,9.752388000488281,0.007019570097327232,0.001592099666595459,0.00017547607421875,0.0008749845852756569,0.018390004195781656,-0.010718754602718527
0.016037238761782646,0.14009930193424225,9.736692428588867,-0.002411823719739914,0.0059632807970047,0.0021715164184570312,0.0008749845852756569,0.02209372763407396,-0.010718754602718527
0.016037238761782646,0.14009930193424225,9.736692428588867,-0.002411823719739914,0.0059632807970047,0.0021715164184570312,0.0008749845852756569,0.02209372763407396,-0.010718754602718527
0.018243253231048584,0.1368740200996399,9.751823425292969,-0.0022534187883138657,0.01257026195526123,0.0023136138916015625,0.0008749845852756569,-0.007407046670187929,-0.010718754602718527
0.01634824648499489,0.13941210508346558,9.743620872497559,-0.0021683238446712494,0.0006470084190368652,0.00193023681640625,0.06357977638441573,0.01479857867239788,-0.010718754602718527
0.026547322049736977,0.1354411095380783,9.738484382629395,0.007351785898208618,-0.0018481314182281494,-0.007357597351074219,0.0008749845852756569,-0.0036064599436857366,-0.010718754602718527
0.014077093452215195,0.13335096836090088,9.738428115844727,-0.006796291097998619,-0.004141956567764282,-0.007472038269042969,0.0008749845852756569,-0.02199943900701605,-0.010718754602718527
0.012428654357790947,0.1317884624004364,9.744575500488281,-0.011246846988797188,-0.0038532018661499023,0.0020532608032226562,0.0008749845852756569,-0.04040467772629801,-0.010718754602718527
0.018243253231048584,0.12786142528057098,9.741472244262695,-0.0016172900795936584,-0.012890651822090149,-0.004978179931640625,0.0008749845852756569,-0.03701358218487923,-0.010718754602718527
0.02237389236688614,0.14187116920948029,9.7518310546875,0.010132504627108574,0.0038290172815322876,0.004345893859863281,0.0008749845852756569,0.02209372763407396,-0.010718754602718527
0.02237389236688614,0.14187116920948029,9.7518310546875,0.010132504627108574,0.0038290172815322876,0.004345893859863281,0.0008749845852756569,0.02209372763407396,-0.010718754602718527
0.019039249047636986,0.1433686763048172,9.741263389587402,0.002921268343925476,0.008096173405647278,-0.0076580047607421875,-0.04681904578005318,-0.02560029606114826,-0.010718754602718527
0.02034727856516838,0.1365257203578949,9.74411392211914,-0.0016304049640893936,-0.0015958696603775024,0.0018138885498046875,0.0008749845852756569,0.02209372763407396,-0.010718754602718527
0.0322466641664505,0.13533973693847656,9.73847770690918,0.012081148102879524,-0.0015326142311096191,-0.0051403045654296875,-0.03201266975302664,-0.04790621312674219,-0.010718754602718527
0.011452942155301571,0.13863153755664825,9.735774040222168,-0.011463811621069908,0.0006821602582931519,-0.0096435546875,0.0008749845852756569,0.02209372763407396,-0.010718754602718527
0.020701449364423752,0.1410762071609497,9.747889518737793,0.00761423259973526,0.0005590617656707764,0.0020704269409179688,0.0005610893681459693,0.021779832416944273,-0.010718754602718527
0.025272918865084648,0.13043655455112457,9.748165130615234,-0.0018497295677661896,-0.0016543567180633545,0.015924453735351562,-0.017214644699477498,0.004004105019427416,-0.010718754602718527
0.02303144335746765,0.14301270246505737,9.74211597442627,-0.0018497295677661896,-0.0016543567180633545,0.015924453735351562,0.03736246878129201,0.02209372763407396,-0.010718754602718527
0.02303144335746765,0.14301270246505737,9.74211597442627,0.0027808640152215958,-0.003764614462852478,-0.010229110717773438,0.03736246878129201,0.02209372763407396,-0.010718754602718527
0.016074026003479958,0.13033480942249298,9.74398136138916,-0.002176070585846901,-0.006276711821556091,-0.003009796142578125,0.0008749845852756569,-0.04790621312674219,-0.010718754602718527
0.02599778212606907,0.1418498456478119,9.735939979553223,0.00745241716504097,0.0057023316621780396,-0.007694244384765625,0.0008749845852756569,0.02209372763407396,-0.010718754602718527
0.013803021050989628,0.13103075325489044,9.735939979553223,-0.006704261526465416,-0.006186187267303467,-0.0072727203369140625,0.0008749845852756569,-0.007818952433864655,-0.010718754602718527
0.022228343412280083,0.13830502331256866,9.747122764587402,0.002849029377102852,0.003331005573272705,0.002048492431640625,0.0008749845852756569,0.02209372763407396,-0.010718754602718527
0.01728164218366146,0.1365555077791214,9.746458053588867,-0.004198897629976273,-0.0014448165893554688,-0.002849578857421875,0.0008749845852756569,-0.04102124904123711,-0.010718754602718527
0.018243253231048584,0.14291805028915405,9.741024017333984,-0.0013777296990156174,-0.005980402231216431,-0.0003681182861328125,-0.043844011478729995,0.02209372763407396,-0.010718754602718527
0.018243253231048584,0.14291805028915405,9.741024017333984,-0.0013777296990156174,-0.005980402231216431,-0.0003681182861328125,-0.043844011478729995,0.02209372763407396,-0.010718754602718527
0.02025279588997364,0.1369754523038864,9.7517728805542,-0.003779258579015732,0.0032669007778167725,0.006699562072753906,0.0008749845852756569,-0.00422603280659994,-0.010718754602718527
0.027575645595788956,0.1383558064699173,9.745393753051758,0.012376055121421814,0.0008870363235473633,0.003940582275390625,0.0008749845852756569,-0.04790621312674219,0.04880454308515754
0.02261289209127426,0.13449519872665405,9.740936279296875,0.002732636407017708,-0.0014453381299972534,-0.0030660629272460938,-0.040243644677433715,-0.01902490496368872,0.018162553560334943
0.024166030809283257,0.1378120332956314,9.7411470413208,0.0051094237715005875,0.003480181097984314,-0.0029621124267578125,0.0008749845852756569,0.02209372763407396,-0.010718754602718527
0.02286902628839016,0.13587665557861328,9.743417739868164,0.009877577424049377,-0.003696069121360779,0.0018558502197265625,0.0008749845852756569,0.02209372763407396,-0.010718754602718527
0.023278553038835526,0.13751710951328278,9.742158889770508,-0.001991601660847664,0.0010294914245605469,0.0018835067749023438,0.0008749845852756569,0.02209372763407396,-0.010718754602718527
0.023278553038835526,0.13751710951328278,9.742158889770508,-0.001991601660847664,0.0010294914245605469,0.0018835067749023438,0.0008749845852756569,0.02209372763407396,-0.010718754602718527
0.017700308933854103,0.14045415818691254,9.74899673461914,-0.004251545295119286,0.005754783749580383,0.008697509765625,0.0008749845852756569,0.054569249425074746,-0.010718754602718527
0.02185928449034691,0.1279904842376709,9.745466232299805,0.0006399359554052353,-0.010791584849357605,0.0036945343017578125,0.0008749845852756569,-0.02878171013113293,-0.010718754602718527
0.013431110419332981,0.13569161295890808,9.747294425964355,-0.00891958363354206,-0.0034607499837875366,0.0012960433959960938,0.05319918284667895,-0.04790621312674219,-0.010718754602718527
0.022994881495833397,0.13291172683238983,9.750340461730957,0.0030180122703313828,-0.0035972297191619873,0.0056858062744140625,0.0008749845852756569,0.02209372763407396,-0.010718754602718527
0.01930532231926918,0.1310008317232132,9.742186546325684,0.0006806701421737671,-0.005730584263801575,0.0011730194091796875,0.0008749845852756569,-0.032380232647951174,-0.010718754602718527
0.012552360072731972,0.13312138617038727,9.75140380859375,-0.010795721784234047,-0.007941022515296936,0.007961273193359375,0.0008749845852756569,0.02209372763407396,-0.010718754602718527
0.019201312214136124,0.13943219184875488,9.758443832397461,0.012814925983548164,-0.002918228507041931,-0.006569862365722656,0.0008749845852756569,0.07082317865900102,-0.010718754602718527
0.019201312214136124,0.13943219184875488,9.758443832397461,0.012814925983548164,-0.002918228507041931,-0.006569862365722656,0.0008749845852756569,0.07082317865900102,-0.010718754602718527
0.02297675982117653,0.13430675864219666,9.744781494140625,0.01256580837070942,0.0018113404512405396,-0.011447906494140625,0.0008749845852756569,0.01275621870843184,0.01961246131486849
0.024358849972486496,0.13458965718746185,9.748886108398438,0.009896298870444298,0.0018386244773864746,0.0026922225952148438,0.0008749845852756569,-0.041436423157153394,-0.010718754602718527
0.023692121729254723,0.1365097612142563,9.72507381439209,0.005045415833592415,-0.000506475567817688,-0.025450706481933594,0.02573786033990055,-0.023043337372117296,-0.010718754602718527
0.028234366327524185,0.1299200803041458,9.738767623901367,0.009594984352588654,-0.007722973823547363,-0.008861541748046875,0.0008749845852756569,-0.0313701383831562,-0.010718754602718527
0.026224590837955475,0.13603492081165314,9.74289321899414,0.01174340769648552,-0.0005784779787063599,-0.006436347961425781,0.0008749845852756569,0.013754680307296634,-0.010718754602718527
0.02303144335746765,0.13836994767189026,9.742433547973633,0.0020068492740392685,0.004148885607719421,0.0008335113525390625,-0.05905949849476311,0.012028269953296577,-0.010718754602718527
0.02303144335746765,0.13836994767189026,9.742433547973633,0.0020068492740392685,0.004148885607719421,0.0008335113525390625,-0.05905949849476311,0.012028269953296577,-0.010718754602718527
0.019014649093151093,0.13354027271270752,9.738373756408691,-0.009414425119757652,0.001785367727279663,0.0056362152099609375,0.0008749845852756569,-0.006368017482912962,-0.010718754602718527
0.015138230286538601,0.14029806852340698,9.747586250305176,-0.009087704122066498,0.011124476790428162,0.005715370178222656,0.0008749845852756569,0.02209372763407396,0.03614191931269602
0.014389297924935818,0.13605725765228271,9.747180938720703,-0.00417008250951767,0.0015251189470291138,0.003204345703125,0.0008749845852756569,-0.03424922320087525,-0.010718754602718527
0.020536862313747406,0.13741663098335266,9.749801635742188,0.0008044876158237457,0.00145702064037323,0.0054225921630859375,0.0388128701237148,-0.009968327588303042,-0.010718754602718527
0.018243253231048584,0.13885398209095,9.74393081665039,-0.001543983817100525,0.0036587119102478027,0.0007963180541992188,0.05132997885034331,0.0025487811383254613,-0.010718754602718527
0.024345561861991882,0.13512302935123444,9.750537872314453,0.007747957482933998,-0.0010704100131988525,0.012454986572265625,0.0008749845852756569,-0.04676654537091531,-0.010718754602718527
0.02061491645872593,0.12565878033638,9.738512992858887,-0.00204659067094326,0.0014423280954360962,0.012096405029296875,0.0008749845852756569,0.02209372763407396,-0.010718754602718527
0.02061491645872593,0.12565878033638,9.738512992858887,-0.00204659067094326,0.0014423280954360962,0.012096405029296875,0.0008749845852756569,0.02209372763407396,-0.010718754602718527
0.014319558627903461,0.13512302935123444,9.747485160827637,0.002725660800933838,-0.000643804669380188,-0.011324882507324219,0.0008749845852756569,0.02209372763407396,-0.010718754602718527
0.023976854979991913,0.1410243809223175,9.741064071655273,0.0006400570273399353,0.004044070839881897,0.0004177093505859375,0.0008749845852756569,0.02209372763407396,0.056830082060988635
0.02109638601541519,0.13942745327949524,9.749771118164062,0.002916201949119568,0.0037550777196884155,0.0099639892578125,0.0008749845852756569,0.04294957686257567,-0.010718754602718527
0.01795257441699505,0.13751710951328278,9.742249488830566,-0.0017926041036844254,0.0012840330600738525,-0.0015096664428710938,0.0008749845852756569,-0.04790621312674219,0.059281186158097625
0.023101234808564186,0.13427846133708954,9.744741439819336,0.005137454718351364,-0.003444090485572815,0.0009021759033203125,0.0008749845852756569,-0.04790621312674219,0.04693519234647645
0.020060965791344643,0.1399112194776535,9.743121147155762,-0.004321683198213577,0.003530845046043396,-0.0014123916625976562,0.0008749845852756569,0.01604599533042435,-0.010718754602718527
0.025157097727060318,0.13165515661239624,9.741533279418945,-0.004321683198213577,0.003530845046043396,-0.0014123916625976562,0.0008749845852756569,-0.023455870125815487,0.059281186158097625
0.025157097727060318,0.13165515661239624,9.741533279418945,0.002552967518568039,-0.012829050421714783,0.002933502197265625,0.0008749845852756569,-0.023455870125815487,0.059281186158097625
0.026623031124472618,0.14200636744499207,9.741326332092285,-0.0001300964504480362,0.0015781372785568237,-0.006343841552734375,0.0008749845852756569,-0.04790621312674219,-0.010718754602718527
0.023691440001130104,0.1327289193868637,9.758147239685059,0.004343204200267792,-0.0033602863550186157,0.014822959899902344,0.0008749845852756569,0.02209372763407396,-0.010718754602718527
0.016325008124113083,0.14014914631843567,9.740964889526367,-0.005225222557783127,0.0038037747144699097,-0.004481315612792969,0.0008749845852756569,-0.04790621312674219,-0.010718754602718527
0.014629621058702469,0.13629759848117828,9.747127532958984,-0.007434261962771416,-0.0011272728443145752,0.0026836395263671875,0.0008749845852756569,-0.024354266785296952,-0.010718754602718527
0.02884029969573021,0.1419525295495987,9.760510444641113,0.006555618718266487,0.0033282339572906494,0.004153251647949219,0.0008749845852756569,0.02209372763407396,-0.010718754602718527
0.013875345699489117,0.1399112194776535,9.737751007080078,0.004344658926129341,0.0031430870294570923,-0.014436721801757812,0.0008749845852756569,0.02209372763407396,-0.010718754602718527
0.013875345699489117,0.1399112194776535,9.737751007080078,0.004344658926129341,0.0031430870294570923,-0.014436721801757812,0.0008749845852756569,0.02209372763407396,-0.010718754602718527
0.017728831619024277,0.13803152740001678,9.747396469116211,-0.005177449434995651,0.0029034167528152466,0.00045013427734375,0.0008749845852756569,-0.04790621312674219,-0.010718754602718527
0.013455048203468323,0.14137472212314606,9.740301132202148,-0.007219552993774414,-0.0018485188484191895,0.005015373229980469,0.0008749845852756569,0.02209372763407396,0.009240899101483463
0.015318572521209717,0.1486852467060089,9.736560821533203,-0.006974982097744942,0.016436651349067688,-0.00870513916015625,0.05403797543348147,-0.04790621312674219,0.006118195309891813
0.013479845598340034,0.13034307956695557,9.743104934692383,-0.006609266623854637,-0.00726868212223053,-0.0013103485107421875,0.03611665294885227,0.05733539599765057,-0.010718754602718527
0.021601330488920212,0.13879184424877167,9.749993324279785,0.0055281296372413635,-0.00021375715732574463,0.010594367980957031,0.0008749845852756569,-0.015176080026173312,-0.010718754602718527
0.016976481303572655,0.13245001435279846,9.746783256530762,-0.0016513913869857788,-0.00005684792995452881,0.0009002685546875,0.0008749845852756569,-0.04382668254175373,0.05724141419549678
0.013586223125457764,0.13259774446487427,9.746992111206055,-0.0036942455917596817,-0.007233083248138428,-0.013050079345703125,0.021309643261697653,0.05122435104204612,0.059281186158097625
0.013586223125457764,0.13259774446487427,9.746992111206055,-0.0036942455917596817,-0.007233083248138428,-0.013050079345703125,0.021309643261697653,0.05122435104204612,0.059281186158097625
0.017595453187823296,0.14720620214939117,9.740839958190918,-0.008126933127641678,0.0047336965799331665,-0.008131980895996094,0.0008749845852756569,0.014423705340627318,-0.010718754602718527
0.025040308013558388,0.1345038115978241,9.753317832946777,0.003762582316994667,-0.00026629865169525146,0.006083488464355469,-0.06349427228776496,-0.036644845351191106,0.05365049560021547
0.022800380364060402,0.1459684520959854,9.740584373474121,0.005929233506321907,0.009249851107597351,-0.0060825347900390625,0.0008749845852756569,0.02419977377596508,-0.010718754602718527
0.012946889735758305,0.13563118875026703,9.731298446655273,-0.005625544115900993,-0.002811640501022339,-0.015445709228515625,0.04330353274001307,0.009379490576653897,-0.010718754602718527
0.022775007411837578,0.13235826790332794,9.75369644165039,0.006146799772977829,-0.00977255403995514,0.015272140502929688,0.0008749845852756569,0.06459447302277252,-0.010718754602718527
0.02240017242729664,0.13751710951328278,9.750304222106934,0.006116919219493866,-0.00029924511909484863,0.005385398864746094,0.0008749845852756569,0.06441181882332757,-0.010718754602718527
0.016095325350761414,0.13676275312900543,9.748287200927734,0.010685395449399948,-0.004811540246009827,0.005671501159667969,0.028504540521005286,-0.02027665719101256,-0.010718754602718527
0.016095325350761414,0.13676275312900543,9.748287200927734,0.010685395449399948,-0.004811540246009827,0.005671501159667969,0.028504540521005286,-0.02027665719101256,-0.010718754602718527
0.019874779507517815,0.13373532891273499,9.741353034973145,0.0057479944080114365,-0.0023524612188339233,0.0007715225219726562,0.0008749845852756569,0.0901797213234056,-0.010718754602718527
0.02139565907418728,0.13512302935123444,9.748787879943848,0.0010999646037817001,-0.0022723525762557983,0.005579948425292969,0.05804592243431701,-0.02224820730319261,0.059281186158097625
0.01597834937274456,0.13764630258083344,9.7481689453125,-0.003715408965945244,0.00017692148685455322,0.0030765533447265625,0.0008749845852756569,-0.0015729845617260029,-0.010718754602718527
0.01634940505027771,0.13801737129688263,9.748910903930664,-0.003732111304998398,0.00010021030902862549,0.0027790069580078125,0.0008749845852756569,-0.01865172583899744,0.059281186158097625
0.01837855577468872,0.1410406082868576,9.7466459274292,0.0011986661702394485,0.0023984014987945557,0.00029754638671875,-0.06714507510020289,-0.04394645097606696,-0.008738880197487526
0.01951395906507969,0.13351157307624817,9.756556510925293,0.003701264038681984,0.004631593823432922,-0.004824638366699219,0.05445106847613501,0.09209366839489011,0.005705102267238268
0.018767906352877617,0.14230529963970184,9.740302085876465,-0.005810655653476715,0.004569023847579956,0.007079124450683594,0.03569632951063203,-0.04826346403684559,0.024102590322637847
0.018767906352877617,0.14230529963970184,9.740302085876465,-0.005810655653476715,0.004569023847579956,0.007079124450683594,0.03569632951063203,-0.04826346403684559,0.024102590322637847
0.019384853541851044,0.1413855105638504,9.747910499572754,-0.0009614825248718262,0.009190186858177185,0.0024852752685546875,-0.06912495617554049,0.02209372763407396,-0.010718754602718527
0.020469170063734055,0.13495483994483948,9.748079299926758,0.0037513282150030136,-0.00030322372913360596,0.00002193450927734375,0.0008749845852756569,0.02209372763407396,-0.010718754602718527
0.022446464747190475,0.12326953560113907,9.750655174255371,0.003937127068638802,-0.013931497931480408,0.004352569580078125,0.0008749845852756569,0.02209372763407396,0.020860464942276755
0.02153925783932209,0.13677102327346802,9.747164726257324,0.0038092900067567825,0.0004712045192718506,0.0019168853759765625,0.0008749845852756569,0.008907513832835438,-0.010718754602718527
0.01788637414574623,0.13405238091945648,9.751680374145508,0.0013175345957279205,0.005356386303901672,0.004010200500488281,0.0008749845852756569,-0.04790621312674219,-0.010718754602718527
0.01788637414574623,0.13405238091945648,9.751680374145508,0.005858805030584335,-0.013414353132247925,-0.010066032409667969,0.0008749845852756569,-0.04790621312674219,-0.010718754602718527
0.013694939203560352,0.13967132568359375,9.748150825500488,-0.003690088167786598,0.0009223967790603638,0.0041790008544921875,0.0008749845852756569,-0.04790621312674219,0.03566739458815203
0.018029745668172836,0.13925550878047943,9.749876976013184,-0.005681278184056282,0.005459606647491455,-0.005295753479003906,0.0008749845852756569,-0.019919833167732284,-0.010718754602718527
0.021533070132136345,0.13452036678791046,9.752388954162598,0.0014868807047605515,-0.004134193062782288,0.0015916824340820312,0.06206574222492075,0.02209372763407396,-0.001909571481547471
0.020637348294258118,0.12794069945812225,9.752964973449707,0.0014073103666305542,-0.008694618940353394,0.00583648681640625,0.0008749845852756569,0.02209372763407396,0.059281186158097625
0.020637348294258118,0.13809719681739807,9.751029968261719,0.0012918468564748764,0.003416910767555237,0.0031232833862304688,0.0008749845852756569,-0.023513419805658135,-0.010718754602718527
0.018652915954589844,0.1383364498615265,9.735876083374023,0.001310490071773529,0.005748674273490906,-0.02271556854248047,0.0008749845852756569,-0.04191828499896986,0.053293258030325294
0.019940640777349472,0.13751710951328278,9.739803314208984,-0.005739146843552589,0.0009050667285919189,0.0014820098876953125,0.0008749845852756569,0.02209372763407396,-0.010718754602718527
0.019940640777349472,0.13751710951328278,9.739803314208984,-0.005739146843552589,0.0009050667285919189,0.0014820098876953125,0.0008749845852756569,0.02209372763407396,-0.010718754602718527
0.015363244339823723,0.13033480942249298,9.74409294128418,-0.0056868065148591995,-0.005957260727882385,0.0017232894897460938,-0.038317184485946336,-0.017098444772201335,-0.010718754602718527
0.025753295049071312,0.13479526340961456,9.740727424621582,0.0016140583902597427,0.0036769062280654907,-0.005225181579589844,0.0008749845852756569,-0.0971138707750627,0.059281186158097625
0.018038950860500336,0.1283860206604004,9.757486343383789,0.001114528626203537,-0.005470708012580872,0.011353492736816406,-0.01513248420936159,-0.04790621312674219,0.059281186158097625
0.018222756683826447,0.1350000500679016,9.755051612854004,-0.0008379407227039337,-0.00032463669776916504,0.008403778076171875,0.0008749845852756569,0.05649440227566631,-0.010718754602718527
0.01763429492712021,0.12611383199691772,9.752089500427246,-0.000654660165309906,-0.006904572248458862,0.005745887756347656,0.0008749845852756569,-0.013517504656410587,0.02489247768776602
0.019235027953982353,0.13289311528205872,9.748984336853027,0.006451888009905815,-0.006790414452552795,0.005625724792480469,-0.06792627798652309,-0.04550885674870738,0.05688382978006282
0.013660255819559097,0.13939820230007172,9.750099182128906,-0.0009243078529834747,-0.006550312042236328,-0.0016002655029296875,0.0204770672142569,-0.028304130497760944,-0.04151453010557219
0.013660255819559097,0.13939820230007172,9.750099182128906,-0.0009243078529834747,-0.006550312042236328,-0.0016002655029296875,0.0204770672142569,-0.028304130497760944,-0.04151453010557219
0.018044698983430862,0.13844752311706543,9.757486343383789,0.003977283835411072,0.0004653036594390869,0.009995460510253906,0.0008749845852756569,0.0540937508649655,0.033281043886025936
0.018899867311120033,0.13512302935123444,9.753355026245117,0.004130929708480835,0.0003077089786529541,0.009448051452636719,0.0008749845852756569,0.026894523527373117,0.04967960771171253
0.013858813792467117,0.14028647541999817,9.734756469726562,-0.005082175135612488,0.007382109761238098,-0.014087677001953125,-0.04593098445076599,-0.0015182630070865648,0.03608721109826981
0.02885962277650833,0.12599799036979675,9.753738403320312,0.011381817981600761,-0.008994817733764648,0.00743865966796875,0.0008749845852756569,-0.006307239471470427,0.030880219052553236
0.01807292550802231,0.1366623044013977,9.748764991760254,0.0019700825214385986,0.002874523401260376,0.00017833709716796875,0.0008749845852756569,0.02209372763407396,-0.010718754602718527
0.01891457475721836,0.13545867800712585,9.73981761932373,0.008886409923434258,0.00517156720161438,-0.008948326110839844,0.0008749845852756569,-0.03950998964609245,0.05088496267744789
0.0264253169298172,0.1327289193868637,9.75060749053955,0.008886409923434258,0.00517156720161438,-0.008948326110839844,0.0008749845852756569,-0.04790621312674219,0.01607340946859696
0.0264253169298172,0.1327289193868637,9.75060749053955,-0.0006243661046028137,-0.0020975470542907715,-0.008522987365722656,0.0008749845852756569,-0.04790621312674219,0.01607340946859696
0.018681546673178673,0.13077311217784882,9.735501289367676,-0.0031098462641239166,-0.006529584527015686,-0.008444786071777344,0.0008749845852756569,0.04690228204045609,-0.055910147627259155
0.01981731690466404,0.14548644423484802,9.7335786819458,-0.0006715878844261169,0.009989216923713684,-0.010180473327636719,0.0008749845852756569,0.02209372763407396,-0.010718754602718527
0.02287384495139122,0.14406901597976685,9.743121147155762,0.003852700814604759,0.009374529123306274,-0.0024471282958984375,0.0008749845852756569,-0.00829831965580848,-0.010718754602718527
0.026405135169625282,0.13896821439266205,9.748889923095703,0.008318530395627022,0.004461809992790222,0.004670143127441406,0.0008749845852756569,0.0008789999894556839,0.03806645851347935
0.022122822701931,0.12923389673233032,9.739242553710938,0.0057554543018341064,-0.004772558808326721,-0.009357452392578125,0.0008749845852756569,-0.04509636401564886,-0.010718754602718527
0.016915250569581985,0.14403539896011353,9.746844291687012,-0.005934281274676323,0.00673617422580719,0.0048618316650390625,0.0008749845852756569,0.02209372763407396,-0.010718754602718527
0.016915250569581985,0.14403539896011353,9.746844291687012,-0.005934281274676323,0.00673617422580719,0.0048618316650390625,0.0008749845852756569,0.02209372763407396,-0.010718754602718527
0.02182653173804283,0.1393166184425354,9.7437162399292,0.005619252100586891,0.001774027943611145,0.0001354217529296875,0.0008749845852756569,-0.013920819322771906,0.02529579235412734
0.017179932445287704,0.13501602411270142,9.739397048950195,0.0031827259808778763,-0.005373403429985046,-0.011445999145507812,0.0008749845852756569,0.02209372763407396,-0.010718754602718527
0.02457422763109207,0.14176440238952637,9.744283676147461,0.007837409153580666,0.00629754364490509,-0.0064868927001953125,0.0008749845852756569,-0.04790621312674219,-0.010718754602718527
0.011149141937494278,0.1283816397190094,9.750833511352539,-0.00864662230014801,-0.007951200008392334,0.004795074462890625,0.0008749845852756569,-0.04790621312674219,-0.010718754602718527
0.01752561703324318,0.132011279463768,9.74479866027832,-0.0013578291982412338,-0.0029278546571731567,0.000072479248046875,0.0008749845852756569,-0.0338896510936711,-0.010718754602718527
0.01988953724503517,0.14410044252872467,9.739829063415527,-0.0037818104028701782,0.013328984379768372,0.002719879150390625,0.0008749845852756569,0.02209372763407396,-0.010718754602718527
0.0267631895840168,0.1434316635131836,9.743755340576172,-0.0036160871386528015,-0.005766198039054871,0.004962921142578125,0.0008749845852756569,-0.0006858203617780382,-0.010718754602718527
0.014295568689703941,0.13764457404613495,9.745388984680176,-0.0038906745612621307,0.005796954035758972,-0.004425048828125,0.0008749845852756569,-0.04790621312674219,-0.010718754602718527
0.014295568689703941,0.13764457404613495,9.745388984680176,-0.0038906745612621307,0.005796954035758972,-0.004425048828125,0.0008749845852756569,-0.04790621312674219,-0.010718754602718527
0.01731903664767742,0.1389870047569275,9.743879318237305,-0.001436261460185051,0.0033431798219680786,-0.006703376770019531,0.0008749845852756569,-0.04790621312674219,0.05130272479472937
0.02126092091202736,0.13571320474147797,9.740104675292969,0.0034318584948778152,-0.0014332979917526245,-0.006724357604980469,0.0008749845852756569,0.02209372763407396,-0.010718754602718527
0.023084986954927444,0.1419709324836731,9.740340232849121,0.006027456372976303,0.005496099591255188,-0.006744384765625,0.0008749845852756569,0.02209372763407396,0.03405777780091655
0.02253510057926178,0.14230529963970184,9.75509262084961,0.005849761888384819,0.005192220211029053,0.009465217590332031,0.0008749845852756569,0.015263298340223202,-0.010718754602718527
0.015858778730034828,0.13750748336315155,9.740717887878418,0.0012669805437326431,-0.00444871187210083,-0.009348869323730469,0.059301303199637424,0.01052010548761958,-0.010718754602718527
0.02838476188480854,0.13705986738204956,9.743927955627441,0.001154595986008644,-0.0023143142461776733,0.011660575866699219,0.0008749845852756569,0.02209372763407396,0.029311183193941145
0.02838476188480854,0.13705986738204956,9.743927955627441,0.001154595986008644,-0.0023143142461776733,0.011660575866699219,0.0008749845852756569,0.02209372763407396,0.029311183193941145
0.025867443531751633,0.13751710951328278,9.747910499572754,0.0007943566888570786,0.00007259845733642578,0.0021638870239257812,0.04924344944039697,-0.04790621312674219,-0.010718754602718527
0.022353075444698334,0.1371581256389618,9.746593475341797,0.0028894245624542236,-0.0022617578506469727,0.0067005157470703125,0.0008749845852756569,0.02209372763407396,-0.010718754602718527
0.027623945847153664,0.14215852320194244,9.759587287902832,0.007301555946469307,0.004648163914680481,0.013897895812988281,0.0008749845852756569,-0.04790621312674219,-0.010718754602718527
0.018243253231048584,0.12968122959136963,9.745516777038574,-0.002191668376326561,-0.009380921721458435,-0.0004405975341796875,0.0008749845852756569,0.004056305273767768,-0.010718754602718527
0.020662393420934677,0.1327289193868637,9.738259315490723,-0.0022392887622117996,-0.004454955458641052,-0.000026702880859375,0.0008749845852756569,-0.04790621312674219,-0.010718754602718527
0.018169289454817772,0.13504905998706818,9.754722595214844,-0.004697885364294052,-0.00438632071018219,-0.0024175643920898438,0.0708749253460918,0.02209372763407396,-0.010718754602718527
0.018169289454817772,0.13504905998706818,9.754722595214844,-0.004697885364294052,-0.00438632071018219,-0.0024175643920898438,0.0008749845852756569,0.02209372763407396,-0.010718754602718527
0.015983818098902702,0.1382203847169876,9.74382495880127,0.0070913564413785934,0.0027693063020706177,-0.00027942657470703125,0.0008749845852756569,0.02209372763407396,-0.010718754602718527
0.020637348294258118,0.13166727125644684,9.747910499572754,0.0002422574907541275,-0.0041922926902771,0.0021257400512695312,-0.0651670950052495,0.02209372763407396,-0.010718754602718527
0.014751764945685863,0.1316315233707428,9.745516777038574,-0.006796825677156448,-0.006228163838386536,-0.00031757354736328125,0.0008749845852756569,-0.02554372021687087,0.0369186932482263
0.027229052037000656,0.13531988859176636,9.749910354614258,0.007415236905217171,-0.0013172328472137451,0.004352569580078125,-0.02836947086212564,0.02209372763407396,0.03003673071069633
0.019811062142252922,0.13116109371185303,9.743121147155762,0.00024187006056308746,-0.005838215351104736,-0.0026760101318359375,0.0008749845852756569,0.011254110699557944,0.04844156922358161
0.014910507015883923,0.127518892288208,9.736688613891602,-0.006663242354989052,-0.012503951787948608,0.0072345733642578125,0.0008749845852756569,-0.04790621312674219,-0.010718754602718527
0.014910507015883923,0.127518892288208,9.736688613891602,-0.006663242354989052,-0.012503951787948608,0.0072345733642578125,0.0008749845852756569,-0.04790621312674219,-0.010718754602718527
0.018243253231048584,0.1386314183473587,9.748550415039062,-0.00218036025762558,-0.005162253975868225,0.007485389709472656,0.0008749845852756569,-0.02194997349638635,-0.010718754602718527
0.024434031918644905,0.13656795024871826,9.738333702087402,0.009535614401102066,-0.0004856586456298828,-0.0067615509033203125,0.0008749845852756569,-0.022261414114283062,-0.010718754602718527
0.024609986692667007,0.13436003029346466,9.748778343200684,0.004686241969466209,-0.0028541237115859985,0.0005922317504882812,0.0008749845852756569,0.02209372763407396,-0.010718754602718527
0.018616126850247383,0.12812714278697968,9.75876235961914,-0.002530071884393692,-0.007485121488571167,0.0142669677734375,0.0008749845852756569,-0.018357747560209213,-0.010718754602718527
0.02498253621160984,0.13228590786457062,9.759173393249512,0.004531610757112503,-0.0024873316287994385,0.016201019287109375,0.0008749845852756569,0.02209372763407396,-0.010718754602718527
0.017670737579464912,0.1308344602584839,9.749232292175293,0.0024132784456014633,0.000059723854064941406,0.0040645599365234375,0.0672210809650391,0.02209372763407396,-0.010718754602718527
0.019628459587693214,0.12453773617744446,9.751628875732422,0.002260930836200714,-0.00671696662902832,-0.003269195556640625,0.0008749845852756569,-0.03315620617068809,-0.010718754602718527
0.019628459587693214,0.12453773617744446,9.751628875732422,0.002260930836200714,-0.00671696662902832,-0.003269195556640625,0.0008749845852756569,-0.03315620617068809,-0.010718754602718527
0.013890386559069157,0.1315971463918686,9.745516777038574,0.0018583256751298904,-0.0067184120416641235,-0.0010175704956054688,0.0708749253460918,-0.04790621312674219,-0.010718754602718527
0.02183985523879528,0.14230167865753174,9.75749397277832,-0.002616865560412407,0.009810715913772583,0.0060214996337890625,0.0008749845852756569,-0.029451322133845412,-0.010718754602718527
0.02599526010453701,0.13318341970443726,9.735369682312012,0.0041658710688352585,-0.00456586480140686,-0.010860443115234375,0.0008749845852756569,-0.04790621312674219,-0.010718754602718527
0.025485258549451828,0.13763654232025146,9.749886512756348,0.003834616392850876,0.0024489611387252808,0.0037631988525390625,-0.035870986252249985,-0.014652236533345069,-0.010718754602718527
0.019620876759290695,0.13069595396518707,9.748237609863281,-0.0033350512385368347,-0.006998434662818909,0.0037517547607421875,0.0008749845852756569,0.007232770124646823,-0.010718754602718527
0.015257906168699265,0.13463836908340454,9.755577087402344,-0.012457799166440964,0.004844412207603455,0.0032892227172851562,0.0008749845852756569,0.018549980032748048,-0.010718754602718527
0.026906631886959076,0.14045903086662292,9.745516777038574,-0.005283486098051071,0.011623650789260864,-0.0012865066528320312,0.022813765642768175,-0.02596743206924967,-0.010718754602718527
0.026906631886959076,0.14045903086662292,9.745516777038574,-0.005283486098051071,0.011623650789260864,-0.0012865066528320312,0.022813765642768175,-0.02596743206924967,-0.010718754602718527
0.02072058618068695,0.13114671409130096,9.755904197692871,0.008717888966202736,-0.002895563840866089,0.010422706604003906,0.03053633503609896,0.02209372763407396,-0.010718754602718527
0.0177783090621233,0.13319385051727295,9.745516777038574,-0.000720541924238205,-0.005002722144126892,-0.001720428466796875,0.0008749845852756569,0.014959661747061755,-0.010718754602718527
0.020637348294258118,0.13816429674625397,9.751404762268066,-0.00041750073432922363,0.0020573437213897705,0.005356788635253906,0.0008749845852756569,0.02209372763407396,-0.010718754602718527
0.012282945215702057,0.13186229765415192,9.741032600402832,-0.00963691994547844,-0.0052780210971832275,-0.0063152313232421875,0.04480688138871668,0.02209372763407396,0.033213142200722495
0.021572260186076164,0.14125676453113556,9.742186546325684,-0.00016332417726516724,0.0015385448932647705,-0.0036420822143554688,0.0008749845852756569,0.014430295405959323,-0.010718754602718527
0.02552146650850773,0.13687895238399506,9.754996299743652,0.009160969406366348,0.008563533425331116,0.0031538009643554688,0.0008749845852756569,0.011363327025212033,-0.010718754602718527
0.02552146650850773,0.13687895238399506,9.754996299743652,0.009160969406366348,0.008563533425331116,0.0031538009643554688,0.0008749845852756569,0.011363327025212033,-0.010718754602718527
0.0162777379155159,0.12622636556625366,9.75184154510498,-0.002650650218129158,-0.017124071717262268,0.0007839202880859375,0.0008749845852756569,0.02209372763407396,-0.010718754602718527
0.023866962641477585,0.14653649926185608,9.753255844116211,-0.00469878688454628,0.016138955950737,0.0006122589111328125,0.0008749845852756569,0.02209372763407396,-0.010718754602718527
0.01628272421658039,0.13795070350170135,9.751124382019043,-0.007087284699082375,-0.0007825493812561035,0.009630203247070312,0.0008749845852756569,0.02209372763407396,-0.010718754602718527
0.018710194155573845,0.12825199961662292,9.7479887008667,-0.0022328272461891174,-0.007983922958374023,0.00037479400634765625,0.0008749845852756569,0.02209372763407396,-0.010718754602718527
0.023395495489239693,0.14488700032234192,9.748461723327637,-0.00010271929204463959,0.010813072323799133,0.00028896331787109375,0.0008749845852756569,0.02209372763407396,0.04041056076032921
0.021883254870772362,0.13030223548412323,9.751583099365234,0.004579728469252586,-0.008014753460884094,0.009647369384765625,0.0008749845852756569,0.021616041278996193,-0.01024106824764076
0.008938400074839592,0.13742659986019135,9.747865676879883,0.0023925788700580597,-0.0030523687601089478,-0.0021305084228515625,0.0008749845852756569,0.00416786947694905,0.007207103554406384
0.008938400074839592,0.13742659986019135,9.747865676879883,0.0023925788700580597,-0.0030523687601089478,-0.0021305084228515625,0.0008749845852756569,0.00416786947694905,0.007207103554406384
0.021007943898439407,0.13303281366825104,9.740053176879883,-0.004482818767428398,0.00396554172039032,-0.009062767028808594,0.0008749845852756569,-0.011583093697842483,0.02560436482618118
0.026729391887784004,0.12969401478767395,9.749427795410156,0.007276402786374092,-0.012289062142372131,0.0053348541259765625,0.0008749845852756569,0.02209372763407396,-0.010718754602718527
0.01861579716205597,0.1394501030445099,9.752786636352539,-0.004627486690878868,0.004286855459213257,0.007563591003417969,0.0008749845852756569,0.02209372763407396,0.03776396917865505
0.02353643998503685,0.1330655813217163,9.736444473266602,0.002179427072405815,-0.0028689205646514893,-0.011148452758789062,0.0008749845852756569,-0.007984424438678793,-0.010718754602718527
0.018243253231048584,0.13751710951328278,9.744722366333008,-0.002397749572992325,0.0018115639686584473,0.0034914016723632812,0.0008749845852756569,0.02209372763407396,0.04759603982910163
0.016356876119971275,0.13512302935123444,9.746023178100586,0.00025856681168079376,-0.0005531609058380127,0.0034942626953125,0.0008749845852756569,0.02209372763407396,-0.010718754602718527
0.016356876119971275,0.13512302935123444,9.746023178100586,0.00025856681168079376,-0.0005531609058380127,0.0034942626953125,0.0008749845852756569,0.02209372763407396,-0.010718754602718527
0.015266744419932365,0.1362878382205963,9.744868278503418,-0.009254999458789825,0.008849382400512695,0.010220527648925781,0.0008749845852756569,0.02209372763407396,0.014396117779682813
0.012163366191089153,0.13493742048740387,9.756752014160156,0.005156349390745163,0.006293013691902161,0.0007390975952148438,0.0008749845852756569,0.02209372763407396,-0.010718754602718527
0.02303144335746765,0.13286802172660828,9.743678092956543,0.003197763115167618,-0.005369246006011963,-0.013655662536621094,0.0008749845852756569,0.02209372763407396,-0.010718754602718527
0.01649409905076027,0.12858565151691437,9.743121147155762,-0.003998590633273125,-0.007599472999572754,-0.0043735504150390625,0.0008749845852756569,-0.006620534379005094,-0.010718754602718527
0.009171496145427227,0.13512302935123444,9.735201835632324,-0.013215795159339905,-0.0003968775272369385,-0.013443946838378906,0.0008749845852756569,0.02209372763407396,0.03638856651497018
0.020759735256433487,0.13635119795799255,9.750734329223633,-0.00608593225479126,0.009191066026687622,-0.0017156600952148438,0.0008749845852756569,0.02209372763407396,-0.010718754602718527
0.02135874517261982,0.1384684294462204,9.752928733825684,0.003433510661125183,-0.0004963129758834839,0.00044727325439453125,0.0008749845852756569,0.02209372763407396,-0.010718754602718527
0.014821317978203297,0.1311173290014267,9.745516777038574,0.007968677207827568,-0.00997607409954071,-0.0017108917236328125,0.0008749845852756569,0.02209372763407396,-0.010718754602718527
0.014821317978203297,0.1311173290014267,9.745516777038574,0.007968677207827568,-0.00997607409954071,-0.0017108917236328125,0.0008749845852756569,0.02209372763407396,-0.010718754602718527
0.02309274859726429,0.13880611956119537,9.749015808105469,0.0010715238749980927,-0.00031591951847076416,0.0053653717041015625,0.0008749845852756569,0.02209372763407396,0.039988596475882585
0.015848301351070404,0.1357213407754898,9.75150203704834,-0.0060296691954135895,-0.0004953742027282715,0.005265235900878906,0.0008749845852756569,0.02209372763407396,-0.010718754602718527
0.02066812664270401,0.14697040617465973,9.752636909484863,0.0010944437235593796,0.010994315147399902,0.005107879638671875,0.03677483238883291,0.02209372763407396,-0.010718754602718527
0.019810527563095093,0.13644348084926605,9.758313179016113,-0.00391770713031292,-0.001054808497428894,0.014267921447753906,0.0008749845852756569,-0.03221103872364791,-0.010718754602718527
0.0184278953820467,0.13143953680992126,9.746251106262207,-0.0037627816200256348,-0.0031981319189071655,0.004757881164550781,0.0008749845852756569,0.02209372763407396,-0.010718754602718527
0.017781652510166168,0.13319051265716553,9.740265846252441,-0.00820842944085598,0.004151239991188049,-0.013995170593261719,0.0008749845852756569,0.02209372763407396,-0.010718754602718527
0.017781652510166168,0.13319051265716553,9.740265846252441,-0.00820842944085598,0.004151239991188049,-0.013995170593261719,0.0008749845852756569,0.02209372763407396,-0.010718754602718527
0.014148518443107605,0.13751710951328278,9.747910499572754,0.006080931052565575,0.0017876029014587402,0.0005435943603515625,0.0008749845852756569,0.02209372763407396,0.028780082625119763
0.024323880672454834,0.13512302935123444,9.743121147155762,0.01092369295656681,-0.0006404966115951538,-0.00414276123046875,0.0008749845852756569,0.02209372763407396,-0.004419559279821375
0.011765995062887669,0.1354755461215973,9.758118629455566,-0.007837992161512375,-0.0006082057952880859,0.012378692626953125,0.0008749845852756569,0.02209372763407396,-0.010718754602718527
0.015849150717258453,0.1353999525308609,9.760613441467285,-0.0028131064027547836,-0.0006423294544219971,0.01435089111328125,0.0008749845852756569,0.02209372763407396,-0.010718754602718527
0.025425538420677185,0.1327289193868637,9.741244316101074,0.006352897733449936,-0.0028727054595947266,0.0028963088989257812,0.0008749845852756569,-0.03939610424581042,0.05077107727716586
0.015667187049984932,0.13751710951328278,9.746687889099121,-0.007806643843650818,0.0016999691724777222,-0.011290550231933594,0.06098083604437298,-0.038012123825023364,0.0493870968563788
0.02023755945265293,0.13831205666065216,9.74751091003418,-0.0006528943777084351,-0.00537833571434021,-0.0016193389892578125,0.0008749845852756569,0.02209372763407396,0.030991236306992388
0.02023755945265293,0.13831205666065216,9.74751091003418,-0.0006528943777084351,-0.00537833571434021,-0.0016193389892578125,0.0008749845852756569,0.02209372763407396,0.030991236306992388
0.019608231261372566,0.1409188061952591,9.74209213256836,-0.0006121676415205002,-0.0030175000429153442,-0.006252288818359375,0.0008749845852756569,0.02209372763407396,0.035970044005535
0.030213743448257446,0.13659468293190002,9.75509262084961,0.011064311489462852,-0.0009153038263320923,0.007991790771484375,0.0008749845852756569,0.02209372763407396,-0.010718754602718527
0.020530961453914642,0.14134782552719116,9.749080657958984,0.0012174062430858612,0.005874425172805786,0.0005731582641601562,0.038985599204522076,0.02209372763407396,-0.010718754602718527
0.02011464722454548,0.1394723802804947,9.744302749633789,0.0012834277004003525,0.008459508419036865,-0.011807441711425781,0.0008749845852756569,0.02209372763407396,0.00899882759234469
0.02303144335746765,0.13893890380859375,9.757576942443848,0.0034361649304628372,0.008316755294799805,0.011598587036132812,0.0008749845852756569,-0.04659325600115269,0.057968229032508124
0.011077445931732655,0.13507355749607086,9.755142211914062,-0.005734240636229515,-0.008305564522743225,0.013872146606445312,0.0008749845852756569,0.02209372763407396,-0.010718754602718527
0.011077445931732655,0.13507355749607086,9.755142211914062,-0.005734240636229515,-0.008305564522743225,0.013872146606445312,0.0008749845852756569,0.02209372763407396,-0.010718754602718527
0.020637348294258118,0.13972218334674835,9.747910499572754,0.0016954150050878525,-0.003283888101577759,-0.0006608963012695312,-0.0336429738759172,0.02209372763407396,-0.010718754602718527
0.01696828007698059,0.13431556522846222,9.747598648071289,-0.0029861032962799072,0.0036178231239318848,-0.0052814483642578125,0.0008749845852756569,0.02209372763407396,0.059281186158097625
0.019657893106341362,0.13419809937477112,9.756997108459473,0.0018345881253480911,-0.003242284059524536,0.008715629577636719,0.0008749845852756569,0.02209372763407396,0.059281186158097625
0.024868089705705643,0.13540175557136536,9.74832820892334,0.006588201969861984,-0.0011529028415679932,-0.001003265380859375,0.0708749253460918,0.02209372763407396,-0.010718754602718527
0.021493839100003242,0.13255351781845093,9.748854637145996,0.0041632745414972305,-0.008269324898719788,0.0039005279541015625,0.0008749845852756569,0.02209372763407396,-0.010718754602718527
0.0184357650578022,0.13493049144744873,9.748713493347168,0.00647842139005661,-0.0082501620054245,-0.005623817443847656,0.065002350042056,0.02209372763407396,0.053408610854061817
0.0184357650578022,0.13493049144744873,9.748713493347168,0.00647842139005661,-0.0082501620054245,-0.005623817443847656,0.065002350042056,0.02209372763407396,0.053408610854061817
0.01985003426671028,0.1265963762998581,9.760700225830078,-0.0054448433220386505,-0.0008828192949295044,-0.0010480880737304688,0.0008749845852756569,-0.002181445027025713,-0.010718754602718527
0.01763247326016426,0.13451224565505981,9.75330924987793,0.0017118975520133972,0.0017489343881607056,0.0009489059448242188,0.0008749845852756569,0.02209372763407396,-0.010718754602718527
0.018891211599111557,0.12946173548698425,9.744867324829102,0.0015979278832674026,-0.005203172564506531,-0.0062160491943359375,0.0008749845852756569,-0.04790621312674219,-0.010718754602718527
0.02229960262775421,0.13487908244132996,9.75269889831543,0.003928909078240395,-0.00020106136798858643,0.003307342529296875,0.0008749845852756569,-0.005773164035100387,-0.010718754602718527
0.015849150717258453,0.12871168553829193,9.74868106842041,-0.0031135547906160355,-0.007111027836799622,-0.0015287399291992188,0.0008749845852756569,-0.024177802444787323,-0.010718754602718527
0.016214022412896156,0.1347581446170807,9.747260093688965,-0.0004811156541109085,-0.002327665686607361,0.0010118484497070312,0.0008749845852756569,0.02209372763407396,-0.010718754602718527
0.025712979957461357,0.13766083121299744,9.751198768615723,-0.003144020214676857,-0.002396911382675171,-0.0014352798461914062,0.0008749845852756569,-0.034838033532097946,-0.010718754602718527
0.025712979957461357,0.13766083121299744,9.751198768615723,-0.003144020214676857,-0.002396911382675171,-0.0014352798461914062,0.0008749845852756569,-0.034838033532097946,-0.010718754602718527
0.019620627164840698,0.1308431774377823,9.748566627502441,-0.0032718125730752945,-0.002203330397605896,0.010023117065429688,0.0008749845852756569,-0.016441292528638837,0.027816265559994273
0.009923256002366543,0.13775452971458435,9.749166488647461,-0.010354185476899147,-0.0020207762718200684,-0.0017766952514648438,0.0008749845852756569,0.001956729135289649,0.03914418765931331
0.028446899726986885,0.1399112194776535,9.756117820739746,0.008621176704764366,0.004811108112335205,0.009894371032714844,0.0008749845852756569,-0.04790621312674219,-0.027377866132857302
0.018254170194268227,0.13751929998397827,9.752692222595215,-0.001156521961092949,0.0022171437740325928,0.0027570724487304688,0.0008749845852756569,0.02209372763407396,-0.010718754602718527
0.016611408442258835,0.13096608221530914,9.747279167175293,-0.0059807188808918,-0.004760608077049255,-0.0018548965454101562,0.0008749845852756569,-0.03136292132780273,-0.010718754602718527
0.0133278276771307,0.13411679863929749,9.762147903442383,-0.003192698583006859,-0.004696369171142578,0.014215469360351562,0.0008749845852756569,0.02209372763407396,0.05741999962990882
0.01609925739467144,0.1424303501844406,9.759380340576172,0.0017701834440231323,0.009218841791152954,-0.00020313262939453125,0.0008749845852756569,0.02209372763407396,0.03902515293672733
0.01609925739467144,0.1424303501844406,9.759380340576172,0.0017701834440231323,0.009218841791152954,-0.00020313262939453125,0.0008749845852756569,0.02209372763407396,0.03902515293672733
0.022277092561125755,0.1327289193868637,9.753453254699707,0.0016530025750398636,-0.0030814707279205322,0.004208564758300781,0.0708749253460918,-0.009250197230099672,-0.010718754602718527
0.023404408246278763,0.13751710951328278,9.75105094909668,0.006001932546496391,0.0016288310289382935,0.004044532775878906,0.06542360729520183,-0.04790621312674219,0.05382986810720764
0.018624411895871162,0.1363736242055893,9.743014335632324,-0.0011122096329927444,0.0015370100736618042,-0.009884834289550781,0.0008749845852756569,0.02209372763407396,0.013136961734020383
0.020637348294258118,0.13033480942249298,9.759385108947754,0.0011732764542102814,-0.00533883273601532,0.008891105651855469,0.0008749845852756569,-0.020155074487701045,-0.010718754602718527
0.028860483318567276,0.13336831331253052,9.744236946105957,0.015208886936306953,-0.0005050599575042725,-0.009957313537597656,0.01022151149505631,0.02209372763407396,-0.010718754602718527
0.0152302086353302,0.13512302935123444,9.747291564941406,-0.001265963539481163,-0.0006993263959884644,-0.0002269744873046875,0.0708749253460918,0.02209372763407396,-0.010718754602718527
0.01807520166039467,0.13347093760967255,9.756744384765625,-0.001265963539481163,-0.0006993263959884644,-0.0002269744873046875,0.0708749253460918,0.02209372763407396,-0.010718754602718527
0.01807520166039467,0.13347093760967255,9.756744384765625,0.010401435196399689,0.001728639006614685,0.0016613006591796875,0.02832406077631563,-0.020457136935702214,-0.010718754602718527
0.016455713659524918,0.13930463790893555,9.762455940246582,0.0009787827730178833,-0.0005671381950378418,0.0014410018920898438,0.0008749845852756569,0.02209372763407396,0.03512923704653585
0.015849150717258453,0.1327289193868637,9.762577056884766,-0.003467980772256851,-0.0030602216720581055,0.017203330993652344,0.0008749845852756569,0.02209372763407396,0.04663338336252651
0.016255347058176994,0.13047021627426147,9.74153995513916,-0.0032083559781312943,-0.005222991108894348,-0.011089324951171875,0.0008749845852756569,0.02209372763407396,-0.010718754602718527
0.01543121412396431,0.14032913744449615,9.76079273223877,-0.005592558532953262,0.006633669137954712,0.010079383850097656,0.0008749845852756569,-0.02735183937685985,-0.010718754602718527
0.022351505234837532,0.1363939344882965,9.757486343383789,0.01107664592564106,0.0018062293529510498,0.005001068115234375,0.0008749845852756569,0.02209372763407396,-0.010718754602718527
0.015207583084702492,0.13862809538841248,9.748895645141602,-0.005365781486034393,-0.0006877481937408447,0.012098312377929688,0.0008749845852756569,0.02209372763407396,-0.010718754602718527
0.024808628484606743,0.133345827460289,9.750377655029297,0.0040677618235349655,-0.0005882233381271362,0.004840850830078125,0.0008749845852756569,0.02209372763407396,-0.010718754602718527
0.024808628484606743,0.133345827460289,9.750377655029297,0.0040677618235349655,-0.0005882233381271362,0.004840850830078125,0.0008749845852756569,0.02209372763407396,-0.010718754602718527
0.016996998339891434,0.12908855080604553,9.763226509094238,-0.0032440070062875748,-0.007368907332420349,0.004832267761230469,-0.0005649113392342675,-0.04646632387233887,-0.010718754602718527
0.025944247841835022,0.14398126304149628,9.759162902832031,0.006247583776712418,0.01158834993839264,0.008899688720703125,0.0008749845852756569,0.02209372763407396,0.009114233776934105
0.027819640934467316,0.1327289193868637,9.7547607421875,0.008234888315200806,-0.0027345865964889526,0.001819610595703125,0.039112531333335886,0.02209372763407396,0.059281186158097625
0.024120494723320007,0.1323796808719635,9.73685359954834,0.007957493886351585,-0.007390275597572327,-0.0139923095703125,-0.0124944036837235,-0.04790621312674219,-0.010718754602718527
0.020637348294258118,0.1443631649017334,9.748591423034668,0.0006912499666213989,0.0017403066158294678,0.0005464553833007812,-0.00415985867890883,0.017058891039996086,-0.010718754602718527
0.022330641746520996,0.14137089252471924,9.753690719604492,-0.004126133397221565,-0.003271624445915222,-0.011187553405761719,0.0008749845852756569,-0.0013365026019275341,-0.010718754602718527
0.03241321071982384,0.1346493512392044,9.756429672241211,0.007613580673933029,0.005956560373306274,-0.001651763916015625,0.0008749845852756569,0.02209372763407396,-0.010718754602718527
0.03241321071982384,0.1346493512392044,9.756429672241211,0.007613580673933029,0.005956560373306274,-0.001651763916015625,0.0008749845852756569,0.02209372763407396,-0.010718754602718527
0.018243253231048584,0.1327289193868637,9.746729850769043,-0.002238210290670395,-0.003359660506248474,-0.008803367614746094,0.0008749845852756569,0.02209372763407396,-0.010718754602718527
0.024607732892036438,0.1343052238225937,9.738606452941895,0.004824198782444,-0.0008505731821060181,-0.013235092163085938,0.0008749845852756569,-0.020876579919849755,0.016310878604173906
0.014168024994432926,0.13812877237796783,9.746840476989746,-0.00703362375497818,0.004042372107505798,-0.0032634735107421875,0.0008749845852756569,-0.04790621312674219,-0.010718754602718527
0.016271451488137245,0.13625021278858185,9.762697219848633,-0.0020315032452344894,-0.005621597170829773,0.012884140014648438,0.0008749845852756569,-0.04173356306647539,-0.010718754602718527
0.014956103637814522,0.13996821641921997,9.74713134765625,0.0027794186025857925,-0.000984475016593933,-0.00598907470703125,0.0008749845852756569,-0.03568493696853986,-0.010718754602718527
0.0273363646119833,0.13703754544258118,9.754133224487305,-0.004440510645508766,-0.0009980052709579468,-0.0015878677368164062,0.0008749845852756569,-0.04790621312674219,-0.010718754602718527
0.0273363646119833,0.13703754544258118,9.754133224487305,-0.004440510645508766,-0.0009980052709579468,-0.0015878677368164062,0.0008749845852756569,-0.04790621312674219,-0.010718754602718527
0.01970517449080944,0.13751710951328278,9.7572603225708,-0.004515526816248894,0.0013167858123779297,-0.00861358642578125,0.0008749845852756569,-0.02692846102981162,-0.010718754602718527
0.02519582211971283,0.13643494248390198,9.743350982666016,0.007245518267154694,-0.001085728406906128,-0.011179924011230469,0.0008749845852756569,0.02209372763407396,-0.010718754602718527
0.02531808242201805,0.13264833390712738,9.757351875305176,0.004741216078400612,-0.003485962748527527,0.005467414855957031,0.0008749845852756569,-0.012120744311356202,-0.010718754602718527
0.02480669505894184,0.13450416922569275,9.750890731811523,0.007135793566703796,0.0015515834093093872,0.0008363723754882812,0.0008749845852756569,0.02209372763407396,0.00666180899871607
0.016942163929343224,0.1386101245880127,9.755023002624512,0.00011006928980350494,0.0061838626861572266,0.0054454803466796875,0.0008749845852756569,-0.04689413117017704,-0.009706672646153375
0.027434803545475006,0.13761332631111145,9.75700569152832,-0.0019812043756246567,0.003514721989631653,-0.006554603576660156,0.0008749845852756569,0.07267816198804128,0.008696751804130298
0.027434803545475006,0.13761332631111145,9.75700569152832,-0.0019812043756246567,0.003514721989631653,-0.006554603576660156,0.0008749845852756569,0.07267816198804128,0.008696751804130298
0.014905943535268307,0.1367916613817215,9.748127937316895,-0.0020647067576646805,-0.0013787448406219482,-0.008846282958984375,0.03306182416213762,0.02209372763407396,0.021468084974143438
0.024386238306760788,0.13209791481494904,9.757393836975098,0.00522862933576107,-0.008353263139724731,0.012392997741699219,0.0008749845852756569,0.02209372763407396,-0.006105308663918702
0.021867869421839714,0.1355331987142563,9.748730659484863,0.0004213005304336548,-0.001174241304397583,-0.0041255950927734375,0.0008749845852756569,0.02209372763407396,-0.010718754602718527
0.027819640934467316,0.1353422999382019,9.73747444152832,0.00714557059109211,-0.001177370548248291,-0.015666961669921875,0.0008749845852756569,-0.006495123034498668,-0.010718754602718527
0.01924264058470726,0.13751710951328278,9.749154090881348,-0.00474957749247551,0.001147240400314331,0.0037479400634765625,0.0008749845852756569,0.02209372763407396,-0.010718754602718527
0.017888283357024193,0.1347680389881134,9.750510215759277,-0.006989330053329468,-0.005900979042053223,-0.008095741271972656,0.0008749845852756569,0.02209372763407396,-0.010718754602718527
0.017888283357024193,0.1347680389881134,9.750510215759277,-0.006989330053329468,-0.005900979042053223,-0.008095741271972656,0.0008749845852756569,-0.004510312750375276,0.01588528578173071
0.014481453225016594,0.1347808986902237,9.753381729125977,0.00025203265249729156,-0.0034468621015548706,-0.007845878601074219,0.0008749845852756569,-0.004510312750375276,0.01588528578173071
0.019145628437399864,0.1384194940328598,9.747840881347656,-0.006482528522610664,-0.0033252686262130737,-0.010066032409667969,0.0008749845852756569,0.02209372763407396,-0.010718754602718527
0.02385217882692814,0.1327289193868637,9.748703956604004,0.007649209350347519,-0.0034045130014419556,-0.0028533935546875,0.0008749845852756569,0.02209372763407396,-0.010718754602718527
0.02145763672888279,0.13751710951328278,9.75509262084961,0.0005276575684547424,0.0014345943927764893,0.0042209625244140625,0.0008749845852756569,-0.017703036575666468,0.019484421948357197
0.022962506860494614,0.1336589753627777,9.75123405456543,0.00024357065558433533,-0.003301754593849182,-0.0006656646728515625,0.0008749845852756569,0.02209372763407396,0.010685217306676705
0.021731780841946602,0.13621746003627777,9.749415397644043,0.0001240987330675125,-0.0010364949703216553,0.0018301010131835938,0.003874097971465777,0.01909462091799045,-0.010718754602718527
0.021690472960472107,0.13445253670215607,9.755475044250488,-0.002313334494829178,-0.0033101141452789307,-0.0007276535034179688,0.016270064221819112,-0.04790621312674219,-0.010718754602718527
0.021690472960472107,0.13445253670215607,9.755475044250488,-0.002313334494829178,-0.0033101141452789307,-0.0007276535034179688,0.016270064221819112,-0.04790621312674219,-0.010718754602718527
0.018914762884378433,0.12794069945812225,9.74782657623291,-0.013754971325397491,-0.007722139358520508,0.011014938354492188,0.0008749845852756569,0.02209372763407396,-0.010718754602718527
0.019460542127490044,0.14234580099582672,9.753996849060059,0.0005812142044305801,0.0089913010597229,0.008601188659667969,0.0008749845852756569,0.02209372763407396,-0.010718754602718527
0.025629986077547073,0.1327289193868637,9.744969367980957,0.007666461169719696,-0.003012746572494507,-0.005512237548828125,0.0008749845852756569,0.02209372763407396,-0.010718754602718527
0.02055567130446434,0.13735374808311462,9.743121147155762,0.0004823599010705948,0.0018049031496047974,-0.0074748992919921875,0.0008749845852756569,-0.015294274315326267,0.021893184208697396
0.0074342163279652596,0.12962369620800018,9.751015663146973,-0.015857458114624023,-0.005020961165428162,-0.00034046173095703125,0.0008749845852756569,-0.04790621312674219,-0.010718754602718527
0.015849150717258453,0.1292809695005417,9.747337341308594,-0.003604406490921974,-0.0070763081312179565,0.0022001266479492188,0.0008749845852756569,0.017907862209487514,-0.010718754602718527
0.020637348294258118,0.13094903528690338,9.747910499572754,-0.008236836642026901,0.00010187923908233643,-0.0025167465209960938,0.0008749845852756569,0.017907862209487514,-0.010718754602718527
0.020637348294258118,0.13094903528690338,9.747910499572754,0.0012265443801879883,0.0024252086877822876,-0.0024471282958984375,0.0008749845852756569,-0.025317803705944764,0.036692776737300196
0.018243253231048584,0.13835108280181885,9.748018264770508,-0.001209726557135582,0.004811123013496399,0.00234222412109375,0.0008749845852756569,-0.01889279683214451,-0.010718754602718527
0.022498875856399536,0.14137454330921173,9.753231048583984,0.001253768801689148,0.006936997175216675,0.004734992980957031,0.0008749845852756569,0.02209372763407396,-0.010718754602718527
0.02242814004421234,0.13512302935123444,9.74612045288086,0.003451503813266754,-0.00047175586223602295,-0.004702568054199219,0.027054752828390743,0.02209372763407396,0.01546101364039656
0.020309560000896454,0.13925564289093018,9.754437446594238,0.001022661104798317,0.004206478595733643,0.0047359466552734375,0.0008749845852756569,-0.0033218331543666117,-0.010718754602718527
0.02111762762069702,0.12841734290122986,9.752218246459961,0.003428516909480095,-0.00969037413597107,-0.0001811981201171875,-0.06210224104829801,0.02209372763407396,-0.010718754602718527
0.01827264577150345,0.1359308511018753,9.745574951171875,0.0035042855888605118,0.0022170543670654297,0.004742622375488281,0.0008749845852756569,0.02209372763407396,-0.010718754602718527
0.01827264577150345,0.1359308511018753,9.745574951171875,0.0035042855888605118,0.0022170543670654297,0.004742622375488281,0.0008749845852756569,0.02209372763407396,-0.010718754602718527
0.019144564867019653,0.1437980979681015,9.757317543029785,0.0034465938806533813,0.004291117191314697,-0.013943672180175781,0.0008749845852756569,0.02209372763407396,-0.010718754602718527
0.01561502180993557,0.13226065039634705,9.755560874938965,-0.0013111252337694168,0.0015965402126312256,0.0000743865966796875,0.0008749845852756569,0.02209372763407396,-0.010718754602718527
0.024401385337114334,0.12862567603588104,9.754068374633789,0.0036132819950580597,-0.007545292377471924,0.002140045166015625,0.0008749845852756569,0.02209372763407396,0.04430965162126768
0.029825057834386826,0.13300655782222748,9.759603500366211,0.010338468477129936,-0.0025441795587539673,0.008875846862792969,0.0008749845852756569,0.02209372763407396,-0.010718754602718527
0.018916688859462738,0.1319555789232254,9.753372192382812,0.0009839162230491638,-0.007386103272438049,0.0040569305419921875,0.0008749845852756569,0.02209372763407396,-0.010718754602718527
0.021840302273631096,0.1362905204296112,9.75267505645752,0.0008238814771175385,0.006805554032325745,0.006358146667480469,0.0008749845852756569,0.02209372763407396,-0.010718754602718527
0.02043534256517887,0.12827737629413605,9.754958152770996,-0.00592227466404438,0.0044469088315963745,-0.0007772445678710938,0.0708749253460918,0.0035255115298505075,-0.010718754602718527
0.02043534256517887,0.12827737629413605,9.754958152770996,-0.00592227466404438,0.0044469088315963745,-0.0007772445678710938,0.0708749253460918,0.0035255115298505075,-0.010718754602718527
0.01793903484940529,0.12833313643932343,9.757094383239746,0.0034786518663167953,-0.0001312047243118286,-0.0008640289306640625,0.0008749845852756569,-0.04790621312674219,-0.010718754602718527
0.027819640934467316,0.13460798561573029,9.749197959899902,0.008098850026726723,-0.004523426294326782,0.008234977722167969,0.0008749845852756569,0.018330413463315938,-0.010718754602718527
0.02151511237025261,0.12969623506069183,9.751821517944336,0.0005228593945503235,-0.006864637136459351,0.0014476776123046875,0.0008749845852756569,-0.04790621312674219,-0.010718754602718527
0.021017763763666153,0.1419248878955841,9.747910499572754,0.0003265179693698883,0.007215604186058044,-0.0031576156616210938,0.0008749845852756569,-0.018467190669488088,-0.010718754602718527
0.009551283903419971,0.140601247549057,9.746464729309082,-0.013458028435707092,0.009403735399246216,-0.010227203369140625,0.0008749845852756569,0.02209372763407396,-0.010718754602718527
0.017236288636922836,0.1380206048488617,9.749359130859375,0.003448091447353363,-0.000295296311378479,-0.0029420852661132812,0.0008749845852756569,0.02209372763407396,-0.010718754602718527
0.019183069467544556,0.13897140324115753,9.748537063598633,0.005656428635120392,-0.002480223774909973,0.0018100738525390625,0.0008749845852756569,0.02209372763407396,-0.010718754602718527
0.019183069467544556,0.13897140324115753,9.748537063598633,0.005656428635120392,-0.002480223774909973,0.0018100738525390625,0.0008749845852756569,0.02209372763407396,-0.010718754602718527
0.021579831838607788,0.13940207660198212,9.747476577758789,0.0030618738383054733,0.006769493222236633,-0.0074710845947265625,0.0008749845852756569,-0.0037464121206048848,-0.010718754602718527
0.030963359400629997,0.13437339663505554,9.74866008758545,0.012229286134243011,-0.002785012125968933,-0.0002727508544921875,0.0008749845852756569,0.011133968739274478,0.00024100429208095774
0.02245205268263817,0.1379033625125885,9.763509750366211,0.002446340397000313,0.0018908828496932983,0.013836860656738281,0.0008749845852756569,0.02209372763407396,0.0299284348597546
0.015849150717258453,0.1364319622516632,9.744430541992188,-0.004406871274113655,-0.0006723850965499878,-0.0074825286865234375,0.0008749845852756569,0.02209372763407396,-0.010718754602718527
0.018506493419408798,0.13538625836372375,9.752434730529785,0.0005593728274106979,0.001753881573677063,-0.00041294097900390625,0.0008749845852756569,0.02209372763407396,-0.010718754602718527
0.017247771844267845,0.13821642100811005,9.75100326538086,0.0007276739925146103,0.003982603549957275,0.0019378662109375,0.0008749845852756569,0.02209372763407396,-0.010718754602718527
0.014014213345944881,0.13033480942249298,9.756927490234375,-0.00431085005402565,-0.005419477820396423,0.004158973693847656,0.0008749845852756569,-0.014955673023308174,-0.010718754602718527
0.014014213345944881,0.13033480942249298,9.756927490234375,-0.00431085005402565,-0.005419477820396423,0.004158973693847656,0.0008749845852756569,-0.014955673023308174,-0.010718754602718527
0.025425538420677185,0.1279578059911728,9.751509666442871,0.005369985476136208,-0.009780585765838623,-0.0007886886596679688,0.0008749845852756569,-0.02925458066923731,-0.010718754602718527
0.02369615249335766,0.13809357583522797,9.75691032409668,0.005145438015460968,0.0022611021995544434,0.00617218017578125,0.0008749845852756569,0.02209372763407396,-0.010718754602718527
0.013561023399233818,0.13054676353931427,9.752752304077148,-0.006618872284889221,-0.0050210654735565186,0.0012464523315429688,0.037424100566380805,-0.014455388347031185,-0.010718754602718527
0.02716497704386711,0.1395770162343979,9.753728866577148,0.017193462699651718,0.0068245381116867065,0.0035696029663085938,0.0008749845852756569,-0.04790621312674219,-0.010718754602718527
0.017785582691431046,0.1338115632534027,9.759026527404785,0.003000602126121521,-0.00027607381343841553,0.0031805038452148438,0.0008749845852756569,0.018747188404818944,-0.010718754602718527
0.013982543721795082,0.14177781343460083,9.75269889831543,0.0005767680704593658,-0.00013424456119537354,0.0008087158203125,0.0008749845852756569,0.02209372763407396,0.059281186158097625
0.013982543721795082,0.14177781343460083,9.75269889831543,0.0005767680704593658,-0.00013424456119537354,0.0008087158203125,0.0008749845852756569,0.02209372763407396,0.059281186158097625
0.018243253231048584,0.14071635901927948,9.754308700561523,-0.001518821343779564,0.006659120321273804,0.0054187774658203125,0.0008749845852756569,0.02209372763407396,-0.010718754602718527
0.022082407027482986,0.12984955310821533,9.746960639953613,-0.00136597640812397,-0.0029542148113250732,-0.008714675903320312,0.0008749845852756569,0.02209372763407396,-0.010718754602718527
0.02344328537583351,0.1337200403213501,9.762274742126465,0.005283495411276817,-0.002601221203804016,0.010126113891601562,0.0008749845852756569,-0.04790621312674219,-0.010718754602718527
0.01734710857272148,0.13572046160697937,9.747607231140137,-0.0016453489661216736,-0.0003274381160736084,-0.00672149658203125,0.0008749845852756569,-0.004172685293922438,0.059281186158097625
0.021175187081098557,0.13258135318756104,9.756800651550293,0.0029504355043172836,-0.0074244290590286255,-0.00228118896484375,0.0008749845852756569,-0.04790621312674219,-0.010718754602718527
0.027099134400486946,0.13763341307640076,9.747910499572754,0.009775051847100258,0.006751358509063721,-0.0044193267822265625,0.0008749845852756569,0.011561709336046526,-0.010718754602718527
0.027099134400486946,0.13763341307640076,9.747910499572754,0.009775051847100258,0.006751358509063721,-0.0044193267822265625,0.0008749845852756569,0.011561709336046526,-0.010718754602718527
0.010775740258395672,0.13822411000728607,9.736919403076172,0.0003867298364639282,-0.005065321922302246,0.0001544952392578125,0.0008749845852756569,0.02209372763407396,0.018214700453822404
0.012870799750089645,0.13033480942249298,9.742830276489258,-0.0014611054211854935,-0.0050492435693740845,-0.006319999694824219,0.0008749845852756569,0.04476107109650999,-0.010718754602718527
0.01656288467347622,0.1291152834892273,9.752192497253418,-0.003380412235856056,-0.00943063199520111,-0.00351715087890625,0.0008749845852756569,0.02209372763407396,-0.010718754602718527
0.018158618360757828,0.130673348903656,9.757062911987305,-0.0008626431226730347,-0.00458487868309021,0.005597114562988281,0.0008749845852756569,0.02209372763407396,-0.010718754602718527
0.015849150717258453,0.1343633383512497,9.752913475036621,-0.003119818866252899,-0.002267509698867798,0.0032873153686523438,0.0008749845852756569,0.0030235993475603517,-0.010718754602718527
0.02528688684105873,0.13620451092720032,9.747910499572754,-0.0010057352483272552,-0.004732102155685425,-0.0036821365356445312,0.0008749845852756569,0.02209372763407396,0.05860399691427466
0.020522084087133408,0.1399112194776535,9.745478630065918,-0.005905941128730774,0.0047054290771484375,-0.008200645446777344,0.0008749845852756569,0.02209372763407396,-0.010718754602718527
0.020522084087133408,0.1399112194776535,9.745478630065918,-0.005905941128730774,0.0047054290771484375,-0.008200645446777344,0.0008749845852756569,0.02209372763407396,-0.010718754602718527
0.01957857795059681,0.14030231535434723,9.75269889831543,0.0036036651581525803,-0.00021032989025115967,0.001495361328125,0.0008749845852756569,-0.014029488699683866,-0.010718754602718527
0.022631609812378883,0.13622011244297028,9.757086753845215,-0.0010499972850084305,-0.00028751790523529053,0.0014123916625976562,-0.0020488833282319304,0.02209372763407396,-0.010718754602718527
0.01772097870707512,0.14522169530391693,9.746038436889648,-0.003620179370045662,0.011298775672912598,-0.0035791397094726562,0.0008749845852756569,-0.026589259428198505,-0.010718754602718527
0.020960314199328423,0.13974973559379578,9.7427978515625,0.0010443665087223053,0.003952816128730774,-0.007781028747558594,0.0008749845852756569,0.02209372763407396,-0.010718754602718527
0.028610218316316605,0.13993358612060547,9.751863479614258,0.0076729487627744675,0.006190359592437744,-0.0031518936157226562,0.0008749845852756569,-0.03602041665066385,-0.010718754602718527
0.025425538420677185,0.13512302935123444,9.753226280212402,0.0050577521324157715,-0.0009401440620422363,0.0062656402587890625,0.0008749845852756569,0.02209372763407396,-0.010718754602718527
0.02753531187772751,0.12850935757160187,9.75521183013916,0.0050577521324157715,-0.0009401440620422363,0.0062656402587890625,0.0008749845852756569,0.02209372763407396,-0.010718754602718527
0.02753531187772751,0.12850935757160187,9.75521183013916,0.0049796197563409805,-0.0032190531492233276,-0.012503623962402344,0.0008749845852756569,0.02209372763407396,0.01419518748812279
0.028953248634934425,0.13786396384239197,9.758399963378906,0.002384219318628311,0.006394177675247192,0.008612632751464844,0.0008749845852756569,0.02209372763407396,-0.010718754602718527
0.024574246257543564,0.13512302935123444,9.757646560668945,0.004390724003314972,-0.0007475167512893677,0.0035505294799804688,0.0008749845852756569,0.02209372763407396,-0.0006102880745112175
0.020637348294258118,0.1329507976770401,9.754426956176758,-0.0004833787679672241,-0.0031448006629943848,0.0031633377075195312,0.029388062842743458,-0.019393134869274388,0.030768107900629824
0.0246110986918211,0.13512302935123444,9.755857467651367,0.004155300557613373,-0.0007121562957763672,0.005511283874511719,0.0008749845852756569,-0.0010003025482895236,0.03618715597573414
0.024068066850304604,0.13137143850326538,9.748947143554688,0.001669716089963913,-0.005377665162086487,-0.0039043426513671875,0.005564423048698483,0.02209372763407396,-0.010718754602718527
0.02730054222047329,0.14251451194286346,9.752907752990723,-0.0008736234158277512,0.0015094727277755737,-0.0038843154907226562,0.01457959907234757,-0.034201598639670275,0.04557657167102571
0.02730054222047329,0.14251451194286346,9.752907752990723,-0.0008736234158277512,0.0015094727277755737,-0.0038843154907226562,0.01457959907234757,-0.034201598639670275,0.04557657167102571
0.010787984356284142,0.1369868367910385,9.753229141235352,-0.0028912629932165146,-0.000838741660118103,0.003246307373046875,0.0008749845852756569,0.0541993253124098,0.059281186158097625
0.025425538420677185,0.13388840854167938,9.744281768798828,0.004466991871595383,-0.000860258936882019,-0.006176948547363281,0.0008749845852756569,0.02209372763407396,-0.030213541896749744
0.022977814078330994,0.1297563910484314,9.760486602783203,0.0065099745988845825,-0.007733896374702454,0.008192062377929688,0.0008749845852756569,0.0047891632273689795,0.006585809803986455
0.022888338193297386,0.139863520860672,9.75279426574707,0.0020834654569625854,0.0041312575340271,0.0006961822509765625,0.0008749845852756569,0.02209372763407396,0.023583882811900336
0.011280061677098274,0.13207560777664185,9.762055397033691,-0.011797310784459114,-0.0028220713138580322,0.012230873107910156,0.0008749845852756569,0.02209372763407396,-0.010718754602718527
0.02320222184062004,0.14196376502513885,9.758598327636719,-0.000004000961780548096,0.011057987809181213,0.007102012634277344,0.06837987858662731,-0.04541116636727768,-0.010718754602718527
0.02317836880683899,0.12672202289104462,9.756458282470703,0.004591753706336021,0.00805714726448059,-0.011456489562988281,0.0008749845852756569,0.02209372763407396,-0.010718754602718527
0.02317836880683899,0.12672202289104462,9.756458282470703,0.004591753706336021,0.00805714726448059,-0.011456489562988281,0.0008749845852756569,0.02209372763407396,-0.010718754602718527
0.017401443794369698,0.14075301587581635,9.7535400390625,-0.0001822393387556076,0.0010364800691604614,-0.0019683837890625,0.0008749845852756569,0.02209372763407396,-0.010718754602718527
0.024020038545131683,0.131632998585701,9.757641792297363,0.002246243879199028,-0.015445619821548462,0.00033855438232421875,0.0008749845852756569,0.015997837160690472,-0.010718754602718527
0.01046422217041254,0.13548250496387482,9.754014015197754,-0.011948546394705772,-0.0013478994369506836,0.0023241043090820312,0.0008749845852756569,-0.023417143486830043,-0.010718754602718527
0.027009742334485054,0.14176537096500397,9.756406784057617,0.0069620609283447266,0.005641266703605652,0.004718780517578125,0.0008749845852756569,-0.005012678499915002,-0.010718754602718527
0.013151917606592178,0.13661803305149078,9.75300121307373,-0.004581589251756668,0.0007570385932922363,-0.0025196075439453125,0.009588731821051652,0.013379980398297967,-0.010718754602718527
0.020434482023119926,0.1357858031988144,9.755755424499512,-0.004566039890050888,-0.003941968083381653,-0.000247955322265625,0.010565448872363475,-0.04790621312674219,0.0495907218710098
0.02424710802733898,0.13390734791755676,9.757486343383789,-0.00198330357670784,0.003081277012825012,0.004227638244628906,0.042788680550896914,0.02209372763407396,0.017367490192476367
0.018565744161605835,0.13719460368156433,9.754742622375488,-0.00198330357670784,0.003081277012825012,0.004227638244628906,0.0008749845852756569,0.02209372763407396,-0.010718754602718527
0.018565744161605835,0.13719460368156433,9.754742622375488,0.004983831197023392,-0.006206780672073364,0.0039958953857421875,0.0008749845852756569,0.02209372763407396,-0.010718754602718527
0.019151728600263596,0.13586583733558655,9.75509262084961,0.00044853799045085907,-0.0014295578002929688,0.0015773773193359375,-0.01240547782238111,0.02209372763407396,-0.010718754602718527
0.018129874020814896,0.11893124878406525,9.74380111694336,-0.001706177368760109,-0.017711669206619263,-0.010148048400878906,0.0008749845852756569,0.02209372763407396,0.02096611943100039
0.02899787202477455,0.13972675800323486,9.753729820251465,0.012485630810260773,0.006097570061683655,-0.0006666183471679688,0.020797285692454138,0.02209372763407396,0.009203546504459955
0.026570647954940796,0.13283279538154602,9.753947257995605,0.005017805844545364,-0.0008987784385681152,0.0016965866088867188,0.0008749845852756569,0.02209372763407396,-0.010718754602718527
0.018281150609254837,0.14227688312530518,9.745526313781738,0.0073972344398498535,-0.0009167790412902832,-0.005249977111816406,0.0008749845852756569,0.02209372763407396,-0.010718754602718527
0.021437112241983414,0.13560079038143158,9.749027252197266,0.009535223245620728,-0.005718305706977844,-0.00722503662109375,0.0008749845852756569,0.02209372763407396,0.059281186158097625
0.021437112241983414,0.13560079038143158,9.749027252197266,0.009535223245620728,-0.005718305706977844,-0.00722503662109375,0.0008749845852756569,0.02209372763407396,0.059281186158097625
0.018385056406259537,0.13483940064907074,9.748894691467285,0.00009538233280181885,-0.005601808428764343,-0.006958961486816406,0.0008749845852756569,0.02209372763407396,-0.010718754602718527
0.023935293778777122,0.13702036440372467,9.747503280639648,0.004944304004311562,0.0014264583587646484,-0.006771087646484375,0.0008749845852756569,0.02209372763407396,-0.010718754602718527
0.02729026973247528,0.14190827310085297,9.75509262084961,0.007156616076827049,0.006065353751182556,0.002651214599609375,0.0008749845852756569,-0.016775571591572783,-0.010718754602718527
0.020637348294258118,0.13098779320716858,9.75182819366455,-0.00006575509905815125,-0.008106008172035217,-0.0021495819091796875,0.0008749845852756569,0.009367644467312156,-0.010718754602718527
0.019634168595075607,0.13434754312038422,9.7471342086792,-0.0024296920746564865,0.0039088428020477295,0.0004901885986328125,0.0008749845852756569,-0.04790621312674219,-0.010718754602718527
0.02944752387702465,0.13665546476840973,9.75509262084961,0.0022974349558353424,0.013372287154197693,0.0033063888549804688,0.0008749845852756569,0.02209372763407396,0.059281186158097625
0.02944752387702465,0.13665546476840973,9.75509262084961,0.0022974349558353424,0.013372287154197693,0.0033063888549804688,0.0008749845852756569,0.02209372763407396,0.059281186158097625
0.020377594977617264,0.14293017983436584,9.750198364257812,-0.004935532808303833,0.0037144124507904053,0.010107994079589844,-0.041592823816976106,0.02209372763407396,-0.010718754602718527
0.019757231697440147,0.13448914885520935,9.75206470489502,-0.00013582222163677216,-0.0036037564277648926,-0.0015668869018554688,0.0008749845852756569,0.02209372763407396,0.05001365999102169
0.027317631989717484,0.13676409423351288,9.74891471862793,0.006988704204559326,0.001116737723350525,-0.003937721252441406,0.0008749845852756569,0.02209372763407396,-0.010718754602718527
0.02706276811659336,0.14041312038898468,9.755471229553223,0.006696755066514015,0.006013005971908569,0.0030002593994140625,-0.02305977251480764,-0.023971456026658892,-0.010718754602718527
0.024168454110622406,0.1399112194776535,9.745516777038574,0.009047340601682663,0.0034183263778686523,-0.006215095520019531,0.0008749845852756569,0.02209372763407396,0.059281186158097625
0.024033719673752785,0.13500046730041504,9.747031211853027,-0.005171533674001694,0.0034222006797790527,-0.0012197494506835938,0.0008749845852756569,0.0792318885792272,0.0021430252129443915
0.024033719673752785,0.13500046730041504,9.747031211853027,-0.005171533674001694,0.0034222006797790527,-0.0012197494506835938,0.0008749845852756569,0.0792318885792272,0.0021430252129443915
0.015460170805454254,0.13512302935123444,9.761159896850586,0.0020531080663204193,-0.0014228075742721558,-0.0036745071411132812,0.0008749845852756569,-0.016648052493377172,0.028023025524732608
0.02316431887447834,0.13625362515449524,9.751700401306152,-0.00005870126187801361,0.0009799003601074219,-0.003925323486328125,0.0008749845852756569,0.02209372763407396,0.03893736099350886
0.024934465065598488,0.12794069945812225,9.759737968444824,0.0022124480456113815,-0.008322343230247498,0.010061264038085938,0.0008749845852756569,0.02209372763407396,-0.010718754602718527
0.015858951956033707,0.14467491209506989,9.752694129943848,-0.005017366260290146,0.008424192667007446,0.00045871734619140625,0.0008749845852756569,0.02209372763407396,0.024137755124692836
0.027717027813196182,0.1327289193868637,9.750304222106934,0.009052291512489319,-0.003354862332344055,-0.0018301010131835938,0.0008749845852756569,0.00534294215866892,-0.010718754602718527
0.017102718353271484,0.13113626837730408,9.755206108093262,-0.005124341696500778,0.0040674954652786255,0.00040435791015625,0.0008749845852756569,-0.04790621312674219,-0.010718754602718527
0.01847914233803749,0.12374226003885269,9.7437105178833,0.001535572111606598,-0.0004716813564300537,0.0027112960815429688,0.0008749845852756569,-0.0278576869220507,0.039232659953406135
0.01847914233803749,0.12374226003885269,9.7437105178833,0.001535572111606598,-0.0004716813564300537,0.0027112960815429688,0.0008749845852756569,-0.0278576869220507,0.039232659953406135
0.020637348294258118,0.13422340154647827,9.758386611938477,-0.0008963774889707565,0.0022021830081939697,0.0028867721557617188,0.03932334672289392,-0.04790621312674219,-0.010718754602718527
0.014113983139395714,0.1313524842262268,9.75473403930664,-0.010088026523590088,-0.0047747790813446045,0.00027179718017578125,0.0008749845852756569,0.02209372763407396,-0.010718754602718527
0.026654833927750587,0.13149961829185486,9.750304222106934,0.0066334884613752365,-0.004580691456794739,-0.0022001266479492188,0.0008749845852756569,0.02209372763407396,-0.010718754602718527
0.02709721215069294,0.13536383211612701,9.750304222106934,0.0064256563782691956,0.0001286715269088745,-0.0020799636840820312,0.0008749845852756569,-0.01994682041908177,-0.010718754602718527
0.02150757610797882,0.13773371279239655,9.753135681152344,-0.000710194930434227,-0.00007516145706176758,0.005146026611328125,0.0008749845852756569,0.02209372763407396,-0.010718754602718527
0.02124202623963356,0.13301894068717957,9.75269889831543,-0.0029938984662294388,0.002494141459465027,0.0003376007080078125,0.0008749845852756569,0.02209372763407396,-0.010718754602718527
0.02124202623963356,0.13301894068717957,9.75269889831543,-0.0029938984662294388,0.002494141459465027,0.0003376007080078125,0.0008749845852756569,0.02209372763407396,-0.010718754602718527
0.022667571902275085,0.13606160879135132,9.75842571258545,-0.0007346570491790771,-0.00689108669757843,-0.0023317337036132812,-0.02636562409373348,-0.020665604447733053,-0.010718754602718527
0.025425538420677185,0.13173584640026093,9.744345664978027,0.003965767100453377,-0.004339367151260376,-0.016429901123046875,-0.023485605461088844,0.02209372763407396,-0.010718754602718527
0.015849150717258453,0.14177115261554718,9.753470420837402,-0.005601776763796806,0.014343857765197754,0.000377655029296875,0.013314086415084534,0.009654619134158472,0.0017203538971969617
