Accelerometer_Gx,Accelerometer_Gy,Accelerometer_Gz,Accelerometer_X,Accelerometer_Y,Accelerometer_Z,Gyroscope_Z,Gyroscope_X,Gyroscope_Y
0.009249153546988964,0.14172299206256866,9.76169204711914,-0.024393673986196518,0.013904958963394165,0.00339508056640625,-1.584039969949609,-3.6476168493552352,-0.3025310096504028
0.009501250460743904,0.14147089421749115,9.751555442810059,-0.028442081063985825,0.013901874423027039,-0.0076656341552734375,-0.852875049488914,-3.0085612987203936,-0.09412520277582594
0.014580813236534595,0.1432885080575943,9.754807472229004,-0.016719205304980278,0.006081193685531616,-0.0071926116943359375,0.778584255825449,-0.055539496472973564,0.25746851643612634
0.013753687962889671,0.13572031259536743,9.757486343383789,-0.0010238327085971832,0.007769480347633362,0.00046825408935546875,1.116458452862053,3.159829071381843,0.2061068545793792
0.007808452472090721,0.13733603060245514,9.759881019592285,-0.01899384707212448,0.0023753494024276733,0.0025997161865234375,-0.7433133723949147,0.9189648136716037,-0.1844336504867238
0.010975504294037819,0.14461398124694824,9.750475883483887,-0.012039544060826302,0.014646202325820923,-0.011267662048339844,0.9268957305150464,0.8777186886560718,0.3433002220432238
0.01333785429596901,0.15117855370044708,9.754623413085938,-0.0017629647627472878,0.014342442154884338,-0.0017242431640625,1.1765159860688579,2.7354788097590594,0.058481226931986326
0.01333785429596901,0.15117855370044708,9.754623413085938,-0.0017629647627472878,0.014342442154884338,-0.0017242431640625,1.1765159860688579,2.7354788097590594,0.058481226931986326
0.007457192987203598,0.13571524620056152,9.750922203063965,-0.013376401737332344,-0.0021275728940963745,-0.0034418106079101562,-0.4936657960844232,-2.2762659819520614,-0.10873979989756322
0.01803385466337204,0.1410035640001297,9.754209518432617,0.005933814682066441,0.0020943880081176758,-0.005627632141113281,1.7659920472922233,3.3410570419507297,0.19052943423840152
0.011166024953126907,0.14230529963970184,9.756505012512207,-0.015818264335393906,0.00008694827556610107,-0.005541801452636719,-0.21666475289105863,-1.5877330745781761,0.022230291396834547
0.0029172878712415695,0.14262576401233673,9.751662254333496,-0.004458040930330753,0.00013008713722229004,-0.005436897277832031,0.6604917791798095,1.8999178629293043,0.09851771477333833
0.011708354577422142,0.14405199885368347,9.753540992736816,-0.00011228211224079132,0.003445357084274292,-0.0051517486572265625,-0.020611029635439065,0.1611479881414165,-0.15217810881176502
0.013455048203468323,0.14230529963970184,9.762274742126465,0.0037777675315737724,-0.0006610751152038574,0.006427764892578125,0.5114206593884597,0.4445545748374894,0.15429698823877638
0.013455048203468323,0.14230529963970184,9.762274742126465,0.0037777675315737724,-0.0006610751152038574,0.006427764892578125,0.5114206593884597,0.4445545748374894,0.15429698823877638
0.011833490803837776,0.1365916132926941,9.748063087463379,0.0008255783468484879,-0.010791465640068054,-0.0025463104248046875,-0.3277887023555662,-1.769326887154482,-0.05529465019948448
0.006613126024603844,0.13785748183727264,9.750875473022461,0.000972304493188858,-0.0007336586713790894,-0.007063865661621094,-0.491013334808931,-1.2563372052476234,-0.19078495268246876
0.009684434160590172,0.13715820014476776,9.757486343383789,0.0015936009585857391,0.0014961212873458862,0.0024404525756835938,-0.22496409974328524,-0.3549897706425833,-0.04608291280410579
0.012279946357011795,0.14104242622852325,9.757442474365234,0.0024050772190093994,-0.006096646189689636,-0.0000095367431640625,0.889714101664201,1.7311717429034983,0.11554366882688762
0.013989688828587532,0.14330480992794037,9.748770713806152,0.003633893094956875,0.001706823706626892,-0.009457588195800781,-0.08217125782049954,0.12154228246545132,-0.04393898045666226
0.010570130310952663,0.1418144851922989,9.751531600952148,-0.0017887670546770096,-0.00039398670196533203,-0.00473785400390625,-0.09332166170246435,-0.4284528307560075,-0.06470663753554882
0.014025650918483734,0.1399112194776535,9.754522323608398,0.0017574941739439964,-0.0027053356170654297,-0.0023412704467773438,0.3207787404721646,0.1854358740257174,0.09261576431978619
0.012921429239213467,0.14469940960407257,9.749771118164062,0.008050808683037758,0.0014446079730987549,0.0026407241821289062,0.061057702352962075,0.6857692420809688,-0.032652453038973205
0.012921429239213467,0.14469940960407257,9.749771118164062,0.008050808683037758,0.0014446079730987549,0.0026407241821289062,0.061057702352962075,0.6857692420809688,-0.032652453038973205
0.012284047901630402,0.14189760386943817,9.750304222106934,0.005281142890453339,-0.0026666074991226196,-0.004425048828125,-0.08845596567183685,-0.5713178965931808,0.03450805001782171
0.005952849052846432,0.14437949657440186,9.754133224487305,-0.005100670270621777,0.004876747727394104,0.007450103759765625,0.15498611697343365,0.5716856595913037,0.0005487496709149893
0.0031508721876889467,0.13585081696510315,9.75269889831543,-0.008219043724238873,-0.007414013147354126,-0.0018739700317382812,0.06050432362805881,0.4019666378151674,0.03374908526694371
0.011454101651906967,0.1376153975725174,9.75499439239502,-0.001574094407260418,-0.004722490906715393,0.0005559921264648438,-0.002346430114057222,-0.2763408627214005,0.047468694153677916
0.009458044543862343,0.14363764226436615,9.754561424255371,-0.00615506898611784,0.002695739269256592,0.0005865097045898438,-0.10913641110678014,0.11044888131458701,-0.022531246607138233
0.006199338473379612,0.1412918120622635,9.75168514251709,-0.007748891599476337,0.004838526248931885,0.0031442642211914062,0.26654591788435267,0.2851178959287049,0.046396674619103254
0.015799425542354584,0.14230529963970184,9.75040340423584,-0.0010356949642300606,0.00024887919425964355,0.005557060241699219,-0.025418055408313215,0.009406211023738927,0.030144386231403364
0.015799425542354584,0.14230529963970184,9.75040340423584,-0.0010356949642300606,0.00024887919425964355,0.005557060241699219,-0.025418055408313215,0.009406211023738927,0.030144386231403364
0.008235396817326546,0.1420825570821762,9.75509262084961,0.0012435466051101685,-0.006938144564628601,0.000858306884765625,0.024726071868026295,-0.0635005888787259,0.047468694153677916
0.0060999030247330666,0.13973835110664368,9.749194145202637,-0.007796266116201878,-0.004571884870529175,-0.0038433074951171875,-0.005568198329040502,0.14182943840427012,-0.022531246607138233
0.014405649155378342,0.13751710951328278,9.748872756958008,0.004165345802903175,-0.0045303404331207275,-0.005893707275390625,-0.015298036255455063,-0.01872996618954846,-0.0015993581632672436
0.013159044086933136,0.14650151133537292,9.763928413391113,0.001721275970339775,0.0050536394119262695,0.010592460632324219,-0.008093747486038664,-0.021266554372988394,0.016795928756950594
0.014294171705842018,0.1406887024641037,9.75269889831543,0.0037193410098552704,-0.002159520983695984,-0.0012998580932617188,0.04963974715460316,-0.07286017585725155,-0.022531246607138233
0.014294171705842018,0.1406887024641037,9.75269889831543,0.0037193410098552704,-0.002159520983695984,-0.0012998580932617188,0.04963974715460316,-0.07286017585725155,-0.022531246607138233
0.018243253231048584,0.1442800760269165,9.752130508422852,0.005915460176765919,0.004791170358657837,-0.005947113037109375,-0.008093747486038664,0.06101818864139649,-0.022531246607138233
0.010789616964757442,0.1470935195684433,9.75825309753418,-0.0033864816650748253,0.004683271050453186,-0.008336067199707031,0.016439424898787663,0.05487296605951553,0.0020019257776880926
0.016156930476427078,0.14081184566020966,9.754192352294922,0.00829481240361929,-0.0003113001585006714,-0.0012836456298828125,0.01897261132785581,-0.017660147790155546,-0.022531246607138233
0.015453112311661243,0.14669747650623322,9.756424903869629,0.007845628075301647,0.009106069803237915,0.0057048797607421875,-0.008093747486038664,-0.060593729737077225,-0.022531246607138233
0.009606285020709038,0.1442296952009201,9.757251739501953,-0.0035830307751893997,0.0019265860319137573,0.0033235549926757812,0.03377359123863377,0.0931408884730838,0.005601355429005477
0.012244902551174164,0.14191065728664398,9.76508903503418,-0.0012903446331620216,-0.00024083256721496582,0.012514114379882812,-0.03155448678968043,0.03248467317727154,-0.022531246607138233
0.018936090171337128,0.13888737559318542,9.753722190856934,0.010276002809405327,-0.002511531114578247,-0.001811981201171875,-0.00302782152504533,-0.11539588594480675,0.047468694153677916
0.018936090171337128,0.13888737559318542,9.753722190856934,0.010276002809405327,-0.002511531114578247,-0.001811981201171875,-0.00302782152504533,-0.11539588594480675,0.047468694153677916
0.0184693094342947,0.1424769014120102,9.7459135055542,0.021697089076042175,-0.00480237603187561,0.0032634735107421875,0.061906193274777484,0.1360664396116454,0.047468694153677916
0.004073446616530418,0.1433408558368683,9.746228218078613,0.0003528762608766556,0.004728764295578003,0.0033426284790039062,-0.07809368824685481,-0.13059367049789336,0.01573028584429638
0.01699632965028286,0.1457468420267105,9.75269889831543,0.004897895269095898,0.007063031196594238,-0.0011081695556640625,0.04204452343669609,0.15982101045172997,-0.022531246607138233
0.012837341986596584,0.14585809409618378,9.759803771972656,0.00028094835579395294,0.004351750016212463,0.008264541625976562,0.0257827101367552,0.0071591988487237366,-0.005593017795741301
0.011060953140258789,0.13992302119731903,9.755081176757812,-0.001957656815648079,-0.0029371827840805054,0.0010900497436523438,0.06121647757073842,0.0073370505714085215,-0.022531246607138233
0.007554666604846716,0.1440584510564804,9.755563735961914,-0.006686675362288952,0.0018365830183029175,0.0034875869750976562,-0.045573099880534505,-0.17303178358551144,-0.006270954091504734
0.007554666604846716,0.1440584510564804,9.755563735961914,-0.006686675362288952,0.0018365830183029175,0.0034875869750976562,-0.045573099880534505,-0.17303178358551144,-0.006270954091504734
0.009937266819179058,0.14469940960407257,9.756362915039062,-0.004310806281864643,0.0017612278461456299,0.00096893310546875,-0.005947607333306777,-0.05415531594898817,-0.020385099784299737
0.010791094973683357,0.13539288938045502,9.748990058898926,-0.006379592232406139,-0.0028145015239715576,0.012360572814941406,0.04136317204634765,0.08777705554050816,-0.022531246607138233
0.012027674354612827,0.14643044769763947,9.748674392700195,-0.008570745587348938,-0.0026138275861740112,-0.004090309143066406,0.022961441803143256,-0.03742811597056083,0.016413504864495995
0.017635677009820938,0.13751710951328278,9.751912117004395,0.007894464768469334,-0.005142614245414734,-0.00612640380859375,0.05616232434791411,-0.049105991883350464,0.04172482522681453
0.008666850626468658,0.14193421602249146,9.759342193603516,-0.003951681777834892,-0.00029130280017852783,0.003261566162109375,0.03775597839093466,0.03110572201686944,0.047468694153677916
0.004394816234707832,0.14418324828147888,9.76518440246582,-0.008352220058441162,0.0021392107009887695,0.009740829467773438,-0.02318437010630748,-0.035865643496854296,0.0049234191332420425
0.00573556125164032,0.14203670620918274,9.754473686218262,-0.0010132621973752975,0.00234946608543396,-0.0022373199462890625,-0.06904562192750521,-0.17344942564087393,0.03842062783432831
0.00573556125164032,0.14203670620918274,9.754473686218262,-0.0010132621973752975,0.00234946608543396,-0.0022373199462890625,-0.06904562192750521,-0.17344942564087393,0.03842062783432831
0.008666850626468658,0.1438221037387848,9.75772476196289,-0.003307572565972805,-0.00018964707851409912,0.007130622863769531,0.052558572467512575,0.1307108509308414,-0.022531246607138233
0.009916719049215317,0.1400168240070343,9.755855560302734,-0.007704565301537514,-0.01386098563671112,0.0048007965087890625,-0.008093747486038664,-0.07384751171828863,-0.022531246607138233
0.0011118457186967134,0.1481042206287384,9.758390426635742,-0.007665203884243965,0.007484123110771179,0.013978004455566406,-0.008093747486038664,0.03171062064523869,-0.022531246607138233
0.014341208152472973,0.14155133068561554,9.764801025390625,0.0047685615718364716,0.00018146634101867676,0.011400222778320312,-0.008093747486038664,0.07940615178455508,0.047468694153677916
0.004627410788089037,0.1445746123790741,9.748659133911133,-0.0071901120245456696,0.0025890469551086426,-0.0076503753662109375,-0.008093747486038664,-0.060593729737077225,-0.022531246607138233
0.01446446217596531,0.13474774360656738,9.754717826843262,0.002156738191843033,-0.00921204686164856,-0.0029621124267578125,0.01214879210965689,0.009406211023738927,-0.022531246607138233
0.01446446217596531,0.13474774360656738,9.754717826843262,0.002156738191843033,-0.00921204686164856,-0.0029621124267578125,0.061906193274777484,-0.060593729737077225,0.045621074622336576
0.01244740653783083,0.15440207719802856,9.755345344543457,0.004305167123675346,0.013857513666152954,0.0042514801025390625,0.061906193274777484,-0.060593729737077225,0.045621074622336576
0.013326060026884079,0.14419762790203094,9.765298843383789,-0.005433059297502041,0.006529033184051514,0.010870933532714844,0.008463978423607734,-0.060593729737077225,0.030910968244031514
0.005879472009837627,0.13449518382549286,9.761018753051758,0.0062082260847091675,-0.00983785092830658,0.0013532638549804688,-0.008093747486038664,-0.02555063044732022,0.047468694153677916
0.008426062762737274,0.1399112194776535,9.754972457885742,-0.007835254073143005,-0.0023553818464279175,-0.0035047531127929688,-0.008093747486038664,-0.060593729737077225,-0.02076988489449475
0.01722797006368637,0.14317648112773895,9.754948616027832,0.006329871714115143,0.0023430585861206055,0.0012149810791015625,0.041749638023408725,0.009406211023738927,-0.0023746913557694724
0.011182808317244053,0.13978935778141022,9.756876945495605,-0.0008415104821324348,-0.0023323148488998413,0.0014734268188476562,0.023343212025149947,0.009406211023738927,0.008905712904050376
0.009417885914444923,0.14052124321460724,9.754951477050781,-0.003205276094377041,-0.004700720310211182,-0.003326416015625,-0.008093747486038664,-0.003635768392135967,0.03442671473780302
0.009417885914444923,0.14052124321460724,9.754951477050781,-0.003205276094377041,-0.004700720310211182,-0.003326416015625,-0.008093747486038664,-0.003635768392135967,0.03442671473780302
0.008666850626468658,0.13853073120117188,9.764301300048828,-0.003107287921011448,-0.0022015124559402466,0.010563850402832031,-0.008093747486038664,-0.060593729737077225,-0.022531246607138233
0.019902363419532776,0.15016674995422363,9.756505966186523,0.0016389638185501099,-0.006452098488807678,-0.008440971374511719,0.01566749346065722,-0.03683248879038134,0.023707453206982032
0.00954121071845293,0.13576839864253998,9.755738258361816,-0.000941883772611618,-0.008964747190475464,-0.0035800933837890625,-0.008093747486038664,0.009406211023738927,-0.022531246607138233
0.01495865173637867,0.14319580793380737,9.752975463867188,0.003751971758902073,0.0006246119737625122,-0.005839347839355469,0.0008683878498370411,0.00044406901775661026,-0.022531246607138233
0.012671996839344501,0.14178326725959778,9.756181716918945,0.0013139722868800163,0.0005510002374649048,0.0012693405151367188,-0.008093747486038664,0.009406211023738927,-0.022531246607138233
0.01640254631638527,0.14359498023986816,9.759697914123535,0.006010465323925018,0.003114163875579834,0.006176948547363281,-0.03233034025049834,-0.014830381740720752,-0.022531246607138233
0.01006332691758871,0.13751710951328278,9.750304222106934,-0.0009013218805193901,-0.0038200169801712036,-0.0054759979248046875,-0.008093747486038664,0.015235990923756373,-0.022531246607138233
0.007224742788821459,0.14000357687473297,9.76159954071045,-0.012683377601206303,-0.006042256951332092,-0.0009088516235351562,-0.008093747486038664,0.021972051549269886,0.034902853628146956
0.007224742788821459,0.14000357687473297,9.76159954071045,-0.012683377601206303,-0.006042256951332092,-0.0009088516235351562,-0.008093747486038664,0.021972051549269886,0.034902853628146956
0.015849150717258453,0.13899153470993042,9.759881019592285,0.0037965914234519005,0.0033407360315322876,0.003928184509277344,0.030937048360881857,-0.05253207880405233,0.016499549239782287
0.009177182801067829,0.14485201239585876,9.75478744506836,0.00816621258854866,0.0009381473064422607,0.00371551513671875,0.04127691422764979,0.03814759369029969,0.026839415106550222
0.010136145167052746,0.1470935195684433,9.759881019592285,-0.005750203505158424,0.005329981446266174,0.0037717819213867188,0.008080287210896979,-0.08207157974729966,-0.006357211910202591
0.010987263172864914,0.13275839388370514,9.75036334991455,-0.0011374205350875854,-0.009121596813201904,-0.005742073059082031,0.061906193274777484,0.009406211023738927,-0.022531246607138233
0.007987101562321186,0.13929644227027893,9.759881019592285,-0.000721462070941925,-0.001854047179222107,0.0036249160766601562,0.008930752484269349,-0.026544729796461195,0.047468694153677916
0.004934921860694885,0.14249302446842194,9.756054878234863,-0.0028270427137613297,-0.004251748323440552,0.006011009216308594,-0.07535279469790952,-0.12648233684458204,-0.0211608065027722
0.004934921860694885,0.14249302446842194,9.756054878234863,-0.0028270427137613297,-0.004251748323440552,0.006011009216308594,-0.07535279469790952,-0.12648233684458204,-0.0211608065027722
0.004313038662075996,0.13294610381126404,9.741596221923828,0.001648271456360817,-0.004058092832565308,0.0034198760986328125,0.011681664533344875,-0.07126742109952953,-0.0027558345877546956
0.00996224395930767,0.14248570799827576,9.748468399047852,0.006505371071398258,-0.003792405128479004,-0.0009050369262695312,-0.008093747486038664,0.015756792847969846,0.0156440146853853
0.019951079040765762,0.14162427186965942,9.752357482910156,0.011052916757762432,-0.0038645267486572266,-0.005251884460449219,0.05692687864813241,0.06446820790461985,-0.022531246607138233
0.01864083856344223,0.14430181682109833,9.757088661193848,0.005911694839596748,0.0030966252088546753,0.0018892288208007812,-0.008093747486038664,0.009282707329723345,-0.022531246607138233
0.00333983451128006,0.14879189431667328,9.75509262084961,-0.010961859486997128,0.007672116160392761,-0.000476837158203125,-0.008093747486038664,-0.04703182885106155,-0.022531246607138233
0.021309278905391693,0.13531216979026794,9.758641242980957,0.010160284116864204,-0.008865445852279663,0.009054183959960938,0.05208181992736039,0.0597574050897209,0.037644320806260824
0.021309278905391693,0.13531216979026794,9.758641242980957,0.010160284116864204,-0.008865445852279663,0.009054183959960938,0.05208181992736039,0.0597574050897209,0.037644320806260824
0.013455048203468323,0.14587335288524628,9.757486343383789,0.0006919475272297859,-0.001935318112373352,0.00177001953125,-0.008093747486038664,0.0008243184554559139,-0.022531246607138233
0.011060953140258789,0.13751710951328278,9.74658203125,-0.0016683610156178474,-0.00413164496421814,-0.0033044815063476562,0.018885726519136486,-0.0066347817267269175,0.004448227398036918
0.010210440494120121,0.13948595523834229,9.755943298339844,0.003216817043721676,0.0007751435041427612,-0.005257606506347656,-0.008093747486038664,-0.011354869330028855,-0.022531246607138233
0.015015948563814163,0.14235806465148926,9.749364852905273,0.0008940137922763824,0.0032148510217666626,-0.012211799621582031,-0.008093747486038664,-0.002773523710487971,-0.022531246607138233
0.008666850626468658,0.13751710951328278,9.750757217407227,-0.0037994198501110077,-0.003724709153175354,-0.005076408386230469,-0.008093747486038664,0.04881965754673884,0.016882199915861672
0.016330435872077942,0.13751710951328278,9.747907638549805,0.005635261535644531,-0.003495126962661743,-0.009646415710449219,-0.008093747486038664,-0.011612575569064608,0.047468694153677916
0.014383973553776741,0.14230529963970184,9.758594512939453,-0.001625766046345234,0.0011363178491592407,0.0021333694458007812,-0.005481553644159189,0.009406211023738927,-0.022531246607138233
0.014383973553776741,0.14230529963970184,9.758594512939453,-0.001625766046345234,0.0011363178491592407,0.0021333694458007812,-0.005481553644159189,0.009406211023738927,-0.022531246607138233
0.011906076222658157,0.1492529958486557,9.758143424987793,-0.011058703064918518,0.0008408576250076294,0.004344940185546875,0.007690326097971564,0.009406211023738927,-0.022531246607138233
0.004492257721722126,0.14111429452896118,9.759881019592285,0.0008923253044486046,0.0030183643102645874,0.004689216613769531,-0.008093747486038664,-0.02478040655648228,0.01165537097308297
0.013522555120289326,0.14237281680107117,9.761178970336914,0.0035247942432761192,0.0030075758695602417,0.00908660888671875,-0.008093747486038664,0.009406211023738927,-0.022531246607138233
0.016641713678836823,0.13724198937416077,9.759346961975098,0.00581909716129303,-0.0016577988862991333,0.004128456115722656,-0.008093747486038664,0.009406211023738927,-0.022531246607138233
0.020256053656339645,0.14633092284202576,9.759785652160645,0.007833104580640793,0.00576433539390564,0.00396728515625,-0.008093747486038664,-0.060593729737077225,-0.022531246607138233
0.017738088965415955,0.14375492930412292,9.763724327087402,0.007581915706396103,0.0007105171680450439,0.005885124206542969,0.048099552836978504,-0.004400429414060051,-0.022531246607138233
0.017738088965415955,0.14375492930412292,9.763724327087402,0.007581915706396103,0.0007105171680450439,0.005885124206542969,-0.008093747486038664,0.004817551201106845,-0.022531246607138233
0.009706911630928516,0.14022518694400787,9.758938789367676,-0.0017900774255394936,-0.003958344459533691,0.010476112365722656,-0.008093747486038664,0.004817551201106845,-0.022531246607138233
0.02455095946788788,0.14230529963970184,9.757704734802246,0.003121369518339634,0.0010037422180175781,0.0029211044311523438,-0.008093747486038664,0.009406211023738927,-0.022531246607138233
0.015300648286938667,0.14848995208740234,9.762823104858398,0.009924319572746754,0.000974014401435852,-0.0018291473388671875,-0.008093747486038664,0.03801304429973573,0.01886186087768111
0.02303144335746765,0.13878995180130005,9.758402824401855,0.0096262963488698,-0.0062954723834991455,0.00027561187744140625,-0.008093747486038664,0.0012089434830922568,-0.022531246607138233
0.013742594979703426,0.14326168596744537,9.751167297363281,-0.0001825224608182907,0.0031265616416931152,-0.006787300109863281,-0.008093747486038664,0.009406211023738927,0.004060787585410589
0.005588470958173275,0.1409374475479126,9.757486343383789,-0.009300952777266502,0.0009764879941940308,0.00037384033203125,-0.008093747486038664,0.07940615178455508,0.047468694153677916
0.016300957649946213,0.14140170812606812,9.765573501586914,0.00494603905826807,-0.0038362443447113037,0.011927604675292969,-0.008093747486038664,0.009406211023738927,-0.022531246607138233
0.016300957649946213,0.14140170812606812,9.765573501586914,0.00494603905826807,-0.0038362443447113037,0.011927604675292969,-0.008093747486038664,0.009406211023738927,-0.022531246607138233
0.016642678529024124,0.13831064105033875,9.75507926940918,0.004876778461039066,-0.0013811886310577393,0.0024175643920898438,0.05010698812272757,0.06760694663250516,0.035669489001627995
0.013920139521360397,0.13898104429244995,9.757486343383789,0.002507949247956276,-0.006064608693122864,0.00021648406982421875,-0.008093747486038664,-0.030396182755981473,-0.022531246607138233
0.01256570965051651,0.1392270177602768,9.759060859680176,-0.004629896022379398,-0.008163869380950928,0.011843681335449219,-0.008093747486038664,0.05800402082458458,0.026066576533920634
0.016519546508789062,0.14096450805664062,9.75471019744873,0.002441505901515484,0.0012958645820617676,-0.004581451416015625,-0.008093747486038664,0.009406211023738927,-0.0071335722991229655
0.018038736656308174,0.14461760222911835,9.757650375366211,0.004604273475706577,0.0034877657890319824,0.00013256072998046875,0.061906193274777484,0.011798004532859877,-0.022531246607138233
0.011690286919474602,0.14532876014709473,9.758033752441406,-0.000057501718401908875,0.005667686462402344,-0.0024585723876953125,0.0097073930176674,-0.042792589233371155,-0.022531246607138233
0.011690286919474602,0.14532876014709473,9.758033752441406,-0.000057501718401908875,0.005667686462402344,-0.0024585723876953125,0.0097073930176674,-0.042792589233371155,-0.022531246607138233
0.009801885113120079,0.1350816786289215,9.757528305053711,0.0001684902235865593,-0.0035398751497268677,-0.002452850341796875,-0.007488055114982661,0.009406211023738927,-0.022531246607138233
0.01097872480750084,0.13528749346733093,9.75517463684082,-0.004597927443683147,-0.0011867731809616089,-0.0001201629638671875,-0.008093747486038664,0.009406211023738927,0.047468694153677916
0.014618904329836369,0.1442471593618393,9.759428977966309,0.009693408384919167,-0.0032944977283477783,-0.004703521728515625,-0.008093747486038664,0.009406211023738927,0.047468694153677916
0.014220725744962692,0.13933604955673218,9.755667686462402,-0.0022315531969070435,-0.005674809217453003,0.0022783279418945312,-0.008093747486038664,0.0052032968066538935,0.043265779936592884
0.009090636856853962,0.14736869931221008,9.76142692565918,-0.004597299732267857,0.00825713574886322,0.004740715026855469,0.039296666296448554,0.03418709782789722,-0.022531246607138233
0.013249674811959267,0.1397058516740799,9.755297660827637,0.00016587693244218826,-0.0012650340795516968,-0.0023708343505859375,0.032910586164832084,-0.03159812262713182,0.006464360502807165
0.018967635929584503,0.14553427696228027,9.756651878356934,0.006992671638727188,0.0031827986240386963,0.000087738037109375,0.051317132225009866,-0.0011828500260286925,0.03687963310391029
0.018967635929584503,0.14553427696228027,9.756651878356934,0.006992671638727188,0.0031827986240386963,0.000087738037109375,0.051317132225009866,-0.0011828500260286925,0.03687963310391029
0.009992788545787334,0.14030714333057404,9.756952285766602,0.002369632013142109,0.003227934241294861,0.002475738525390625,-0.008093747486038664,0.0015997316892374786,0.039662214819176464
0.00857369415462017,0.14643611013889313,9.767720222473145,0.009272729977965355,0.0008600950241088867,0.014169692993164062,-0.008093747486038664,-0.03438331902418964,0.047468694153677916
0.013455048203468323,0.14756986498832703,9.753656387329102,-0.0001769568771123886,-0.003945961594581604,-0.0027704238891601562,-0.05270484123539266,0.009406211023738927,0.0028575937342173075
0.013455048203468323,0.13913045823574066,9.75667953491211,-0.000244886614382267,-0.0041570961475372314,-0.0002269744873046875,-0.008093747486038664,-0.0020086225647258787,-0.022531246607138233
0.008134374395012856,0.14416693150997162,9.751192092895508,-0.004857790656387806,0.002949535846710205,-0.007132530212402344,-0.008093747486038664,0.009406211023738927,0.01765872038734072
0.009252931922674179,0.1414012908935547,9.758390426635742,-0.0021477295085787773,0.0006795674562454224,-0.00008296966552734375,-0.008093747486038664,-0.038810242101709934,-0.022531246607138233
0.011524362489581108,0.14361821115016937,9.76119327545166,0.0027833078056573868,0.0028841644525527954,0.0045146942138671875,-0.00470482639937519,0.009406211023738927,-0.01914232552047476
0.011524362489581108,0.14361821115016937,9.76119327545166,0.0027833078056573868,0.0028841644525527954,0.0045146942138671875,-0.00470482639937519,0.009406211023738927,-0.01914232552047476
0.017559779807925224,0.1320454478263855,9.753382682800293,0.002596675418317318,-0.0108909010887146,-0.0024566650390625,0.006923143775748393,0.009406211023738927,-0.007514355345351177
0.006754315458238125,0.13330405950546265,9.759211540222168,0.002808178775012493,-0.006066381931304932,0.00685882568359375,-0.008093747486038664,0.009406211023738927,-0.022531246607138233
0.017053687945008278,0.14111573994159698,9.761070251464844,0.005335698835551739,0.0013386309146881104,0.00202178955078125,-0.008093747486038664,0.009406211023738927,-0.022531246607138233
0.013302369974553585,0.13568337261676788,9.76003360748291,-0.0018474264070391655,-0.005627274513244629,0.00417327880859375,-0.008093747486038664,0.009406211023738927,0.047468694153677916
0.002037789672613144,0.14914186298847198,9.75269889831543,-0.011284738779067993,0.008607208728790283,-0.005106925964355469,-0.008093747486038664,0.009406211023738927,-0.022531246607138233
0.014153365045785904,0.1399112194776535,9.749008178710938,0.0006140191107988358,-0.0008908510208129883,-0.011939048767089844,-0.008093747486038664,0.009406211023738927,-0.022531246607138233
0.02011449635028839,0.13884487748146057,9.76201343536377,0.01207140926271677,-0.0031442344188690186,0.006946563720703125,-0.008093747486038664,0.009406211023738927,-0.022531246607138233
0.02011449635028839,0.13884487748146057,9.76201343536377,0.01207140926271677,-0.0031442344188690186,0.006946563720703125,-0.008093747486038664,0.009406211023738927,-0.022531246607138233
0.010868670418858528,0.13330577313899994,9.76524543762207,-0.004789490252733231,-0.0009422451257705688,0.013808250427246094,-0.008093747486038664,-0.01281382174912738,0.047468694153677916
0.008737672120332718,0.1399112194776535,9.759881019592285,-0.00001580081880092621,-0.0006712377071380615,0.0016078948974609375,-0.008093747486038664,-0.01997211346335197,-0.022531246607138233
0.007288109511137009,0.14332066476345062,9.759881019592285,-0.0021212445572018623,0.006373882293701172,0.0015192031860351562,-0.008093747486038664,0.009406211023738927,0.047468694153677916
0.004819865338504314,0.13845831155776978,9.751559257507324,-0.008700288832187653,-0.0031128674745559692,-0.007872581481933594,0.036078980186711414,0.009406211023738927,0.0032959664809278327
0.008982274681329727,0.13014866411685944,9.768196105957031,-0.003844759427011013,-0.012529388070106506,0.010923385620117188,0.03612828561478244,-0.016371696636256112,0.003246661052856803
0.009611763060092926,0.14136040210723877,9.760320663452148,-0.0035570934414863586,0.0018246173858642578,-0.0011844635009765625,-0.008093747486038664,0.016777319159504953,-0.022531246607138233
0.009611763060092926,0.14136040210723877,9.760320663452148,-0.0035570934414863586,0.0018246173858642578,-0.0011844635009765625,-0.008093747486038664,0.016777319159504953,-0.022531246607138233
0.014209231361746788,0.13745133578777313,9.75679874420166,-0.0013109063729643822,-0.007492542266845703,0.005991935729980469,0.050881814387127335,0.020430589911389078,-0.022531246607138233
0.013655357994139194,0.1481713503599167,9.761836051940918,-0.008259203284978867,0.0019305944442749023,0.0012035369873046875,-0.037521690896211324,-0.020021739056540346,0.047468694153677916
0.011612921953201294,0.14363136887550354,9.762826919555664,0.00575635489076376,0.0016562789678573608,0.01038360595703125,-0.008093747486038664,-0.012764543001482795,0.02529794012845619
0.012061813846230507,0.13851799070835114,9.757575035095215,0.0010283533483743668,-0.0008013993501663208,-0.006155967712402344,-0.008093747486038664,-0.04596102327589016,-0.022531246607138233
0.010993501171469688,0.1514095515012741,9.762140274047852,-0.0011973418295383453,0.0111464262008667,0.0030364990234375,-0.04506616510796601,0.009406211023738927,0.010496279866803872
0.010498905554413795,0.13878712058067322,9.755654335021973,-0.00103660486638546,-0.0006243288516998291,-0.003983497619628906,-0.008093747486038664,0.009406211023738927,-0.022531246607138233
0.019422926008701324,0.13392017781734467,9.755069732666016,0.003272932954132557,-0.007418215274810791,-0.008549690246582031,-0.008093747486038664,-0.06042272154377567,0.04729768596037637
0.019422926008701324,0.13392017781734467,9.755069732666016,0.003272932954132557,-0.007418215274810791,-0.008549690246582031,-0.008093747486038664,-0.06042272154377567,0.04729768596037637
0.01111681666225195,0.14453181624412537,9.757542610168457,0.0008176984265446663,-0.002589970827102661,0.0010356903076171875,-0.008093747486038664,-0.04235952589152326,-0.022531246607138233
0.011407577432692051,0.14435279369354248,9.756115913391113,0.005415135994553566,-0.002616778016090393,-0.005938529968261719,-0.008093747486038664,-0.023960316948617954,-0.022531246607138233
0.008666850626468658,0.133808434009552,9.756032943725586,-0.0039044171571731567,-0.007361799478530884,0.005894660949707031,-0.008093747486038664,0.009406211023738927,0.04403070776278142
0.023173972964286804,0.13227860629558563,9.755992889404297,0.012630049139261246,-0.006997883319854736,-0.0032205581665039062,-0.008093747486038664,-0.016928170290627032,-0.022531246607138233
0.017884863540530205,0.1480540633201599,9.753236770629883,0.0053059738129377365,0.009660780429840088,-0.005499839782714844,0.03214584510162866,0.009406211023738927,0.047468694153677916
0.012677684426307678,0.13353729248046875,9.751112937927246,-0.0019804667681455612,-0.006748467683792114,-0.007526397705078125,-0.008093747486038664,-0.04922797479305866,-0.022531246607138233
0.012677684426307678,0.13353729248046875,9.751112937927246,-0.0019804667681455612,-0.006748467683792114,-0.007526397705078125,-0.008093747486038664,-0.04922797479305866,-0.022531246607138233
0.008666850626468658,0.1432615965604782,9.757493019104004,-0.004105987027287483,0.00502602756023407,-0.0074367523193359375,-0.008093747486038664,0.009406211023738927,0.04042838328519471
0.006272748112678528,0.13691246509552002,9.75269889831543,-0.006200933828949928,-0.0067113786935806274,-0.00508880615234375,0.03646818090748314,0.05396815275747396,0.02203068178638357
0.014386748895049095,0.1327289193868637,9.759349822998047,0.0033683953806757927,-0.006447464227676392,0.0044994354248046875,-0.008093747486038664,-0.016754800879585068,0.0036297652961857605
0.017199305817484856,0.1407443732023239,9.760608673095703,0.010258661583065987,0.0009140819311141968,0.004382133483886719,-0.008093747486038664,0.009406211023738927,0.047468694153677916
0.019007878378033638,0.14067582786083221,9.748724937438965,0.007631270214915276,0.0031523555517196655,-0.009694099426269531,-0.008093747486038664,-0.060593729737077225,0.006513532528745969
0.013296235352754593,0.1310269832611084,9.751580238342285,0.0029929373413324356,-0.005788087844848633,-0.007094383239746094,-0.008093747486038664,-0.01315390380481319,0.00002886822141388202
0.008382655680179596,0.13934282958507538,9.761990547180176,-0.00632164441049099,-0.0034413933753967285,0.0022172927856445312,-0.008093747486038664,0.009406211023738927,-0.022531246607138233
0.008382655680179596,0.13934282958507538,9.761990547180176,-0.00632164441049099,-0.0034413933753967285,0.0022172927856445312,-0.008093747486038664,0.009406211023738927,-0.022531246607138233
0.011060953140258789,0.13946565985679626,9.753408432006836,-0.0014189640060067177,-0.0058572739362716675,-0.0023641586303710938,0.04766396819483152,0.009406211023738927,-0.022531246607138233
0.006272748112678528,0.1386147290468216,9.761726379394531,-0.005901309661567211,0.003605291247367859,0.0020322799682617188,-0.008093747486038664,0.009406211023738927,-0.022531246607138233
0.007526731118559837,0.14352132380008698,9.752812385559082,-0.00787672121077776,0.0035624802112579346,-0.012108802795410156,-0.008093747486038664,0.009406211023738927,-0.022531246607138233
0.016483550891280174,0.1399112194776535,9.7556791305542,0.006353769451379776,0.0011087208986282349,-0.00252532958984375,-0.0259441000363232,0.009406211023738927,0.047468694153677916
0.015763964504003525,0.13520821928977966,9.75278377532959,0.0037897489964962006,-0.003581821918487549,-0.004778861999511719,-0.008093747486038664,-0.0243486505555302,0.011223614972130895
0.008289041928946972,0.14402730762958527,9.761897087097168,-0.005742785520851612,0.005756214261054993,0.0020780563354492188,-0.008093747486038664,-0.045245467578838766,0.03212043199543946
0.008289041928946972,0.14402730762958527,9.761897087097168,-0.005742785520851612,0.005756214261054993,0.0020780563354492188,-0.008093747486038664,0.009406211023738927,-0.022531246607138233
0.011269467882812023,0.14469940960407257,9.75904655456543,-0.003264068625867367,0.00546613335609436,0.011532783508300781,-0.008093747486038664,0.009406211023738927,-0.022531246607138233
0.011724657379090786,0.14865799248218536,9.760212898254395,0.008583216927945614,-0.0014675706624984741,0.0066967010498046875,-0.008093747486038664,0.009406211023738927,-0.022531246607138233
0.017439601942896843,0.13911598920822144,9.754305839538574,0.008402099832892418,-0.0016851723194122314,-0.009833335876464844,-0.008093747486038664,0.009406211023738927,-0.022531246607138233
0.012544701807200909,0.1413358449935913,9.766608238220215,-0.0035379379987716675,0.003023102879524231,0.006739616394042969,-0.008093747486038664,0.009406211023738927,-0.015875694168423604
0.012774506583809853,0.14264556765556335,9.762954711914062,0.0008636359125375748,0.0028362125158309937,0.0039157867431640625,0.03685562072010947,-0.060593729737077225,-0.022531246607138233
0.019191160798072815,0.13207022845745087,9.756538391113281,0.007957321591675282,-0.008996367454528809,-0.00341033935546875,-0.008093747486038664,0.009406211023738927,0.00401153551819245
0.017128711566329002,0.13843552768230438,9.757486343383789,0.00028353091329336166,-0.0017539262771606445,-0.0009603500366210938,-0.008093747486038664,-0.060593729737077225,-0.014383044370724586
0.017128711566329002,0.13843552768230438,9.757486343383789,0.00028353091329336166,-0.0017539262771606445,-0.0009603500366210938,-0.008093747486038664,-0.060593729737077225,-0.014383044370724586
0.011205600574612617,0.14061279594898224,9.758188247680664,0.0026426389813423157,-0.0017617195844650269,-0.003299713134765625,-0.008093747486038664,-0.0008513990882979566,0.047468694153677916
0.025345459580421448,0.13800957798957825,9.755837440490723,-0.0002968655899167061,0.012131839990615845,-0.010101318359375,-0.008093747486038664,-0.060593729737077225,-0.022531246607138233
0.012413294985890388,0.14563117921352386,9.751035690307617,-0.0031849518418312073,-0.002020537853240967,-0.0028238296508789062,-0.008093747486038664,-0.013537488295818164,0.024524994834120822
0.017520129680633545,0.1396864801645279,9.756040573120117,0.0040447041392326355,-0.002272367477416992,-0.000148773193359375,-0.008093747486038664,0.02326218357003538,-0.008675274060841781
0.009041388519108295,0.13568483293056488,9.748472213745117,-0.0056114476174116135,-0.004752293229103088,-0.009319305419921875,0.024168611037876896,-0.060593729737077225,-0.022531246607138233
0.007091796025633812,0.14577046036720276,9.760416030883789,-0.01029700692743063,0.0044559091329574585,0.00244140625,-0.008093747486038664,-0.04125088747165234,0.028125851888253034
0.007091796025633812,0.14577046036720276,9.760416030883789,-0.007502629421651363,-0.002616286277770996,0.0025663375854492188,-0.008093747486038664,-0.05872179099703093,0.04653271811354816
0.007437743246555328,0.13868211209774017,9.755220413208008,-0.007502629421651363,-0.002616286277770996,0.0025663375854492188,-0.008093747486038664,-0.05872179099703093,0.04653271811354816
0.013396019116044044,0.142216756939888,9.764609336853027,-0.005119951441884041,-0.004645809531211853,0.002361297607421875,-0.008093747486038664,-0.025673560512167227,-0.022531246607138233
0.009984569624066353,0.13966986536979675,9.76071548461914,-0.000281565822660923,-0.006887480616569519,-0.0072078704833984375,-0.008093747486038664,0.011131714243239844,0.047468694153677916
0.011802670545876026,0.13916949927806854,9.766685485839844,-0.007090750150382519,0.004783421754837036,0.01840496063232422,0.059244980819411264,0.009406211023738927,0.044807481698311696
0.0029141069389879704,0.14182879030704498,9.759892463684082,-0.011761480011045933,0.00254233181476593,0.0040130615234375,-0.008093747486038664,-0.03952591786068033,-0.022531246607138233
0.017632681876420975,0.1354283094406128,9.748063087463379,0.0050125522539019585,-0.004597887396812439,-0.009847640991210938,0.03136888440311327,0.009406211023738927,-0.022531246607138233
0.014380311593413353,0.14469940960407257,9.759881019592285,0.007550089620053768,0.004731178283691406,0.00200653076171875,-0.008093747486038664,-0.03633216409346468,-0.010400470455438576
0.0072554899379611015,0.13230030238628387,9.753252029418945,-0.004197455011308193,-0.004424929618835449,-0.00017261505126953125,-0.008093747486038664,0.015670855194389332,0.047468694153677916
0.0072554899379611015,0.13230030238628387,9.753252029418945,-0.004197455011308193,-0.004424929618835449,-0.00017261505126953125,-0.008093747486038664,0.015670855194389332,0.047468694153677916
0.009681131690740585,0.14414748549461365,9.752974510192871,-0.013683432713150978,0.0004546046257019043,-0.0024890899658203125,0.037237364261689714,-0.015262617989348845,0.047468694153677916
0.01494388747960329,0.14230529963970184,9.75658130645752,0.0006308788433670998,0.0025451481342315674,-0.0022859573364257812,0.01883707476151337,-0.060593729737077225,-0.022531246607138233
0.010201539844274521,0.13972707092761993,9.752022743225098,-0.0017670420929789543,0.002431139349937439,-0.006880760192871094,-0.008093747486038664,0.009406211023738927,0.037595575667145144
0.014928222633898258,0.14253553748130798,9.751455307006836,0.0030800877138972282,0.002405986189842224,-0.0066318511962890625,0.03363830813634256,0.009406211023738927,-0.022531246607138233
0.012257218360900879,0.14669424295425415,9.76426887512207,0.0006535490974783897,0.006890013813972473,0.007373809814453125,-0.008093747486038664,-0.060593729737077225,-0.022531246607138233
0.013100921176373959,0.14196814596652985,9.757486343383789,0.005497390404343605,-0.00038032233715057373,0.0001811981201171875,-0.008093747486038664,0.009406211023738927,-0.022531246607138233
0.013100921176373959,0.14196814596652985,9.757486343383789,0.005497390404343605,-0.00038032233715057373,0.0001811981201171875,-0.008093747486038664,0.009406211023738927,-0.022531246607138233
0.017507042735815048,0.14782972633838654,9.752883911132812,0.0027879243716597557,0.008782237768173218,-0.009074211120605469,-0.008093747486038664,0.009406211023738927,-0.022531246607138233
0.015326745808124542,0.14469940960407257,9.76092529296875,0.0004673833027482033,0.0038651227951049805,0.007456779479980469,-0.008093747486038664,-0.022467507068360263,-0.022531246607138233
0.010970448143780231,0.14239580929279327,9.756244659423828,0.00040761474519968033,-0.0009765475988388062,0.000194549560546875,-0.008093747486038664,0.009406211023738927,-0.022531246607138233
0.015236069448292255,0.1386268138885498,9.754538536071777,0.002764585427939892,0.0011892914772033691,-0.0044040679931640625,0.04483266802087612,-0.007667314230162439,-0.022531246607138233
0.01583273708820343,0.13745145499706268,9.762258529663086,0.0027082785964012146,-0.003225982189178467,0.004955291748046875,0.027386177085695032,0.009406211023738927,-0.022531246607138233
0.007375707849860191,0.1469053328037262,9.75904655456543,-0.004290023818612099,0.008549511432647705,0.0050067901611328125,-0.008093747486038664,-0.060593729737077225,-0.0064059437091050445
0.016656270250678062,0.14134222269058228,9.765632629394531,0.00987641979008913,-0.0034022927284240723,0.011715888977050781,-0.008093747486038664,0.007124794438822441,-0.02024983002222175
0.016656270250678062,0.14134222269058228,9.765632629394531,0.00987641979008913,-0.0034022927284240723,0.011715888977050781,-0.008093747486038664,0.007124794438822441,-0.02024983002222175
0.003878660500049591,0.135402113199234,9.772989273071289,-0.008739262819290161,-0.0007982552051544189,-0.004572868347167969,-0.008093747486038664,0.009406211023738927,0.026790763348927105
0.012598772533237934,0.13769184052944183,9.753642082214355,0.0034063654020428658,-0.01234900951385498,-0.011884689331054688,-0.008093747486038664,0.009406211023738927,-0.022531246607138233
0.011654680594801903,0.14230529963970184,9.764668464660645,-0.003825693391263485,0.0019307136535644531,0.0070629119873046875,-0.008093747486038664,-0.060593729737077225,0.047468694153677916
0.010132716968655586,0.13715064525604248,9.764130592346191,-0.003781144507229328,-0.002912953495979309,0.009004592895507812,0.016191617097963136,0.009406211023738927,0.0017541179768635676
0.018243253231048584,0.13299161195755005,9.764961242675781,0.005395472049713135,-0.0073184967041015625,0.009029388427734375,-0.008093747486038664,-0.017913545140320376,0.004788509556921068
0.011105882935225964,0.14230529963970184,9.757486343383789,0.005647607147693634,0.0021594762802124023,-0.0005168914794921875,-0.008093747486038664,0.009406211023738927,-0.022531246607138233
0.011105882935225964,0.14230529963970184,9.757486343383789,0.005647607147693634,0.0021594762802124023,-0.0005168914794921875,-0.008093747486038664,0.009406211023738927,-0.022531246607138233
0.01063627004623413,0.1368684321641922,9.758560180664062,0.005469516851007938,-0.00006689131259918213,-0.009992599487304688,-0.008093747486038664,-0.05111158621967479,0.037986550636275485
0.009824894368648529,0.14392738044261932,9.748296737670898,0.0030832812190055847,-0.0002964138984680176,-0.007828712463378906,-0.008093747486038664,-0.018479917232902526,0.047468694153677916
0.013818562030792236,0.14194180071353912,9.754729270935059,-0.0016260389238595963,0.00427110493183136,-0.00035190582275390625,-0.008093747486038664,-0.060593729737077225,0.0011817294481179874
0.010457605123519897,0.1391618549823761,9.759881019592285,0.0005836961790919304,-0.0005746781826019287,0.0021266937255859375,0.048815495400213356,-0.0036844868508251988,-0.022531246607138233
0.020036393776535988,0.13967083394527435,9.757486343383789,0.00760276336222887,-0.0005612373352050781,-0.000316619873046875,0.023391690360001167,-0.060593729737077225,0.008954191238901598
0.012436414137482643,0.14454694092273712,9.753717422485352,0.0004460234194993973,0.006606891751289368,-0.004954338073730469,-0.008093747486038664,-0.010701692470006716,-0.022531246607138233
0.01117801759392023,0.14104972779750824,9.75634765625,0.0004701828584074974,-0.0004720836877822876,-0.00009441375732421875,-0.009806837637135876,0.0076931275427483264,-0.022531246607138233
0.01117801759392023,0.14104972779750824,9.75634765625,0.0004701828584074974,-0.0004720836877822876,-0.00009441375732421875,-0.009806837637135876,0.0076931275427483264,-0.022531246607138233
0.018240120261907578,0.14230529963970184,9.764649391174316,0.0029752803966403008,0.0018419772386550903,-0.007136344909667969,-0.02478598276560936,0.04602168122541369,-0.022531246607138233
0.005007859319448471,0.13702036440372467,9.760377883911133,-0.011193729937076569,0.0017666220664978027,-0.0024785995483398438,-0.008093747486038664,0.04431477426314519,0.012377316632268029
0.020896516740322113,0.1385197937488556,9.75269889831543,0.012593485414981842,-0.00520460307598114,-0.0048618316650390625,0.060010308851996486,0.009406211023738927,0.047468694153677916
0.008284950628876686,0.13574722409248352,9.756601333618164,-0.006539355032145977,-0.007526695728302002,-0.00226593017578125,0.04161523537519021,-0.010884746875848348,0.047468694153677916
0.018116796389222145,0.13348765671253204,9.755472183227539,0.00511909369379282,-0.007476866245269775,-0.0023355484008789062,-0.008093747486038664,-0.029291292936026128,0.01616625735262682
0.020764578133821487,0.13839997351169586,9.75509262084961,0.009476195089519024,-0.000231817364692688,-0.0022058486938476562,0.04899836304306987,-0.0035016192079686853,-0.009623416375430622
0.020764578133821487,0.13839997351169586,9.75509262084961,0.009476195089519024,-0.000231817364692688,-0.0022058486938476562,0.04899836304306987,-0.0035016192079686853,-0.009623416375430622
0.013079013675451279,0.14129628241062164,9.757486343383789,0.0022183628752827644,-0.00036953389644622803,0.00018024444580078125,-0.008093747486038664,-0.060593729737077225,0.047468694153677916
0.01320546492934227,0.13083398342132568,9.74726390838623,-0.0026178592815995216,-0.004979223012924194,0.004825592041015625,0.01580204285122118,-0.03669793939981738,-0.022531246607138233
0.008030671626329422,0.14054737985134125,9.756214141845703,-0.0025102123618125916,-0.0023353248834609985,0.005015373229980469,-0.008093747486038664,-0.032890749267769956,-0.022531246607138233
0.010438654571771622,0.1384030133485794,9.759881019592285,-0.0047613475471735,-0.002311304211616516,0.0026721954345703125,-0.008093747486038664,-0.060593729737077225,-0.01343492873656219
0.02174929901957512,0.14153601229190826,9.755948066711426,0.009256594814360142,0.0024312585592269897,0.00019741058349609375,-0.008093747486038664,-0.018096479484243002,0.004971443900843695
0.011060953140258789,0.1331016570329666,9.753229141235352,-0.0025363387539982796,-0.0067929476499557495,-0.0017518997192382812,-0.008093747486038664,0.009406211023738927,0.0015712103133673863
0.009279387071728706,0.13412080705165863,9.756094932556152,-0.007307656109333038,-0.004067808389663696,-0.001720428466796875,-0.008093747486038664,-0.060593729737077225,-0.01683561589128807
0.009279387071728706,0.13412080705165863,9.756094932556152,-0.007307656109333038,-0.004067808389663696,-0.001720428466796875,-0.008093747486038664,-0.060593729737077225,-0.01683561589128807
0.010086020454764366,0.1391485631465912,9.746171951293945,0.004761146381497383,-0.0016214251518249512,-0.0036296844482421875,-0.008093747486038664,-0.0032937920261725357,-0.009831243557226772
0.01155701745301485,0.14131316542625427,9.756494522094727,0.0002619205042719841,-0.0016830265522003174,-0.003559112548828125,-0.008093747486038664,0.009406211023738927,-0.022531246607138233
0.007541514001786709,0.1425921767950058,9.759593963623047,-0.0067544132471084595,-0.0016945898532867432,0.008143424987792969,0.04141106341181707,0.009406211023738927,0.047468694153677916
0.015849150717258453,0.13879573345184326,9.760832786560059,0.002890239469707012,-0.0019461512565612793,0.00795745849609375,0.04559802273388778,0.009406211023738927,0.03116052361278821
0.020647497847676277,0.137557715177536,9.759881019592285,0.007306395098567009,-0.002054750919342041,0.0032567977905273438,0.027203202721132736,-0.025890739183432473,-0.022531246607138233
0.019481947645545006,0.14886827766895294,9.765204429626465,0.004325078800320625,0.009462475776672363,0.010060310363769531,-0.008093747486038664,-0.060593729737077225,-0.022531246607138233
0.019481947645545006,0.14886827766895294,9.765204429626465,0.004325078800320625,0.009462475776672363,0.010060310363769531,-0.008093747486038664,-0.060593729737077225,-0.022531246607138233
0.020534317940473557,0.14199623465538025,9.761129379272461,0.008554531261324883,0.00924605131149292,0.0026578903198242188,-0.008093747486038664,-0.060593729737077225,-0.022531246607138233
0.01790374331176281,0.13751710951328278,9.757712364196777,-0.0035485494881868362,-0.0026144683361053467,0.004775047302246094,0.011815800377298933,-0.060593729737077225,-0.022531246607138233
0.01494001504033804,0.14668433368206024,9.751214027404785,0.003355518914759159,-0.004884615540504456,-0.009322166442871094,-0.008093747486038664,-0.060593729737077225,0.047468694153677916
0.01001189835369587,0.130684494972229,9.757137298583984,-0.010745295323431492,-0.007371976971626282,-0.0019578933715820312,-0.008093747486038664,-0.055480265926264864,-0.022531246607138233
0.013062036596238613,0.1399112194776535,9.75509262084961,-0.0012006023898720741,0.000058025121688842773,-0.0019788742065429688,0.03839794947184975,0.03238966417869961,-0.022531246607138233
0.024006564170122147,0.13775360584259033,9.750777244567871,0.010487102903425694,-0.002247542142868042,-0.0065250396728515625,-0.008093747486038664,-0.01867865972949403,-0.022531246607138233
0.016052065417170525,0.13858571648597717,9.751373291015625,-0.001564103178679943,-0.004731729626655579,-0.008687973022460938,0.0015965367081706464,-0.0412131613486586,-0.012840969083035534
0.0071717435494065285,0.1420120894908905,9.748818397521973,-0.006021907553076744,0.009453833103179932,0.005947113037109375,0.0006219007301215614,0.01812185256979254,0.047468694153677916
0.0071717435494065285,0.1420120894908905,9.748818397521973,-0.006021907553076744,0.009453833103179932,0.005947113037109375,0.0006219007301215614,0.01812185256979254,0.047468694153677916
0.015489526093006134,0.13955159485340118,9.754014015197754,-0.001141897402703762,-0.0026118606328964233,-0.008343696594238281,-0.008093747486038664,0.025179172210134663,0.02035520436646771
0.013871140778064728,0.14246214926242828,9.763836860656738,-0.0034380313009023666,0.009129807353019714,0.012867927551269531,-0.008093747486038664,-0.060593729737077225,0.022983026268137554
0.012878738343715668,0.15103934705257416,9.762207984924316,0.005852238275110722,0.008867144584655762,0.00311279296875,0.049592322696596525,-0.0029076595544420296,-0.010217376028957278
0.006272748112678528,0.14215892553329468,9.764082908630371,-0.00787281896919012,0.001294657588005066,0.0074024200439453125,-0.008093747486038664,-0.038432887490279954,0.016748424257664627
0.006272748112678528,0.14182253181934357,9.762737274169922,-0.007528502494096756,0.0013139545917510986,0.00725555419921875,-0.008093747486038664,0.016751065619882717,0.047468694153677916
0.011230552569031715,0.14264452457427979,9.755865097045898,-0.00017360318452119827,0.005943655967712402,-0.00704193115234375,0.059428128606745456,0.1394938338732431,-0.022531246607138233
0.011230552569031715,0.14264452457427979,9.755865097045898,-0.00017360318452119827,0.005943655967712402,-0.00704193115234375,0.059428128606745456,0.1394938338732431,-0.022531246607138233
0.018026933073997498,0.145788311958313,9.757486343383789,-0.0027726246044039726,0.0008802860975265503,0.000133514404296875,0.04598834403257021,0.03165259071772003,0.03155084491147064
0.002151399850845337,0.14351753890514374,9.758698463439941,0.004405977204442024,0.0052287280559539795,0.004719734191894531,0.02758562661358734,-0.023555548199015362,0.011789320054051911
0.013455048203468323,0.14338739216327667,9.756481170654297,0.00012020394206047058,-0.0018858015537261963,0.004590034484863281,-0.008093747486038664,0.009406211023738927,-0.021412109439461067
0.011060953140258789,0.1382986605167389,9.76282787322998,-0.002178942784667015,-0.006606236100196838,0.00931549072265625,-0.008093747486038664,0.07130426676845057,0.027943237709447753
0.01794355735182762,0.13801661133766174,9.763969421386719,0.004732854664325714,-0.004279270768165588,0.006995201110839844,-0.008093747486038664,-0.060593729737077225,0.015389296654111425
0.021572666242718697,0.14178185164928436,9.756963729858398,0.009153003804385662,0.003028169274330139,0.002346038818359375,-0.008093747486038664,0.05206039554492477,0.047468694153677916
0.008666850626468658,0.14062359929084778,9.754769325256348,-0.005002165213227272,0.0031897276639938354,0.0000820159912109375,-0.0733716129517827,-0.12587159520282126,0.047468694153677916
0.008666850626468658,0.14062359929084778,9.754769325256348,-0.005002165213227272,0.0031897276639938354,0.0000820159912109375,-0.0733716129517827,-0.12587159520282126,0.047468694153677916
0.008666850626468658,0.14447619020938873,9.75269889831543,-0.004793902859091759,0.0009068995714187622,-0.004576683044433594,-0.008093747486038664,0.03253307147084343,0.02434183370657341
0.015849150717258453,0.14384688436985016,9.761947631835938,0.0025931941345334053,0.0008178204298019409,-0.00432586669921875,-0.008093747486038664,-0.07364755526229386,0.018995636535878158
0.01254289411008358,0.13956883549690247,9.765237808227539,0.000038183294236660004,0.0007337629795074463,0.009488105773925781,-0.008093747486038664,-0.10560058092200189,-0.01420021674850774
0.014020991511642933,0.14920465648174286,9.75692081451416,-0.00008495710790157318,0.007895618677139282,-0.00021266937255859375,-0.008093747486038664,-0.04404538199732637,-0.022531246607138233
0.014148123562335968,0.13890326023101807,9.764983177185059,0.00004176422953605652,-0.004085153341293335,0.009238243103027344,-0.008093747486038664,0.07940615178455508,-0.06766364253870155
0.018152836710214615,0.14230529963970184,9.76041316986084,0.009333818219602108,0.0005785971879959106,-0.00051116943359375,-0.0016210159994342664,0.0029334862072411404,-0.022531246607138233
0.018152836710214615,0.14230529963970184,9.76041316986084,0.009333818219602108,0.0005785971879959106,-0.00051116943359375,-0.0016210159994342664,0.0029334862072411404,-0.022531246607138233
0.010271999053657055,0.14467217028141022,9.751066207885742,-0.004900642670691013,0.007555291056632996,-0.00022411346435546875,0.003839213313888466,-0.060593729737077225,0.03553574002385739
0.004348323680460453,0.14277496933937073,9.761335372924805,-0.006864631548523903,0.0026407390832901,-0.0003414154052734375,-0.008093747486038664,0.009406211023738927,0.0078000760321545615
0.011060953140258789,0.13531902432441711,9.755484580993652,-0.0018463358283042908,-0.009160116314888,-0.0074329376220703125,0.013174614485841401,-0.01186215761824775,-0.022531246607138233
0.010664340108633041,0.14403358101844788,9.762940406799316,-0.004042298533022404,0.0028756260871887207,0.0043544769287109375,-0.008093747486038664,0.009406211023738927,-0.022531246607138233
0.018206924200057983,0.14237795770168304,9.757413864135742,0.0054372865706682205,0.0004804283380508423,-0.0006046295166015625,-0.008093747486038664,0.04546832918093688,-0.022531246607138233
0.0176504235714674,0.1434909552335739,9.75269889831543,0.005234569311141968,0.00035005807876586914,-0.005096435546875,-0.008093747486038664,0.009406211023738927,-0.022531246607138233
0.0176504235714674,0.1434909552335739,9.75269889831543,0.005234569311141968,0.00035005807876586914,-0.005096435546875,-0.008093747486038664,0.009406211023738927,-0.022531246607138233
0.01350552961230278,0.13873940706253052,9.759830474853516,-0.002047956921160221,-0.004234373569488525,0.004363059997558594,-0.008093747486038664,-0.059854281718144005,-0.022531246607138233
0.0132814422249794,0.14230529963970184,9.77346420288086,-0.0040389159694314,0.00031134486198425293,-0.00485992431640625,0.04277048450006118,0.009406211023738927,-0.022531246607138233
0.005556585732847452,0.14087297022342682,9.764668464660645,-0.008570082485675812,-0.004335761070251465,0.006461143493652344,-0.008093747486038664,0.009406211023738927,-0.05499350822619567
0.012703103013336658,0.13751710951328278,9.758831977844238,0.0032839300110936165,-0.0042022764682769775,0.0014524459838867188,-0.008093747486038664,-0.060593729737077225,-0.022531246607138233
0.012318616732954979,0.14272452890872955,9.751562118530273,-0.0012155082076787949,0.0005972087383270264,-0.007872581481933594,0.039163170782729184,0.056663115952293557,-0.022531246607138233
0.00295419804751873,0.14251524209976196,9.753118515014648,-0.010735597461462021,0.000525251030921936,-0.005307197570800781,-0.008093747486038664,-0.01945563376822265,0.006330598184823342
0.011185145005583763,0.15020285546779633,9.760844230651855,-0.0034124786034226418,0.009594887495040894,-0.0007486343383789062,0.05145089454299369,0.019861523095735946,0.03701339542189412
0.011185145005583763,0.15020285546779633,9.760844230651855,-0.0034124786034226418,0.009594887495040894,-0.0007486343383789062,0.05145089454299369,0.019861523095735946,0.03701339542189412
0.009592299349606037,0.14192306995391846,9.759881019592285,-0.0009771622717380524,-0.004676982760429382,0.0015554428100585938,-0.008093747486038664,-0.044713886762341365,-0.022531246607138233
-0.002303827553987503,0.14948762953281403,9.760213851928711,-0.007812773808836937,0.006875649094581604,0.0037984848022460938,0.035562020243906076,0.05306197875368367,-0.03984285464642479
0.012517072260379791,0.1394176483154297,9.754598617553711,0.0068084243685007095,-0.007552534341812134,-0.007982254028320312,-0.008093747486038664,-0.060593729737077225,0.0027239648183657104
0.014257155358791351,0.14229309558868408,9.756696701049805,0.0018515316769480705,0.0018918365240097046,-0.003082275390625,0.05035759736832886,-0.013690980789158333,-0.010982650700689605
0.01772446185350418,0.1397382915019989,9.758177757263184,0.006367946974933147,-0.002647504210472107,-0.0007162094116210938,-0.008093747486038664,0.009406211023738927,0.047468694153677916
0.009123428724706173,0.1336420774459839,9.767062187194824,-0.0031797122210264206,-0.009395167231559753,0.008374214172363281,-0.008093747486038664,-0.01224378109790899,-0.02758121100301063
0.014763377606868744,0.1399112194776535,9.758572578430176,0.0038767624646425247,-0.0020662248134613037,-0.0012006759643554688,-0.008093747486038664,0.009406211023738927,-0.14625525424409294
0.014763377606868744,0.1399112194776535,9.758572578430176,0.0038767624646425247,-0.0020662248134613037,-0.0012006759643554688,-0.008093747486038664,0.009406211023738927,-0.14625525424409294
0.010703586041927338,0.14094747602939606,9.749947547912598,0.0038871802389621735,-0.004431053996086121,-0.0032014846801757812,-0.008093747486038664,0.009406211023738927,-0.03193010717339147
0.014034755527973175,0.1428850144147873,9.764240264892578,0.00422334112226963,0.002622842788696289,-0.010009765625,-0.010995377264104043,-0.027044574245701836,-0.02833450616326899
0.01222185418009758,0.14230529963970184,9.757438659667969,-0.003111950121819973,0.0001302659511566162,-0.0053863525390625,0.06155241082011198,0.008698632774194696,0.046761115904133684
0.015293360687792301,0.14102280139923096,9.762060165405273,0.0038762465119361877,-0.0021790415048599243,0.008614540100097656,-0.008093747486038664,0.009406211023738927,0.02871981154177969
0.0018531391397118568,0.14005865156650543,9.761758804321289,-0.010319315828382969,-0.002271696925163269,0.0040721893310546875,0.029061654505610896,-0.023438327745427662,0.014624155384511325
0.010358073748648167,0.14597323536872864,9.756916046142578,-0.0004958678036928177,0.007253095507621765,-0.0055904388427734375,-0.008093747486038664,0.023856143223562037,-0.022531246607138233
0.010358073748648167,0.14597323536872864,9.756916046142578,-0.0004958678036928177,0.007253095507621765,-0.0055904388427734375,-0.008093747486038664,0.023856143223562037,-0.022531246607138233
0.015578590333461761,0.14203475415706635,9.761213302612305,0.0064767468720674515,0.002376556396484375,0.00144195556640625,0.057949459352503806,0.013362944946012603,0.04351196023140424
0.01325820479542017,0.14830656349658966,9.758700370788574,-0.000573325902223587,-0.007128626108169556,-0.012727737426757812,0.03955263830776536,0.009406211023738927,0.047468694153677916
0.009493067860603333,0.14618276059627533,9.758397102355957,-0.0005760705098509789,-0.002553686499595642,0.00620269775390625,0.061906193274777484,0.009406211023738927,-0.022531246607138233
0.01636596769094467,0.1412716805934906,9.757391929626465,0.006533441133797169,-0.004974737763404846,-0.00551605224609375,-0.008093747486038664,0.009406211023738927,-0.022531246607138233
0.013764220289885998,0.1464751809835434,9.756020545959473,0.0016801310703158379,0.00426366925239563,-0.003208160400390625,0.03594559139469783,0.009406211023738927,-0.022531246607138233
0.007552742026746273,0.14230529963970184,9.760200500488281,-0.005430441349744797,-0.0005816221237182617,0.001430511474609375,0.017550544598317997,0.009406211023738927,0.02182440206932125
0.017788929864764214,0.1408606916666031,9.745969772338867,0.008665982633829117,-0.0028517991304397583,-0.014683723449707031,-0.008093747486038664,0.009406211023738927,0.047468694153677916
0.015137939713895321,0.141437828540802,9.761459350585938,0.010696753859519958,-0.007674083113670349,0.0019016265869140625,0.050748412254900524,0.009406211023738927,-0.011373465587261272
0.015137939713895321,0.141437828540802,9.761459350585938,0.010696753859519958,-0.007674083113670349,0.0019016265869140625,0.050748412254900524,0.009406211023738927,-0.011373465587261272
0.022588122636079788,0.14514273405075073,9.75509262084961,0.008135310374200344,0.00386713445186615,-0.0027246475219726562,0.061906193274777484,-0.020155261250686164,-0.022531246607138233
0.014776553958654404,0.13751710951328278,9.762849807739258,0.0006726952269673347,-0.0056732892990112305,0.011392593383789062,0.061906193274777484,0.009406211023738927,0.025431342260683006
0.017177071422338486,0.1429973542690277,9.753446578979492,0.007584496401250362,-0.0006820112466812134,-0.009857177734375,-0.008093747486038664,0.009406211023738927,-0.022531246607138233
0.013517937622964382,0.1352488100528717,9.75975513458252,0.0005399715155363083,-0.007666796445846558,0.0018033981323242188,-0.008093747486038664,0.009406211023738927,-0.022531246607138233
0.006711751222610474,0.13442876935005188,9.756919860839844,-0.008722946979105473,-0.009678423404693604,-0.0004940032958984375,-0.008093747486038664,0.027838650437781932,-0.022531246607138233
0.009860213845968246,0.1435011327266693,9.764674186706543,-0.006145613268017769,-0.00013583898544311523,0.011107444763183594,-0.008093747486038664,0.009406211023738927,-0.022531246607138233
0.009860213845968246,0.1435011327266693,9.764674186706543,-0.006145613268017769,-0.00013583898544311523,0.011107444763183594,-0.008093747486038664,0.009406211023738927,-0.022531246607138233
0.011181829497218132,0.14463897049427032,9.759820938110352,0.0031833257526159286,0.00009085237979888916,-0.000946044921875,-0.008093747486038664,-0.042226150439722894,-0.022531246607138233
0.015849150717258453,0.13309380412101746,9.757122039794922,0.003168742172420025,-0.002392292022705078,-0.007939338684082031,-0.008093747486038664,-0.02736077731971905,-0.022531246607138233
0.019562404602766037,0.136442169547081,9.7564115524292,0.007569647394120693,-0.004304945468902588,-0.0007810592651367188,-0.008093747486038664,-0.05702236789438036,-0.022531246607138233
0.01451193355023861,0.14336219429969788,9.75659465789795,0.0025949180126190186,0.0030036121606826782,-0.0006742477416992188,-0.008093747486038664,0.009406211023738927,-0.022531246607138233
0.013087533414363861,0.14635848999023438,9.754908561706543,0.0003496157005429268,0.005385905504226685,-0.0028352737426757812,-0.008093747486038664,0.009406211023738927,-0.022531246607138233
0.007853921502828598,0.14560170471668243,9.760693550109863,-0.004211568273603916,-0.002124994993209839,0.001781463623046875,-0.008093747486038664,-0.04936141694592514,0.047468694153677916
0.016339808702468872,0.13895949721336365,9.754602432250977,0.00044623203575611115,-0.004310920834541321,-0.00045013427734375,-0.008093747486038664,0.009406211023738927,-0.015357173420671208
0.016339808702468872,0.13895949721336365,9.754602432250977,0.00044623203575611115,-0.004310920834541321,-0.00045013427734375,-0.008093747486038664,0.009406211023738927,-0.015357173420671208
0.0065796333365142345,0.13450925052165985,9.75926685333252,-0.004269140772521496,-0.011208012700080872,-0.0027513504028320312,-0.008093747486038664,0.009406211023738927,0.02189729299436998
0.009496258571743965,0.14334845542907715,9.75071907043457,0.005481477826833725,-0.0039345622062683105,-0.0027265548706054688,0.061906193274777484,0.009406211023738927,-0.022531246607138233
0.007929951883852482,0.131255105137825,9.75932788848877,-0.005928775295615196,-0.013262644410133362,-0.004710197448730469,-0.008093747486038664,0.06863435649406317,-0.011759451316646328
0.009065070189535618,0.14469940960407257,9.761876106262207,-0.0034833112731575966,0.003523781895637512,0.004340171813964844,-0.008093747486038664,-0.01977218368778365,-0.022531246607138233
0.02131125144660473,0.1368432193994522,9.755522727966309,0.010574286803603172,-0.005954384803771973,-0.0027513504028320312,-0.008093747486038664,0.009406211023738927,-0.022531246607138233
0.006822897586971521,0.14842811226844788,9.761215209960938,-0.0012531010434031487,0.00793159008026123,0.0042552947998046875,0.05788603997884318,-0.060593729737077225,0.047468694153677916
0.006822897586971521,0.14842811226844788,9.761215209960938,-0.0012531010434031487,0.00793159008026123,0.0042552947998046875,0.05788603997884318,-0.060593729737077225,0.047468694153677916
0.01711067371070385,0.14230529963970184,9.75932502746582,-0.0037401746958494186,0.0005141794681549072,0.011202812194824219,0.04753027257791381,-0.004969709673124746,-0.00815532591027456
0.017689881846308708,0.1399112194776535,9.7604341506958,0.003111281432211399,-0.001733526587486267,0.003930091857910156,0.02468503737215333,-0.027814944878885226,-0.022531246607138233
0.015849150717258453,0.14585325121879578,9.764668464660645,0.0027985768392682076,0.007697120308876038,0.006106376647949219,0.04308668757407839,-0.009413294676960171,-0.022531246607138233
0.011060953140258789,0.13577109575271606,9.7610445022583,-0.002090640366077423,-0.004143312573432922,0.001117706298828125,-0.008093747486038664,-0.0426099883947791,-0.022531246607138233
0.011060953140258789,0.1373756378889084,9.769363403320312,-0.00194561667740345,-0.0036970973014831543,0.010237693786621094,-0.008093747486038664,0.009406211023738927,-0.022531246607138233
0.017930712550878525,0.13887043297290802,9.756861686706543,0.007392160594463348,-0.003598451614379883,0.0034046173095703125,-0.008093747486038664,-0.04537913651533003,0.03225410093193072
0.021507931873202324,0.14731116592884064,9.751392364501953,0.011737542226910591,0.003283485770225525,-0.005767822265625,-0.008093747486038664,0.009406211023738927,-0.022531246607138233
0.021507931873202324,0.14731116592884064,9.751392364501953,0.011737542226910591,0.003283485770225525,-0.005767822265625,-0.008093747486038664,0.009406211023738927,-0.022531246607138233
0.016019640490412712,0.13580498099327087,9.756975173950195,0.004594818688929081,0.0031935572624206543,-0.007973670959472656,-0.008093747486038664,0.009406211023738927,-0.022531246607138233
0.01505462545901537,0.14309458434581757,9.762280464172363,0.004330147057771683,-0.00600789487361908,0.008562088012695312,-0.008093747486038664,-0.020608695098125095,-0.022531246607138233
0.002950034337118268,0.14087609946727753,9.765132904052734,-0.014369672164320946,-0.0013214200735092163,0.008287429809570312,-0.008093747486038664,0.009406211023738927,0.040679752922949695
0.01383496355265379,0.14503510296344757,9.766100883483887,0.0024825986474752426,0.0033667832612991333,0.01029205322265625,-0.008093747486038664,0.009406211023738927,-0.022531246607138233
0.016186660155653954,0.1407926231622696,9.75181770324707,0.005092614330351353,-0.0015122145414352417,-0.0059185028076171875,-0.008093747486038664,0.009406211023738927,-0.022531246607138233
0.017868414521217346,0.13936306536197662,9.757688522338867,0.007299414835870266,-0.003796204924583435,-0.008375167846679688,-0.008093747486038664,0.009406211023738927,-0.014516473183377843
0.017868414521217346,0.13936306536197662,9.757688522338867,0.007299414835870266,-0.003796204924583435,-0.008375167846679688,-0.008093747486038664,0.009406211023738927,-0.014516473183377843
0.013324110768735409,0.14146362245082855,9.757486343383789,-0.004578654654324055,-0.0013646632432937622,-0.0011272430419921875,-0.008093747486038664,0.009406211023738927,-0.012139874177117527
0.012728655710816383,0.13595688343048096,9.76300048828125,0.007211356423795223,-0.0015020370483398438,-0.003520965576171875,0.033116932582960515,0.009406211023738927,-0.022531246607138233
0.010156560689210892,0.14560380578041077,9.75509262084961,0.004777817986905575,-0.003592774271965027,-0.0035867691040039062,-0.008093747486038664,0.009406211023738927,-0.022531246607138233
0.018481668084859848,0.14302386343479156,9.762751579284668,0.007149267941713333,0.0008967369794845581,0.008246421813964844,-0.008093747486038664,-0.046604381738980405,0.0334793461555811
0.011060953140258789,0.13574644923210144,9.762096405029297,-0.0023298878222703934,-0.006282508373260498,0.0035295486450195312,0.02430237335586072,0.009406211023738927,0.00986487423476115
0.011060953140258789,0.1481737196445465,9.764902114868164,-0.0021733250468969345,0.005053162574768066,0.008124351501464844,0.061906193274777484,0.009406211023738927,0.028259507484531078
0.011060953140258789,0.14119072258472443,9.757431983947754,-0.0021733250468969345,0.005053162574768066,0.008124351501464844,-0.008093747486038664,0.010208784931641872,-0.022531246607138233
0.011060953140258789,0.14119072258472443,9.757431983947754,-0.0019125556573271751,0.0027326345443725586,-0.0037631988525390625,-0.008093747486038664,0.010208784931641872,-0.022531246607138233
0.004083120264112949,0.13515710830688477,9.762274742126465,0.005029657855629921,-0.004245281219482422,0.0037488937377929688,-0.008093747486038664,0.027000057954177748,-0.022531246607138233
0.011464754119515419,0.13858436048030853,9.760544776916504,-0.0066864099353551865,-0.006250202655792236,0.003543853759765625,-0.008093747486038664,-0.060593729737077225,-0.022531246607138233
0.01158851943910122,0.14249660074710846,9.753608703613281,-0.008811170235276222,0.003298550844192505,-0.008223533630371094,-0.008093747486038664,0.009406211023738927,-0.022531246607138233
0.009645090438425541,0.14328354597091675,9.75795841217041,-0.0017677610740065575,0.003272444009780884,-0.00098419189453125,-0.008093747486038664,0.009406211023738927,-0.022531246607138233
0.012826230376958847,0.14199088513851166,9.762117385864258,0.0008811270818114281,0.0008735805749893188,0.003662109375,0.02231001251105329,0.009406211023738927,-0.022531246607138233
0.010274247266352177,0.13909050822257996,9.75909423828125,-0.0014461418613791466,-0.0038041770458221436,0.0012636184692382812,-0.008093747486038664,-0.002590802809976907,-0.022531246607138233
0.010274247266352177,0.13909050822257996,9.75909423828125,-0.0014461418613791466,-0.0038041770458221436,0.0012636184692382812,-0.008093747486038664,-0.002590802809976907,-0.022531246607138233
0.012476871721446514,0.13947346806526184,9.760859489440918,-0.0014010807499289513,0.0010846853256225586,0.0035219192504882812,-0.008093747486038664,0.003008138040435264,-0.022531246607138233
0.014577205292880535,0.13751710951328278,9.749593734741211,0.010236031375825405,-0.0035865455865859985,0.0031366348266601562,-0.008093747486038664,-0.03579115174621885,-0.022531246607138233
0.013455048203468323,0.13545840978622437,9.759881019592285,0.0006524277850985527,-0.0012563616037368774,0.0010290145874023438,0.061906193274777484,0.009406211023738927,0.004265813322429975
0.010376524180173874,0.14948762953281403,9.756117820739746,-0.004008017480373383,0.008342117071151733,-0.0060100555419921875,-0.008093747486038664,0.009406211023738927,-0.022531246607138233
0.015397836454212666,0.13534867763519287,9.760332107543945,0.0030939243733882904,-0.006055071949958801,0.0010433197021484375,-0.008093747486038664,0.009406211023738927,0.01906704669725917
0.019021987915039062,0.13751710951328278,9.758697509765625,0.007737867534160614,-0.0035431385040283203,-0.0014696121215820312,0.03871436598927852,0.009406211023738927,0.024276866868178953
0.010683950036764145,0.13925518095493317,9.75307559967041,0.003141838125884533,-0.005845293402671814,-0.010764122009277344,-0.008093747486038664,0.009406211023738927,-0.022531246607138233
0.010683950036764145,0.13925518095493317,9.75307559967041,0.003141838125884533,-0.005845293402671814,-0.010764122009277344,-0.008093747486038664,0.009406211023738927,-0.022531246607138233
0.016779974102973938,0.1408420205116272,9.757884979248047,0.0006079599261283875,-0.0033661723136901855,-0.010562896728515625,-0.008093747486038664,0.009406211023738927,-0.022531246607138233
0.014795197173953056,0.14283227920532227,9.752985000610352,-0.0018533170223236084,0.003567829728126526,-0.012700080871582031,-0.008093747486038664,0.009406211023738927,0.015461587269565135
0.012217318639159203,0.13743576407432556,9.753854751586914,0.0003626188263297081,-0.0011925846338272095,-0.0029535293579101562,-0.008093747486038664,0.009406211023738927,-0.00293860884911865
0.006881264969706535,0.13390599191188812,9.760449409484863,-0.00654646847397089,-0.005627736449241638,0.004256248474121094,-0.008093747486038664,0.009406211023738927,-0.005324052416745603
0.018159296363592148,0.13745413720607758,9.75509262084961,0.00530324038118124,-0.002837136387825012,-0.002765655517578125,-0.008093747486038664,-0.0249800428473597,0.013082440282579287
0.005178953520953655,0.14688703417778015,9.759230613708496,-0.008884673938155174,0.008805856108665466,0.0019788742065429688,0.0078977930940107,-0.060593729737077225,-0.006539706027088869
0.005178953520953655,0.14688703417778015,9.759230613708496,-0.008884673938155174,0.008805856108665466,0.0019788742065429688,-0.005678581923351578,-0.060593729737077225,-0.02011608104445115
0.014899784699082375,0.14180997014045715,9.761489868164062,-0.0018807100132107735,0.008736655116081238,-0.002979278564453125,-0.005678581923351578,-0.060593729737077225,-0.02011608104445115
0.009099203161895275,0.13737300038337708,9.760313034057617,0.002908002585172653,-0.0054236650466918945,0.008627891540527344,-0.008093747486038664,0.009406211023738927,-0.022531246607138233
0.003731364384293556,0.1399848461151123,9.758259773254395,0.0006455425173044205,-0.005165904760360718,0.0013675689697265625,-0.008093747486038664,0.009406211023738927,-0.022531246607138233
0.012295045889914036,0.14049121737480164,9.755672454833984,0.005682186223566532,-0.0027238577604293823,-0.0056247711181640625,-0.008093747486038664,0.009406211023738927,0.04145615333250974
0.005910847801715136,0.14695431292057037,9.755231857299805,-0.005850248038768768,0.008894845843315125,-0.0055103302001953125,-0.008093747486038664,0.009406211023738927,0.0018876401710093834
0.012385979294776917,0.13485576212406158,9.752442359924316,0.0015481775626540184,-0.005188286304473877,-0.00798797607421875,0.034720199428702005,0.009406211023738927,-0.022531246607138233
0.015849150717258453,0.1432020515203476,9.754788398742676,0.003756800666451454,0.0018453896045684814,-0.00787353515625,-0.008093747486038664,0.009406211023738927,-0.022531246607138233
0.010192823596298695,0.13772740960121155,9.755960464477539,-0.0032720137387514114,0.0018523335456848145,-0.0005865097045898438,-0.008093747486038664,0.009406211023738927,-0.022531246607138233
0.010192823596298695,0.13772740960121155,9.755960464477539,-0.0032720137387514114,0.0018523335456848145,-0.0005865097045898438,-0.008093747486038664,0.009406211023738927,-0.022531246607138233
0.021027937531471252,0.1430864781141281,9.75509262084961,0.01096480991691351,0.0064962804317474365,-0.0030107498168945312,0.019926143088586614,0.009406211023738927,0.019448803579052636
0.012789541855454445,0.13410314917564392,9.758195877075195,-0.003506314940750599,-0.007670611143112183,-0.0051727294921875,-0.008093747486038664,0.009406211023738927,0.023889493756618738
0.015689408406615257,0.1406559944152832,9.756156921386719,0.0011758944019675255,-0.00030684471130371094,0.001834869384765625,-0.008093747486038664,0.009406211023738927,0.034244233961129966
0.013339431956410408,0.13570110499858856,9.76899528503418,0.0009464016184210777,-0.00509566068649292,0.011369705200195312,0.030286993110753828,0.009406211023738927,0.015849493989654257
0.012941157445311546,0.1433330923318863,9.752360343933105,0.0009881416335701942,0.00186842679977417,-0.0076160430908203125,-0.008093747486038664,0.009406211023738927,0.027494552977916094
0.015849150717258453,0.13980329036712646,9.74948501586914,0.003227442502975464,-0.0029750466346740723,0.00004482269287109375,-0.006514419652925277,0.009406211023738927,-0.022531246607138233
0.015849150717258453,0.13980329036712646,9.74948501586914,0.003227442502975464,-0.0029750466346740723,0.00004482269287109375,-0.006514419652925277,0.009406211023738927,-0.022531246607138233
0.006272748112678528,0.13990351557731628,9.76703929901123,-0.006036922335624695,-0.0029340535402297974,0.0020456314086914062,0.008732243441409241,0.009406211023738927,-0.022531246607138233
0.009786911308765411,0.13863718509674072,9.760363578796387,-0.005678880959749222,-0.0051400065422058105,-0.0029163360595703125,-0.04331908742863071,0.009406211023738927,0.047468694153677916
0.013593800365924835,0.14272157847881317,9.752837181091309,0.0037325993180274963,0.009003132581710815,-0.0029506683349609375,-0.008093747486038664,-0.05856406965609917,-0.022531246607138233
0.012556349858641624,0.13951097428798676,9.758482933044434,-0.0009672874584794044,-0.0027149170637130737,-0.00033283233642578125,-0.008093747486038664,0.009406211023738927,-0.022531246607138233
0.01145404577255249,0.14935660362243652,9.746434211730957,-0.0011858874931931496,0.008838489651679993,-0.012081146240234375,-0.008093747486038664,-0.02942505525400995,-0.022531246607138233
0.011060953140258789,0.13915102183818817,9.764781951904297,-0.0013097301125526428,-0.0006075799465179443,0.0091400146484375,-0.008093747486038664,-0.060593729737077225,-0.022531246607138233
0.018243253231048584,0.1426905244588852,9.76490306854248,0.005579791031777859,-0.0006781965494155884,0.013489723205566406,-0.008093747486038664,0.003773732877284936,0.041836216007223925
0.018243253231048584,0.1426905244588852,9.76490306854248,0.005579791031777859,-0.0006781965494155884,0.013489723205566406,-0.008093747486038664,0.003773732877284936,0.041836216007223925
0.020383190363645554,0.1417969912290573,9.757994651794434,0.005430752411484718,-0.003007739782333374,0.0037631988525390625,-0.008093747486038664,0.009406211023738927,0.023439128158221023
0.011687977239489555,0.13751710951328278,9.764156341552734,-0.004211319610476494,-0.0030551105737686157,-0.0032939910888671875,0.019475323922939325,0.009406211023738927,0.019899622744699922
0.01194227859377861,0.1371355503797531,9.752947807312012,-0.0017518335953354836,-0.00751766562461853,-0.008156776428222656,-0.008093747486038664,0.009406211023738927,-0.022531246607138233
0.015345469117164612,0.1436920464038849,9.75773811340332,0.0028570424765348434,0.004126042127609253,-0.000919342041015625,0.019542932123551876,-0.018230468585851613,-0.022531246607138233
0.015094516798853874,0.13512302935123444,9.755846977233887,0.002749115228652954,-0.0052345991134643555,-0.0032587051391601562,0.037937752136306915,-0.014562230114731638,-0.022531246607138233
0.011441473849117756,0.14091800153255463,9.756479263305664,0.0004953574389219284,-0.0004613250494003296,-0.0007524490356445312,-0.008093747486038664,0.009406211023738927,-0.022531246607138233
0.011441473849117756,0.14091800153255463,9.756479263305664,0.0004953574389219284,-0.0004613250494003296,-0.0007524490356445312,-0.008093747486038664,0.009406211023738927,-0.022531246607138233
0.004876523744314909,0.14218541979789734,9.750064849853516,-0.015665175393223763,0.0065719932317733765,0.0019407272338867188,-0.008093747486038664,0.009406211023738927,-0.022531246607138233
0.013455048203468323,0.13740801811218262,9.757486343383789,0.0013873595744371414,-0.012383580207824707,-0.0003643035888671875,-0.008093747486038664,0.009406211023738927,-0.022531246607138233
0.014316435903310776,0.1338588446378708,9.7607421875,0.00832304172217846,-0.005020245909690857,0.008965492248535156,-0.008093747486038664,0.009406211023738927,-0.022531246607138233
0.014089785516262054,0.14469940960407257,9.763888359069824,0.0012380406260490417,0.004655078053474426,0.008797645568847656,-0.008093747486038664,0.009406211023738927,-0.022531246607138233
0.015837999060750008,0.1470600664615631,9.76225757598877,0.003462051972746849,0.006641879677772522,0.003986358642578125,0.027069440403148914,0.009406211023738927,0.012631941282049343
0.018141616135835648,0.1327289193868637,9.767483711242676,0.008085786364972591,-0.007274225354194641,0.013272285461425781,-0.008093747486038664,0.009406211023738927,-0.005774951623672226
0.011060953140258789,0.134786456823349,9.759431838989258,-0.0013784710317850113,0.0026973336935043335,0.010798454284667969,-0.07645530995991123,0.009406211023738927,-0.020892868320194647
0.011060953140258789,0.134786456823349,9.759431838989258,-0.0013784710317850113,0.0026973336935043335,0.010798454284667969,-0.07645530995991123,0.009406211023738927,-0.020892868320194647
0.0090201236307621,0.14674024283885956,9.757369041442871,0.0033149346709251404,0.0006173700094223022,-0.0033082962036132812,-0.008093747486038664,0.009406211023738927,0.027425397312569714
0.02153732441365719,0.14140534400939941,9.764074325561523,0.0056853750720620155,0.005070045590400696,-0.0008640289306640625,-0.04653693695597983,0.009406211023738927,0.01591193952774963
0.02303144335746765,0.1399112194776535,9.757486343383789,0.009822165593504906,0.0002917051315307617,-0.00107574462890625,-0.008093747486038664,0.004158998235155967,-0.022531246607138233
0.009895680472254753,0.14631666243076324,9.757874488830566,-0.002323419786989689,0.007283806800842285,-0.0010175704956054688,-0.008093747486038664,0.009406211023738927,-0.022531246607138233
0.0017256303690373898,0.14015229046344757,9.755575180053711,-0.011282091028988361,0.00005657970905303955,-0.0033540725708007812,-0.008093747486038664,0.009406211023738927,-0.022531246607138233
0.009974062442779541,0.13664686679840088,9.763361930847168,0.0009366404265165329,-0.0021192729473114014,0.0010967254638671875,-0.008093747486038664,0.009406211023738927,0.047468694153677916
0.009974062442779541,0.13664686679840088,9.763361930847168,0.0009366404265165329,-0.0021192729473114014,0.0010967254638671875,-0.008093747486038664,0.009406211023738927,0.047468694153677916
0.007772442884743214,0.1411217898130417,9.761380195617676,-0.005939273163676262,-0.004499271512031555,0.0009717941284179688,-0.008093747486038664,0.009406211023738927,-0.013681455876917338
0.030422646552324295,0.14100381731987,9.76060962677002,0.005986782722175121,0.007022827863693237,0.005702018737792969,-0.008093747486038664,0.009406211023738927,0.047468694153677916
0.014855563640594482,0.13711020350456238,9.757307052612305,0.0006461814045906067,-0.000233575701713562,-0.008444786071777344,0.016258038019598867,0.009406211023738927,0.023116908648040384
0.01191247534006834,0.13983097672462463,9.757406234741211,0.0005750600248575211,-0.002393677830696106,-0.003650665283203125,-0.008093747486038664,0.009406211023738927,-0.010083600370760231
0.011486324481666088,0.14441582560539246,9.757061004638672,-0.0016258424147963524,0.004551723599433899,-0.0013179779052734375,-0.008093747486038664,0.009406211023738927,0.016614461836482464
0.010616319254040718,0.13800448179244995,9.759838104248047,-0.004029449075460434,-0.002525702118873596,0.0036039352416992188,-0.008093747486038664,0.009406211023738927,-0.0017803581762725815
0.009462801739573479,0.13767756521701813,9.757486343383789,-0.004029449075460434,-0.002525702118873596,0.0036039352416992188,-0.008093747486038664,0.009406211023738927,-0.0017803581762725815
0.009462801739573479,0.13767756521701813,9.757486343383789,-0.00863051787018776,0.000030502676963806152,-0.0011186599731445312,-0.008093747486038664,0.009406211023738927,0.047468694153677916
0.01475108228623867,0.14075720310211182,9.759232521057129,0.005576596595346928,0.009429454803466797,-0.00112152099609375,-0.008093747486038664,0.009406211023738927,0.047468694153677916
0.013455048203468323,0.1399112194776535,9.764619827270508,0.0009664986282587051,-0.0002426356077194214,-0.0009307861328125,-0.008093747486038664,0.009406211023738927,0.047468694153677916
0.011146778240799904,0.14115117490291595,9.757916450500488,0.0009424397721886635,0.0021236538887023926,0.010499954223632812,-0.008093747486038664,0.009406211023738927,0.04621540780183347
0.017718566581606865,0.14604414999485016,9.75719165802002,0.0054833246394991875,0.006752759218215942,-0.00339508056640625,-0.008093747486038664,-0.060593729737077225,0.047468694153677916
0.020428400486707687,0.1445949375629425,9.76237964630127,0.0076056718826293945,0.004209786653518677,0.0035152435302734375,-0.008093747486038664,0.009406211023738927,-0.022531246607138233
0.02009553276002407,0.1399112194776535,9.759881019592285,0.009632935747504234,-0.0005214214324951172,0.0010595321655273438,-0.008093747486038664,-0.047055000801429346,-0.022531246607138233
0.02009553276002407,0.1399112194776535,9.759881019592285,0.009632935747504234,-0.0005214214324951172,0.0010595321655273438,-0.008093747486038664,-0.047055000801429346,-0.022531246607138233
0.01757868379354477,0.1419389694929123,9.757486343383789,0.009394326247274876,-0.005316734313964844,-0.0012617111206054688,-0.008093747486038664,0.009406211023738927,-0.022531246607138233
0.013682857155799866,0.1470935195684433,9.759653091430664,0.0023153023794293404,0.006443843245506287,-0.0012569427490234375,-0.008093747486038664,0.009406211023738927,-0.022531246607138233
0.011060953140258789,0.13648280501365662,9.752875328063965,-0.0023731952533125877,-0.01039627194404602,-0.0012493133544921875,0.02024516094759381,0.009406211023738927,-0.022531246607138233
0.013705410063266754,0.14379183948040009,9.75509262084961,0.004768499173223972,0.003905683755874634,-0.0033140182495117188,-0.008093747486038664,0.009406211023738927,0.03900356847173303
0.013455048203468323,0.14147014915943146,9.749302864074707,0.0002058194950222969,0.0014540404081344604,-0.010114669799804688,-0.008093747486038664,0.009406211023738927,-0.022531246607138233
0.023669973015785217,0.13103704154491425,9.751708984375,0.011863023974001408,-0.010152488946914673,-0.0075550079345703125,0.03717266422755971,0.009406211023738927,-0.022531246607138233
0.011607741937041283,0.1417585164308548,9.7518310546875,-0.004790945909917355,0.004200577735900879,-0.009662628173828125,-0.008093747486038664,0.009406211023738927,-0.022531246607138233
0.019893983379006386,0.1430896669626236,9.755133628845215,-0.00023228023201227188,0.004060536623001099,-0.007063865661621094,-0.008093747486038664,0.009406211023738927,0.03540159083969011
0.019893983379006386,0.1430896669626236,9.755133628845215,-0.00023228023201227188,0.004060536623001099,-0.007063865661621094,-0.008093747486038664,0.009406211023738927,0.03540159083969011
0.01729477196931839,0.1422824114561081,9.75075626373291,-0.00030026398599147797,0.01104012131690979,0.004767417907714844,-0.008093747486038664,0.009406211023738927,-0.022531246607138233
0.013455048203468323,0.13880757987499237,9.75969409942627,-0.0004969891160726547,-0.00318145751953125,0.004894256591796875,-0.008093747486038664,-0.03945923013478015,-0.0013967470048411622
0.008666850626468658,0.1305856853723526,9.759881019592285,-0.00520256906747818,-0.012468203902244568,0.002429962158203125,0.046240994330794566,-0.006258987920243989,-0.022531246607138233
0.018179772421717644,0.13748537003993988,9.769393920898438,0.0044233230873942375,-0.002708122134208679,0.011607170104980469,-0.008093747486038664,0.009406211023738927,-0.022531246607138233
0.015251733362674713,0.13871638476848602,9.766465187072754,0.0019019916653633118,-0.0002503395080566406,0.008772850036621094,0.044372857551516744,-0.008127124699521813,-0.022531246607138233
0.015729844570159912,0.14365150034427643,9.7597017288208,0.006612787023186684,-0.0027975887060165405,0.008680343627929688,-0.008093747486038664,0.008533014027035109,-0.022531246607138233
0.015729844570159912,0.14365150034427643,9.7597017288208,0.006612787023186684,-0.0027975887060165405,0.008680343627929688,-0.008093747486038664,0.008533014027035109,-0.022531246607138233
0.013272266834974289,0.1401853859424591,9.771576881408691,-0.005126877687871456,0.00651887059211731,0.006137847900390625,0.04263633531589389,-0.04132387177819363,0.028198836194794324
0.013223203830420971,0.14040011167526245,9.763227462768555,0.004365568049252033,0.006269782781600952,0.0009546279907226562,-0.008093747486038664,-0.02826560396197384,0.015140568378574535
0.01523733139038086,0.14156712591648102,9.75883674621582,-0.0025254301726818085,0.003663390874862671,0.0007762908935546875,0.061906193274777484,0.01387705008318829,0.04299785509422855
0.014190608635544777,0.1394965797662735,9.754677772521973,0.0020399969071149826,-0.0010813772678375244,-0.0038547515869140625,0.014783424190176916,0.009406211023738927,-0.022531246607138233
0.014991055242717266,0.13533754646778107,9.75269889831543,0.0022173449397087097,-0.005587384104728699,-0.005906105041503906,-0.008093747486038664,0.009406211023738927,-0.022531246607138233
0.006410716101527214,0.1417372077703476,9.758330345153809,-0.009382317773997784,-0.003316357731819153,-0.00112152099609375,-0.008093747486038664,0.009406211023738927,-0.022531246607138233
0.006410716101527214,0.1417372077703476,9.758330345153809,-0.009382317773997784,-0.003316357731819153,-0.00112152099609375,-0.008093747486038664,0.009406211023738927,-0.022531246607138233
0.007562094368040562,0.14046359062194824,9.749383926391602,0.0004694424569606781,-0.0032387077808380127,-0.010175704956054688,-0.008093747486038664,0.07133206777280664,-0.022531246607138233
0.009680426679551601,0.13717925548553467,9.758162498474121,0.0026078596711158752,-0.005622178316116333,0.003958702087402344,-0.008093747486038664,-0.01707195110874109,-0.022531246607138233
0.011060953140258789,0.135582834482193,9.75891399383545,-0.0020785601809620857,-0.007681027054786682,-0.0007839202880859375,-0.008093747486038664,0.009406211023738927,-0.022531246607138233
0.011861564591526985,0.1439003348350525,9.755091667175293,0.002612869255244732,0.0019461214542388916,-0.005459785461425781,-0.008093747486038664,-0.002276467365810871,-0.022531246607138233
0.022189728915691376,0.13785380125045776,9.759544372558594,0.009806273505091667,-0.0028085261583328247,0.0016260147094726562,-0.04801618984454997,0.009406211023738927,-0.022531246607138233
0.009128006175160408,0.1461712121963501,9.75895881652832,-0.004450893960893154,0.00655171275138855,0.0016660690307617188,-0.008093747486038664,-0.03907776673767758,-0.022531246607138233
0.013455048203468323,0.14230529963970184,9.758126258850098,0.00023651029914617538,0.0016922950744628906,0.006487846374511719,-0.008093747486038664,0.006285174758800112,-0.01941021034219942
0.013455048203468323,0.14230529963970184,9.758126258850098,0.00023651029914617538,0.0016922950744628906,0.006487846374511719,-0.008093747486038664,0.006285174758800112,-0.01941021034219942
0.007992526516318321,0.14372190833091736,9.761297225952148,-0.006820378825068474,-0.005487069487571716,-0.005504608154296875,-0.008093747486038664,-0.060593729737077225,-0.007246844049596752
0.012286467477679253,0.1470935195684433,9.768288612365723,-0.004348871298134327,0.006347626447677612,0.00611114501953125,-0.008093747486038664,-0.024276893548605398,0.011151857965206092
0.006306029390543699,0.14722660183906555,9.761061668395996,-0.004211005754768848,0.015224486589431763,0.0009946823120117188,0.0614182616359447,0.009406211023738927,-0.022043314968305448
0.01326577179133892,0.14414820075035095,9.76854419708252,-0.001492917537689209,0.0032949596643447876,0.012513160705566406,-0.008093747486038664,0.009406211023738927,-0.022531246607138233
0.009058368392288685,0.13535794615745544,9.75980281829834,-0.004078062251210213,-0.006105989217758179,0.0005779266357421875,-0.008093747486038664,-0.02330417856126038,-0.022531246607138233
0.018243253231048584,0.1406186819076538,9.764505386352539,0.00522762443870306,-0.001284971833229065,0.010050773620605469,-0.008093747486038664,0.009406211023738927,-0.022531246607138233
0.018243253231048584,0.1406186819076538,9.764505386352539,0.00522762443870306,-0.001284971833229065,0.010050773620605469,-0.008093747486038664,0.009406211023738927,-0.022531246607138233
0.01718606986105442,0.14575660228729248,9.7604398727417,0.002644140273332596,0.005664199590682983,-0.004336357116699219,-0.008093747486038664,0.009406211023738927,-0.022531246607138233
0.017236093059182167,0.13812141120433807,9.759679794311523,-0.0066963862627744675,0.0029405057430267334,-0.0020284652709960938,-0.008093747486038664,-0.03810602558589782,-0.022531246607138233
0.01242765411734581,0.14313609898090363,9.75489616394043,-0.011280686594545841,0.002998948097229004,-0.013619422912597656,0.03279538008344101,0.009406211023738927,0.047468694153677916
0.011469013057649136,0.14312143623828888,9.756434440612793,-0.0039954474195837975,-0.004169285297393799,-0.0062770843505859375,0.05421780150772321,0.017094602790793202,-0.01484285484008396
0.00805768184363842,0.14557059109210968,9.75391674041748,-0.004051239229738712,0.005006894469261169,-0.006191253662109375,-0.008093747486038664,-0.0344989920130435,-0.022531246607138233
0.005948176141828299,0.1371925324201584,9.753996849060059,-0.006219616159796715,-0.004228964447975159,-0.00611114501953125,-0.008093747486038664,-0.060593729737077225,0.047468694153677916
0.013472947292029858,0.1480475813150406,9.761321067810059,0.005788038484752178,0.004795938730239868,0.0033435821533203125,0.061906193274777484,0.009406211023738927,0.040365110653879537
0.013472947292029858,0.1480475813150406,9.761321067810059,0.005788038484752178,0.004795938730239868,0.0033435821533203125,0.061906193274777484,0.009406211023738927,0.040365110653879537
0.013455048203468323,0.14311611652374268,9.7567138671875,0.0009739389643073082,0.00225222110748291,0.0010290145874023438,0.061906193274777484,0.009406211023738927,-0.022531246607138233
0.01674496755003929,0.1499355286359787,9.7579345703125,0.007824180647730827,0.009025856852531433,0.0011682510375976562,-0.008093747486038664,-0.030898281701256747,0.047468694153677916
0.013455048203468323,0.14577659964561462,9.760120391845703,0.000570937991142273,0.0038581937551498413,-0.0011568069458007812,0.061906193274777484,0.009406211023738927,-0.022531246607138233
0.004541992675513029,0.14368025958538055,9.761587142944336,-0.004085027612745762,-0.0009184479713439941,0.0034322738647460938,-0.008093747486038664,0.009406211023738927,-0.022531246607138233
0.015790848061442375,0.14429129660129547,9.752873420715332,0.003428773023188114,0.0013554543256759644,-0.006000518798828125,-0.008093747486038664,-0.027298678627167467,-0.022531246607138233
0.020746657624840736,0.13340942561626434,9.752589225769043,0.010318893007934093,-0.007551327347755432,-0.0081939697265625,-0.008093747486038664,0.009406211023738927,-0.022531246607138233
-0.0021166715305298567,0.1375238448381424,9.758673667907715,-0.017885077744722366,-0.002673432230949402,-0.0033111572265625,-0.008093747486038664,0.009406211023738927,0.047372164370798595
-0.0021166715305298567,0.1375238448381424,9.758673667907715,-0.01039164885878563,-0.007241398096084595,0.0037631988525390625,-0.008093747486038664,0.009406211023738927,0.047372164370798595
0.018438294529914856,0.13997623324394226,9.75981616973877,0.01322229579091072,-0.000030353665351867676,-0.0011625289916992188,-0.008093747486038664,0.009406211023738927,0.047468694153677916
0.015849150717258453,0.14098872244358063,9.757486343383789,0.003412025049328804,0.00704406201839447,-0.001163482666015625,-0.008093747486038664,0.009406211023738927,0.014369717497715127
0.007596486713737249,0.1393475979566574,9.750304222106934,-0.003727189265191555,0.002351507544517517,-0.008082389831542969,-0.008093747486038664,0.009406211023738927,-0.022531246607138233
0.017360923811793327,0.13839943706989288,9.758557319641113,0.005772864446043968,-0.004522636532783508,0.0016727447509765625,0.039805888915584745,-0.012694093335453816,-0.000430942247945492
0.013455048203468323,0.14451105892658234,9.765932083129883,0.0009612161666154861,0.002603888511657715,0.008756637573242188,-0.008093747486038664,0.009406211023738927,-0.022531246607138233
0.008725298568606377,0.14306437969207764,9.767704963684082,-0.006156564690172672,0.0025078654289245605,0.015585899353027344,0.05080797630693979,-0.0016920059440987641,-0.011433029639300544
0.008725298568606377,0.14306437969207764,9.767704963684082,-0.006156564690172672,0.0025078654289245605,0.015585899353027344,0.05080797630693979,-0.0016920059440987641,-0.011433029639300544
0.014954468235373497,0.14369980990886688,9.75693416595459,-0.0061782896518707275,0.007180437445640564,0.008395195007324219,-0.008093747486038664,0.0020983888595013,0.047468694153677916
0.013455048203468323,0.1467820405960083,9.758731842041016,0.0009344303980469704,0.002415895462036133,0.008388519287109375,-0.008093747486038664,-0.03488831279573423,-0.022531246607138233
0.011489376425743103,0.1383739709854126,9.757570266723633,0.0031300215050578117,0.004572078585624695,-0.008104324340820312,-0.008093747486038664,-0.016487302924043865,0.047468694153677916
0.010392858646810055,0.1397552788257599,9.758233070373535,-0.006241795606911182,0.002407476305961609,0.0013265609741210938,-0.008093747486038664,-0.049687851963484145,0.047468694153677916
0.01785418391227722,0.1399112194776535,9.754314422607422,0.005332600325345993,-0.00196625292301178,-0.0032720565795898438,-0.008093747486038664,-0.03128141262501215,0.006781070504926839
0.02521190233528614,0.14578965306282043,9.749435424804688,0.014509043656289577,0.005041569471359253,-0.007488250732421875,0.03961322955622278,0.009406211023738927,-0.0002382828885835308
0.00999685563147068,0.14390122890472412,9.7606782913208,-0.0021456433460116386,0.004984915256500244,-0.00048351287841796875,-0.008093747486038664,0.005520193571758684,0.047468694153677916
0.013163233175873756,0.1368163526058197,9.751296997070312,0.004983618855476379,-0.006642147898674011,-0.009636878967285156,-0.008093747486038664,-0.005103565372601129,0.047468694153677916
0.013163233175873756,0.1368163526058197,9.751296997070312,0.004983618855476379,-0.006642147898674011,-0.009636878967285156,-0.008093747486038664,-0.005103565372601129,0.047468694153677916
0.005552537273615599,0.13712142407894135,9.762112617492676,-0.0020477380603551865,-0.013494446873664856,0.011710166931152344,-0.008093747486038664,0.009406211023738927,-0.022531246607138233
0.0038393517024815083,0.13749746978282928,9.762274742126465,-0.0040387120097875595,-0.0014151930809020996,0.004343986511230469,-0.008093747486038664,0.009406211023738927,-0.022531246607138233
0.01948249526321888,0.13867196440696716,9.755585670471191,0.008001519367098808,-0.003399491310119629,-0.005206108093261719,-0.05997618458657287,-0.00871129263654302,-0.022531246607138233
0.022876214236021042,0.14230529963970184,9.771696090698242,0.00994090922176838,0.0012268424034118652,0.013378143310546875,0.025393589457262816,-0.02710639279377574,0.013981357210376433
0.015518300235271454,0.13716673851013184,9.754742622375488,0.005048345774412155,-0.005797848105430603,-0.005652427673339844,-0.008093747486038664,-0.005674606539811219,-0.022531246607138233
0.013858319260179996,0.13597987592220306,9.753782272338867,0.009779170155525208,-0.0007349848747253418,-0.0030155181884765625,-0.008093747486038664,0.00609220857453403,0.04415469170447302
0.013858319260179996,0.13597987592220306,9.753782272338867,0.009779170155525208,-0.0007349848747253418,-0.0030155181884765625,-0.008093747486038664,0.00609220857453403,0.04415469170447302
0.013104919344186783,0.13068494200706482,9.757136344909668,-0.004305340349674225,-0.005500331521034241,-0.005046844482421875,-0.008093747486038664,0.009406211023738927,-0.022531246607138233
0.013455048203468323,0.14389504492282867,9.759861946105957,0.0004868898540735245,0.0019383281469345093,-0.0025720596313476562,0.03202506281111051,0.009406211023738927,0.017587563690010938
0.011547787114977837,0.14372575283050537,9.759867668151855,-0.004166050814092159,0.008775725960731506,0.0066852569580078125,-0.008093747486038664,0.009406211023738927,-0.015608209553095623
0.015518027357757092,0.14131192862987518,9.757155418395996,0.0028814980760216713,0.001725316047668457,-0.00034046173095703125,-0.008093747486038664,0.009406211023738927,-0.022531246607138233
0.011359326541423798,0.13721874356269836,9.752997398376465,-0.0018379706889390945,-0.0029162168502807617,-0.004909515380859375,0.018181883529294608,0.009406211023738927,0.021193063138344643
0.01013338565826416,0.14377184212207794,9.757486343383789,-0.001642146147787571,0.004014194011688232,-0.00011348724365234375,0.05402552901454471,0.009406211023738927,-0.022531246607138233
0.01013338565826416,0.14377184212207794,9.757486343383789,-0.001642146147787571,0.004014194011688232,-0.00011348724365234375,0.05402552901454471,0.009406211023738927,-0.022531246607138233
0.01836046390235424,0.14218808710575104,9.758089065551758,0.009986985474824905,-0.0031632333993911743,-0.0072193145751953125,-0.008093747486038664,0.009406211023738927,-0.022531246607138233
0.00430016964673996,0.14061926305294037,9.764533042907715,-0.006499563343822956,-0.007943138480186462,-0.004624366760253906,-0.008093747486038664,0.009406211023738927,-0.022531246607138233
0.02110360749065876,0.12840700149536133,9.761808395385742,0.014790310524404049,-0.005524784326553345,-0.002429962158203125,-0.008093747486038664,-0.01326999034027696,-0.022531246607138233
0.011522792279720306,0.1320149302482605,9.75412654876709,-0.004288568161427975,-0.007201060652732849,-0.004947662353515625,-0.008093747486038664,0.009406211023738927,0.033345583837597274
0.009004787541925907,0.14461492002010345,9.759881019592285,-0.004172119311988354,0.004921481013298035,0.0021772384643554688,-0.008093747486038664,0.04687644204744376,0.00999846312997308
0.012694972567260265,0.14785359799861908,9.767278671264648,-0.001844095066189766,0.009285807609558105,0.011369705200195312,0.010981670195017737,0.009406211023738927,-0.022531246607138233
0.01214340329170227,0.14103950560092926,9.770769119262695,-0.006672951392829418,-0.002817511558532715,0.01786041259765625,-0.007424922555906322,0.008737386093606584,-0.022531246607138233
0.01214340329170227,0.14103950560092926,9.770769119262695,-0.006672951392829418,-0.002817511558532715,0.01786041259765625,-0.007424922555906322,0.008737386093606584,-0.022531246607138233
0.0017164666205644608,0.1491784155368805,9.75501537322998,0.0030153971165418625,-0.01000860333442688,-0.008334159851074219,0.009633788391211257,-0.008321331523617605,-0.022531246607138233
0.011728948913514614,0.13684912025928497,9.757486343383789,0.0011571850627660751,-0.0052967369556427,-0.0010242462158203125,-0.008093747486038664,0.07940615178455508,0.011338847733948413
0.010860532522201538,0.13771754503250122,9.76207447052002,-0.003575972281396389,-0.00039061903953552246,0.0013599395751953125,-0.008093747486038664,0.006477473932405061,0.04453995706234405
0.010536368936300278,0.13699254393577576,9.758011817932129,-0.0034804902970790863,-0.004869669675827026,0.001155853271484375,-0.008093747486038664,0.009406211023738927,0.026133611105364607
0.013778608292341232,0.1469317376613617,9.75253677368164,0.0011356938630342484,0.006801888346672058,-0.005631446838378906,-0.008093747486038664,0.009406211023738927,0.01719853639201111
0.017451977357268333,0.14467912912368774,9.755904197692871,0.0055863941088318825,0.0017346888780593872,-0.0006685256958007812,-0.008093747486038664,-0.048730158056227865,-0.022531246607138233
0.017451977357268333,0.14467912912368774,9.755904197692871,0.0055863941088318825,0.0017346888780593872,-0.0006685256958007812,-0.008093747486038664,-0.048730158056227865,-0.022531246607138233
0.014428652822971344,0.14043791592121124,9.758907318115234,0.0031125498935580254,0.004010632634162903,-0.00069427490234375,-0.008093747486038664,0.009406211023738927,-0.022531246607138233
0.0242850873619318,0.14105167984962463,9.76860237121582,0.003037181682884693,0.00831674039363861,0.0041961669921875,0.061906193274777484,0.009406211023738927,-0.022531246607138233
0.014369452372193336,0.13956210017204285,9.760096549987793,0.0025329673662781715,-0.005820423364639282,-0.0055370330810546875,0.03524268221978154,-0.01725730003125702,-0.022531246607138233
0.009673848748207092,0.1525752693414688,9.755785942077637,-0.006821049377322197,0.012842416763305664,-0.0009002685546875,0.002046522110491516,0.009406211023738927,-0.022531246607138233
0.008445754647254944,0.1377382129430771,9.745111465454102,-0.004351077601313591,-0.003999456763267517,-0.014687538146972656,-0.008093747486038664,0.009406211023738927,0.047468694153677916
0.014215498231351376,0.14785397052764893,9.762682914733887,0.002855542115867138,0.007818430662155151,0.0041561126708984375,-0.008093747486038664,-0.03753567810977531,0.024410642526376
0.013854864984750748,0.1389545351266861,9.756529808044434,-0.004382501356303692,-0.009032472968101501,-0.007770538330078125,0.061906193274777484,0.009406211023738927,-0.022531246607138233
0.013854864984750748,0.1389545351266861,9.756529808044434,-0.004382501356303692,-0.009032472968101501,-0.007770538330078125,0.061906193274777484,0.009406211023738927,-0.022531246607138233
0.005332802888005972,0.1406382918357849,9.763941764831543,-0.0039858026430010796,0.0006043314933776855,0.0039052963256835938,0.005648306309442703,0.009406211023738927,0.03372664702830316
0.016648629680275917,0.13698124885559082,9.760412216186523,-0.0016033155843615532,0.009842246770858765,0.0038213729858398438,-0.008093747486038664,0.009406211023738927,0.009609635935171593
0.016065828502178192,0.13875028491020203,9.755020141601562,-0.00400811992585659,-0.004119873046875,-0.0009794235229492188,-0.008093747486038664,0.009406211023738927,-0.003071984300919016
0.01103927381336689,0.14409546554088593,9.763461112976074,0.00039802398532629013,0.0029380321502685547,0.006188392639160156,0.04456553025109193,-0.043253066713391665,-0.022531246607138233
0.013352843932807446,0.1351996809244156,9.757512092590332,0.0006621405482292175,-0.006551206111907959,-0.0010023117065429688,0.027653328195692446,0.009406211023738927,0.047468694153677916
0.005412815138697624,0.14296001195907593,9.751838684082031,-0.011046280153095722,0.0005571097135543823,-0.010386466979980469,-0.008093747486038664,0.009406211023738927,-0.022531246607138233
0.005412815138697624,0.14296001195907593,9.751838684082031,-0.011046280153095722,0.0005571097135543823,-0.010386466979980469,-0.008093747486038664,0.009406211023738927,-0.022531246607138233
0.019527416676282883,0.1399112194776535,9.757486343383789,0.005252549424767494,-0.0017109215259552002,-0.0007658004760742188,-0.008093747486038664,0.009406211023738927,0.0449205266651607
0.015551792457699776,0.13302627205848694,9.748802185058594,-0.0020537665113806725,-0.003984048962593079,0.0041255950927734375,-0.008093747486038664,-0.01153889757143574,-0.022531246607138233
0.019799336791038513,0.13033480942249298,9.74778938293457,0.009486721828579903,-0.010705217719078064,-0.0003662109375,-0.008093747486038664,0.009406211023738927,0.01681552553017471
0.017822762951254845,0.1508949100971222,9.75001335144043,0.002144021913409233,0.010854899883270264,0.0023698806762695312,-0.008093747486038664,0.009406211023738927,-0.022531246607138233
0.017885910347104073,0.13858912885189056,9.751733779907227,0.004255354404449463,-0.003615438938140869,-0.006424903869628906,-0.008093747486038664,0.009406211023738927,-0.022531246607138233
0.009482300840318203,0.1383325606584549,9.755636215209961,-0.0051946332678198814,-0.0035859495401382446,-0.0016765594482421875,-0.008093747486038664,0.009406211023738927,0.0045215985707616636
0.012863568030297756,0.14230529963970184,9.749712944030762,-0.0027474937960505486,0.0011617690324783325,-0.008502006530761719,-0.008093747486038664,0.009406211023738927,0.038822635159793804
0.012863568030297756,0.14230529963970184,9.749712944030762,-0.0027474937960505486,0.0011617690324783325,-0.008502006530761719,-0.008093747486038664,0.009406211023738927,0.038822635159793804
0.014985582791268826,0.14516979455947876,9.762941360473633,-0.00047789979726076126,-0.003836795687675476,0.0031518936157226562,-0.008093747486038664,-0.050844408429250934,-0.022531246607138233
0.015849150717258453,0.14193333685398102,9.760275840759277,0.0014915568754076958,-0.012976288795471191,0.005306243896484375,0.02005913167420352,-0.03244085057683504,0.047468694153677916
0.02372192218899727,0.14162611961364746,9.765348434448242,0.0036598453298211098,-0.003382354974746704,0.012063980102539062,-0.008093747486038664,-0.060593729737077225,-0.022531246607138233
0.013628450222313404,0.1358632594347,9.75047779083252,0.0009020660072565079,-0.005693182349205017,-0.004695892333984375,-0.008093747486038664,0.009406211023738927,-0.009173784488760153
0.011505171656608582,0.14447730779647827,9.75063705444336,-0.0035781050100922585,0.0039977580308914185,-0.0065746307373046875,-0.039846336442075914,0.009406211023738927,-0.022531246607138233
0.020637348294258118,0.14366252720355988,9.772492408752441,0.0057001784443855286,0.0039332956075668335,0.019195556640625,-0.008093747486038664,0.009406211023738927,-0.022531246607138233
0.015849150717258453,0.14250294864177704,9.757288932800293,0.0008909022435545921,0.006264790892601013,-0.004744529724121094,-0.008093747486038664,0.009406211023738927,-0.02108492736996159
0.015849150717258453,0.14250294864177704,9.757288932800293,0.0008909022435545921,0.006264790892601013,-0.004744529724121094,-0.008093747486038664,0.009406211023738927,-0.02108492736996159
0.01338150817900896,0.14469940960407257,9.757473945617676,-0.015420608222484589,0.003705069422721863,-0.002285003662109375,0.04494691360691516,0.009406211023738927,-0.00557196693927591
0.016490720212459564,0.14166373014450073,9.749835014343262,0.003687526099383831,-0.001127868890762329,-0.002223968505859375,-0.008093747486038664,0.009406211023738927,-0.022531246607138233
0.020637348294258118,0.1402069330215454,9.756659507751465,0.0059082526713609695,0.0035496950149536133,0.005074501037597656,-0.008093747486038664,0.009406211023738927,-0.022531246607138233
0.017255418002605438,0.1356169432401657,9.756498336791992,0.00317938718944788,-0.005671292543411255,0.00046443939208984375,-0.008093747486038664,-0.011151631181581306,-0.022531246607138233
0.0021624555811285973,0.13525861501693726,9.748181343078613,-0.013129791244864464,-0.00539986789226532,-0.008741378784179688,-0.008093747486038664,0.009406211023738927,0.008504425950098904
0.011060953140258789,0.13675236701965332,9.753663063049316,-0.0033298544585704803,-0.002751067280769348,0.0011119842529296875,-0.008093747486038664,0.009406211023738927,-0.00989024732031069
0.01284945197403431,0.14191101491451263,9.75509262084961,-0.005575420334935188,0.004343196749687195,-0.0012121200561523438,-0.008093747486038664,0.009406211023738927,0.047468694153677916
0.01284945197403431,0.14191101491451263,9.75509262084961,-0.005575420334935188,0.004343196749687195,-0.0012121200561523438,-0.008093747486038664,0.009406211023738927,0.047468694153677916
0.005172194913029671,0.1399112194776535,9.765510559082031,0.0016936110332608223,-0.0002657473087310791,-0.0032787322998046875,-0.008093747486038664,0.009406211023738927,0.02330612623239089
0.011601257137954235,0.13867536187171936,9.756869316101074,0.006497041322290897,0.0043213218450546265,0.0034971237182617188,0.019342482079667867,-0.03315750017137069,0.047468694153677916
0.01146526075899601,0.1470935195684433,9.76530933380127,0.001904320903122425,0.006584867835044861,0.010418891906738281,0.052543097820174266,0.009406211023738927,-0.022531246607138233
0.012713134288787842,0.143710196018219,9.767973899841309,-0.00017701461911201477,0.003922075033187866,0.01230621337890625,-0.008093747486038664,0.009406211023738927,0.047468694153677916
0.006272748112678528,0.13512302935123444,9.751068115234375,-0.006927234120666981,-0.005430340766906738,-0.00659942626953125,0.01574193185043978,0.009406211023738927,0.023633014817199472
0.0125466613098979,0.13576292991638184,9.758126258850098,0.007577640935778618,-0.007564514875411987,-0.0019054412841796875,-0.008093747486038664,0.009406211023738927,-0.022531246607138233
0.0125466613098979,0.13576292991638184,9.758126258850098,0.007577640935778618,-0.007564514875411987,-0.0019054412841796875,-0.008093747486038664,0.009406211023738927,-0.022531246607138233
0.008533338084816933,0.1386711746454239,9.755226135253906,0.0004900330677628517,-0.014542102813720703,-0.006519317626953125,-0.008093747486038664,-0.04762693576292536,-0.022531246607138233
0.022021066397428513,0.13903267681598663,9.76038646697998,0.005341234616935253,0.004254192113876343,0.005152702331542969,0.02327605739178697,0.009406211023738927,-0.022531246607138233
0.0143391452729702,0.14343976974487305,9.737207412719727,0.007383937947452068,0.004132404923439026,0.0026092529296875,0.012134591452681346,0.029634536622245713,0.047468694153677916
0.010307306423783302,0.1515016257762909,9.764548301696777,-0.011287608183920383,0.017961516976356506,-0.012664794921875,-0.008093747486038664,0.009406211023738927,-0.022531246607138233
0.013450941070914268,0.13273200392723083,9.716813087463379,0.00009408220648765564,-0.007932990789413452,-0.039771080017089844,0.026876007311420036,0.009406211023738927,-0.022531246607138233
0.018003670498728752,0.12931744754314423,9.796689987182617,0.009688418358564377,-0.014541789889335632,0.044518470764160156,-0.06147001499314209,0.009406211023738927,-0.022531246607138233
0.009803274646401405,0.1448206603527069,9.756274223327637,-0.002174714580178261,0.001991555094718933,0.023006439208984375,-0.008093747486038664,0.009406211023738927,-0.022531246607138233
0.009803274646401405,0.1448206603527069,9.756274223327637,-0.002174714580178261,0.001991555094718933,0.023006439208984375,-0.008093747486038664,0.009406211023738927,-0.022531246607138233
0.004490130580961704,0.1418161243200302,9.753432273864746,0.002240587957203388,-0.007337838411331177,0.008620262145996094,-0.008093747486038664,-0.010769981021493623,-0.0023550545619056857
0.008527539670467377,0.1444208025932312,9.754201889038086,0.0001439899206161499,0.013779208064079285,-0.000774383544921875,-0.008093747486038664,0.009406211023738927,0.016044581267822745
0.014190892688930035,0.130979984998703,9.759235382080078,0.005015752278268337,-0.012166053056716919,0.0040531158447265625,-0.008093747486038664,0.009406211023738927,-0.022531246607138233
0.00503032561391592,0.15330564975738525,9.761981010437012,-0.009045216254889965,0.018482565879821777,0.006354331970214844,0.015681260560703025,-0.014368797023002762,0.023693686106936226
0.013209440745413303,0.14893442392349243,9.758652687072754,0.0005940599367022514,0.011590749025344849,0.0018024444580078125,-0.05027520487641227,0.009406211023738927,0.047468694153677916
0.02211044542491436,0.1296902745962143,9.75592041015625,0.01946824975311756,-0.01177746057510376,0.006875038146972656,-0.008093747486038664,0.009406211023738927,0.047468694153677916
0.02211044542491436,0.1296902745962143,9.75592041015625,0.01946824975311756,-0.01177746057510376,0.006875038146972656,-0.008093747486038664,0.009406211023738927,0.047468694153677916
0.030128231272101402,0.14383172988891602,9.778143882751465,-0.024159209802746773,0.054456934332847595,0.017747879028320312,0.052923800825123136,0.009406211023738927,-0.013548854157483888
-0.0075307004153728485,0.13954249024391174,9.828507423400879,0.02157275378704071,-0.0021620988845825195,-0.2449512481689453,0.007146098759339063,-0.10321362324017416,0.004848793980474365
0.015660671517252922,0.14329646527767181,9.718832015991211,0.028760388493537903,-0.011504501104354858,0.07946109771728516,-0.053874384398731726,0.055186834596218766,0.0016880572409848505
0.030213743448257446,0.13905060291290283,9.815006256103516,0.01658484898507595,-0.0022496283054351807,0.09696102142333984,-0.008093747486038664,-0.060593729737077225,0.03488841951744001
-0.01704244874417782,0.14948762953281403,9.80617618560791,-0.033174335956573486,0.009515836834907532,0.050850868225097656,-0.039080394759682446,0.009406211023738927,0.00845540066650555
0.017390169203281403,0.13617214560508728,9.750239372253418,-0.00016248971223831177,-0.007273390889167786,-0.0059223175048828125,-0.008093747486038664,0.009406211023738927,-0.022531246607138233
0.012485056184232235,0.14918486773967743,9.747455596923828,0.0023306552320718765,0.004206731915473938,-0.017301559448242188,-0.008093747486038664,0.009406211023738927,0.047468694153677916
0.012485056184232235,0.14918486773967743,9.747455596923828,0.0023306552320718765,0.004206731915473938,-0.017301559448242188,-0.008093747486038664,0.009406211023738927,0.047468694153677916
0.015025786124169827,0.14552277326583862,9.770307540893555,-0.007252798415720463,0.013268515467643738,-0.02449798583984375,0.045721926634300046,0.009406211023738927,-0.006346979966660794
0.011060953140258789,0.14223851263523102,9.734910011291504,-0.0026239557191729546,-0.005277886986732483,-0.00543975830078125,-0.008093747486038664,-0.025180532911883376,-0.022531246607138233
0.01488928496837616,0.1411556899547577,9.763223648071289,0.006967170163989067,0.0018689334392547607,0.028089523315429688,-0.00947926870145294,0.010791725569046591,0.04608317960837025
0.02147095650434494,0.13939104974269867,9.75685977935791,0.009265285916626453,-0.000470966100692749,-0.004742622375488281,-0.008093747486038664,0.009406211023738927,-0.0027393994450643526
0.015849150717258453,0.13066180050373077,9.753570556640625,0.0019993651658296585,-0.00966566801071167,-0.005000114440917969,-0.008093747486038664,0.009406211023738927,-0.022531246607138233
0.01235935278236866,0.13935130834579468,9.763191223144531,-0.005299902521073818,0.0022431015968322754,0.0067195892333984375,0.061906193274777484,-0.04718724233510579,-0.022531246607138233
