Accelerometer_Gx,Accelerometer_Gy,Accelerometer_Gz,Accelerometer_X,Accelerometer_Y,Accelerometer_Z,Gyroscope_Z,Gyroscope_X,Gyroscope_Y
0.009419032372534275,0.1465003490447998,9.748662948608398,0.01936499774456024,-0.003269404172897339,0.0014095306396484375,1.3721181964677425,2.7220636778989196,0.04444594857976381
0.009019063785672188,0.14162467420101166,9.751337051391602,0.020287390798330307,-0.006699889898300171,0.007079124450683594,1.065322000484931,0.14703629704785448,0.11878113847283399
0.010876575484871864,0.14359435439109802,9.751225471496582,0.017293330281972885,-0.005000323057174683,0.0067539215087890625,0.66089438681487,-1.0678854558578015,0.18878107923365015
0.010876575484871864,0.14359435439109802,9.751225471496582,0.017293330281972885,-0.005000323057174683,0.0067539215087890625,0.66089438681487,-1.0678854558578015,0.18878107923365015
0.00016766018234193325,0.14733321964740753,9.747072219848633,0.002221318893134594,-0.002133890986442566,0.004291534423828125,0.692133377561834,-0.3786112061547055,0.11878113847283399
0.006475280039012432,0.13980995118618011,9.741031646728516,0.02105007693171501,-0.016337066888809204,0.0024385452270507812,0.9834462817481668,1.4473714064739447,0.11878113847283399
0.0047267768532037735,0.13829010725021362,9.747061729431152,0.03413604199886322,-0.019300460815429688,-0.004180908203125,1.1490064386912795,4.1910057822671165,0.016742060975957408
0.0034611914306879044,0.14253365993499756,9.749430656433105,0.024716489017009735,-0.010347425937652588,0.0048503875732421875,-1.171022272820346,0.431191283045933,-0.3012184927518497
0.017584679648280144,0.13594624400138855,9.74394416809082,0.029798343777656555,-0.012820333242416382,-0.0023813247680664062,-0.40859189462965334,-3.4319805201819396,0.10785184862503511
-0.004277080297470093,0.1415461152791977,9.756941795349121,0.005595237948000431,-0.013325005769729614,0.011212348937988281,1.8051233749859898,0.13871696655622026,0.39251635072694074
-0.004277080297470093,0.1415461152791977,9.756941795349121,0.005595237948000431,-0.013325005769729614,0.011212348937988281,1.8051233749859898,0.13871696655622026,0.39251635072694074
0.006042187102138996,0.143559992313385,9.744376182556152,0.024614844471216202,-0.004483282566070557,-0.003093719482421875,-0.6542074715348688,2.4630825413658997,-0.28942216908585583
0.00415895227342844,0.14413882791996002,9.753971099853516,0.016565093770623207,-0.009177491068840027,-0.0010271072387695312,-1.743411548617867,-2.294628945535641,-0.10829226242436871
0.003878660500049591,0.1431325078010559,9.754678726196289,0.014615297317504883,-0.013451531529426575,0.010352134704589844,2.7851227590808274,1.7920220049408477,0.3079528458300707
0.0069665564224123955,0.14268645644187927,9.750998497009277,0.017940204590559006,-0.006275177001953125,0.002841949462890625,-0.7510052326174068,1.6212195710880446,0.08935337515553984
0.011044665239751339,0.14235416054725647,9.745565414428711,0.017499279230833054,-0.0070762187242507935,-0.0019941329956054688,0.9929835737070318,-1.2527031177223535,0.011401039807992553
0.00054331892170012,0.143758162856102,9.7553071975708,0.006347005721181631,-0.001776084303855896,0.009547233581542969,-0.49289094313959697,1.9980779265861426,0.02245892931125808
0.00054331892170012,0.143758162856102,9.7553071975708,0.006347005721181631,-0.001776084303855896,0.009547233581542969,-0.49289094313959697,1.9980779265861426,0.02245892931125808
0.009624328464269638,0.13799545168876648,9.758442878723145,0.01931707374751568,-0.008398950099945068,0.0185699462890625,0.9158175905681087,-0.33678899737136536,0.2587351963620464
0.007661869283765554,0.14856155216693878,9.7450532913208,0.020952709019184113,-0.001366153359413147,-0.005330085754394531,-0.07314513615190124,-0.9862591457474486,-0.07905195578327967
0.007540936581790447,0.14699865877628326,9.756218910217285,0.010553618893027306,0.0030351877212524414,0.011231422424316406,-0.09148995704549767,1.3357258813528567,0.07024274598168218
0.01294084545224905,0.14264260232448578,9.753549575805664,0.018941476941108704,-0.0026213228702545166,0.0061359405517578125,0.0030597113047541495,0.4437427161411835,0.08839872281689833
0.013311335816979408,0.14637495577335358,9.750160217285156,0.018251866102218628,-0.000188484787940979,0.0013427734375,0.04379322528699125,-0.0752873209314126,0.02350936438083844
0.012681401334702969,0.14307895302772522,9.753398895263672,0.017747636884450912,-0.004317790269851685,0.0010051727294921875,-0.652543680141736,-1.0875858558582339,-0.2021892341622744
0.012681401334702969,0.14307895302772522,9.753398895263672,0.017747636884450912,-0.004317790269851685,0.0010051727294921875,-0.652543680141736,-1.0875858558582339,-0.2021892341622744
0.0052816299721598625,0.14032305777072906,9.749313354492188,0.0064191315323114395,-0.010171368718147278,-0.0013551712036132812,-0.7284598453842526,-1.360628857788429,-0.06112001448892521
0.0014845579862594604,0.14443162083625793,9.750036239624023,0.0030923783779144287,-0.0035231411457061768,-0.00156402587890625,0.04891087792475553,0.6184764574698578,-0.01793879816395091
0.0020843050442636013,0.14529915153980255,9.750304222106934,0.0011189384385943413,-0.004446953535079956,0.0008001327514648438,0.008145947740379016,-0.15855138233868774,0.005951389283755408
0.013906210660934448,0.14296460151672363,9.754225730895996,0.02011764980852604,-0.0014429837465286255,0.005402565002441406,0.342701219789099,0.20670434938940985,0.08986353158960161
0.00795250479131937,0.1468553990125656,9.756057739257812,0.009285389445722103,0.0012537240982055664,0.007494926452636719,-0.07076276083331551,-0.21776824198862557,0.0068186232051486865
0.00348718767054379,0.13668891787528992,9.757140159606934,0.0055414848029613495,-0.010783091187477112,0.009805679321289062,0.102231883598584,0.3798969359051075,0.0023347240769543195
0.011060953140258789,0.1399112194776535,9.761921882629395,0.011186609044671059,-0.005280390381813049,0.009133338928222656,0.08903621158617059,-0.5721004868616761,0.0384701467058109
0.011060953140258789,0.1399112194776535,9.761921882629395,0.011186609044671059,-0.005280390381813049,0.009133338928222656,0.08903621158617059,-0.5721004868616761,0.0384701467058109
0.007016570772975683,0.13842357695102692,9.754510879516602,0.008723361417651176,-0.009821981191635132,-0.00293731689453125,-0.08113827174981444,0.07634367905566383,0.022275888245629673
0.012940063141286373,0.14606353640556335,9.751334190368652,0.01011456735432148,-0.0027168691158294678,0.004143714904785156,0.2785080604007044,0.031306265442246003,0.048781197712017846
0.013244783505797386,0.14855340123176575,9.757170677185059,0.016402313485741615,-0.0026415586471557617,0.013355255126953125,-0.1552723045676998,-0.12348581812986373,-0.021218743048798304
0.006272748112678528,0.13583044707775116,9.756866455078125,0.0045973979867994785,-0.012299984693527222,0.006030082702636719,0.018849694603222025,0.3277199468966165,-0.004356406710425203
0.003887952771037817,0.15423865616321564,9.750322341918945,0.0024831374175846577,0.008934438228607178,-0.0012178421020507812,0.019853292184177553,0.14471339239981545,0.048781197712017846
0.00754985585808754,0.14054976403713226,9.747432708740234,0.004072554409503937,-0.0049378275871276855,-0.0058746337890625,-0.15955231187699873,-0.24567224613098543,-0.021218743048798304
0.00754985585808754,0.14054976403713226,9.747432708740234,0.004072554409503937,-0.0049378275871276855,-0.0058746337890625,-0.012796152636713937,-0.1953407822403598,-0.021218743048798304
0.009508656337857246,0.1432892233133316,9.75241470336914,0.013141810894012451,0.0022509098052978516,0.006020545959472656,-0.012796152636713937,-0.1953407822403598,-0.021218743048798304
0.013322240673005581,0.1352558434009552,9.750835418701172,0.008039790205657482,-0.00737355649471283,0.0084075927734375,0.05512496268729197,0.09682192020868433,0.048781197712017846
0.011930501088500023,0.14230529963970184,9.759881019592285,0.005115174688398838,-0.0024223774671554565,0.008207321166992188,0.016242056444158093,-0.03253916794828619,0.017664163194335575
0.009445114992558956,0.1399112194776535,9.751919746398926,0.009492827579379082,-0.0045676082372665405,-0.0038814544677734375,-0.07349990578234522,0.07065615918945306,-0.021218743048798304
0.006272748112678528,0.14320774376392365,9.749185562133789,0.0021581551991403103,0.0003844350576400757,-0.0016002655029296875,-0.014874978073524175,-0.01775299567418541,0.048781197712017846
0.01696159690618515,0.14153631031513214,9.74953556060791,0.01369408331811428,-0.0018751174211502075,-0.001316070556640625,0.07011370609917918,0.021332481706734883,0.02127559903755337
0.013191385194659233,0.13964754343032837,9.750926971435547,0.010784623213112354,-0.0016399472951889038,0.0011501312255859375,0.04602883157970104,-0.002752392812743244,-0.021218743048798304
0.013191385194659233,0.13964754343032837,9.750926971435547,0.010784623213112354,-0.0016399472951889038,0.0011501312255859375,0.04602883157970104,-0.002752392812743244,-0.021218743048798304
0.008030467666685581,0.14079007506370544,9.749425888061523,0.006038740277290344,-0.0015499889850616455,-0.0035028457641601562,-0.014874978073524175,-0.002958445746180777,0.03947901367098938
0.015089044347405434,0.13751710951328278,9.763148307800293,0.006175181362777948,-0.0059200674295425415,0.00347900390625,0.0974160666251961,0.14634361981647998,-0.021218743048798304
0.009301044046878815,0.1412958800792694,9.761265754699707,0.008060591295361519,-0.0033357739448547363,0.007686614990234375,-0.08487491883434033,-0.13365614322678462,-0.021218743048798304
0.014338875189423561,0.14558324217796326,9.745258331298828,0.010042531415820122,0.003814801573753357,-0.011422157287597656,-0.05903153740784837,-0.1390476437615841,-0.008297052335552325
0.0016104258829727769,0.14419594407081604,9.757863998413086,-0.003992877434939146,0.0012349933385849,0.005110740661621094,0.05512496268729197,0.12238518383792643,0.048781197712017846
0.007659390568733215,0.14268448948860168,9.757107734680176,0.002840661909431219,0.001469433307647705,0.0023088455200195312,-0.044332956973767705,-0.14284313452663522,-0.021218743048798304
0.009287741966545582,0.14469940960407257,9.752570152282715,0.014630953781306744,0.0013411492109298706,0.0022459030151367188,-0.044332956973767705,-0.14284313452663522,-0.021218743048798304
0.009287741966545582,0.14469940960407257,9.752570152282715,-0.0071578421629965305,0.0014386475086212158,-0.0024738311767578125,0.05137813702007719,0.13510312947462239,0.04690777820830384
0.007535872049629688,0.1372528225183487,9.75269889831543,0.004910617135465145,-0.01969340443611145,-0.000072479248046875,0.07552120154963264,0.10060157614064014,0.03224663041252602
0.003993529360741377,0.13700474798679352,9.74853801727295,0.0045993030071258545,-0.0005937516689300537,-0.0022668838500976562,-0.014874978073524175,-0.06365620246596847,0.013844700066123287
0.009804205037653446,0.14493821561336517,9.753357887268066,0.002306841779500246,0.006659090518951416,-0.009062767028808594,0.05163121420512467,0.20586234181122065,-0.019471868807714652
0.0075045619159936905,0.13853321969509125,9.759881019592285,0.004365519620478153,-0.005041688680648804,0.007144927978515625,0.014835757846649493,0.07533137031547389,-0.021218743048798304
0.007937606424093246,0.14912301301956177,9.764425277709961,0.0022797915153205395,0.006786748766899109,0.011406898498535156,-0.021982590317715805,-0.014979098437727201,0.010227421209513957
0.002235368825495243,0.14230529963970184,9.756267547607422,-0.004893851932138205,-0.00032739341259002686,0.009036064147949219,-0.014874978073524175,-0.10755907096543693,-0.021218743048798304
0.002235368825495243,0.14230529963970184,9.756267547607422,-0.004893851932138205,-0.00032739341259002686,0.009036064147949219,-0.014874978073524175,-0.10755907096543693,-0.021218743048798304
0.004892407450824976,0.13751710951328278,9.75086498260498,-0.0001301812008023262,-0.004785656929016113,0.011448860168457031,0.049764318065676556,0.07098304777426163,0.04342055309040243
0.001974667888134718,0.14353057742118835,9.756505966186523,-0.000001939479261636734,0.01160024106502533,-0.0053386688232421875,0.05384310159872454,0.09754055749499016,0.02502059709555665
0.008666850626468658,0.1440543532371521,9.754862785339355,0.0025870627723634243,0.0042406171560287476,-0.0029764175415039062,-0.014874978073524175,-0.0779854057361263,-0.021218743048798304
0.013455048203468323,0.14202867448329926,9.750858306884766,0.007016422692686319,0.0018565356731414795,-0.007660865783691406,-0.014874978073524175,0.049435081603340786,-0.021218743048798304
0.01053960807621479,0.13298958539962769,9.743903160095215,0.004317549988627434,-0.009750664234161377,-0.009957313537597656,0.01250360843084715,-0.024141783869086084,0.006159843455573023
0.00019621849060058594,0.1432250589132309,9.754355430603027,-0.007626127451658249,0.0022923797369003296,0.0020341873168945312,0.009348688024322727,-0.08520882437130403,0.048781197712017846
0.003878660500049591,0.13911564648151398,9.748705863952637,-0.002667897380888462,-0.007316082715988159,-0.000080108642578125,0.05512496268729197,0.06471552211755513,0.048781197712017846
0.005411886610090733,0.13656198978424072,9.760835647583008,0.002046233508735895,0.0023951083421707153,-0.00039768218994140625,-0.002290781414598808,-0.06365620246596847,-0.008634546389872936
0.005411886610090733,0.13656198978424072,9.760835647583008,0.002046233508735895,0.0023951083421707153,-0.00039768218994140625,-0.002290781414598808,-0.06365620246596847,-0.008634546389872936
0.0010596471838653088,0.14040350914001465,9.75607681274414,0.002082702238112688,-0.0001898258924484253,0.006413459777832031,0.05512496268729197,0.0063437382948476825,0.017790895219951045
0.003727871924638748,0.14372853934764862,9.757034301757812,-0.00019069761037826538,-0.002395838499069214,0.010846138000488281,-0.014874978073524175,0.0063437382948476825,-0.021218743048798304
0.0021274529863148928,0.13862542808055878,9.74919605255127,-0.004794996231794357,-0.002411946654319763,-0.00565338134765625,-0.014874978073524175,-0.009859671551604304,0.03257778786556586
0.01102005410939455,0.1423189342021942,9.755064964294434,0.004731061402708292,0.00011567771434783936,0.0015106201171875,0.019726173292378624,0.0063437382948476825,0.048781197712017846
0.009213057346642017,0.14825569093227386,9.748526573181152,0.004685059189796448,0.007074117660522461,-0.005425453186035156,-0.014874978073524175,0.0063437382948476825,-0.004229194437133716
0.008474001660943031,0.14575181901454926,9.75509262084961,0.006969213951379061,0.006927117705345154,0.0016603469848632812,-0.014874978073524175,0.0063437382948476825,0.048781197712017846
0.008474001660943031,0.14575181901454926,9.75509262084961,0.006969213951379061,0.006927117705345154,0.0016603469848632812,-0.014874978073524175,0.0063437382948476825,0.048781197712017846
0.015298784710466862,0.13980114459991455,9.75487232208252,-0.0022511756978929043,-0.004914477467536926,-0.003086090087890625,-0.014874978073524175,0.0063437382948476825,-0.021218743048798304
0.007575999014079571,0.14469940960407257,9.75509262084961,0.009207707829773426,0.002319425344467163,0.0016088485717773438,-0.014874978073524175,0.0063437382948476825,0.016999553771581598
0.00695402268320322,0.14606839418411255,9.746885299682617,-0.002482523676007986,0.004566490650177002,-0.005461692810058594,-0.014874978073524175,0.011371931462740664,-0.021218743048798304
0.0018803931307047606,0.1470935195684433,9.750699996948242,-0.005066450219601393,0.004316344857215881,-0.00276947021484375,0.03169905468037463,-0.06365620246596847,-0.021218743048798304
0.003878660500049591,0.14061251282691956,9.750537872314453,-0.002506695222109556,-0.002856314182281494,-0.0026826858520507812,-0.014874978073524175,0.0063437382948476825,0.02061637906094136
0.008666850626468658,0.1470935195684433,9.748383522033691,0.0023965355940163136,0.00413551926612854,0.00005054473876953125,-0.014874978073524175,0.07634367905566383,-0.021218743048798304
0.008666850626468658,0.1470935195684433,9.748383522033691,0.0023965355940163136,0.00413551926612854,0.00005054473876953125,-0.014874978073524175,0.07634367905566383,-0.021218743048798304
0.010469910688698292,0.1399112194776535,9.750895500183105,0.007049347274005413,-0.002833336591720581,-0.004607200622558594,-0.014874978073524175,0.07634367905566383,-0.021218743048798304
0.012990949675440788,0.14194802939891815,9.753056526184082,-0.009368736296892166,-0.0027427375316619873,0.0025634765625,-0.014874978073524175,0.0063437382948476825,-0.021218743048798304
0.008666850626468658,0.14131855964660645,9.747910499572754,0.0021717585623264313,-0.0026104748249053955,-0.004494667053222656,0.030570672744934142,0.051789389113306,0.0033355468935595276
0.008606831543147564,0.13751710951328278,9.748567581176758,-0.00014442531391978264,-0.004921182990074158,-0.00890350341796875,-0.002624446827724509,0.06409314780986416,-0.008968211802998637
0.008518408052623272,0.13137389719486237,9.757040977478027,0.0017955731600522995,-0.011587709188461304,0.005097389221191406,-0.014874978073524175,-0.06365620246596847,0.048781197712017846
0.008186044171452522,0.14518021047115326,9.754131317138672,0.0017795953899621964,0.002606630325317383,0.002685546875,-0.014874978073524175,0.03445823766164822,-0.021218743048798304
0.008186044171452522,0.14518021047115326,9.754131317138672,-0.000477347057312727,0.002557903528213501,0.014247894287109375,-0.014874978073524175,0.03445823766164822,-0.021218743048798304
0.006272748112678528,0.14469940960407257,9.756793022155762,-0.00034238211810588837,0.0023993104696273804,-0.0047664642333984375,-0.012341865015628754,0.07634367905566383,0.04624809132422903
0.006049265153706074,0.1383950114250183,9.75269889831543,-0.0073471409268677235,0.004789471626281738,0.0000209808349609375,0.0009904641410377964,-0.03192531803684452,-0.021218743048798304
0.005692209117114544,0.14290982484817505,9.74614429473877,0.004457028117030859,0.002264246344566345,0.0021533966064453125,0.019396016355330486,0.004885786391740859,-0.021218743048798304
0.009900719858705997,0.1435391753911972,9.758720397949219,0.004317987244576216,0.002140328288078308,0.007015228271484375,0.054049928264528986,0.005268703872084699,0.04770616328925486
-0.00011956621892750263,0.14523008465766907,9.744455337524414,-0.009800241328775883,0.0020231902599334717,-0.0072689056396484375,0.03564059409978767,0.0063437382948476825,-0.0017343744612939996
0.006469890009611845,0.14938905835151672,9.749910354614258,-0.00031696679070591927,0.006438314914703369,-0.0020856857299804688,0.01724306602374842,0.0005798857285767271,-0.021218743048798304
0.0020031165331602097,0.14542758464813232,9.74478816986084,-0.00732313422486186,0.001649618148803711,-0.0064334869384765625,-0.07116624225234211,-0.03623884930197203,-0.021218743048798304
0.0020031165331602097,0.14542758464813232,9.74478816986084,-0.00732313422486186,0.001649618148803711,-0.0064334869384765625,-0.07116624225234211,-0.03623884930197203,-0.021218743048798304
0.005310165695846081,0.1481301486492157,9.749267578125,0.006956432014703751,0.006193235516548157,-0.0038843154907226562,-0.08018565379368939,-0.0542776723846666,-0.021218743048798304
0.013232769444584846,0.14469940960407257,9.754870414733887,0.004543790128082037,0.001550436019897461,0.0009174346923828125,0.008221359965726833,0.0063437382948476825,0.025684859672766836
0.00473032845184207,0.14555108547210693,9.757647514343262,-0.00029611261561512947,0.0037315934896469116,0.010113716125488281,-0.027873795229517086,-0.006655072191038615,-0.021218743048798304
0.004223304335027933,0.14492304623126984,9.75361156463623,-0.004849730990827084,0.005966112017631531,0.0004444122314453125,-0.014874978073524175,0.059726068928860815,0.048781197712017846
0.016825053840875626,0.14806942641735077,9.753266334533691,0.011536022648215294,0.0060090571641922,0.000354766845703125,-0.014874978073524175,0.0063437382948476825,-0.021218743048798304
0.012417169287800789,0.13137269020080566,9.74929428100586,0.006702464539557695,-0.012790277600288391,-0.00444793701171875,0.05512496268729197,0.03122798507105531,0.0036654903871961007
0.0034350461792200804,0.14274892210960388,9.752254486083984,-0.005087900906801224,0.0015558600425720215,-0.0020704269409179688,0.048638310688189704,0.0063437382948476825,-0.021218743048798304
0.0034350461792200804,0.14274892210960388,9.752254486083984,-0.005087900906801224,0.0015558600425720215,-0.0020704269409179688,0.048638310688189704,0.0063437382948476825,-0.021218743048798304
0.010297713801264763,0.1447516232728958,9.756619453430176,-0.002783998381346464,-0.007922545075416565,0.016664505004882812,-0.014874978073524175,0.0063437382948476825,-0.021218743048798304
0.010122031904757023,0.15000386536121368,9.757955551147461,0.0001300843432545662,-0.0006784051656723022,0.0070247650146484375,0.024802124423608803,0.04602084079198066,-0.021218743048798304
0.0018769674934446812,0.14120636880397797,9.75140380859375,-0.009403958916664124,-0.0032920539379119873,-0.00027751922607421875,0.03385071101127409,0.03379517570362807,-0.021218743048798304
0.003609385574236512,0.15134316682815552,9.740997314453125,0.00018382351845502853,0.01294417679309845,-0.014162063598632812,0.05512496268729197,0.0063437382948476825,-0.021218743048798304
-0.0054439976811409,0.1469847708940506,9.755056381225586,-0.011184781789779663,0.0034884661436080933,0.0026493072509765625,-0.014874978073524175,0.0063437382948476825,-0.021218743048798304
0.01466312911361456,0.13630904257297516,9.756300926208496,0.009943012148141861,-0.008100077509880066,0.0048961639404296875,-0.014874978073524175,0.0063437382948476825,0.031119048889878896
0.01466312911361456,0.13630904257297516,9.756300926208496,0.009943012148141861,-0.008100077509880066,0.0048961639404296875,-0.014874978073524175,0.0063437382948476825,0.031119048889878896
0.0026050866581499577,0.14113377034664154,9.747910499572754,0.0005613258108496666,-0.0032566189765930176,-0.004422187805175781,0.05437793742724827,0.0063437382948476825,-0.021218743048798304
0.0041404287330806255,0.13538479804992676,9.757050514221191,0.004962958861142397,-0.0010272413492202759,-0.006378173828125,-0.014874978073524175,0.0063437382948476825,0.029634990189495284
0.01226560678333044,0.14494338631629944,9.754376411437988,-0.0020801331847906113,-0.003057926893234253,0.0006303787231445312,-0.014874978073524175,-0.03120718767864115,0.048781197712017846
0.008214807137846947,0.14918960630893707,9.756438255310059,0.007040196564048529,0.0039450377225875854,0.0051860809326171875,-0.014874978073524175,0.0063437382948476825,-0.016863536957563142
0.003878660500049591,0.14158517122268677,9.765273094177246,-0.0023117605596780777,-0.003447785973548889,0.01660633087158203,0.032360395750889046,0.0063437382948476825,-0.021218743048798304
0.00169532117433846,0.14075426757335663,9.762982368469238,-0.0043823267333209515,-0.0034709125757217407,0.011687278747558594,-0.014874978073524175,0.03518162406386132,0.019943325283217427
0.0054324036464095116,0.14217835664749146,9.750431060791016,0.0004675355739891529,0.0014856606721878052,-0.004986763000488281,-0.014874978073524175,0.0063437382948476825,0.03835272614902486
0.0054324036464095116,0.14217835664749146,9.750431060791016,0.0004675355739891529,0.0014856606721878052,-0.004986763000488281,-0.014874978073524175,0.0063437382948476825,0.03835272614902486
0.011606168933212757,0.14230529963970184,9.763579368591309,0.0025948197580873966,-0.0009232312440872192,0.015913009643554688,0.011501291510361002,0.0063437382948476825,-0.021218743048798304
0.007945100776851177,0.14503388106822968,9.753033638000488,0.0118485689163208,0.0037644505500793457,0.0015277862548828125,0.011501291510361002,0.0063437382948476825,-0.021218743048798304
0.0048425025306642056,0.1360868662595749,9.757455825805664,-0.00020246906206011772,-0.0056410133838653564,-0.003147125244140625,-0.014874978073524175,-0.01887657513286573,-0.021218743048798304
0.0054720197804272175,0.14788615703582764,9.754316329956055,5.578622221946716e-7,0.006309211254119873,-0.005623817443847656,-0.0032863481871942797,0.017932381521390803,0.03719256782568795
0.011232411488890648,0.15119586884975433,9.752355575561523,0.004852381069213152,0.008355870842933655,-0.0011768341064453125,0.02513856460108482,0.04635728096945668,-0.021218743048798304
0.007647138088941574,0.14230529963970184,9.747910499572754,-0.00011245254427194595,-0.001215219497680664,-0.005637168884277344,0.033520540734012734,0.0063437382948476825,-0.021218743048798304
0.005623829085379839,0.14013046026229858,9.755311965942383,0.004759027156978846,-0.0010807961225509644,0.0038537979125976562,0.05191812217090487,0.06992999802288963,0.045574357195630744
0.00898140762001276,0.15292149782180786,9.750981330871582,0.009300441481173038,0.0055735111236572266,-0.0008172988891601562,-0.014874978073524175,-0.008857501373463606,0.03357995804370656
0.00898140762001276,0.15292149782180786,9.750981330871582,0.009300441481173038,0.0055735111236572266,-0.0008172988891601562,-0.014874978073524175,-0.008857501373463606,0.03357995804370656
0.0031618643552064896,0.14223773777484894,9.757486343383789,0.008876308798789978,0.005333036184310913,0.003818511962890625,0.018727978497778283,-0.030053245894666007,0.048781197712017846
0.011004645377397537,0.1446712613105774,9.758613586425781,-0.00033270101994276047,-0.0017479509115219116,-0.0010442733764648438,0.054711896325064874,0.14510442072979868,-0.021218743048798304
0.017689578235149384,0.14193104207515717,9.758773803710938,0.011196921579539776,0.0005926340818405151,0.005672454833984375,-0.014874978073524175,0.0575331513184636,-0.021218743048798304
0.008894621394574642,0.15127432346343994,9.762046813964844,0.0012489575892686844,0.007912859320640564,0.007818222045898438,-0.014874978073524175,-0.03087621698858643,0.016001212234635808
0.010634344071149826,0.1399112194776535,9.748893737792969,0.0059858872555196285,-0.0037888437509536743,-0.003795623779296875,-0.014874978073524175,0.0063437382948476825,-0.021218743048798304
0.00788281112909317,0.14253869652748108,9.756936073303223,-0.003678074572235346,0.0081244558095932,0.007987022399902344,0.051098406089010784,0.0063437382948476825,-0.021218743048798304
0.00788281112909317,0.14253869652748108,9.756936073303223,-0.003678074572235346,0.0081244558095932,0.007987022399902344,0.051098406089010784,0.0063437382948476825,-0.021218743048798304
-0.004700678400695324,0.14130711555480957,9.757486343383789,-0.0009586652740836143,0.012445926666259766,0.0027647018432617188,-0.014874978073524175,0.03149161436476194,0.026355165366566898
0.003234834410250187,0.13917486369609833,9.743307113647461,0.0040946537628769875,-0.0017022788524627686,-0.0020418167114257812,-0.014874978073524175,-0.022825945257440482,0.048781197712017846
0.006795080378651619,0.14959637820720673,9.752067565917969,0.0017740963958203793,0.010204896330833435,-0.008524894714355469,-0.014874978073524175,-0.056021224912657805,-0.013583765495487643
0.006272748112678528,0.1399112194776535,9.747910499572754,-0.0005021798424422741,-0.003949865698814392,-0.006183624267578125,-0.014874978073524175,0.0063437382948476825,0.022737179478656763
0.016628608107566833,0.1399112194776535,9.743766784667969,0.011182542890310287,-0.003686875104904175,-0.010500907897949219,-0.014874978073524175,0.0063437382948476825,0.004339731443896852
0.01250254362821579,0.13798053562641144,9.750304222106934,0.006129542365670204,-0.008158206939697266,-0.00313568115234375,-0.014874978073524175,0.0063437382948476825,-0.021218743048798304
0.01250254362821579,0.13798053562641144,9.750304222106934,0.006129542365670204,-0.008158206939697266,-0.00313568115234375,-0.014874978073524175,0.0063437382948476825,-0.021218743048798304
0.018157802522182465,0.1478203386068344,9.749491691589355,0.0008992007933557034,-0.003462061285972595,-0.005290985107421875,-0.014874978073524175,0.0063437382948476825,0.037532076252205185
0.011060953140258789,0.13930360972881317,9.758987426757812,0.0032598148100078106,0.003279268741607666,0.002048492431640625,0.025469508610713096,0.0063437382948476825,0.019125743635438966
0.009500741958618164,0.14230529963970184,9.751138687133789,0.005428081378340721,-0.0012503862380981445,0.0018072128295898438,0.03318423395866894,0.0063437382948476825,0.048781197712017846
-0.0005493622738867998,0.1388942450284958,9.754732131958008,-0.010947663336992264,-0.005901709198951721,0.004230499267578125,0.04025689484421715,0.0063437382948476825,-0.021218743048798304
0.01315847784280777,0.13979259133338928,9.75509262084961,0.005596339702606201,-0.0033335834741592407,0.00193023681640625,-0.014874978073524175,-0.0303905531860015,-0.021218743048798304
0.008779804222285748,0.1442420780658722,9.75326919555664,0.0033046435564756393,0.004007741808891296,-0.0005025863647460938,-0.014874978073524175,0.0063437382948476825,-0.002893772392477219
0.008779804222285748,0.1442420780658722,9.75326919555664,0.0033046435564756393,0.004007741808891296,-0.0005025863647460938,-0.014874978073524175,-0.06358400523200732,-0.021146545814837152
0.009861374273896217,0.14110572636127472,9.751494407653809,0.0030994219705462456,-0.0006264746189117432,0.0019817352294921875,-0.014874978073524175,-0.06358400523200732,-0.021146545814837152
0.015720399096608162,0.14236967265605927,9.741113662719727,0.003011910244822502,0.0018467903137207031,0.0020666122436523438,-0.014874978073524175,0.0063437382948476825,0.048781197712017846
0.006966531742364168,0.14539319276809692,9.756793022155762,0.0002981172874569893,0.004073351621627808,0.00234222412109375,-0.014874978073524175,0.0063437382948476825,0.048781197712017846
0.014273414388298988,0.1428712159395218,9.756163597106934,0.0026948824524879456,-0.005349025130271912,0.0021495819091796875,-0.014874978073524175,0.0063437382948476825,-0.021218743048798304
0.013199963606894016,0.1399112194776535,9.759881019592285,0.007029328495264053,-0.00311318039894104,0.0066242218017578125,0.0072145874140243085,0.0063437382948476825,-0.021218743048798304
0.014720747247338295,0.14873535931110382,9.753263473510742,0.007051423192024231,0.006414398550987244,-0.000720977783203125,-0.014874978073524175,0.0063437382948476825,0.019280276665410507
0.007907409220933914,0.14867030084133148,9.75427532196045,-0.0024967072531580925,0.006066232919692993,0.0016469955444335938,0.04402127623203298,0.0063437382948476825,0.037677511256758854
0.007907409220933914,0.14867030084133148,9.75427532196045,-0.0024967072531580925,0.006066232919692993,0.0016469955444335938,0.04402127623203298,0.0063437382948476825,0.037677511256758854
0.0052214981988072395,0.13796472549438477,9.749408721923828,0.009555893950164318,-0.000814393162727356,-0.012409210205078125,-0.014874978073524175,0.0063437382948476825,-0.021218743048798304
0.006272748112678528,0.14053432643413544,9.743432998657227,-0.0021354062482714653,0.001493409276008606,-0.0075893402099609375,-0.014874978073524175,0.0063437382948476825,0.048781197712017846
0.01157299056649208,0.13700509071350098,9.759963989257812,0.00032694265246391296,-0.0031758248805999756,-0.00012493133544921875,0.05512496268729197,0.03223463756083883,0.022890298446026698
0.007843101397156715,0.14454513788223267,9.75344467163086,0.0002036653459072113,0.006373226642608643,0.0018863677978515625,0.04421128088896363,0.05451631545900715,-0.021218743048798304
0.006272748112678528,0.15110504627227783,9.75185775756836,-0.0022688154131174088,0.008786097168922424,-0.002742767333984375,-0.014874978073524175,-0.06365620246596847,-0.021218743048798304
0.014108823612332344,0.1442643254995346,9.757702827453613,0.007294764742255211,0.0016271024942398071,0.0015459060668945312,-0.014874978073524175,0.0540641089111847,-0.021218743048798304
0.01159597560763359,0.15480542182922363,9.764403343200684,-0.0024606529623270035,0.015420839190483093,0.008120536804199219,-0.014874978073524175,0.0063437382948476825,0.044910868350787475
0.01159597560763359,0.15480542182922363,9.764403343200684,-0.0024606529623270035,0.015420839190483093,0.008120536804199219,-0.014874978073524175,0.0063437382948476825,0.044910868350787475
0.005979021079838276,0.14061133563518524,9.757486343383789,0.0024179471656680107,-0.0013725906610488892,0.0031518936157226562,0.04059649665222694,-0.049127736430903436,-0.021218743048798304
0.008666850626468658,0.14214631915092468,9.750863075256348,0.00006301980465650558,0.005732059478759766,-0.0016107559204101562,0.018058886763381486,0.0022115272078428593,0.015847332875112183
0.01226691622287035,0.1399112194776535,9.761069297790527,0.0022999532520771027,-0.003698378801345825,0.007853507995605469,-0.014874978073524175,-0.012317926003000652,-0.021218743048798304
0.010972569696605206,0.13809354603290558,9.75039291381836,-0.0003071241080760956,-0.005887910723686218,-0.0018205642700195312,0.036978217279625906,-0.011803007112818382,-0.003071997641132239
0.018243253231048584,0.14459377527236938,9.757169723510742,0.008783796802163124,0.001399397850036621,0.0031919479370117188,-0.014874978073524175,0.003255092067613538,0.01223691088809931
0.0028493928257375956,0.13442932069301605,9.755438804626465,-0.007643401622772217,-0.012596338987350464,0.0032100677490234375,-0.014874978073524175,-0.03356361628250877,-0.021218743048798304
0.0028493928257375956,0.13442932069301605,9.755438804626465,-0.007643401622772217,-0.012596338987350464,0.0032100677490234375,-0.014874978073524175,-0.03356361628250877,-0.021218743048798304
0.006272748112678528,0.1399112194776535,9.744433403015137,-0.0026811696588993073,-0.0028077811002731323,-0.010608673095703125,-0.014874978073524175,0.00969490657809097,0.045430029428774554
0.011060953140258789,0.14674048125743866,9.749422073364258,0.0023144809529185295,-0.00034449994564056396,-0.014875411987304688,-0.014874978073524175,0.054584964196251064,0.0005399718106144651
0.007078653667122126,0.13988760113716125,9.748692512512207,-0.0002271253615617752,-0.007391199469566345,-0.007399559020996094,-0.014874978073524175,-0.023494930270131498,-0.021218743048798304
0.008190109394490719,0.1475650519132614,9.747910499572754,-0.0025648605078458786,0.01137898862361908,-0.004795074462890625,-0.007904203066464199,-0.0006270300421056823,-0.021218743048798304
0.011390352621674538,0.14535821974277496,9.75302791595459,0.0021208003163337708,0.0019444078207015991,0.00012302398681640625,-0.014874978073524175,0.0063437382948476825,0.0041494866631281956
0.00717330863699317,0.1452997922897339,9.767656326293945,-0.002804090268909931,0.0017552077770233154,0.01634502410888672,-0.014874978073524175,-0.03743358545798213,0.005003873959188033
0.007737379986792803,0.14523456990718842,9.755233764648438,-0.00030525028705596924,0.003878846764564514,0.0067234039306640625,0.05512496268729197,0.0063437382948476825,0.048781197712017846
0.01729690283536911,0.13979998230934143,9.756429672241211,0.0016285842284560204,-0.0079069584608078,-0.007674217224121094,-0.00429155993394975,-0.05307278432639404,-0.010635324909223878
0.01729690283536911,0.13979998230934143,9.756429672241211,0.0016285842284560204,-0.0079069584608078,-0.007674217224121094,-0.00429155993394975,-0.05307278432639404,-0.010635324909223878
0.015425465069711208,0.14188161492347717,9.757062911987305,0.004146413877606392,-0.003141850233078003,0.0017986297607421875,0.014108996370491046,0.0063437382948476825,-0.021218743048798304
0.004931812174618244,0.1406765878200531,9.754326820373535,-0.0031105615198612213,0.0015594661235809326,-0.0030193328857421875,0.05512496268729197,0.0063437382948476825,0.0013938788589982858
0.00840763933956623,0.14379458129405975,9.759169578552246,-0.0028546666726469994,0.006369724869728088,0.006262779235839844,-0.014874978073524175,0.0063437382948476825,-0.021218743048798304
0.013208931311964989,0.1447814553976059,9.74138355255127,0.004003326408565044,0.001818150281906128,-0.012636184692382812,0.02252376274752031,-0.02625746164492398,-0.021218743048798304
0.011813422664999962,0.13970594108104706,9.754340171813965,0.003998815082013607,-0.005282387137413025,-0.0008220672607421875,-0.014874978073524175,0.0063437382948476825,-0.021218743048798304
0.011101536452770233,0.13987061381340027,9.75269889831543,0.003929899074137211,-0.005075797438621521,-0.0007772445678710938,-0.014874978073524175,0.0063437382948476825,-0.021218743048798304
0.011101536452770233,0.13987061381340027,9.75269889831543,0.003929899074137211,-0.005075797438621521,-0.0007772445678710938,-0.014874978073524175,0.0063437382948476825,-0.021218743048798304
0.011060953140258789,0.14701060950756073,9.748117446899414,0.0014725076034665108,-0.00028999149799346924,0.006053924560546875,-0.014874978073524175,0.0063437382948476825,-0.021218743048798304
0.007233127020299435,0.13646481931209564,9.750304222106934,0.005958221852779388,-0.002684354782104492,-0.003265380859375,-0.014874978073524175,-0.027444300394706255,0.012569295640755634
0.011060953140258789,0.14209893345832825,9.750717163085938,0.001317518763244152,-0.002472430467605591,0.0015697479248046875,0.05210926074595945,0.0063437382948476825,0.048781197712017846
0.007738248445093632,0.1399112194776535,9.753554344177246,-0.0010614236816763878,-0.002419784665107727,-0.0029134750366210938,-0.014874978073524175,0.0063437382948476825,-0.021218743048798304
0.010566110722720623,0.13768205046653748,9.7559175491333,0.0013601165264844894,-0.004568114876747131,0.0014495849609375,-0.014874978073524175,-0.023833798366414045,0.048781197712017846
0.005499284714460373,0.14311036467552185,9.75509262084961,0.0017590131610631943,0.002646803855895996,0.0013704299926757812,-0.014874978073524175,0.0063437382948476825,-0.021218743048798304
0.005499284714460373,0.14311036467552185,9.75509262084961,0.0017590131610631943,0.002646803855895996,0.0013704299926757812,-0.014874978073524175,0.0063437382948476825,-0.021218743048798304
0.009574033319950104,0.1408814638853073,9.748427391052246,-0.0054751113057136536,0.0003500133752822876,-0.0007734298706054688,-0.014874978073524175,0.0063437382948476825,-0.021218743048798304
0.01469462737441063,0.13875669240951538,9.75930404663086,-0.0027006352320313454,-0.011131122708320618,0.0015316009521484375,-0.014874978073524175,-0.018692746994657183,0.02374471242251298
0.006632686592638493,0.14653544127941132,9.7564058303833,0.0017566783353686333,0.007887378334999084,-0.010320663452148438,-0.014874978073524175,-0.020216732953216278,0.022220726463953885
0.011761918663978577,0.14315186440944672,9.74904727935791,0.004201261326670647,0.0005403310060501099,-0.010335922241210938,-0.004626245873386986,0.0063437382948476825,-0.010970017518767725
0.011060953140258789,0.1399112194776535,9.756834030151367,0.0016855988651514053,-0.0019461363554000854,0.0037450790405273438,0.02647882914314115,-0.02230239524930314,-0.021218743048798304
0.007097333669662476,0.1498202532529831,9.75624942779541,-0.003152264282107353,0.009844988584518433,0.0037336349487304688,-0.014874978073524175,-0.01660096154070111,-0.021218743048798304
0.015849150717258453,0.1365843117237091,9.749262809753418,0.005980274640023708,-0.011510223150253296,-0.0031938552856445312,0.05057784428863532,0.0017966198961910298,-0.016671624650141652
0.015849150717258453,0.1365843117237091,9.749262809753418,0.005980274640023708,-0.011510223150253296,-0.0031938552856445312,0.05057784428863532,0.0017966198961910298,-0.016671624650141652
0.010563027113676071,0.14420148730278015,9.756040573120117,-0.006010989658534527,-0.0043029338121414185,-0.0008840560913085938,-0.014874978073524175,-0.007517330212899835,-0.0073576745410507865
0.0030918950214982033,0.1399112194776535,9.754841804504395,-0.001113729551434517,-0.0018223971128463745,0.008474349975585938,-0.014874978073524175,-0.06365620246596847,-0.021218743048798304
0.005171039141714573,0.13641540706157684,9.74901294708252,-0.008039946667850018,-0.008658826351165771,-0.001041412353515625,-0.014874978073524175,-0.012991620110959274,-0.021218743048798304
0.012851525098085403,0.1429048329591751,9.759881019592285,0.006192958913743496,0.0008703917264938354,0.0061931610107421875,0.0025948915853296587,0.0063437382948476825,-0.021218743048798304
0.00860673002898693,0.13997134566307068,9.7504243850708,-0.0008977269753813744,-0.0015228986740112305,-0.00345611572265625,-0.014874978073524175,-0.027777272116744377,0.014660187300425787
0.0030463114380836487,0.14535872638225555,9.756827354431152,-0.010378572158515453,0.0028490573167800903,0.0035886764526367188,0.05512496268729197,-0.009379930803690246,-0.021218743048798304
0.0030463114380836487,0.14535872638225555,9.756827354431152,-0.010378572158515453,0.0028490573167800903,0.0035886764526367188,0.05512496268729197,-0.009379930803690246,-0.021218743048798304
0.011244572699069977,0.1469098925590515,9.76116943359375,-0.0008683204650878906,0.007394835352897644,0.005591392517089844,-0.012189319677427394,0.003658086568857513,-0.021218743048798304
0.017321955412626266,0.1469399631023407,9.759420394897461,-0.005306175909936428,0.002704411745071411,-0.0016326904296875,-0.014874978073524175,-0.04257132845685977,-0.0001338690396896054
0.011889040470123291,0.1391282081604004,9.759052276611328,-0.0008401200175285339,-0.004444554448127747,0.007572174072265625,-0.014874978073524175,0.0063437382948476825,0.048781197712017846
0.008666850626468658,0.14285649359226227,9.754541397094727,-0.0009025679901242256,-0.0020027607679367065,0.00263214111328125,0.04883135691373513,0.0063437382948476825,-0.021218743048798304
0.005216147750616074,0.1361796259880066,9.773118019104004,-0.0031598899513483047,-0.006695643067359924,0.02130413055419922,-0.014874978073524175,0.0063437382948476825,-0.021218743048798304
0.011792757548391819,0.13383710384368896,9.756932258605957,0.00421080831438303,-0.00880385935306549,0.0021619796752929688,-0.014874978073524175,0.0063437382948476825,-0.021218743048798304
0.010154335759580135,0.14321191608905792,9.753605842590332,0.0016930196434259415,0.0007121860980987549,-0.0025463104248046875,-0.014874978073524175,-0.05516537019314347,0.04029036543919285
0.010154335759580135,0.14321191608905792,9.753605842590332,0.0016930196434259415,0.0007121860980987549,-0.0025463104248046875,-0.014874978073524175,-0.05516537019314347,0.04029036543919285
0.006589818280190229,0.14113010466098785,9.759700775146484,-0.014736741781234741,0.01011289656162262,-0.0003376007080078125,-0.014874978073524175,0.0063437382948476825,-0.021218743048798304
0.010660219937562943,0.13871930539608002,9.751897811889648,-0.00033411383628845215,0.002662181854248047,-0.0072345733642578125,0.05512496268729197,0.0063437382948476825,0.020467435580310125
0.010030850768089294,0.1333967000246048,9.75509262084961,-0.00036124419420957565,-0.013647451996803284,0.00001621246337890625,0.031842315230173,0.0063437382948476825,0.02549855025489887
0.005538288503885269,0.14211460947990417,9.756942749023438,-0.0027160560712218285,-0.0014736801385879517,0.0046710968017578125,-0.014874978073524175,0.0063437382948476825,0.048781197712017846
0.012929028831422329,0.1442786008119583,9.761327743530273,0.004497839137911797,0.003003835678100586,0.0070018768310546875,0.023201298836887065,0.0063437382948476825,0.048781197712017846
0.008963415399193764,0.1482110172510147,9.75755500793457,0.0022663744166493416,0.01001615822315216,0.007201194763183594,0.004792178115557305,0.0063437382948476825,0.029114041522936365
0.003965409472584724,0.13858403265476227,9.755179405212402,0.0022663744166493416,0.01001615822315216,0.007201194763183594,0.004792178115557305,0.0063437382948476825,0.029114041522936365
0.003965409472584724,0.13858403265476227,9.755179405212402,-0.0022335387766361237,-0.006628647446632385,0.002410888671875,0.05385498772870595,0.0063437382948476825,-0.021218743048798304
0.008722258731722832,0.13517843186855316,9.747965812683105,0.007022911682724953,0.00032955408096313477,-0.0001125335693359375,-0.014874978073524175,0.0063437382948476825,0.03164294574356003
0.008216362446546555,0.1470935195684433,9.759232521057129,0.004523802548646927,0.0052073001861572266,0.002414703369140625,0.020665030818564478,0.0063437382948476825,0.048781197712017846
0.007550109643489122,0.1439039260149002,9.757807731628418,-0.00016603991389274597,0.007185116410255432,0.00687408447265625,0.052775390953020807,0.0063437382948476825,0.04643162597774668
0.014429938048124313,0.146118625998497,9.762274742126465,0.004580548033118248,0.004833906888961792,0.006756782531738281,-0.014874978073524175,0.0063437382948476825,0.048781197712017846
0.011487411335110664,0.1400533765554428,9.755518913269043,0.0018935566768050194,-0.0024571269750595093,-0.0005941390991210938,0.05512496268729197,0.0063437382948476825,-0.021218743048798304
0.008826586417853832,0.14230529963970184,9.750995635986328,0.004461523145437241,-0.0001242309808731079,-0.007607460021972656,-0.0024287458997477762,0.0063437382948476825,-0.021218743048798304
0.008826586417853832,0.14230529963970184,9.750995635986328,0.004461523145437241,-0.0001242309808731079,-0.007607460021972656,-0.0024287458997477762,0.0063437382948476825,-0.021218743048798304
0.007851289585232735,0.14031898975372314,9.761458396911621,0.004604659974575043,-0.004834160208702087,0.011171340942382812,0.05512496268729197,0.07038113735365427,-0.021218743048798304
0.009729410521686077,0.1359199434518814,9.758283615112305,0.00922241061925888,0.00008587539196014404,0.008686065673828125,-0.014874978073524175,0.0063437382948476825,-0.021218743048798304
0.018243253231048584,0.13901612162590027,9.753593444824219,0.009104742668569088,-0.004333510994911194,-0.0009059906005859375,0.02789147768214375,0.033577223299995906,-0.021218743048798304
0.016074035316705704,0.1414356231689453,9.758581161499023,0.013170727528631687,0.0004300028085708618,0.008519172668457031,0.0455542134736645,-0.0032270109187797938,0.048781197712017846
0.009860394522547722,0.1387176662683487,9.755573272705078,0.0012411810457706451,-0.004137545824050903,-0.000804901123046875,-0.014874978073524175,-0.02163602491840377,-0.021218743048798304
0.009115270338952541,0.14347271621227264,9.763890266418457,0.0014045396819710732,0.0003596097230911255,0.008420944213867188,0.03150208643214174,-0.01727913796030255,0.02515832145686761
0.00010916031897068024,0.14434272050857544,9.759881019592285,-0.010143750347197056,0.0001491457223892212,0.0034351348876953125,0.04991167406093429,0.001130449668490001,-0.016005454422440623
0.012553084641695023,0.14740531146526337,9.752387046813965,0.006401137448847294,-0.0047261714935302734,0.00589752197265625,-0.014874978073524175,-0.006841301567627244,0.048781197712017846
0.012553084641695023,0.14740531146526337,9.752387046813965,0.006401137448847294,-0.0047261714935302734,0.00589752197265625,-0.014874978073524175,-0.006841301567627244,0.048781197712017846
0.010035309940576553,0.13751710951328278,9.760906219482422,-0.0031548086553812027,-0.004614576697349548,0.007837295532226562,-0.014874978073524175,-0.032065550358241345,0.017190545604290727
0.0109512098133564,0.15221090614795685,9.75509262084961,0.0037826867774128914,0.0025564581155776978,-0.0017719268798828125,-0.014874978073524175,-0.013661458897296539,-0.001213545856654082
0.0032562753185629845,0.1434546411037445,9.74843692779541,-0.005586347542703152,0.0019639432430267334,-0.006328582763671875,0.03832191025648047,0.0063437382948476825,-0.004415690617986798
0.0014845579862594604,0.147072896361351,9.762219429016113,-0.007633605040609837,0.004359811544418335,0.005850791931152344,-0.014874978073524175,-0.02845540851570615,-0.021218743048798304
0.012818585149943829,0.14357823133468628,9.758123397827148,0.004073617048561573,-0.00048770010471343994,0.0009393692016601562,-0.014874978073524175,-0.010046247773736723,-0.021218743048798304
0.012051871046423912,0.1458277553319931,9.75129508972168,0.006328209303319454,0.004176124930381775,-0.0011806488037109375,-0.014874978073524175,0.004336383050377959,-0.021218743048798304
0.012051871046423912,0.1458277553319931,9.75129508972168,0.006328209303319454,0.004176124930381775,-0.0011806488037109375,-0.014874978073524175,0.004336383050377959,-0.021218743048798304
0.005881114397197962,0.14217475056648254,9.757355690002441,-0.010158423334360123,-0.003100097179412842,-0.0011796951293945312,-0.014874978073524175,-0.04324134066596893,-0.021218743048798304
0.006387014873325825,0.14393946528434753,9.762160301208496,-0.007453750818967819,-0.0006205886602401733,0.010457992553710938,0.02394209421735577,0.07634367905566383,0.009964125421137898
0.002254148479551077,0.1440795660018921,9.759881019592285,-0.0024553686380386353,0.004050716757774353,0.0030975341796875,-0.014874978073524175,0.0707169372008956,0.048781197712017846
0.01913587749004364,0.14357329905033112,9.750679969787598,0.011703290976583958,0.0017417967319488525,-0.006382942199707031,-0.014874978073524175,-0.06365620246596847,0.024757047843129362
0.013200829736888409,0.13965700566768646,9.75911808013916,0.004466928541660309,-0.002879500389099121,0.0032138824462890625,0.012691718777500178,0.048776982204639475,-0.021218743048798304
0.00476214149966836,0.1327289193868637,9.758996963500977,-0.0048749446868896484,-0.009463965892791748,0.0031023025512695312,-0.014874978073524175,0.0063437382948476825,0.03961173545234184
0.006655492819845676,0.1392792910337448,9.762274742126465,-0.009545935317873955,0.00017410516738891602,0.00519561767578125,0.04588590453523324,-0.05441714431390973,-0.021218743048798304
0.006655492819845676,0.1392792910337448,9.762274742126465,-0.009545935317873955,0.00017410516738891602,0.00519561767578125,0.04588590453523324,-0.05441714431390973,-0.021218743048798304
-0.0017928127199411392,0.14469940960407257,9.765046119689941,-0.0021486636251211166,0.0022335797548294067,0.009954452514648438,-0.014874978073524175,0.0063437382948476825,0.006420884747914448
0.010681195184588432,0.13512302935123444,9.75723934173584,0.005229677073657513,-0.007152527570724487,-0.0068187713623046875,0.03116798079197969,0.0063437382948476825,-0.021218743048798304
0.007909239269793034,0.14230529963970184,9.758365631103516,0.0004381360486149788,0.00026860833168029785,0.0025424957275390625,-0.014874978073524175,0.0063437382948476825,-0.021218743048798304
0.010548808611929417,0.14016729593276978,9.755476951599121,0.0028272317722439766,-0.0020271390676498413,-0.0021228790283203125,-0.014874978073524175,0.0063437382948476825,-0.021218743048798304
0.016627658158540726,0.13902074098587036,9.767953872680664,0.012260625138878822,-0.004434466361999512,0.011766433715820312,0.034778963067947914,0.0063437382948476825,0.028435198092673787
0.016627658158540726,0.13902074098587036,9.767953872680664,0.012260625138878822,-0.004434466361999512,0.011766433715820312,0.034778963067947914,0.0063437382948476825,0.028435198092673787
0.01179408561438322,0.14283551275730133,9.758749961853027,-0.004683380946516991,0.009949907660484314,0.0021343231201171875,-0.014874978073524175,0.0063437382948476825,-0.021218743048798304
0.013947177678346634,0.14230529963970184,9.756218910217285,-0.00007405038923025131,0.00039958953857421875,-0.0048999786376953125,-0.014874978073524175,0.0063437382948476825,-0.021218743048798304
0.005647854879498482,0.1452188342809677,9.756342887878418,-0.0050080306828022,-0.0015153288841247559,0.0021572113037109375,-0.014874978073524175,-0.028789033908192183,-0.021218743048798304
0.012200804427266121,0.14116545021533966,9.762389183044434,0.002205297350883484,0.0006366521120071411,0.006824493408203125,0.05345408764093794,0.0063437382948476825,-0.021218743048798304
0.007293368689715862,0.14026406407356262,9.757329940795898,-0.0026160990819334984,0.0007130801677703857,0.0019254684448242188,-0.014874978073524175,0.0063437382948476825,-0.001138907363673181
0.013336097821593285,0.1418294906616211,9.757010459899902,0.004293444566428661,0.0009791702032089233,-0.00018405914306640625,-0.014874978073524175,-0.03213382556951503,-0.021218743048798304
0.020037323236465454,0.14574496448040009,9.755989074707031,0.013389473780989647,0.007973015308380127,-0.0000438690185546875,-0.0017617685891467753,0.0063437382948476825,-0.021218743048798304
0.020037323236465454,0.14574496448040009,9.755989074707031,0.013389473780989647,0.007973015308380127,-0.0000438690185546875,-0.0017617685891467753,0.0063437382948476825,-0.021218743048798304
0.017588552087545395,0.14332157373428345,9.753060340881348,0.003429502248764038,0.003013521432876587,-0.006958961486816406,0.05512496268729197,0.0063437382948476825,0.04349676572854361
0.0031829001381993294,0.15163908898830414,9.764426231384277,0.007834907621145248,0.007201582193374634,0.004932403564453125,0.03143358443724327,0.0063437382948476825,-0.021218743048798304
0.0073666684329509735,0.14230529963970184,9.760973930358887,0.003115810453891754,-0.000193864107131958,0.009252548217773438,0.027219157616147065,0.020532068913374012,-0.021218743048798304
0.009275773540139198,0.14498308300971985,9.758095741271973,0.001005103811621666,-0.0001367032527923584,0.0020208358764648438,-0.014874978073524175,0.015246863197532858,-0.021218743048798304
0.010534325614571571,0.14017453789710999,9.746832847595215,0.0012113936245441437,-0.0026042163372039795,-0.011926651000976562,-0.014874978073524175,0.049042906015020406,-0.021218743048798304
0.008300564251840115,0.13419406116008759,9.76762580871582,-0.0010293396189808846,-0.00946246087551117,0.011678695678710938,-0.014874978073524175,-0.015076375272546993,-0.021218743048798304
0.010657970793545246,0.14389346539974213,9.768058776855469,-0.0010829875245690346,-0.0023672133684158325,0.008709907531738281,-0.014874978073524175,0.0063437382948476825,0.04288849202622901
0.010657970793545246,0.14389346539974213,9.768058776855469,-0.0010829875245690346,-0.0023672133684158325,0.008709907531738281,-0.014874978073524175,0.0063437382948476825,0.04288849202622901
0.011916997842490673,0.1431613564491272,9.748592376708984,-0.0011351965367794037,-0.0023202896118164062,-0.0028228759765625,-0.014874978073524175,0.06382810445355594,-0.021218743048798304
0.011985767632722855,0.1404009759426117,9.762219429016113,-0.0037092305719852448,0.00042144954204559326,-0.005062103271484375,-0.014874978073524175,0.05359423992105542,-0.021218743048798304
0.009630453772842884,0.1399112194776535,9.758265495300293,0.003297487273812294,-0.0018180161714553833,-0.012091636657714844,-0.06419407986310698,-0.050932774001637975,-0.021218743048798304
0.008478736504912376,0.14644795656204224,9.75904655456543,0.001109044998884201,0.005202829837799072,0.004218101501464844,0.0012492175868115314,-0.015283628825174568,-0.021218743048798304
0.008682811632752419,0.1375330686569214,9.764636993408203,-0.000999857671558857,-0.004392609000205994,0.006638526916503906,0.020591632965413286,0.0063437382948476825,-0.021218743048798304
0.009280137717723846,0.14881527423858643,9.765222549438477,-0.0010954728350043297,0.009795621037483215,0.008729934692382812,-0.014874978073524175,-0.08244810726550984,0.03171184794485518
0.009280137717723846,0.14881527423858643,9.765222549438477,-0.0010954728350043297,0.009795621037483215,0.008729934692382812,-0.014874978073524175,-0.08244810726550984,0.03171184794485518
0.015757592394948006,0.1506388932466507,9.753666877746582,0.008056782186031342,0.009262174367904663,0.0017881393432617188,0.05378517839291166,-0.060976633877207836,0.04744141341763753
0.013347530737519264,0.14938011765480042,9.764130592346191,0.0007331203669309616,0.00405612587928772,-0.005290031433105469,0.03538616955320469,0.05660488592157655,-0.021218743048798304
0.005352575331926346,0.14359600841999054,9.756749153137207,-0.0015641599893569946,0.008359789848327637,-0.0029954910278320312,0.023268320068117812,-0.10179950060761045,-0.021218743048798304
0.010033151134848595,0.13512302935123444,9.768767356872559,0.0008864942938089371,-0.008021429181098938,0.013398170471191406,-0.014874978073524175,-0.05870894437169749,-0.016271484954527328
0.0050780391320586205,0.14110593497753143,9.759881019592285,-0.003512434661388397,-0.0029914677143096924,0.0012197494506835938,0.03176846380977224,0.07634367905566383,-0.021218743048798304
0.01206897385418415,0.14276732504367828,9.75555419921875,0.0035454323515295982,-0.000647321343421936,-0.0035028457641601562,-0.014874978073524175,-0.09190219631450497,0.007027250799738197
0.008666850626468658,0.13905063271522522,9.7600679397583,-0.0010458342730998993,-0.002874597907066345,-0.0012416839599609375,-0.005038171647383546,0.016180544720988312,0.048781197712017846
0.008666850626468658,0.13905063271522522,9.7600679397583,-0.0010458342730998993,-0.002874597907066345,-0.0012416839599609375,-0.005038171647383546,0.016180544720988312,0.048781197712017846
0.011328138411045074,0.14171962440013885,9.760466575622559,-0.0057087307795882225,0.001873403787612915,-0.0013027191162109375,-0.006313862887335488,0.07634367905566383,-0.012657634532716228
0.0029032891616225243,0.1443447321653366,9.759171485900879,0.0014513824135065079,-0.0005536675453186035,-0.00310516357421875,0.05512496268729197,-0.036688694632054056,0.021813689878103438
0.011619018390774727,0.14033719897270203,9.754108428955078,0.006196796894073486,-0.0051965415477752686,-0.005391120910644531,-0.014874978073524175,-0.06365620246596847,-0.021218743048798304
0.006220235954970121,0.14797908067703247,9.769509315490723,-0.005567437969148159,0.00886295735836029,0.013461112976074219,-0.002695443442495618,0.0063437382948476825,-0.009039208417769746
-0.00224480452015996,0.128697007894516,9.764366149902344,-0.012418351136147976,-0.01463685929775238,0.005934715270996094,0.015701951231411403,0.0063437382948476825,-0.021218743048798304
0.009623522870242596,0.14182697236537933,9.756049156188965,-0.0005317823961377144,-0.0001461505889892578,-0.003570556640625,-0.014874978073524175,0.0063437382948476825,-0.021218743048798304
0.010882094502449036,0.15041638910770416,9.754555702209473,-0.0005317823961377144,-0.0001461505889892578,-0.003570556640625,-0.014874978073524175,0.0063437382948476825,-0.021218743048798304
0.00561577919870615,0.14361925423145294,9.761384010314941,-0.005249505862593651,0.004183903336524963,-0.005770683288574219,-0.014874978073524175,0.0063437382948476825,-0.021218743048798304
0.00561577919870615,0.14361925423145294,9.761384010314941,-0.005249505862593651,0.004183903336524963,-0.005770683288574219,-0.014874978073524175,0.0063437382948476825,-0.021218743048798304
0.019433721899986267,0.13872073590755463,9.747910499572754,0.006326976232230663,-0.000826522707939148,-0.009979248046875,0.020931808402591654,-0.02946304818126815,0.014588043427317527
0.012223753146827221,0.14244230091571808,9.75632381439209,0.0009957747533917427,0.004161134362220764,-0.0001239776611328125,-0.08387208164553848,-0.06365620246596847,0.04777836052321601
0.02647920697927475,0.1412382870912552,9.741535186767578,0.019410111010074615,-0.0005280822515487671,-0.018672943115234375,0.03572467746373023,-0.013056546928714063,-0.021218743048798304
0.0019649630412459373,0.14441116154193878,9.75959300994873,-0.008891679346561432,0.002004280686378479,0.0029096603393554688,-0.014874978073524175,0.07634367905566383,-0.021218743048798304
0.019622856751084328,0.14157997071743011,9.762274742126465,0.014542032964527607,-0.00025716423988342285,0.005013465881347656,-0.014874978073524175,-0.06365620246596847,-0.007425402803582339
0.006588405929505825,0.14334452152252197,9.756855964660645,-0.006510262377560139,0.001911744475364685,0.0049991607666015625,0.050509062149259175,0.06711187797959824,-0.016602842510765506
0.006588405929505825,0.14334452152252197,9.756855964660645,-0.006510262377560139,0.001911744475364685,0.0049991607666015625,0.050509062149259175,0.06711187797959824,-0.016602842510765506
0.011719663627445698,0.14990557730197906,9.754873275756836,0.007202778942883015,-0.011982619762420654,-0.00432586669921875,0.008140371531251935,0.029359101239837017,-0.021218743048798304
0.007817828096449375,0.13975824415683746,9.752002716064453,-0.004506892524659634,-0.007206335663795471,-0.001827239990234375,-0.014874978073524175,-0.006495203075778004,0.020200698016922616
0.0103546641767025,0.14378365874290466,9.764315605163574,0.004900023341178894,0.002240315079689026,0.010040283203125,0.04690132154510406,0.05167276896931332,-0.012995101906610393
0.002056931145489216,0.13923422992229462,9.754806518554688,-0.009038051590323448,-0.004753917455673218,-0.0019521713256835938,-0.014874978073524175,-0.0370235606643698,0.02214855591041918
0.006272748112678528,0.14367754757404327,9.756800651550293,-0.003999350592494011,-0.00017967820167541504,0.0005464553833007812,-0.014874978073524175,0.026403710402484234,-0.04127871515643485
0.006347677204757929,0.14327792823314667,9.75314712524414,-0.008719749748706818,-0.00029605627059936523,-0.0016164779663085938,0.04856417912331127,-0.0002170452691330224,-0.021218743048798304
0.006347677204757929,0.14327792823314667,9.75314712524414,-0.008719749748706818,-0.00029605627059936523,-0.0016164779663085938,0.04856417912331127,-0.0002170452691330224,-0.021218743048798304
0.007082545198500156,0.14309746026992798,9.754264831542969,-0.006086016073822975,0.0018751323223114014,0.0055866241455078125,0.043287551164572294,-0.06365620246596847,0.09510628874696819
0.007206214126199484,0.14283248782157898,9.745922088623047,0.001121806912124157,-0.007405593991279602,0.0008192062377929688,0.05512496268729197,0.036587015526870784,0.02805134679740436
0.002782563678920269,0.13662293553352356,9.750304222106934,-0.008099800907075405,-0.009647682309150696,-0.0058193206787109375,0.006477834118162074,0.0063437382948476825,-0.07580738914389883
0.013843731954693794,0.13473433256149292,9.750972747802734,0.00626416876912117,-0.00937458872795105,-0.005499839782714844,0.0005805794196643065,0.0063437382948476825,-0.04485199798983578
0.010982533916831017,0.15192091464996338,9.74594783782959,0.0012582996860146523,0.009504228830337524,-0.009917259216308594,0.01897833427932834,-0.06594951852107958,-0.02351205910390942
0.015291369520127773,0.14706091582775116,9.761028289794922,0.008317653089761734,0.001982748508453369,0.0015516281127929688,-0.014874978073524175,0.04086813007386717,0.031043423221119516
0.015291369520127773,0.14706091582775116,9.761028289794922,0.008317653089761734,0.001982748508453369,0.0015516281127929688,-0.014874978073524175,0.04086813007386717,0.031043423221119516
0.006317998748272657,0.1410856395959854,9.753918647766113,-0.005714588798582554,-0.00038871169090270996,-0.0031213760375976562,-0.014874978073524175,0.005683984709706763,-0.021218743048798304
0.006019379012286663,0.14222083985805511,9.750557899475098,-0.010359159670770168,-0.002648457884788513,0.0015106201171875,0.00419249551055812,0.0254112252191432,-0.0021512694647160082
0.010347099974751472,0.14444686472415924,9.749842643737793,-0.0006559686735272408,0.006680935621261597,-0.012343406677246094,0.017655505395954053,0.0063437382948476825,0.011311740420679926
0.012404297478497028,0.14096195995807648,9.746567726135254,0.003991355188190937,-0.0028661489486694336,-0.009595870971679688,0.05084611597654344,0.0063437382948476825,-0.021218743048798304
-0.0009095445275306702,0.14188383519649506,9.741284370422363,-0.010107395239174366,-0.0005108565092086792,-0.016117095947265625,0.03244868128199675,0.0063437382948476825,-0.021218743048798304
0.007834364660084248,0.14209717512130737,9.763835906982422,-0.00022408552467823029,-0.0005908310413360596,0.009918212890625,0.05512496268729197,0.0063437382948476825,0.007695822265819308
0.003760597202926874,0.14481745660305023,9.759160995483398,-0.0023680245503783226,-0.0009251236915588379,0.0024585723876953125,0.05512496268729197,-0.05313885840248598,-0.021218743048798304
0.003760597202926874,0.14481745660305023,9.759160995483398,-0.0023680245503783226,-0.0009251236915588379,0.0024585723876953125,0.05512496268729197,-0.05313885840248598,-0.021218743048798304
0.010825734585523605,0.14948762953281403,9.7532377243042,-0.009523511864244938,0.005960971117019653,-0.004593849182128906,-0.006983681663352921,0.0063437382948476825,-0.021218743048798304
0.0017432309687137604,0.1502237319946289,9.7547607421875,0.009575191885232925,-0.0033708512783050537,-0.002079010009765625,-0.014874978073524175,0.0063437382948476825,-0.021218743048798304
0.01153293251991272,0.14995959401130676,9.758447647094727,0.00027831364423036575,0.003519892692565918,0.0049533843994140625,-0.014874978073524175,0.0063437382948476825,-0.021218743048798304
0.007042347453534603,0.14707645773887634,9.759897232055664,0.002482210285961628,0.005571901798248291,0.00241851806640625,-0.014874978073524175,0.0063437382948476825,-0.021218743048798304
0.010886802338063717,0.1532309204339981,9.757486343383789,0.0026903459802269936,0.010162368416786194,0.0020914077758789062,-0.014874978073524175,0.0063437382948476825,-0.021218743048798304
0.014483857899904251,0.1457282304763794,9.745851516723633,0.007282068021595478,0.003057420253753662,-0.011989593505859375,-0.014874978073524175,0.0063437382948476825,0.02708683604119129
0.006272748112678528,0.14817817509174347,9.751164436340332,-0.0021477947011590004,0.0028718262910842896,-0.006999015808105469,-0.014874978073524175,0.0063437382948476825,-0.021218743048798304
0.006272748112678528,0.14817817509174347,9.751164436340332,-0.0021477947011590004,0.0028718262910842896,-0.006999015808105469,-0.014874978073524175,0.0063437382948476825,-0.021218743048798304
0.017236758023500443,0.14505316317081451,9.754058837890625,-0.00006960052996873856,-0.00422176718711853,0.0025644302368164062,-0.014874978073524175,0.0063437382948476825,-0.021218743048798304
0.007509314455091953,0.13512302935123444,9.75080394744873,-0.004808214493095875,-0.008534491062164307,0.004881858825683594,-0.014874978073524175,-0.03013755604223335,-0.021218743048798304
0.0074808718636631966,0.14586324989795685,9.757486343383789,-0.00010778568685054779,-0.0010375529527664185,0.0026092529296875,-0.014874978073524175,0.006021492104240597,0.04845895152141076
0.009948072023689747,0.13623590767383575,9.7591552734375,0.0023112213239073753,-0.00821898877620697,0.0024671554565429688,0.0038562220857473847,0.0063437382948476825,-0.021218743048798304
0.010915331542491913,0.1422324925661087,9.760026931762695,0.0023331716656684875,-0.0008686482906341553,0.004466056823730469,-0.014874978073524175,0.0063437382948476825,0.015909991856619114
0.0055703576654195786,0.13582541048526764,9.755379676818848,-0.0022382596507668495,-0.0076277852058410645,0.0021524429321289062,-0.014874978073524175,0.0063437382948476825,0.048781197712017846
0.0055703576654195786,0.13582541048526764,9.755379676818848,-0.0022382596507668495,-0.0076277852058410645,0.0021524429321289062,-0.014874978073524175,0.0063437382948476825,0.048781197712017846
0.00920543260872364,0.1399112194776535,9.759611129760742,-0.004619557410478592,-0.0028565526008605957,0.006691932678222656,0.05118967982788037,0.0063437382948476825,0.048781197712017846
0.009256325662136078,0.13951823115348816,9.761292457580566,0.007292343303561211,-0.007222846150398254,-0.0053768157958984375,0.05512496268729197,0.0063437382948476825,0.0011237262010257696
0.005613953806459904,0.14147943258285522,9.74716854095459,0.004780051298439503,-0.0023628324270248413,-0.005404472351074219,0.014379802698911474,0.0063437382948476825,-0.021218743048798304
0.014910433441400528,0.14521607756614685,9.755609512329102,0.007189898751676083,0.004731312394142151,0.0020036697387695312,-0.014874978073524175,0.0063437382948476825,-0.021218743048798304
0.008666850626468658,0.14022065699100494,9.767601013183594,-0.00010128505527973175,-0.0023348182439804077,0.013662338256835938,-0.014874978073524175,0.0063437382948476825,-0.021218743048798304
0.012814750894904137,0.1360834687948227,9.75509262084961,0.004470629617571831,-0.006991282105445862,-0.00066375732421875,0.01076395124511697,-0.03801727314732732,0.0231422683933767
0.011060953140258789,0.1380123794078827,9.755010604858398,0.0018755383789539337,-0.001906558871269226,-0.010325431823730469,-0.014874978073524175,-0.056414494398462446,-0.021218743048798304
0.011060953140258789,0.1380123794078827,9.755010604858398,0.0018755383789539337,-0.001906558871269226,-0.010325431823730469,-0.014874978073524175,-0.056414494398462446,-0.021218743048798304
0.004796590190380812,0.1477545201778412,9.76059341430664,0.006770522333681583,-0.006798580288887024,-0.0032939910888671875,-0.014874978073524175,0.0063437382948476825,0.037614518769921355
0.006272748112678528,0.1399112194776535,9.7577543258667,-0.002631331793963909,-0.0017890632152557373,0.012986183166503906,-0.014874978073524175,0.0063437382948476825,-0.021218743048798304
0.007345844060182571,0.14148011803627014,9.75509262084961,-0.00013874191790819168,-0.004191413521766663,-0.0013017654418945312,0.007154769897933806,0.0063437382948476825,-0.021218743048798304
0.007283464539796114,0.14299699664115906,9.758870124816895,-0.000045651569962501526,0.0004347860813140869,0.0010976791381835938,0.040350062893364354,0.0063437382948476825,-0.021218743048798304
0.010874611325562,0.14230529963970184,9.755154609680176,0.0024345964193344116,0.00039286911487579346,-0.0014181137084960938,-0.014874978073524175,0.0063437382948476825,-0.021218743048798304
0.013013484887778759,0.14595924317836761,9.759313583374023,0.007171218283474445,0.005073100328445435,0.0032510757446289062,-0.014874978073524175,0.0063437382948476825,-0.021218743048798304
0.013455793261528015,0.14589758217334747,9.757486343383789,0.006815708242356777,0.007298752665519714,-0.001583099365234375,-0.014874978073524175,0.006334240063033134,-0.021209244816983754
-0.0007868087850511074,0.15157486498355865,9.754908561706543,-0.004853126592934132,-0.002476051449775696,-0.008413314819335938,-0.014874978073524175,-0.012045532189206726,0.048781197712017846
-0.0007868087850511074,0.15157486498355865,9.754908561706543,-0.004853126592934132,-0.002476051449775696,-0.008413314819335938,-0.014874978073524175,-0.012045532189206726,0.048781197712017846
0.004569453187286854,0.1399112194776535,9.755461692810059,-0.002111152745783329,-0.0027251243591308594,0.005820274353027344,0.05512496268729197,0.0063437382948476825,-0.021218743048798304
0.014775185845792294,0.14015737175941467,9.766481399536133,0.007397192530333996,-0.0002015233039855957,0.015070915222167969,-0.014874978073524175,0.0063437382948476825,0.048781197712017846
0.008222436532378197,0.14062801003456116,9.759881019592285,-0.000016530044376850128,-0.004669815301895142,0.0029306411743164062,-0.014874978073524175,-0.04164973316658406,-0.021218743048798304
0.01952834241092205,0.14322946965694427,9.753252983093262,0.011595053598284721,-0.00027592480182647705,-0.00421142578125,0.014720938631441876,-0.023252178410118368,0.008377173656167749
0.01024654321372509,0.14072562754154205,9.759016990661621,0.002104758284986019,-0.002649962902069092,0.005330085754394531,0.04393799328088378,0.017530707701255872,-0.021218743048798304
0.019229914993047714,0.14420607686042786,9.756500244140625,0.004014630801975727,0.0043487101793289185,0.005297660827636719,-0.014874978073524175,0.013554577108956418,-0.021218743048798304
0.019229914993047714,0.14420607686042786,9.756500244140625,0.004014630801975727,0.0043487101793289185,0.005297660827636719,-0.014874978073524175,0.013554577108956418,-0.021218743048798304
0.0024100677110254765,0.1416882872581482,9.756634712219238,-0.0007749944925308228,-0.005329221487045288,0.009922027587890625,0.010742486842041675,0.0063437382948476825,-0.021218743048798304
0.003779857885092497,0.14667397737503052,9.761855125427246,0.001809868961572647,-0.0005760490894317627,0.000392913818359375,0.02914557778699478,0.0063437382948476825,-0.021218743048798304
0.006186737213283777,0.14304600656032562,9.75269889831543,-0.0002759834751486778,0.0015277862548828125,-0.0044765472412109375,-0.004045599752656566,0.0063437382948476825,0.048781197712017846
0.009456600993871689,0.1443045288324356,9.763681411743164,-0.000047643668949604034,0.0015088468790054321,0.0074062347412109375,0.02589818302241073,0.0063437382948476825,0.008008036616082938
0.008433502167463303,0.1399112194776535,9.750736236572266,-0.002611984498798847,-0.0030530542135238647,-0.006641387939453125,-0.014874978073524175,0.0063437382948476825,0.026417143997199473
0.011851142160594463,0.1340380609035492,9.75057601928711,-0.0002709683030843735,-0.016934171319007874,-0.0038852691650390625,-0.014874978073524175,0.07237683325176736,-0.021218743048798304
0.011851142160594463,0.1340380609035492,9.75057601928711,-0.0002709683030843735,-0.016934171319007874,-0.0038852691650390625,-0.014874978073524175,0.07237683325176736,-0.021218743048798304
0.007963689044117928,0.14498403668403625,9.756214141845703,-0.0025645075365900993,-0.0025761276483535767,0.007964134216308594,-0.014874978073524175,0.0063437382948476825,-0.021218743048798304
0.016576379537582397,0.13623428344726562,9.7477388381958,0.0020580682903528214,-0.0025177747011184692,-0.0013942718505859375,-0.014874978073524175,0.0063437382948476825,0.011623754667745215
0.007481744047254324,0.14469940960407257,9.764668464660645,-0.002884575165808201,0.00234319269657135,0.008252143859863281,0.0038801544282688746,0.0063437382948476825,-0.002463603876898642
0.0027945884503424168,0.14172561466693878,9.765323638916016,-0.0027719875797629356,-0.0000661313533782959,0.010128021240234375,-0.014874978073524175,0.0063437382948476825,0.030731435654480672
0.015350226312875748,0.14459963142871857,9.773945808410645,0.0070974091067910194,0.0023764073848724365,0.016750335693359375,-0.014874978073524175,0.0063437382948476825,0.01232239497443025
0.013489250093698502,0.14402025938034058,9.745838165283203,0.009333767928183079,0.0023574233055114746,-0.013844490051269531,-0.014874978073524175,-0.008800138456606077,-0.021218743048798304
0.008890112861990929,0.14208205044269562,9.750304222106934,-0.0026007546111941338,0.0022960156202316284,-0.006295204162597656,0.05185983877933498,0.0030786143868906887,-0.021218743048798304
0.008890112861990929,0.14208205044269562,9.750304222106934,-0.0026007546111941338,0.0022960156202316284,-0.006295204162597656,0.05185983877933498,0.0030786143868906887,-0.021218743048798304
0.004225397482514381,0.15306223928928375,9.749470710754395,-0.000177689827978611,-0.004636511206626892,0.012606620788574219,-0.014874978073524175,0.0063437382948476825,0.027116758139449765
0.009455318562686443,0.1415024846792221,9.751078605651855,-0.002345409244298935,-0.002569034695625305,-0.013106346130371094,0.015056324932073303,0.0063437382948476825,0.018849894706420366
0.011017858050763607,0.13897082209587097,9.761312484741211,0.011638632044196129,-0.00721268355846405,0.0059108734130859375,0.048252231577312094,0.0063437382948476825,-0.014346011938818423
0.01658128947019577,0.14815805852413177,9.763339042663574,0.00933920033276081,0.006827980279922485,0.0079803466796875,0.01040675369586646,0.0063437382948476825,0.02349946594262721
0.004175503738224506,0.1420084536075592,9.757189750671387,-0.004797106608748436,-0.0002235323190689087,0.0008182525634765625,-0.014874978073524175,0.0063437382948476825,0.048781197712017846
0.012143509462475777,0.13659070432186127,9.756945610046387,0.007058288902044296,-0.004625886678695679,-0.0016183853149414062,-0.014874978073524175,0.0063437382948476825,0.040869117249645655
0.012143509462475777,0.13659070432186127,9.756945610046387,0.007058288902044296,-0.004625886678695679,-0.0016183853149414062,-0.014874978073524175,0.0063437382948476825,0.040869117249645655
0.0071111214347183704,0.1470935195684433,9.758445739746094,-0.00013981293886899948,0.0047258734703063965,0.0077800750732421875,-0.014874978073524175,-0.05317020790355928,-0.021218743048798304
0.0014845579862594604,0.1431463360786438,9.762274742126465,-0.00700825359672308,0.004836782813072205,0.0054798126220703125,-0.014874978073524175,-0.034764128750844295,-0.021218743048798304
0.00702830171212554,0.14079423248767853,9.75584888458252,0.0027053318917751312,-0.009217828512191772,0.0028524398803710938,-0.014874978073524175,0.0063437382948476825,0.0014854861031984373
0.009631562046706676,0.1480582356452942,9.763954162597656,0.0027719298377633095,0.007130861282348633,0.00754547119140625,-0.000770717478727181,0.0063437382948476825,-0.021218743048798304
0.011060953140258789,0.1424761712551117,9.764155387878418,0.0027686040848493576,-0.00017784535884857178,0.007197380065917969,0.02262332075880118,0.0063437382948476825,0.016279555783527053
0.00366116501390934,0.1415436714887619,9.763253211975098,-0.006785431876778603,-0.00257834792137146,0.009518623352050781,-0.014874978073524175,-0.012745426475934692,-0.002129578278015929
0.00366116501390934,0.1415436714887619,9.763253211975098,-0.006785431876778603,-0.00257834792137146,0.009518623352050781,-0.014874978073524175,-0.012745426475934692,-0.002129578278015929
0.013360613957047462,0.14357319474220276,9.758707046508789,0.0001373523846268654,0.0044810473918914795,0.0022754669189453125,-0.014182994533237259,0.0063437382948476825,-0.021218743048798304
0.006349198520183563,0.14933472871780396,9.759766578674316,0.002218085341155529,-0.0027471333742141724,-0.0046367645263671875,0.0028409318079021784,0.0063437382948476825,0.031065287830591492
0.00682555977255106,0.13806992769241333,9.762389183044434,0.01155549194663763,0.00872129201889038,-0.006903648376464844,0.05512496268729197,0.0063437382948476825,-0.021218743048798304
0.01086081750690937,0.14210517704486847,9.761577606201172,-0.00017746351659297943,-0.00283069908618927,0.009314537048339844,-0.014874978073524175,0.0063437382948476825,-0.021218743048798304
0.015381455421447754,0.14324069023132324,9.76565933227539,0.006487301550805569,-0.0004308074712753296,0.009127616882324219,-0.014874978073524175,-0.06365620246596847,-0.021218743048798304
0.011222845874726772,0.1470935195684433,9.764345169067383,0.0014510191977024078,0.004165247082710266,0.006493568420410156,-0.014874978073524175,-0.023922724227756438,-0.021218743048798304
0.011914095841348171,0.13830825686454773,9.751886367797852,0.00869844201952219,-0.005244046449661255,-0.007567405700683594,-0.003005903554720465,0.0063437382948476825,-0.021218743048798304
0.011914095841348171,0.13830825686454773,9.751886367797852,0.00869844201952219,-0.005244046449661255,-0.007567405700683594,-0.003005903554720465,0.0063437382948476825,-0.021218743048798304
0.011060953140258789,0.13849054276943207,9.75269889831543,0.0014539342373609543,-0.0025826096534729004,-0.004889488220214844,-0.008335625562085707,0.0063437382948476825,-0.021218743048798304
0.007414175197482109,0.13455231487751007,9.754236221313477,0.006307315081357956,-0.011769548058509827,-0.009534835815429688,-0.014874978073524175,0.0063437382948476825,-0.021218743048798304
0.016413623467087746,0.1399112194776535,9.76114559173584,0.003912066109478474,-0.0018970519304275513,0.009413719177246094,-0.014874978073524175,0.0063437382948476825,0.048781197712017846
0.007816888391971588,0.1359729766845703,9.75509262084961,-0.0011771051213145256,-0.006401777267456055,-0.0024805068969726562,-0.014874978073524175,-0.05350899595856249,-0.021218743048798304
0.004980634432286024,0.14079280197620392,9.762495040893555,-0.005682319402694702,-0.001633286476135254,0.004639625549316406,0.05512496268729197,0.0063437382948476825,-0.021218743048798304
0.007908162660896778,0.13956138491630554,9.760698318481445,-0.003347436897456646,-0.004191502928733826,0.0019941329956054688,0.03207855706613346,0.0063437382948476825,0.025734792090859333
0.010743672959506512,0.14167076349258423,9.759563446044922,-0.0011207731440663338,-0.004282072186470032,-0.000507354736328125,0.050487757828742555,0.0017065334362982639,-0.021218743048798304
0.010743672959506512,0.14167076349258423,9.759563446044922,-0.0011207731440663338,-0.004282072186470032,-0.000507354736328125,0.050487757828742555,0.0017065334362982639,-0.021218743048798304
0.01324004027992487,0.1384584903717041,9.756330490112305,0.008207214996218681,-0.006393179297447205,0.0066318511962890625,-0.014874978073524175,-0.007417438696288398,-0.021218743048798304
0.012389998883008957,0.1510806679725647,9.759615898132324,-0.001014729030430317,-0.0015532821416854858,0.008723258972167969,-0.014874978073524175,0.0063437382948476825,-0.021218743048798304
0.01359574869275093,0.14353753626346588,9.761324882507324,-0.00106760673224926,0.0005180239677429199,-0.005459785461425781,-0.06544585877085726,0.0063437382948476825,-0.021218743048798304
0.0026899236254394054,0.1363450288772583,9.756298065185547,-0.00822968315333128,-0.008838847279548645,-0.0032863616943359375,-0.014874978073524175,0.0063437382948476825,-0.021218743048798304
0.015742935240268707,0.13762332499027252,9.757513046264648,0.006078279577195644,-0.004040822386741638,-0.0009088516235351562,-0.014874978073524175,0.0063437382948476825,-0.021218743048798304
0.005190938711166382,0.1464373767375946,9.755748748779297,-0.005679503083229065,0.005343645811080933,-0.0031871795654296875,-0.014874978073524175,0.0063437382948476825,-0.005404080355868468
0.005190938711166382,0.1464373767375946,9.755748748779297,-0.005679503083229065,0.005343645811080933,-0.0031871795654296875,-0.014874978073524175,0.0063437382948476825,-0.005404080355868468
0.015847397968173027,0.13895462453365326,9.75222110748291,-0.01013365387916565,0.000722154974937439,-0.0007495880126953125,0.03413481753227753,0.0063437382948476825,-0.00022859789378386426
0.013004380278289318,0.14469940960407257,9.76661205291748,-0.0030921045690774918,0.0029667317867279053,0.0018157958984375,0.03413481753227753,0.0063437382948476825,-0.00022859789378386426
0.014234662055969238,0.13267365097999573,9.754258155822754,0.006322674453258514,-0.004243239760398865,-0.000804901123046875,0.02451747095386323,0.036951230028276424,-0.021218743048798304
0.008954248391091824,0.138077974319458,9.764244079589844,0.006061801686882973,-0.0062059760093688965,0.004024505615234375,-0.008673299709284824,0.0063437382948476825,-0.021218743048798304
0.009733964689075947,0.13893993198871613,9.761303901672363,-0.0007828418165445328,-0.0036856234073638916,0.0013475418090820312,-0.014874978073524175,0.0063437382948476825,0.048781197712017846
0.007368278689682484,0.13861264288425446,9.756735801696777,-0.003351888619363308,-0.0036957859992980957,-0.0036401748657226562,-0.014874978073524175,-0.020648008706492336,-0.021218743048798304
0.006860553286969662,0.14320845901966095,9.757529258728027,-0.0007551731541752815,0.0010144561529159546,-0.00848388671875,-0.014874978073524175,0.0063437382948476825,-0.021218743048798304
0.012783810496330261,0.1399112194776535,9.762274742126465,0.006223618984222412,-0.0013686120510101318,0.0032958984375,-0.014874978073524175,0.0063437382948476825,0.038967229730914446
0.012783810496330261,0.1399112194776535,9.762274742126465,0.006223618984222412,-0.0013686120510101318,0.0032958984375,-0.014874978073524175,0.0063437382948476825,0.038967229730914446
0.009858891367912292,0.14349734783172607,9.762274742126465,0.0059862639755010605,0.007887452840805054,0.0032453536987304688,0.013339412809887794,0.0063437382948476825,-0.021218743048798304
-0.0056977421045303345,0.13649030029773712,9.76090145111084,-0.015076877549290657,-0.006269633769989014,-0.0062427520751953125,0.03174238369292189,-0.04027362347159839,-0.021218743048798304
0.013455048203468323,0.14304327964782715,9.762454986572266,0.0045003388077020645,0.0009273886680603027,0.005349159240722656,0.04170326744224668,0.06292198381061855,-0.007797047803753013
0.006381145678460598,0.14676833152770996,9.750738143920898,-0.00270815659314394,0.005513697862625122,-0.008715629577636719,-0.014874978073524175,0.0063437382948476825,-0.021218743048798304
0.003047107718884945,0.14365771412849426,9.767374038696289,-0.007258801721036434,0.003124535083770752,0.010125160217285156,-0.014874978073524175,0.0063437382948476825,-0.021218743048798304
0.009910551831126213,0.14690691232681274,9.758637428283691,0.002272943966090679,0.00047853589057922363,-0.0018100738525390625,-0.014874978073524175,0.0063437382948476825,0.048781197712017846
0.009910551831126213,0.14690691232681274,9.758637428283691,0.002272943966090679,0.00047853589057922363,-0.0018100738525390625,-0.014874978073524175,0.0063437382948476825,0.048781197712017846
0.008651762269437313,0.14230529963970184,9.762274742126465,-0.002422899007797241,0.0002403557300567627,0.0026865005493164062,-0.014874978073524175,0.0063437382948476825,-0.004182783835332008
0.007377808913588524,0.1354909986257553,9.763839721679688,-0.0046647535637021065,0.007364898920059204,-0.004445075988769531,-0.049433987705856525,0.0063437382948476825,0.048781197712017846
0.009281416423618793,0.14072416722774506,9.757025718688965,0.00944473221898079,-0.006440192461013794,-0.009180068969726562,-0.014874978073524175,0.0063437382948476825,0.048781197712017846
0.005291377194225788,0.14285534620285034,9.74846076965332,-0.002172602340579033,-0.0018170475959777832,-0.013718605041503906,0.005778673543161354,0.0063437382948476825,-0.021218743048798304
0.010506699793040752,0.1429981142282486,9.757624626159668,0.002750200219452381,0.00026880204677581787,-0.0017185211181640625,-0.014874978073524175,0.0063437382948476825,0.017832249880941356
0.00798843801021576,0.13503330945968628,9.755002975463867,0.0028789974749088287,-0.009053230285644531,-0.006342887878417969,0.04258480207221468,0.0063437382948476825,-0.021218743048798304
0.011862487532198429,0.14429864287376404,9.763075828552246,-0.001935887150466442,0.005196362733840942,-0.0017290115356445312,-0.014874978073524175,0.07048615151214321,-0.021218743048798304
0.011862487532198429,0.14429864287376404,9.763075828552246,-0.001935887150466442,0.005196362733840942,-0.0017290115356445312,-0.014874978073524175,0.07048615151214321,-0.021218743048798304
0.017194371670484543,0.13751710951328278,9.756961822509766,0.0005170395597815514,-0.004330888390541077,-0.006546974182128906,0.03086058225868945,0.0063437382948476825,0.048781197712017846
0.010780244134366512,0.13840872049331665,9.75448226928711,-0.002079843543469906,-0.0019386112689971924,-0.0016613006591796875,0.012457731437574351,0.0063437382948476825,0.006113966462300223
0.012158806435763836,0.13903822004795074,9.759007453918457,0.00018858164548873901,-0.001721218228340149,0.0008869171142578125,-0.014874978073524175,0.0063437382948476825,-0.021218743048798304
0.010329803451895714,0.14230529963970184,9.753186225891113,0.00215835589915514,0.0007007420063018799,-0.0060787200927734375,0.027251374231079838,-0.02152985016136445,0.02090760925580571
0.00990334153175354,0.13628064095973969,9.763510704040527,0.002253349870443344,-0.006384983658790588,0.005763053894042969,0.008842266849963304,0.0063437382948476825,0.025063952788530366
0.0069241002202034,0.13374407589435577,9.761911392211914,-0.004832044243812561,-0.008424386382102966,0.00079345703125,0.0498049256747264,0.0063437382948476825,-0.021218743048798304
0.0069241002202034,0.13374407589435577,9.761911392211914,-0.004832044243812561,-0.008424386382102966,0.00079345703125,0.0498049256747264,0.0063437382948476825,-0.021218743048798304
0.010311512276530266,0.14141009747982025,9.75284481048584,-0.00008687283843755722,0.003419652581214905,-0.010758399963378906,0.04203675943260049,0.0063437382948476825,-0.021218743048798304
0.01258895918726921,0.14556550979614258,9.751832008361816,0.009184473194181919,-0.001228928565979004,-0.0012464523315429688,-0.014874978073524175,0.0063437382948476825,0.01027043005694388
0.017104443162679672,0.14481589198112488,9.766714096069336,0.006566963158547878,0.0010186582803726196,0.015309333801269531,0.0350166323067232,0.0063437382948476825,-0.0011104126682295338
0.011686937883496284,0.13762696087360382,9.76279067993164,0.0015065902844071388,-0.006102576851844788,0.005547523498535156,-0.014874978073524175,0.0063437382948476825,0.032085013729333235
0.00867405068129301,0.1351374238729477,9.750314712524414,-0.0009473580867052078,-0.005980342626571655,-0.008527755737304688,-0.014874978073524175,0.0063437382948476825,-0.021218743048798304
-0.0002766965189948678,0.14456212520599365,9.7603759765625,-0.01021038182079792,0.0059671550989151,0.003448486328125,-0.014874978073524175,-0.06365620246596847,-0.021218743048798304
-0.0002766965189948678,0.14456212520599365,9.7603759765625,-0.01021038182079792,0.0059671550989151,0.003448486328125,-0.014874978073524175,0.004432085740037474,-0.021218743048798304
0.0027469478081911802,0.1379091441631317,9.753829956054688,-0.007433513179421425,-0.010652855038642883,-0.0034637451171875,-0.014874978073524175,0.004432085740037474,-0.021218743048798304
0.008793927729129791,0.1372629553079605,9.764541625976562,0.0018720021471381187,-0.007888972759246826,0.0036439895629882812,0.005435763362272335,-0.04334546103017196,0.048781197712017846
0.016730211675167084,0.1383981853723526,9.762149810791016,0.004180933348834515,-0.00521184504032135,0.00803375244140625,-0.014874978073524175,0.0063437382948476825,-0.021218743048798304
0.007027987856417894,0.14406879246234894,9.76051139831543,0.0015142261981964111,0.006517782807350159,-0.0015211105346679688,0.04960579631195144,0.0063437382948476825,0.04326203133667731
-0.0005308552063070238,0.13588041067123413,9.758243560791016,-0.009928877465426922,-0.0053478628396987915,-0.0016307830810546875,0.031196808992753903,0.0063437382948476825,0.024853044017479776
0.00791517086327076,0.14419828355312347,9.762274742126465,-0.00012153852730989456,0.004172921180725098,0.0029850006103515625,-0.014874978073524175,0.0063437382948476825,0.048781197712017846
0.012716294266283512,0.13600313663482666,9.768964767456055,0.01191222295165062,-0.005125463008880615,0.014524459838867188,-0.014874978073524175,0.015609396832072442,0.039515539174793085
0.012716294266283512,0.13600313663482666,9.768964767456055,0.01191222295165062,-0.005125463008880615,0.014524459838867188,-0.014874978073524175,0.015609396832072442,0.039515539174793085
0.012935245409607887,0.14948762953281403,9.754727363586426,-0.004843083210289478,0.008668527007102966,0.0027379989624023438,-0.014874978073524175,0.07634367905566383,0.03964888794616701
0.024302886798977852,0.14544785022735596,9.762274742126465,0.009537966921925545,0.008455321192741394,0.0027189254760742188,0.05512496268729197,0.0063437382948476825,0.006319872653392306
0.014688382856547832,0.14608992636203766,9.76667594909668,0.013494359329342842,0.0034017413854599,0.009554862976074219,-0.014874978073524175,0.0063437382948476825,0.0028391708997567845
-0.00014855264453217387,0.1486154943704605,9.764018058776855,-0.010113677009940147,0.0054137855768203735,0.006832122802734375,0.042374280167347546,0.0063437382948476825,-0.008468060528853875
-0.0007778153521940112,0.1440407633781433,9.76001262664795,-0.009603440761566162,0.0027068406343460083,-0.0002651214599609375,-0.014874978073524175,0.0063437382948476825,-0.021218743048798304
0.018550710752606392,0.14031386375427246,9.749001502990723,0.014153260737657547,0.0006008744239807129,-0.014280319213867188,-0.014874978073524175,0.0063437382948476825,0.028338454866382905
0.005005799233913422,0.14483922719955444,9.758474349975586,-0.004771063104271889,0.005158603191375732,-0.004639625549316406,-0.012829423128491304,0.0063437382948476825,-0.01917318143365882
0.005005799233913422,0.14483922719955444,9.758474349975586,-0.004771063104271889,0.005158603191375732,-0.004639625549316406,-0.012829423128491304,0.0063437382948476825,-0.01917318143365882
0.009304312989115715,0.1400669515132904,9.756367683410645,0.0023630643263459206,0.005073130130767822,0.000270843505859375,0.05512496268729197,0.0063437382948476825,0.048781197712017846
0.006894068792462349,0.14585086703300476,9.766350746154785,-0.000008491799235343933,0.00038048624992370605,-0.0019426345825195312,-0.014874978073524175,0.0063437382948476825,-0.021218743048798304
0.005344488192349672,0.14426937699317932,9.763310432434082,0.0024018846452236176,-0.006705686450004578,0.00016880035400390625,-0.014874978073524175,0.0063437382948476825,0.048781197712017846
0.01294105127453804,0.14281930029392242,9.749966621398926,0.004938818514347076,-0.00004537403583526611,-0.011670112609863281,0.05512496268729197,0.0063437382948476825,0.048781197712017846
0.00422542542219162,0.13558538258075714,9.757486343383789,-0.004558201879262924,-0.007151797413825989,-0.0019788742065429688,0.023504762007276615,0.0063437382948476825,0.017160997032002485
0.00850728154182434,0.135708287358284,9.753283500671387,-0.002218671143054962,-0.009343147277832031,-0.008916854858398438,0.041902009938838185,0.0063437382948476825,-0.021218743048798304
0.017223529517650604,0.1409309357404709,9.749639511108398,0.006909237243235111,0.0003317594528198242,-0.013147354125976562,-0.014874978073524175,0.0063437382948476825,-0.021218743048798304
0.017223529517650604,0.1409309357404709,9.749639511108398,0.006909237243235111,0.0003317594528198242,-0.013147354125976562,-0.014874978073524175,0.0063437382948476825,-0.021218743048798304
0.008427785709500313,0.13847336173057556,9.75461483001709,-0.0026761619374156,0.005274161696434021,-0.008095741271972656,-0.014874978073524175,-0.04007066546762852,0.048781197712017846
0.0030101421289145947,0.1409911811351776,9.748355865478516,-0.007336682640016079,0.005290389060974121,-0.01709270477294922,-0.014874978073524175,-0.021666800790308496,0.020770658626861668
0.012558783404529095,0.13901494443416595,9.748498916625977,0.004656224511563778,-0.001784980297088623,-0.014151573181152344,-0.0060816631359815,0.0063437382948476825,0.048781197712017846
0.021164514124393463,0.14575999975204468,9.75641918182373,0.013795464299619198,0.005406901240348816,0.000202178955078125,-0.014874978073524175,0.0063437382948476825,0.005983525857408846
0.014398973435163498,0.13918612897396088,9.760099411010742,0.006420631892979145,-0.0015021860599517822,0.005105018615722656,-0.014874978073524175,-0.039255845243987154,0.0031816141731830097
-0.0004996529314666986,0.1437073051929474,9.752461433410645,-0.0073586320504546165,0.0032171905040740967,-0.01146697998046875,-0.014874978073524175,0.0063437382948476825,-0.021218743048798304
0.011833623051643372,0.14230529963970184,9.756790161132812,0.0044447025284171104,0.0008245259523391724,-0.006571769714355469,-0.014874978073524175,0.0063437382948476825,-0.021218743048798304
0.011833623051643372,0.14230529963970184,9.756790161132812,0.0044447025284171104,0.0008245259523391724,-0.006571769714355469,-0.014874978073524175,0.0063437382948476825,-0.021218743048798304
0.004851089790463448,0.155660480260849,9.756513595581055,-0.00017771217972040176,0.0009554028511047363,-0.0040130615234375,-0.014874978073524175,0.0063437382948476825,0.01796834673623915
0.011223895475268364,0.14725646376609802,9.75732421875,-0.00012748967856168747,0.002824738621711731,0.00305938720703125,-0.014874978073524175,-0.014439393431377191,0.048781197712017846
0.013656925410032272,0.13841134309768677,9.755987167358398,0.0020986301824450493,0.0002596229314804077,0.003021240234375,-0.014874978073524175,0.0063437382948476825,-0.021218743048798304
0.013336523436009884,0.12564538419246674,9.752817153930664,0.003965394571423531,-0.015832602977752686,-0.0037374496459960938,0.05512496268729197,-0.02807862753344474,-0.021218743048798304
0.01158030703663826,0.1393013894557953,9.754572868347168,0.006484518758952618,-0.0012763887643814087,-0.00624847412109375,-0.014874978073524175,0.0063437382948476825,-0.021218743048798304
0.018411559984087944,0.1458543837070465,9.761119842529297,0.003626949153840542,0.005693674087524414,0.0030813217163085938,-0.014874978073524175,0.0063437382948476825,-0.021218743048798304
0.018411559984087944,0.1458543837070465,9.761119842529297,0.003626949153840542,0.005693674087524414,0.0030813217163085938,-0.014874978073524175,0.0063437382948476825,-0.021218743048798304
0.010957039892673492,0.1400151252746582,9.754988670349121,-0.0011430159211158752,0.0006832033395767212,-0.0040035247802734375,0.03548867575160777,0.0063437382948476825,0.048781197712017846
0.009939289651811123,0.13566213846206665,9.767257690429688,0.007966910488903522,0.0007569789886474609,0.0054607391357421875,0.023163399291121427,-0.025617825101322864,-0.021218743048798304
0.004210161045193672,0.1388799250125885,9.76367473602295,-0.0038715405389666557,-0.0013069063425064087,0.00031280517578125,-0.014874978073524175,0.0014960115314311326,-0.021218743048798304
0.015447139739990234,0.14669150114059448,9.761873245239258,0.005801090970635414,0.005858689546585083,0.0045623779296875,-0.014874978073524175,0.0063437382948476825,-0.021218743048798304
0.004788966849446297,0.1381998360157013,9.764213562011719,-0.006069200113415718,-0.0038807839155197144,0.00670623779296875,0.05512496268729197,0.0063437382948476825,-0.021218743048798304
0.011741366237401962,0.1429857313632965,9.770817756652832,0.0034652017056941986,0.003077194094657898,0.015651702880859375,0.05512496268729197,0.0063437382948476825,-0.021218743048798304
0.011741366237401962,0.1429857313632965,9.770817756652832,0.0034652017056941986,0.003077194094657898,0.015651702880859375,0.05512496268729197,0.0063437382948476825,-0.021218743048798304
0.010232888162136078,0.1461857706308365,9.750304222106934,0.010426420718431473,0.002782374620437622,-0.007834434509277344,0.05512496268729197,0.0063437382948476825,-0.021218743048798304
0.014444993808865547,0.14090114831924438,9.748612403869629,-0.003897174261510372,-0.00907258689403534,-0.005141258239746094,-0.014874978073524175,-0.020516194059639024,-0.021218743048798304
0.006820164155215025,0.1437188982963562,9.758785247802734,0.0007337545976042747,0.0005227476358413696,-0.0070590972900390625,0.030388285349753644,0.0063437382948476825,0.024044520374479517
0.011143478564918041,0.1391269415616989,9.751873016357422,0.005674750544130802,-0.001848474144935608,-0.007061004638671875,-0.06073941820568212,0.06427593541144135,-0.021218743048798304
0.01121565978974104,0.137052983045578,9.760808944702148,0.0011190082877874374,-0.003963738679885864,0.0025072097778320312,-0.014874978073524175,0.0063437382948476825,-0.05169551403285799
0.003857262432575226,0.13993260264396667,9.766566276550293,-0.008299680426716805,0.0011492818593978882,0.006636619567871094,-0.014874978073524175,0.0063437382948476825,0.048781197712017846
0.008666850626468658,0.1399112194776535,9.759323120117188,-0.0010369457304477692,-0.0011299699544906616,-0.005428314208984375,-0.014874978073524175,0.0063437382948476825,-0.01850208866727862
0.008666850626468658,0.1399112194776535,9.759323120117188,-0.0010369457304477692,-0.0011299699544906616,-0.005428314208984375,-0.014874978073524175,0.0063437382948476825,-0.01850208866727862
0.0058606816455721855,0.14246879518032074,9.75839614868164,0.0013894997537136078,-0.010525897145271301,0.008768081665039062,-0.014874978073524175,-0.047974314915243975,-0.005536855498073813
0.00687094870954752,0.1476917266845703,9.761677742004395,-0.0009303363040089607,0.008524224162101746,-0.00567626953125,-0.014874978073524175,0.0063437382948476825,-0.021218743048798304
0.010816937312483788,0.14598797261714935,9.758896827697754,-0.007886342704296112,0.008168548345565796,0.008275985717773438,-0.014874978073524175,0.005453385783939497,-0.02032839053789012
0.00041054084431380033,0.14020216464996338,9.759634017944336,-0.007953873835504055,-0.0036762505769729614,-0.0010347366333007812,-0.014874978073524175,0.0063437382948476825,0.048781197712017846
0.01050750631839037,0.1448838859796524,9.762458801269531,0.0019423924386501312,0.003231227397918701,0.0034189224243164062,-0.014874978073524175,0.0063437382948476825,-0.021218743048798304
0.0029282020404934883,0.14660033583641052,9.762502670288086,-0.007325829938054085,0.007885381579399109,0.005688667297363281,-0.014874978073524175,0.0063437382948476825,0.034887072155904524
0.0029282020404934883,0.14660033583641052,9.762502670288086,-0.007325829938054085,0.007885381579399109,0.005688667297363281,-0.014874978073524175,0.0063437382948476825,0.034887072155904524
0.015849150717258453,0.14500756561756134,9.75269889831543,0.006672391667962074,0.0003625601530075073,-0.005934715270996094,0.05062152014672638,0.0063437382948476825,-0.021218743048798304
0.008450939320027828,0.14927171170711517,9.760313034057617,-0.00246546883136034,0.004915148019790649,0.0060272216796875,0.00803555747596133,0.0063437382948476825,0.0016917925006872012
0.01120271347463131,0.13582654297351837,9.756220817565918,0.006934565491974354,-0.00933772325515747,0.008153915405273438,-0.014874978073524175,0.0063437382948476825,-0.021218743048798304
0.009222329594194889,0.13512302935123444,9.75122356414795,0.0020029619336128235,-0.006581142544746399,-0.008131980895996094,-0.014874978073524175,-0.0017781036802379483,0.048781197712017846
0.008666850626468658,0.1333089917898178,9.754512786865234,-0.0002842191606760025,-0.008609771728515625,-0.0030946731567382812,0.011644271915681698,0.0063437382948476825,-0.021218743048798304
0.010721400380134583,0.14162619411945343,9.758522987365723,0.0020782258361577988,0.0009783953428268433,0.0018606185913085938,0.010196605316969563,0.0063437382948476825,0.023709614321524106
0.008722783997654915,0.14276176691055298,9.756573677062988,-0.0050156814977526665,0.003144294023513794,-0.00528717041015625,0.05512496268729197,0.013018113774419518,-0.021218743048798304
0.008722783997654915,0.14276176691055298,9.756573677062988,-0.0050156814977526665,0.003144294023513794,-0.00528717041015625,0.05512496268729197,0.013018113774419518,-0.021218743048798304
0.003878660500049591,0.13670770823955536,9.757486343383789,-0.004720074124634266,0.003341853618621826,-0.00047206878662109375,-0.0031410065641331686,0.01807770980423869,-0.021218743048798304
0.014381103217601776,0.14616745710372925,9.75756549835205,0.009329360909759998,0.0010717809200286865,-0.009562492370605469,-0.014874978073524175,0.0063437382948476825,-0.021218743048798304
0.013873253017663956,0.14012029767036438,9.758160591125488,-0.00034515466541051865,-0.003832802176475525,0.006931304931640625,0.006587470660532679,0.0063437382948476825,0.048781197712017846
0.011733246967196465,0.14469940960407257,9.758831024169922,0.0016523832455277443,0.003277212381362915,-0.00010776519775390625,-0.014874978073524175,-0.04831397008410666,-0.021218743048798304
0.008666850626468658,0.13982577621936798,9.762018203735352,-0.0008111195638775826,-0.0016189813613891602,0.004425048828125,0.018875921462417816,0.0063437382948476825,0.012532156487143689
0.015897151082754135,0.1441608965396881,9.760562896728516,0.008564555086195469,0.005517169833183289,0.0068988800048828125,0.002976795209468575,0.0063437382948476825,-0.021218743048798304
0.015897151082754135,0.1441608965396881,9.760562896728516,0.008564555086195469,0.005517169833183289,0.0068988800048828125,0.002976795209468575,0.0063437382948476825,-0.021218743048798304
0.00517080444842577,0.1386571079492569,9.752584457397461,-0.010312236845493317,0.0009296238422393799,0.002384185791015625,-0.014317557264014444,0.0063437382948476825,-0.021218743048798304
0.011060953140258789,0.14924535155296326,9.762113571166992,0.0015882542356848717,0.0009252429008483887,-0.00039768218994140625,-0.014874978073524175,0.0063437382948476825,-0.002262446801713833
0.0075099654495716095,0.14540961384773254,9.765115737915039,-0.010115910321474075,0.005271166563034058,0.013462066650390625,-0.014874978073524175,0.0063437382948476825,-0.021218743048798304
0.007612289395183325,0.14335986971855164,9.767547607421875,-0.0005569597706198692,0.0003304779529571533,0.003673553466796875,-0.010710143495083285,0.0063437382948476825,0.048781197712017846
0.017931310459971428,0.13709209859371185,9.763124465942383,0.013524642214179039,-0.0043609291315078735,0.0031490325927734375,-0.014874978073524175,0.0063437382948476825,-0.021218743048798304
0.011821143329143524,0.1373128741979599,9.753924369812012,0.004270019941031933,-0.004010841250419617,-0.00646209716796875,-0.014874978073524175,0.0063437382948476825,-0.021218743048798304
0.005438953638076782,0.14469940960407257,9.759881019592285,-0.0027800733223557472,0.0030443668365478516,0.0006809234619140625,-0.014874978073524175,-0.004276258709383335,-0.010598746044567287
0.005438953638076782,0.14469940960407257,9.759881019592285,-0.0027800733223557472,0.0030443668365478516,0.0006809234619140625,-0.014874978073524175,-0.004276258709383335,-0.010598746044567287
0.0028144156094640493,0.14031007885932922,9.765599250793457,-0.00008698645979166031,0.003118187189102173,0.007495880126953125,-0.014874978073524175,-0.0014341129420778922,-0.013440891811872729
0.008011060766875744,0.14817604422569275,9.750632286071777,-0.004976748488843441,-0.0015965253114700317,-0.006491661071777344,-0.014874978073524175,0.0063437382948476825,0.048781197712017846
0.007709578610956669,0.14517897367477417,9.761795043945312,-0.002378488890826702,0.0006065517663955688,0.005565643310546875,-0.014874978073524175,0.03175612411254126,-0.021218743048798304
0.010225798934698105,0.1406906694173813,9.761467933654785,0.0046907998621463776,0.0004905611276626587,0.0030622482299804688,-0.014874978073524175,0.0063437382948476825,-0.021218743048798304
0.010882905684411526,0.14930957555770874,9.762453079223633,0.0023840731009840965,0.007622465491294861,0.0029592514038085938,-0.014874978073524175,0.0063437382948476825,0.018987458985172654
0.010609411634504795,0.1412658393383026,9.753013610839844,0.002338969148695469,-0.0021024495363235474,-0.008904457092285156,0.03332788137465077,0.0063437382948476825,-0.021218743048798304
0.012990141287446022,0.1362038403749466,9.760496139526367,-0.00039957091212272644,-0.006531178951263428,-0.004214286804199219,-0.014874978073524175,-0.06025631572403595,0.045381310970085326
-0.00022577325580641627,0.13785991072654724,9.761933326721191,-0.007195421494543552,-0.008802905678749084,-0.0042400360107421875,0.04011674256409966,0.0063437382948476825,0.03377297758882553
-0.00022577325580641627,0.13785991072654724,9.761933326721191,-0.007195421494543552,-0.008802905678749084,-0.0042400360107421875,0.04011674256409966,0.0063437382948476825,0.03377297758882553
0.014030050486326218,0.1410612165927887,9.758824348449707,0.006818462163209915,0.0029971450567245483,-0.011247634887695312,0.05512496268729197,-0.06365620246596847,0.012190380224378598
0.014629799872636795,0.14350979030132294,9.759881019592285,0.0018736636266112328,0.002897694706916809,0.0006189346313476562,0.05490607646873422,0.0063437382948476825,-0.02099985683024055
0.008666850626468658,0.13680396974086761,9.772717475891113,-0.000731312669813633,-0.006460130214691162,0.016878128051757812,-0.014874978073524175,0.0063437382948476825,0.030164850118486956
0.013316508382558823,0.1469549834728241,9.769180297851562,0.003983222879469395,0.0053844451904296875,0.009424209594726562,-0.014874978073524175,0.0063437382948476825,0.015806658564996228
0.009365374222397804,0.13751710951328278,9.755391120910645,-0.0008046869188547134,-0.0040269941091537476,-0.0022134780883789062,-0.00029768685806412997,0.0063437382948476825,-0.021218743048798304
0.01132296584546566,0.13592705130577087,9.75269889831543,-0.0008706357330083847,-0.0013028085231781006,-0.006617546081542969,-0.011043321990426359,0.0063437382948476825,0.04494954162892003
0.01132296584546566,0.13592705130577087,9.75269889831543,-0.0008706357330083847,-0.0013028085231781006,-0.006617546081542969,-0.011043321990426359,0.0063437382948476825,0.04494954162892003
0.009052316658198833,0.1441212147474289,9.751267433166504,0.003871183842420578,-0.003491312265396118,0.002925872802734375,0.03289413768192852,0.0063437382948476825,-0.021218743048798304
0.009489033371210098,0.14066094160079956,9.752021789550781,0.001370355486869812,-0.003555387258529663,0.0007619857788085938,0.014490166282902716,-0.06365620246596847,0.008146401307628587
0.016282804310321808,0.14187166094779968,9.756978034973145,0.0037083700299263,0.0035394281148910522,-0.003612518310546875,-0.014874978073524175,0.0063437382948476825,-0.021218743048798304
0.014910071156919003,0.1443863809108734,9.758111953735352,0.005658137612044811,0.003586128354072571,-0.001216888427734375,-0.014874978073524175,0.0063437382948476825,0.004629187390402588
0.0045111034996807575,0.13814955949783325,9.758118629455566,-0.006184738129377365,-0.0034818053245544434,-0.0012798309326171875,-0.014874978073524175,-0.03790150677698089,0.004535952640189269
0.018745774403214455,0.14419688284397125,9.759378433227539,0.010141663253307343,0.0010410845279693604,-0.0013380050659179688,-0.007529483147145697,0.0063437382948476825,0.048781197712017846
0.018745774403214455,0.14419688284397125,9.759378433227539,0.010141663253307343,0.0010410845279693604,-0.0013380050659179688,-0.007529483147145697,0.0063437382948476825,0.048781197712017846
0.01660526543855667,0.14073020219802856,9.758179664611816,0.0025791004300117493,0.0010953545570373535,-0.008376121520996094,-0.0038223379441617742,-0.052603569006712675,0.048781197712017846
0.004758445080369711,0.14841319620609283,9.755778312683105,-0.002002585679292679,0.012611746788024902,0.010446548461914062,0.025666343456813755,0.0063437382948476825,-0.021218743048798304
0.007342000957578421,0.14337456226348877,9.765993118286133,-0.001742732711136341,0.0026316046714782715,0.005672454833984375,0.007262612181625961,0.0063437382948476825,-0.021218743048798304
0.012064391747117043,0.13882866501808167,9.761579513549805,0.0030918149277567863,0.0001599341630935669,0.0029706954956054688,0.0404544900824715,0.0063437382948476825,0.03411072510719737
0.011193097569048405,0.154011532664299,9.764140129089355,0.000744994729757309,0.012050896883010864,0.005200386047363281,0.018192875864990098,0.0063437382948476825,-0.021218743048798304
0.008526814170181751,0.14836059510707855,9.758330345153809,-0.00406267773360014,0.007040917873382568,0.00310516357421875,-0.014874978073524175,0.0063437382948476825,0.048781197712017846
0.007474042940884829,0.1399281919002533,9.76224136352539,-0.003940883092582226,-0.007096543908119202,0.012330055236816406,-0.014874978073524175,0.0063437382948476825,0.048781197712017846
0.007474042940884829,0.1399281919002533,9.76224136352539,-0.0014932453632354736,0.00243455171585083,-0.006632804870605469,-0.014874978073524175,0.0063437382948476825,0.048655412841541186
0.008609259501099586,0.14236289262771606,9.767062187194824,-0.0036551663652062416,0.002193152904510498,0.007437705993652344,0.03684289415669503,0.0063437382948476825,-0.021218743048798304
0.0028585349209606647,0.13922423124313354,9.756799697875977,-0.0036131618544459343,-0.005017727613449097,-0.004605293273925781,0.05512496268729197,0.0063437382948476825,0.048781197712017846
0.01656573824584484,0.14469940960407257,9.760719299316406,0.013026501052081585,0.0021107345819473267,-0.0020895004272460938,0.051631587731094906,0.0063437382948476825,0.04528782275582078
0.003878660500049591,0.1403595507144928,9.761378288269043,-0.005899128504097462,-0.0027216672897338867,0.0024871826171875,0.007015578113168351,0.0063437382948476825,-0.021218743048798304
0.0060915034264326096,0.14230529963970184,9.755273818969727,-0.003335665911436081,-0.0002630949020385742,-0.004502296447753906,-0.014874978073524175,-0.03395577853061593,-0.021218743048798304
0.009439938701689243,0.13755454123020172,9.75744915008545,0.0015199165791273117,-0.007292822003364563,0.00046539306640625,0.04382177334328779,0.0063437382948476825,0.048781197712017846
0.009439938701689243,0.13755454123020172,9.75744915008545,0.0015199165791273117,-0.007292822003364563,0.00046539306640625,0.04382177334328779,0.0063437382948476825,0.048781197712017846
0.007226814981549978,0.14565348625183105,9.756532669067383,-0.0007423721253871918,0.004532709717750549,-0.004151344299316406,-0.014874978073524175,0.0063437382948476825,0.048781197712017846
0.008971571922302246,0.13873599469661713,9.759575843811035,0.0014030206948518753,0.004481643438339233,-0.0017251968383789062,0.029619475521517308,0.0063437382948476825,0.02327571054624318
0.0009588170796632767,0.1452251523733139,9.763734817504883,-0.005572752095758915,-0.00011382997035980225,0.002960205078125,-0.014874978073524175,-0.03756529338312966,0.022690288629179038
0.009497448801994324,0.14303821325302124,9.770288467407227,-0.00046374741941690445,0.0021373480558395386,0.009716987609863281,-0.014874978073524175,0.0063437382948476825,0.03806777919458839
0.010658894665539265,0.13612817227840424,9.753301620483398,0.0018438789993524551,-0.007333517074584961,-0.007171630859375,0.05512496268729197,0.0063437382948476825,0.007903689468255126
0.012170422822237015,0.14316171407699585,9.759881019592285,0.004109394736588001,-0.0003369450569152832,0.000011444091796875,0.007605602403794316,-0.016136842182470808,-0.021218743048798304
0.015849150717258453,0.14497798681259155,9.761495590209961,0.006168074905872345,0.004275143146514893,0.004730224609375,0.051053596312795796,0.0063437382948476825,-0.021218743048798304
0.015849150717258453,0.14497798681259155,9.761495590209961,0.006168074905872345,0.004275143146514893,0.004730224609375,0.051053596312795796,0.0063437382948476825,-0.021218743048798304
0.007413704879581928,0.15242783725261688,9.760860443115234,0.006174294278025627,-0.0009375512599945068,-0.0024461746215820312,-0.014874978073524175,0.0063437382948476825,-0.021218743048798304
0.002036436228081584,0.13806898891925812,9.75730037689209,-0.005953873507678509,-0.0034258365631103516,0.004347801208496094,0.01785750290457189,-0.030923721487872396,-0.021218743048798304
0.009942987933754921,0.1434549242258072,9.755029678344727,-0.005651918239891529,0.0038559287786483765,-0.000286102294921875,-0.014874978073524175,-0.012519443263942474,-0.0023555614900081477
0.003234549891203642,0.13803967833518982,9.76052474975586,-0.008083529770374298,-0.007752776145935059,0.002315521240234375,-0.014874978073524175,-0.045711227783295456,-0.021218743048798304
0.01336321048438549,0.13770078122615814,9.748047828674316,0.0038209715858101845,-0.005277007818222046,-0.011582374572753906,-0.014874978073524175,0.0063437382948476825,0.048781197712017846
0.007315843366086483,0.14605042338371277,9.7605562210083,-0.0007640812546014786,0.0017181634902954102,0.00030231475830078125,-0.014874978073524175,0.0063437382948476825,-0.021218743048798304
0.007315843366086483,0.14605042338371277,9.7605562210083,-0.0007640812546014786,0.0017181634902954102,0.00030231475830078125,-0.014874978073524175,0.0063437382948476825,-0.021218743048798304
0.007577546872198582,0.14752449095249176,9.757271766662598,-0.0030306056141853333,-0.0008508861064910889,0.000415802001953125,-0.014874978073524175,0.0063437382948476825,-0.021218743048798304
0.010721800848841667,0.13957206904888153,9.75937271118164,-0.003066299483180046,-0.007701024413108826,-0.0063934326171875,0.033569045749290406,-0.042100285527966894,0.048781197712017846
0.016645321622490883,0.14868584275245667,9.771049499511719,0.00386632326990366,-0.0005983710289001465,0.005401611328125,0.05512496268729197,-0.06365620246596847,0.048781197712017846
0.00723838247358799,0.1547386348247528,9.759881019592285,-0.0034367330372333527,0.013187944889068604,0.0001926422119140625,-0.014874978073524175,0.0063437382948476825,-0.021218743048798304
0.008330496959388256,0.136508047580719,9.762947082519531,-0.0009646574035286903,-0.005979448556900024,0.0025091171264648438,-0.014874978073524175,0.0063437382948476825,-0.021218743048798304
0.012575346976518631,0.14504088461399078,9.762861251831055,0.0037191640585660934,0.0038991421461105347,0.0022420883178710938,-0.014874978073524175,-0.03723028060846847,0.022355275854517846
0.003878660500049591,0.1404602974653244,9.75840950012207,-0.0056283557787537575,-0.0006644129753112793,-0.002471923828125,-0.014874978073524175,-0.0016849623115171885,-0.013190042442433433
0.007956905290484428,0.14540936052799225,9.755802154541016,0.001617339439690113,-0.0007106512784957886,-0.006991386413574219,-0.014874978073524175,-0.00403601480945607,-0.01083898994449455
0.007956905290484428,0.14540936052799225,9.755802154541016,0.001617339439690113,-0.0007106512784957886,-0.006991386413574219,-0.014874978073524175,-0.00403601480945607,-0.01083898994449455
0.009606312960386276,0.14230529963970184,9.759881019592285,0.015385869890451431,-0.0006251782178878784,0.00037479400634765625,-0.014874978073524175,0.0063437382948476825,0.0075615263393065775
0.014802984893321991,0.13886505365371704,9.759881019592285,0.00344146229326725,-0.0051994770765304565,0.00035381317138671875,-0.014874978073524175,0.0063437382948476825,-0.021218743048798304
0.008428615517914295,0.13895435631275177,9.756529808044434,-0.003775295801460743,-0.0049326419830322266,-0.004321098327636719,-0.014874978073524175,0.0063437382948476825,0.03479366398291931
0.0017516908701509237,0.14700447022914886,9.753144264221191,-0.008398354984819889,0.004345983266830444,-0.006539344787597656,0.05512496268729197,0.0063437382948476825,0.01117781802013743
0.004959064535796642,0.13357603549957275,9.760961532592773,-0.005785411223769188,-0.012074008584022522,0.0004787445068359375,-0.014874978073524175,0.0063437382948476825,-0.002012637968905906
0.008612253703176975,0.13863226771354675,9.756208419799805,-0.003425334580242634,-0.007033869624137878,-0.006529808044433594,-0.014874978073524175,-0.06285933816932483,0.048781197712017846
0.011060953140258789,0.14290031790733337,9.761098861694336,-0.003425334580242634,-0.007033869624137878,-0.006529808044433594,-0.014874978073524175,-0.06285933816932483,0.048781197712017846
-0.000737345777451992,0.14469940960407257,9.757383346557617,0.0012009385973215103,0.0025144219398498535,-0.008823394775390625,-0.014874978073524175,-0.04605436474780926,-0.003616905330639096
0.000820681918412447,0.13910628855228424,9.759477615356445,-0.010158737190067768,0.007078438997268677,0.005431175231933594,-0.014874978073524175,0.0063437382948476825,-0.021218743048798304
-0.0011018719524145126,0.14580029249191284,9.762274742126465,-0.011975245550274849,0.0024700164794921875,0.0030002593994140625,-0.014874978073524175,0.0063437382948476825,0.045970694930476605
0.0052926987409591675,0.14179660379886627,9.76278305053711,-0.004448077641427517,-0.0024465173482894897,0.005164146423339844,0.0063441118208179175,0.0063437382948476825,0.048781197712017846
0.011060953140258789,0.1383066326379776,9.75509262084961,0.002603701315820217,-0.004852071404457092,-0.004169464111328125,-0.014874978073524175,0.0063437382948476825,0.01839768815859792
0.011060953140258789,0.14706185460090637,9.759093284606934,0.0024819141253829002,0.0020551681518554688,0.0006504058837890625,-0.014874978073524175,0.0063437382948476825,-0.021218743048798304
0.011060953140258789,0.14706185460090637,9.759093284606934,0.0024819141253829002,0.0020551681518554688,0.0006504058837890625,-0.014874978073524175,0.0063437382948476825,-0.021218743048798304
0.007689537014812231,0.13981285691261292,9.759881019592285,-0.0022253328934311867,-0.009648755192756653,0.0006151199340820312,-0.014874978073524175,0.0063437382948476825,0.042357805004017535
0.01683538779616356,0.13723553717136383,9.761429786682129,-0.002344389446079731,-0.007133737206459045,-0.004202842712402344,-0.014874978073524175,0.0063437382948476825,0.023951032160214967
0.011399708688259125,0.14378845691680908,9.756003379821777,0.006898563355207443,0.00022183358669281006,-0.0018396377563476562,-0.014874978073524175,0.033110555961040074,0.048781197712017846
0.0071263848803937435,0.13735030591487885,9.762274742126465,-0.002574949525296688,-0.002136021852493286,0.0029811859130859375,-0.014874978073524175,0.0063437382948476825,-0.021218743048798304
0.010836586356163025,0.14402630925178528,9.750977516174316,0.002177506685256958,0.002765476703643799,-0.008819580078125,0.02668554908723982,0.0063437382948476825,-0.021218743048798304
0.008666850626468658,0.12956154346466064,9.76146411895752,-0.00018388498574495316,-0.01343873143196106,0.0031080245971679688,-0.014874978073524175,0.0063437382948476825,-0.021218743048798304
0.008666850626468658,0.14295557141304016,9.751723289489746,-0.0001529725268483162,0.00570620596408844,-0.0132904052734375,-0.014874978073524175,0.0063437382948476825,-0.021218743048798304
0.008666850626468658,0.14295557141304016,9.751723289489746,-0.0001529725268483162,0.00570620596408844,-0.0132904052734375,-0.014874978073524175,0.0063437382948476825,-0.021218743048798304
0.009600747376680374,0.14011500775814056,9.758946418762207,-0.0025176191702485085,-0.006176561117172241,0.0034074783325195312,0.041471361175583595,0.0063437382948476825,-0.021218743048798304
0.011838950216770172,0.14096859097480774,9.761466979980469,0.013737198896706104,0.0031491070985794067,0.007811546325683594,-0.014874978073524175,0.0063437382948476825,0.048781197712017846
0.0074309115298092365,0.1470935195684433,9.756173133850098,-0.0005737505853176117,0.0053720176219940186,0.0005970001220703125,0.05512496268729197,0.0063437382948476825,0.048781197712017846
