Accelerometer_Gx,Accelerometer_Gy,Accelerometer_Gz,Accelerometer_X,Accelerometer_Y,Accelerometer_Z,Gyroscope_Z,Gyroscope_X,Gyroscope_Y
0.12423034012317657,-0.04435976967215538,9.944690704345703,0.005499999970197678,-0.003399999812245369,0.12799999117851257,0.024000000747902123,0.0429999995335041,0.03999999902313467
0.12083057314157486,-0.052931010723114014,9.94607925415039,0.00559999980032444,-0.013299999758601189,0.12799999117851257,1.5049999536571637,0.09600000299160849,-0.014999999216793838
0.11620496958494186,-0.04071100801229477,9.958633422851562,0.0058999997563660145,-0.008100000210106373,0.13779999315738678,2.0759999262888216,0.05099999867112037,-0.21100000476881897
0.11644439399242401,-0.044445961713790894,9.9490385055542,0.006000000052154064,-0.013100000098347664,0.12799999117851257,0.45400000608810304,-0.13300000483942703,0.02899999937514897
0.1227555051445961,-0.03438073769211769,9.95193099975586,0.00559999980032444,-0.004699999932199717,0.13779999315738678,0.19000000119623298,0.03999999902313467,0.024999999806340833
0.12649045884609222,-0.05376419425010681,9.952638626098633,0.01549999974668026,-0.024799998849630356,0.13779999315738678,-1.403000043026309,0.10900000075647161,0.09500000059811649
0.12407711148262024,-0.03558741509914398,9.95238971710205,0.0058999997563660145,-0.0018999999156221747,0.13779999315738678,1.6629999449627184,-0.11299999699022645,-0.09000000197086964
0.12267889082431793,-0.030272286385297775,9.933408737182617,0.00559999980032444,-0.00699999975040555,0.11819999665021896,0.7489999851266264,-0.13400000056281244,-0.0009999999964224499
0.12802274525165558,-0.04067269712686539,9.950187683105469,0.015099999494850636,-0.01860000006854534,0.12799999117851257,-1.0770000231400663,0.1800000039417393,0.03599999945432653
0.11659762263298035,-0.03587471693754196,9.950934410095215,0.005799999926239252,-0.005499999970197678,0.13779999315738678,-0.8440000190752759,0.04200000047506539,-0.1079999983629796
0.1280514895915985,-0.04567179083824158,9.940572738647461,0.015699999406933784,-0.012999999336898327,0.11819999665021896,1.1329999970930602,-0.07900000232288394,0.12799999954207358
0.11985373497009277,-0.036478057503700256,9.939508438110352,0.005699999630451202,-0.0058999997563660145,0.11819999665021896,-1.6369999761134186,0.13300000483942703,0.10900000075647161
0.11927913129329681,-0.04462791979312897,9.957819938659668,0.006000000052154064,-0.01119999960064888,0.13779999315738678,-0.9169999603464615,-0.01700000066872456,0.03599999945432653
0.11778514832258224,-0.042214564979076385,9.958758354187012,0.006000000052154064,-0.008700000122189522,0.13779999315738678,2.1890000700213936,0.01400000015835513,-0.07900000232288394
0.11801499128341675,-0.037378277629613876,9.940035820007324,0.006000000052154064,-0.005699999630451202,0.11819999665021896,0.7429999841058874,0.1070000026395942,0.05999999686717535
0.1297178566455841,-0.03720589354634285,9.95669937133789,0.016099998727440834,-0.007400000002235174,0.13779999315738678,-0.44099999498302667,-0.0429999995335041,-0.07300000130214508
0.11779472231864929,-0.0347159244120121,9.958911895751953,0.006099999882280827,-0.006199999712407589,0.13779999315738678,1.122999959817927,-0.01700000066872456,-0.06399999977103679
0.11501745134592056,-0.049042828381061554,9.94291877746582,0.006099999882280827,-0.028699999675154686,0.12799999117851257,-0.38100001145606455,0.15399999507179982,0.09000000197086964
0.12463255971670151,-0.04566221684217453,9.958250999450684,0.016300000250339508,-0.01769999973475933,0.13779999315738678,0.9430000359174671,0.12199999852133472,-0.012000000373951061
0.1195664256811142,-0.0502399280667305,9.945111274719238,0.006799999624490738,-0.030299998819828033,0.12799999117851257,1.8270000440107177,0.18099999966512467,-0.048000001495804245
0.11262324452400208,-0.04050031676888466,9.950187683105469,-0.0023999998811632395,-0.024899998679757118,0.12799999117851257,-1.6909999853000683,-0.11099999887334903,0.024999999806340833
0.12206597626209259,-0.037445317953825,9.956910133361816,0.006899999920278788,-0.00989999994635582,0.13779999315738678,-0.22299999347008345,0.2469999975530389,0
0.12069649249315262,-0.03908294811844826,9.95419979095459,0.007599999662488699,-0.019099999219179153,0.13779999315738678,-0.363000008393848,-0.26699999206202624,-0.08400000095013078
0.11618582159280777,-0.03931279480457306,9.94362735748291,0.006899999920278788,-0.018199998885393143,0.12799999117851257,-0.7149999971293904,0.29899998861249133,-0.0659999978879142
0.11818736791610718,-0.04569094628095627,9.940945625305176,0.007799999788403511,-0.01599999889731407,0.12799999117851257,1.3449999975852647,0.20299999896109608,-0.07000000079177565
0.11661677807569504,-0.044254425913095474,9.955263137817383,0.008299999870359898,-0.019199999049305916,0.13779999315738678,0.5990000129690077,-0.1509999945614304,-0.017999999727163266
0.11426088213920593,-0.05246174708008766,9.946682929992676,-0.0017999999690800905,-0.030700000002980232,0.12789998948574066,0.6020000134793773,0.25599999908414717,0.08700000146050021
0.12328223139047623,-0.04694550856947899,9.9473237991333,0.008700000122189522,-0.022699998691678047,0.12789998948574066,-1.5750000011396856,0.2699999925723957,0.07799999992939192
0.11141657084226608,-0.04111323133111,9.9505033493042,-0.00039999998989515007,-0.01899999938905239,0.10830000042915344,-1.0299999973573275,0.1390000058601659,0.01700000066872456
0.12032299488782883,-0.04122815281152725,9.952495574951172,0.009499999694526196,-0.017400000244379044,0.13769999146461487,2.134999954113038,-0.08499999667351618,-0.11500000177721047
0.1095874011516571,-0.04498226195573807,9.943483352661133,-0.00039999998989515007,-0.022499999031424522,0.12789998948574066,2.7740000094608734,-0.12400000330831876,-0.05499999823992851
0.12314815819263458,-0.040366239845752716,9.942793846130371,0.008899999782443047,-0.031099999323487282,0.12789998948574066,1.882999911242006,0.08200000283325337,-0.07099999651516105
0.11509406566619873,-0.04571967571973801,9.949651718139648,0.009099999442696571,-0.035599999129772186,0.12789998948574066,3.152999949428888,-0.023000000021936765,-0.06299999737754478
0.12237243354320526,-0.05531563609838486,9.93997859954834,0.009099999442696571,-0.035599999129772186,0.12789998948574066,2.8920000651093063,0.057000003026912535,0.07999999804626934
0.11270944029092789,-0.03741658478975296,9.956315994262695,-0.0004999999655410647,-0.04339999705553055,0.13779999315738678,-0.44099999498302667,0.09399999820462447,0.13499999628619785
0.11245086789131165,-0.056244585663080215,9.950655937194824,-0.00029999998514540493,-0.06199999898672104,0.13779999315738678,-2.41299996583337,0.03100000082707969,-0.024000000747902123
0.11885774880647659,-0.05014416202902794,9.960376739501953,0.009499999694526196,-0.055399999022483826,0.147599995136261,0.9670000400004224,-0.04600000004387353,0.0329999989439571
0.11712434142827988,-0.04453215003013611,9.947563171386719,0.00930000003427267,-0.04859999939799309,0.12789998948574066,2.8739999553253837,0.1629999966029081,-0.06899999839828364
0.11611878126859665,-0.042655099183321,9.94323444366455,0.00969999935477972,-0.05639999732375145,0.12799999117851257,-1.1169999587971882,0.2770000026567332,0.017999999727163266
0.11133995652198792,-0.04666777700185776,9.952159881591797,0.0005999999702908099,-0.05379999801516533,0.13779999315738678,-0.4549999884712752,-0.0749999994190225,0.010999999647985701
0.1365939974784851,-0.049157749861478806,9.9539794921875,0.02979999966919422,-0.062199998646974564,0.13779999315738678,2.1109999500300827,0.17599999436777122,-0.07799999992939192
0.12140518426895142,-0.04141968861222267,9.942708015441895,0.010599999688565731,-0.05739999935030937,0.12799999117851257,-2.2799999609939428,0.15900000036915327,0.17599999436777122
0.11404062062501907,-0.04471411183476448,9.948779106140137,0.0011999999405816197,-0.05040000006556511,0.12789998948574066,1.5310000292281694,0.013000000266153095,-0.1529999993484144
0.12406753748655319,-0.040509890764951706,9.955263137817383,0.011099999770522118,-0.05460000038146973,0.13779999315738678,-2.0570000475651384,-0.0009999999964224499,0.09000000197086964
0.11282436549663544,-0.04906198009848595,9.95691967010498,0.0011999999405816197,-0.05949999764561653,0.13769999146461487,2.339999971201331,0.0659999978879142,0.06299999737754478
0.11377246677875519,-0.04718492925167084,9.95223617553711,0.00139999995008111,-0.05689999833703041,0.13779999315738678,-0.8579999858830979,-0.26699999206202624,-0.09399999820462447
0.11476845294237137,-0.03395935893058777,9.946854591369629,0.000699999975040555,-0.04470000043511391,0.12799999117851257,-0.2890000046982109,0.24200000559589865,0.1180000022875799
0.11559205502271652,-0.03395935893058777,9.936731338500977,0.011099999770522118,-0.04399999976158142,0.11809999495744705,0.5339999841240525,0.06299999737754478,-0.057000003026912535
0.12271720170974731,-0.04133350029587746,9.957236289978027,0.01119999960064888,-0.05549999698996544,0.13779999315738678,0.8089999953340149,-0.014999999216793838,-0.13300000483942703
0.11785218864679337,-0.038402996957302094,9.961602210998535,0.01119999960064888,-0.05739999935030937,0.147599995136261,-2.036999973014872,-0.11500000177721047,-0.04500000098543482
0.11767980456352234,-0.048573561012744904,9.95223617553711,0.010900000110268593,-0.0616999976336956,0.13769999146461487,-0.36099999026665075,-0.019999999511567335,0.08100000043976135
0.1183789074420929,-0.03868072107434273,9.960213661193848,0.0009999999310821295,-0.05069999769330025,0.11809999495744705,-0.7429999841058874,0.0539999991814898,0.024000000747902123
0.11485464125871658,-0.023491907864809036,9.951327323913574,0.010999999940395355,-0.0486999973654747,0.14749999344348907,1.2249999771704876,0.09999999922536333,0.13799999679656727
0.11243171244859695,-0.0340072400867939,9.968842506408691,0.0013000000035390258,-0.026799999177455902,0.13769999146461487,0.32299999269544677,0.13400000056281244,-0.19600000221697184
0.11826398223638535,-0.051149725914001465,9.97208023071289,0.011699999682605267,-0.060099996626377106,0.15729999542236328,3.251999912910226,0.3600000078834786,0.06800000267489824
0.1203804612159729,-0.04344039410352707,9.965519905090332,0.011699999682605267,-0.060099996626377106,0.15729999542236328,-0.8279999807794036,0.3049999896332302,0.17700000343136985
0.09582553058862686,-0.03697605058550835,9.969388961791992,-0.006000000052154064,-0.048499997705221176,0.14749999344348907,-1.5200000095698638,0.14699999832767557,0.07999999804626934
0.11381077766418457,-0.04995262622833252,9.960213661193848,-0.006000000052154064,-0.048499997705221176,0.14749999344348907,-1.891999966133967,-0.01700000066872456,-0.06200000165415938
0.12115617841482162,-0.034543540328741074,9.954190254211426,0.013899999670684338,-0.038599997758865356,0.13769999146461487,0.4810000106814279,-0.16400000566650674,-0.05799999875029794
0.12703633308410645,-0.056551042944192886,9.945073127746582,0.02329999953508377,-0.05939999967813492,0.12789998948574066,1.248999981253443,-0.029999998433587676,-0.015999999942759198
0.1102098897099495,-0.046907201409339905,9.967962265014648,0.003599999938160181,-0.05339999869465828,0.14749999344348907,-0.4810000106814279,-0.008999999863581633,0.09800000110848592
0.12622231245040894,-0.033001676201820374,9.960663795471191,0.02319999970495701,-0.04230000078678131,0.14749999344348907,-1.403000043026309,-0.17400000292100043,0.0039999999856897995
0.11927913129329681,-0.03242706507444382,9.94798469543457,0.012899999506771564,-0.03839999809861183,0.12789998948574066,1.2309999781912264,0.021999999295971403,-0.06200000165415938
0.11667423695325851,-0.035606566816568375,9.955559730529785,0.012899999506771564,-0.04179999977350235,0.13769999146461487,-1.883999893625178,0.0269999995907449,0.20800000425844953
0.12283211946487427,-0.04661031812429428,9.925105094909668,0.012999999336898327,-0.0471000000834465,0.10830000042915344,1.569999982502119,-0.07699999753589991,-0.16899999762364695
0.1206294521689415,-0.0536780022084713,9.920833587646484,0.01269999984651804,-0.0616999976336956,0.09849999845027924,-0.4799999749374028,0.10299999973573276,0.10600000024610218
0.12486240267753601,-0.05239471048116684,9.925728797912598,0.02279999852180481,-0.06039999797940254,0.10830000042915344,3.004000013015294,-0.06299999737754478,-0.11500000177721047
0.12410584092140198,-0.042597636580467224,9.925402641296387,0.012799999676644802,-0.058799996972084045,0.10830000042915344,-2.0969999832222603,-0.05200000106461238,0.14900000311465958
0.10779654234647751,-0.046409204602241516,9.94487190246582,0.002899999963119626,-0.05379999801516533,0.12789998948574066,1.270000038186882,0.10900000075647161,-0.007999999971379599
0.12406753748655319,-0.04246356338262558,9.953126907348633,0.012999999336898327,-0.05769999697804451,0.13769999146461487,1.6249999740719407,-0.0030000000934877653,-0.13300000483942703
0.12088803201913834,-0.03054043836891651,9.961727142333984,0.012999999336898327,-0.052400000393390656,0.147599995136261,-2.2170000036370374,-0.048000001495804245,0.010999999647985701
0.12375149875879288,-0.04820007085800171,9.953701972961426,0.012899999506771564,-0.06669999659061432,0.13769999146461487,-1.0299999973573275,0.09399999820462447,0.09000000197086964
0.11838848888874054,-0.052308518439531326,9.955646514892578,0.02290000021457672,-0.06350000202655792,0.15729999542236328,2.1629998877286822,-0.04600000004387353,-0.24099999653230003
0.11838848888874054,-0.052308518439531326,9.955646514892578,0.013499999418854713,-0.06839999556541443,0.13769999146461487,2.1629998877286822,-0.04600000004387353,-0.24099999653230003
0.12003570050001144,-0.04315309226512909,9.94592571258545,0.013299999758601189,-0.06520000100135803,0.12799999117851257,0.7739999715927539,-0.02800000031671026,-0.1610000051561373
0.10899363458156586,-0.0386328399181366,9.945878028869629,0.013199999928474426,-0.0575999990105629,0.12799999117851257,-1.7169999541493681,-0.1749999986443858,-0.04900000055424296
0.11288182437419891,-0.04604528844356537,9.951623916625977,0.003000000026077032,-0.06729999929666519,0.12799999117851257,0.18900000547284757,-0.20599999947146552,-0.22299999347008345
0.13085748255252838,-0.0511784553527832,9.956565856933594,0.02159999869763851,-0.07229999452829361,0.13779999315738678,0.6780000086217851,-0.09899999683187131,-0.10400000212922476
0.11922166496515274,-0.047778692096471786,9.95556926727295,0.011500000022351742,-0.06430000066757202,0.13779999315738678,1.9870000000826167,-0.06500000216452881,-0.10900000075647161
0.12786951661109924,-0.03976290300488472,9.941903114318848,0.011500000022351742,-0.06430000066757202,0.13779999315738678,2.2500000626119543,0.28199999461387343,-0.07300000130214508
0.11981543153524399,-0.04931097850203514,9.94487190246582,0.012000000104308128,-0.08559999614953995,0.12799999117851257,1.082000041777633,0.15500000413539844,0.06099999926066736
0.12170206755399704,-0.05040273442864418,9.959687232971191,0.012399999424815178,-0.08899999409914017,0.13779999315738678,-2.1540000462801325,-0.15200000362502902,0.02600000053230619
0.09896671772003174,-0.047357309609651566,9.97643756866455,-0.007499999832361937,-0.07319999486207962,0.1573999971151352,-0.42500001004800736,-0.09099999769425504,-0.10299999973573276
0.12100294977426529,-0.047213658690452576,9.951508522033691,0.011799999512732029,-0.0722000002861023,0.13779999315738678,2.2779999962275985,0.1070000026395942,0
0.1147971823811531,-0.0399257093667984,9.950273513793945,0.002300000051036477,-0.07919999957084656,0.12799999117851257,-1.3099999738440038,0.004999999877891834,0.08100000043976135
0.12639470398426056,-0.036669593304395676,9.961468696594238,0.021900000050663948,-0.06579999625682831,0.147599995136261,0.30799999014359963,-0.10299999973573276,-0.15999999609253868
0.12261185795068741,-0.03967671096324921,9.959046363830566,0.011799999512732029,-0.07649999856948853,0.13779999315738678,1.5999999876058133,0.23000000355442093,0.024999999806340833
0.11874283105134964,-0.049301404505968094,9.967550277709961,0.012399999424815178,-0.09059999883174896,0.147599995136261,-0.8489999843519896,-0.21800000151294321,-0.14900000311465958
0.11405976861715317,-0.04294240102171898,9.956114768981934,0.011899999342858791,-0.07880000025033951,0.12799999117851257,0.7600000047849319,0.21299999621558977,0.023000000021936765
0.12223836779594421,-0.042712558060884476,9.95726490020752,0.002699999837204814,-0.08100000023841858,0.13779999315738678,-2.5379998981640077,-0.05600000063342052,0.14699999832767557
0.11565909534692764,-0.037378277629613876,9.950675964355469,0.01209999993443489,-0.08219999819993973,0.1378999948501587,2.4169998953660583,0.18600000496247812,0.02800000031671026
0.11880987137556076,-0.0438426211476326,9.951652526855469,0.011899999342858791,-0.06539999693632126,0.13779999315738678,0.39599998732748526,-0.10900000075647161,-0.13100000005244303
0.12161586433649063,-0.03905421867966652,9.941520690917969,0.012299999594688416,-0.08100000023841858,0.13779999315738678,-2.7230000541454458,-0.25299999857377775,0.16899999762364695
0.12613612413406372,-0.04706043004989624,9.935151100158691,0.012000000104308128,-0.08219999819993973,0.12799999117851257,-0.9380000172799003,0.16599999711327754,0.11299999699022645
0.11431834101676941,-0.04843948781490326,9.93305492401123,0.0210999995470047,-0.07459999620914459,0.11819999665021896,2.6640000263212293,0.23000000355442093,-0.05999999686717535
0.11597512662410736,-0.04471411183476448,9.954975128173828,0.0018999999156221747,-0.08169999718666077,0.11819999665021896,2.6640000263212293,0.23000000355442093,-0.05999999686717535
0.1148163378238678,-0.04617936164140701,9.962273597717285,0.012399999424815178,-0.07909999787807465,0.13779999315738678,-0.4590000247256697,-0.19200000598321698,-0.14399999781730613
0.120734803378582,-0.048496946692466736,9.95361614227295,0.00279999990016222,-0.08339999616146088,0.1476999968290329,-0.023000000021936765,-0.14600000260429016,-0.15200000362502902
0.12491986900568008,-0.037244200706481934,9.94971752166748,0.01209999993443489,-0.09179999679327011,0.1378999948501587,-0.3369999861836953,-0.1749999986443858,-0.1509999945614304
0.11070788651704788,-0.04178360849618912,9.954554557800293,0.02149999886751175,-0.07189999520778656,0.12799999117851257,-1.4129999735797365,-0.19999999845072666,-0.07900000232288394
0.1367184966802597,-0.04801810905337334,9.946653366088867,0.00139999995008111,-0.08060000091791153,0.1378999948501587,1.4280000294924364,0.007999999971379599,-0.18600000496247812
0.12437399476766586,-0.04781699925661087,9.953825950622559,0.030299998819828033,-0.08590000122785568,0.12799999117851257,1.9450000996591503,0.13100000005244303,-0.10499999785261017
0.11559205502271652,-0.048046842217445374,9.95797348022461,0.010999999940395355,-0.09439999610185623,0.1378999948501587,1.591000039435558,0.27200001069959295,0.0329999989439571
0.11947066336870193,-0.04008851200342178,9.96237850189209,0.010999999940395355,-0.09439999610185623,0.1378999948501587,-0.49799997799961937,-0.03999999902313467,0.08700000146050021
0.12340673059225082,-0.04262636601924896,9.952361106872559,0.011799999512732029,-0.08799999952316284,0.1378999948501587,-1.6019999523721575,-0.3029999981864594,-0.035000000395887826
0.1150461807847023,-0.040222588926553726,9.940668106079102,0.010900000110268593,-0.08289999514818192,0.11829999834299088,0.40299999741182274,0.04200000047506539,-0.10199999734224074
0.11679873615503311,-0.03979163244366646,9.950379371643066,0.010999999940395355,-0.08379999548196793,0.1378999948501587,1.241999997849532,0.2039999946844815,0.07099999651516105
0.11776599287986755,-0.045748405158519745,9.953740119934082,0.011500000022351742,-0.08669999986886978,0.1378999948501587,-1.8059999870772787,-0.14900000311465958,0.07000000079177565
0.10789230465888977,-0.039111677557229996,9.946624755859375,0.0011999999405816197,-0.08100000023841858,0.12799999117851257,0.8690000055414034,0.21100000476881897,-0.0969999987149939
0.11978669464588165,-0.035798102617263794,9.945744514465332,0.011500000022351742,-0.0731000006198883,0.12809999287128448,-1.173000039471888,-0.03100000082707969,0.0539999991814898
0.10161949694156647,-0.045087605714797974,9.942047119140625,-0.008100000210106373,-0.07909999787807465,0.12799999117851257,0.07600000181251451,-0.05600000063342052,-0.06299999737754478
0.12171164155006409,-0.04603571072220802,9.929472923278809,0.011299999430775642,-0.07899999618530273,0.10839999467134476,-1.1920000249172766,-0.0030000000934877653,0.019000000453128628
0.12425906956195831,-0.03819230571389198,9.947103500366211,0.011299999430775642,-0.06619999557733536,0.12799999117851257,1.7200000080205904,0.2259999939804529,-0.0019999999928448997
0.11463437974452972,-0.04707000404596329,9.942113876342773,0.002199999988079071,-0.08089999854564667,0.12799999117851257,-0.35899999881987993,-0.10100000161885533,-0.06899999839828364
0.11344685405492783,-0.049330130219459534,9.95469856262207,0.0018999999156221747,-0.08949999511241913,0.13779999315738678,-0.5819999922899634,-0.07099999651516105,0.08700000146050021
0.11833102256059647,-0.03077985718846321,9.949201583862305,0.011899999342858791,-0.06949999928474426,0.12799999117851257,0.6759999904945878,0.12499999903170415,-0.0859999990670082
0.11379161477088928,-0.04686889424920082,9.954362869262695,0.0024999999441206455,-0.08100000023841858,0.13779999315738678,-0.7639999876784734,-0.1509999945614304,-0.03100000082707969
0.10697293281555176,-0.04761588200926781,9.957244873046875,0.0024999999441206455,-0.08100000023841858,0.13779999315738678,-0.2639999915516568,-0.05900000114378995,0.021999999295971403
0.12555193901062012,-0.05080495774745941,9.946280479431152,0.02149999886751175,-0.08739999681711197,0.12799999117851257,-0.5140000162954916,-0.09000000197086964,-0.017999999727163266
0.11360008269548416,-0.03860410675406456,9.963911056518555,0.0015999999595806003,-0.07599999755620956,0.147599995136261,0.4649999723855557,0.02800000031671026,-0.03100000082707969
0.11886732280254364,-0.04403415694832802,9.954583168029785,0.011500000022351742,-0.07699999958276749,0.13779999315738678,1.5490000322903859,0.16999999334703236,0.038000000906257256
0.11626243591308594,-0.042425256222486496,9.958978652954102,0.01209999993443489,-0.08159999549388885,0.1378999948501587,0.008999999863581633,-0.048000001495804245,0.04900000055424296
0.12493901699781418,-0.046840161085128784,9.949699401855469,0.021699998527765274,-0.08129999786615372,0.12799999117851257,1.0299999973573275,0.13400000056281244,0.006000000186975531
0.11490252614021301,-0.046054862439632416,9.950303077697754,0.0024999999441206455,-0.08399999886751175,0.1378999948501587,-0.7680000239328679,0.15399999507179982,0.007999999971379599
0.12735237181186676,-0.052931010723114014,9.946145057678223,0.022599998861551285,-0.09119999408721924,0.12799999117851257,-0.9529999664708946,-0.043999998591942806,0.035000000395887826
0.11323615908622742,-0.05300762504339218,9.957742691040039,0.002899999963119626,-0.08879999816417694,0.13779999315738678,0.6099999792664604,-0.12100000279794933,0.0009999999964224499
0.12222878634929657,-0.047194503247737885,9.953079223632812,0.012299999594688416,-0.08049999922513962,0.13779999315738678,1.6780000008754183,0.26600000967885407,-0.10100000161885533
0.10893618315458298,-0.04377558454871178,9.95589542388916,0.003399999812245369,-0.08549999445676804,0.1378999948501587,0.29699999716572056,0.03999999902313467,-0.041000001416626686
0.11593682318925858,-0.05377376824617386,9.954439163208008,0.013299999758601189,-0.09589999914169312,0.1378999948501587,-0.03400000133744912,-0.01700000066872456,0.11500000177721047
0.12395261228084564,-0.04429273307323456,9.963279724121094,0.013199999928474426,-0.08569999784231186,0.1476999968290329,-0.09000000197086964,0.1070000026395942,0.009999999755783667
0.1112729161977768,-0.025100810453295708,9.957063674926758,0.003700000001117587,-0.06560000032186508,0.1378999948501587,0.7360000007019765,0.0030000000934877653,0.008999999863581633
0.12271720170974731,-0.04140053689479828,9.961162567138672,0.013499999418854713,-0.08709999918937683,0.1476999968290329,-0.3879999948599756,-0.10299999973573276,-0.006000000186975531
0.11910673975944519,-0.03764642775058746,9.948779106140137,0.013199999928474426,-0.07589999586343765,0.12809999287128448,0.26600000967885407,-0.09200000008774706,-0.029999998433587676
0.12031342089176178,-0.04577713832259178,9.951872825622559,0.012999999336898327,-0.08619999885559082,0.1378999948501587,-0.901000028772295,-0.11200000126684104,-0.010999999647985701
0.11337023973464966,-0.04888959974050522,9.958480834960938,0.00279999990016222,-0.09309999644756317,0.1378999948501587,-0.33300000329015367,0.14399999781730613,0.041000001416626686
0.11484506726264954,-0.04707000404596329,9.958672523498535,0.0031999999191612005,-0.08219999819993973,0.13779999315738678,-0.37800001094569513,0.007000000079177565,-0.07900000232288394
0.11273816972970963,-0.05654146522283554,9.964408874511719,0.0032999999821186066,-0.0908999964594841,0.147599995136261,-0.517000016805861,0.04600000004387353,-0.02899999937514897
0.11690407991409302,-0.04353616386651993,9.950149536132812,0.013199999928474426,-0.07930000126361847,0.12799999117851257,0.6110000150104855,0.04900000055424296,0.08899999957737763
0.11216355860233307,-0.04572925344109535,9.944584846496582,0.003599999938160181,-0.08079999685287476,0.12799999117851257,0.15500000413539844,0.06299999737754478,0.05300000012305109
0.13584700226783752,-0.04675397276878357,9.951498985290527,0.03309999778866768,-0.08100000023841858,0.13779999315738678,-0.3240000017590454,-0.09999999922536333,0.021999999295971403
0.12135729193687439,-0.043277591466903687,9.960319519042969,0.013199999928474426,-0.07989999651908875,0.147599995136261,-0.8729999884349451,-0.15200000362502902,-0.007999999971379599
0.11579317599534988,-0.04879382997751236,9.956948280334473,0.012899999506771564,-0.08749999850988388,0.13779999315738678,0.21299999621558977,-0.007000000079177565,-0.02600000053230619
0.11186668276786804,-0.05586151406168938,9.955377578735352,0.0030999998562037945,-0.08789999783039093,0.13779999315738678,0.30400000725005805,0.15399999507179982,-0.0659999978879142
0.11296801269054413,-0.03328897804021835,9.945868492126465,0.003499999875202775,-0.06889999657869339,0.12799999117851257,0.5560000234406636,-0.029999998433587676,-0.029999998433587676
0.12105083465576172,-0.05194459855556488,9.955426216125488,0.013199999928474426,-0.08989999443292618,0.12799999117851257,-0.8889999733699644,0,0.03699999851276524
0.1016673818230629,-0.0395713672041893,9.954630851745605,0.013700000010430813,-0.0908999964594841,0.13779999315738678,0.8429999833312508,0.031999999885518396,0.0030000000934877653
0.12718956172466278,-0.040366239845752716,9.963335990905762,0.023599999025464058,-0.07999999821186066,0.147599995136261,0.78199999074069,0.24299998797907083,-0.07199999890865307
0.11176133900880814,-0.03097139298915863,9.945734024047852,0.004699999932199717,-0.0722000002861023,0.12799999117851257,-1.1990000083211878,-0.03599999945432653,-0.029999998433587676
0.11592724919319153,-0.04607401788234711,9.97290325164795,0.014399999752640724,-0.07809999585151672,0.1573999971151352,-0.6889999749192377,-0.12299999424472013,-0.05099999867112037
0.11306378245353699,-0.043995849788188934,9.971246719360352,0.004299999680370092,-0.0762999951839447,0.1573999971151352,0.041000001416626686,-0.07900000232288394,0.043999998591942806
0.11989204585552216,-0.04949294030666351,9.963738441467285,0.013899999670684338,-0.085999995470047,0.147599995136261,-0.851000002479187,-0.257999990530918,0.019999999511567335
0.11293928325176239,-0.04923436418175697,9.954736709594727,0.003499999875202775,-0.08379999548196793,0.13779999315738678,-0.13799999679656727,-0.14300000209392072,0.006000000186975531
0.11412680894136429,-0.05294058471918106,9.96308708190918,0.0030999998562037945,-0.08320000022649765,0.147599995136261,-0.8949999743907032,-0.2499999980634083,0.04500000098543482
0.1281951367855072,-0.04658158868551254,9.960606575012207,0.021900000050663948,-0.07039999961853027,0.147599995136261,0.24599998848944027,-0.04900000055424296,-0.004999999877891834
0.11317870020866394,-0.04229117929935455,9.947084426879883,0.002199999988079071,-0.07079999893903732,0.12799999117851257,-0.6859999744088683,-0.22700000304405152,0.0429999995335041
0.10626424849033356,-0.03487873077392578,9.956814765930176,0.0015999999595806003,-0.05889999866485596,0.13779999315738678,-1.2749999501027427,0.09000000197086964,0.02800000031671026
0.11925996840000153,-0.03355713188648224,9.950446128845215,0.011699999682605267,-0.05480000004172325,0.13779999315738678,-0.5769999736523967,-0.07000000079177565,-0.07099999651516105
0.1037934347987175,-0.04485776275396347,9.937220573425293,-0.007999999448657036,-0.06309999525547028,0.11819999665021896,1.0780000055232384,0.25599999908414717,0
0.12290873378515244,-0.05964435264468193,9.957886695861816,0.012299999594688416,-0.08579999953508377,0.13779999315738678,1.151999982538449,-0.05600000063342052,-0.031999999885518396
0.12780249118804932,-0.03694731742143631,9.959707260131836,0.02199999988079071,-0.05939999967813492,0.13779999315738678,-0.9990000098704611,-0.2909999961449817,0.049999999612681666
0.12370361387729645,-0.03948517516255379,9.965222358703613,0.011500000022351742,-0.06659999489784241,0.147599995136261,-0.30400000725005805,0.05200000106461238,-0.0019999999928448997
0.10713573545217514,-0.03819230571389198,9.952668190002441,0.0018999999156221747,-0.05570000037550926,0.13779999315738678,-0.3759999928184979,-0.2909999961449817,-0.024999999806340833
0.1097119003534317,-0.05069003626704216,9.958959579467773,0.0011999999405816197,-0.07419999688863754,0.13779999315738678,-0.566000007354944,-0.031999999885518396,0.0019999999928448997
0.10991300642490387,-0.04270298033952713,9.961353302001953,0.0010999999940395355,-0.0625,0.147599995136261,-0.16699999283666295,-0.20099999417411205,0.06399999977103679
0.10821791738271713,-0.045413218438625336,9.952102661132812,0.0004999999655410647,-0.06189999729394913,0.13779999315738678,-0.42899999294154895,0.21800000151294321,0.07300000130214508
0.11245086789131165,-0.04332547262310982,9.959333419799805,0.0010999999940395355,-0.06069999933242798,0.13779999315738678,0.4500000231945614,-0.0009999999964224499,0.05499999823992851
0.12022723257541656,-0.04773080348968506,9.952677726745605,0.010900000110268593,-0.06189999729394913,0.13779999315738678,0.0749999994190225,0.26900001018922354,-0.014999999216793838
0.11548671126365662,-0.03916914016008377,9.96113395690918,0.011599999852478504,-0.06189999729394913,0.147599995136261,-0.23000000355442093,-0.4070000069857908,0.02800000031671026
0.10661859065294266,-0.047855306416749954,9.954554557800293,0.000699999975040555,-0.06109999865293503,0.13779999315738678,0.36399999077702017,0.0429999995335041,0.006000000186975531
0.11574528366327286,-0.03447650372982025,9.948932647705078,0.010599999688565731,-0.05199999734759331,0.12799999117851257,-0.08799999718388561,0.4500000231945614,-0.15900000036915327
0.11711476743221283,-0.042741287499666214,9.947122573852539,0.012000000104308128,-0.06129999831318855,0.147599995136261,-1.2849999873778761,-0.369999991797759,-0.04600000004387353
0.11711476743221283,-0.042741287499666214,9.947122573852539,0.01119999960064888,-0.05810000002384186,0.12799999117851257,-0.23000000355442093,-0.34200000482126197,0.07699999753589991
0.1241728737950325,-0.04978981614112854,9.953721046447754,0.019999999552965164,-0.06709999591112137,0.12799999117851257,0.6080000145001161,0.05099999867112037,-0.007000000079177565
0.12253524363040924,-0.04533660411834717,9.943340301513672,0.008700000122189522,-0.05570000037550926,0.12799999117851257,-0.32700000226941484,-0.283000003677472,0.03999999902313467
0.11511322110891342,-0.04243483021855354,9.971917152404785,0.007899999618530273,-0.054499998688697815,0.1573999971151352,0.9229999613672003,-0.1620000008795227,-0.08799999718388561
0.11210609972476959,-0.03677493706345558,9.95393180847168,-0.002199999988079071,-0.046699997037649155,0.13779999315738678,0.49199997697888054,0.007000000079177565,0.01400000015835513
0.1163390502333641,-0.031718384474515915,9.957618713378906,0.007499999832361937,-0.0478999987244606,0.13779999315738678,0.6709999718570212,-0.5570000058238358,-0.0429999995335041
0.1195472776889801,-0.05192544683814049,9.93834114074707,0.005799999926239252,-0.06939999759197235,0.11819999665021896,0.7239999986604987,0.10199999734224074,0.023000000021936765
0.11310208588838577,-0.03500322625041008,9.947793006896973,-0.003700000001117587,-0.05130000039935112,0.12799999117851257,-1.0179999953158498,-0.5179999991890332,0.057000003026912535
0.1120677962899208,-0.045461103320121765,9.959400177001953,-0.0050999997183680534,-0.05819999799132347,0.13779999315738678,-0.6540000045388297,-0.2639999915516568,-0.019999999511567335
0.11749783903360367,-0.04391923546791077,9.961669921875,0.0037999998312443495,-0.05590000003576279,0.147599995136261,0.739999983595518,0.6179999984143966,-0.02899999937514897
0.11836933344602585,-0.049722783267498016,9.962628364562988,0.0052999998442828655,-0.0674000009894371,0.147599995136261,1.4749999485534695,-0.25299999857377775,-0.02600000053230619
0.12036130577325821,-0.051264647394418716,9.95905590057373,0.004600000102072954,-0.07169999927282333,0.13779999315738678,-1.2809999511234815,-0.7360000007019765,0.0429999995335041
0.12004527449607849,-0.05715438351035118,9.953798294067383,0.0026000000070780516,-0.06799999624490738,0.1378999948501587,0.836999982310512,0.7290000172980654,-0.05200000106461238
0.1143374964594841,-0.04812345653772354,9.9453125,-0.005399999674409628,-0.0697999969124794,0.12799999117851257,-1.2669999843156596,-0.7660000058056707,-0.049999999612681666
0.12802274525165558,-0.03593217954039574,9.959352493286133,0.011799999512732029,-0.04609999805688858,0.1378999948501587,-1.0139999590614552,0.43499999396228783,-0.08100000043976135
0.11168472468852997,-0.044110771268606186,9.953903198242188,-0.0066999997943639755,-0.05329999700188637,0.13779999315738678,0.12299999424472013,0.04600000004387353,0.02600000053230619
0.11441411077976227,-0.033423058688640594,9.952582359313965,-0.0064999996684491634,-0.043699998408555984,0.13779999315738678,-0.44500000455699473,1.109999975393277,0.021999999295971403
0.10317093878984451,-0.03928406164050102,9.951709747314453,-0.013299999758601189,-0.05209999904036522,0.13779999315738678,0.3559999983095105,0.4879999940853389,-0.04200000047506539
0.10488518327474594,-0.04862144961953163,9.954411506652832,-0.01209999993443489,-0.06260000169277191,0.13779999315738678,1.4780000024246918,1.297999971802526,-0.03999999902313467
0.12408668547868729,-0.03955221176147461,9.943100929260254,0.011399999260902405,-0.057099997997283936,0.12789998948574066,-0.07199999890865307,-1.0139999590614552,-0.01700000066872456
0.10491392016410828,-0.04353616386651993,9.953520774841309,-0.010900000110268593,-0.056699998676776886,0.13779999315738678,-0.1800000039417393,-0.0030000000934877653,0.0039999999856897995
0.11418426781892776,-0.04324885830283165,9.961899757385254,-0.0009999999310821295,-0.0559999980032444,0.147599995136261,0.6590000231763964,0.7170000152565876,-0.06700000028140622
0.12876974046230316,-0.04177403077483177,9.957676887512207,0.020399998873472214,-0.0575999990105629,0.13779999315738678,0.7680000239328679,0.4500000231945614,0.007000000079177565
0.10443507879972458,-0.052691590040922165,9.958806991577148,0.011899999342858791,-0.07919999957084656,0.13779999315738678,-0.16800000190026157,-1.0859999713103217,-0.02800000031671026
0.11031524091959,-0.04322013258934021,9.95654582977295,-0.011699999682605267,-0.06599999964237213,0.13779999315738678,-1.4710000190207806,-0.9860000254458112,-0.05200000106461238
0.1131691262125969,-0.054252609610557556,9.965136528015137,-0.005200000014156103,-0.05549999698996544,0.13779999315738678,-1.4270000471092643,-0.3190000098019052,-0.01400000015835513
0.11576443910598755,-0.055392250418663025,9.955272674560547,-0.007899999618530273,-0.06109999865293503,0.147599995136261,-0.8099999777171871,-1.6230000093055965,-0.02899999937514897
0.11634862422943115,-0.0462176688015461,9.966477394104004,0.0009999999310821295,-0.057499997317790985,0.13779999315738678,-0.6579999874323713,0.12100000279794933,-0.015999999942759198
0.11384908109903336,-0.04391923546791077,9.94825267791748,-0.013399999588727951,-0.04319999739527702,0.12809999287128448,-1.0859999713103217,-1.2799999687403094,-0.046999999102312236
0.1240483745932579,-0.05512410029768944,9.943885803222656,-0.00699999975040555,-0.04989999905228615,0.12809999287128448,0.2050000037480801,-0.6639999884531101,0.006000000186975531
0.11576443910598755,-0.036363136023283005,9.95456314086914,-0.009099999442696571,-0.030700000002980232,0.1378999948501587,0.8680000231582313,-0.8269999983962315,0.029999998433587676
0.11453860998153687,-0.047022122889757156,9.955368041992188,-0.020899999886751175,-0.042399998754262924,0.1379999965429306,0.2039999946844815,1.0139999590614552,-0.06099999926066736
0.12126152962446213,-0.0471561960875988,9.954755783081055,-0.008100000210106373,-0.042799998074769974,0.1378999948501587,-0.3980000054546825,0.5179999991890332,-0.049999999612681666
0.1317385584115982,-0.04248271510004997,9.944718360900879,0.0030999998562037945,-0.0414000004529953,0.12809999287128448,-1.5970000404562967,-0.3849999943496062,-0.0269999995907449
0.12024638056755066,-0.030933085829019547,9.950005531311035,-0.007499999832361937,-0.02759999968111515,0.12809999287128448,1.0629999496105385,0.8149999963547537,0.07099999651516105
0.11808203160762787,-0.04270298033952713,9.933916091918945,-0.004100000020116568,-0.04089999943971634,0.11829999834299088,1.2340000320624487,-0.5870000109275301,0.0009999999964224499
0.11808203160762787,-0.04270298033952713,9.933916091918945,-0.004100000020116568,-0.04089999943971634,0.11829999834299088,1.2340000320624487,-0.5870000109275301,0.0009999999964224499
0.10946290194988251,-0.031411927193403244,9.954056739807129,-0.01549999974668026,-0.034299999475479126,0.1378999948501587,-2.338000006434987,0.11500000177721047,-0.0329999989439571
0.11021946370601654,-0.05184883251786232,9.950244903564453,-0.015099999494850636,-0.04649999737739563,0.12809999287128448,-1.3320000131606147,-0.7729999892095818,-0.09899999683187131
0.11400230973958969,-0.03758896514773369,9.954803466796875,-0.016899999231100082,-0.023499999195337296,0.1378999948501587,-1.9189999173664392,0.3369999861836953,0.0030000000934877653
0.11643481254577637,-0.049732357263565063,9.952945709228516,-0.006099999882280827,-0.03700000047683716,0.1378999948501587,0.2159999967259592,-0.33300000329015367,-0.0329999989439571
0.11436622589826584,-0.04102703928947449,9.958721160888672,-0.01679999940097332,-0.02759999968111515,0.1378999948501587,-3.060000093689994,0.0329999989439571,-0.11299999699022645
0.11673169583082199,-0.0449056476354599,9.970155715942383,-0.006899999920278788,-0.020099999383091927,0.1574999988079071,0.6679999713466518,0.4199999914104407,0.057000003026912535
0.10987470299005508,-0.0418219156563282,9.943435668945312,0.004100000020116568,-0.021900000050663948,0.1378999948501587,0.0969999987149939,-0.24899998899980968,-0.008999999863581633
0.1300913393497467,-0.05229894071817398,9.9574556350708,-0.016099998727440834,-0.02199999988079071,0.12809999287128448,-1.9470000644254948,-0.34200000482126197,-0.1199999937343507
0.11833102256059647,-0.038709454238414764,9.953079223632812,0.0030999998562037945,-0.028099998831748962,0.1378999948501587,-1.9470000644254948,-0.34200000482126197,-0.1199999937343507
0.11833102256059647,-0.038709454238414764,9.953079223632812,-0.007499999832361937,-0.012799999676644802,0.1378999948501587,2.771000062311357,0.10199999734224074,0.043999998591942806
0.12212344259023666,-0.043469127267599106,9.959227561950684,-0.0072999997064471245,-0.019199999049305916,0.1378999948501587,0.845000001458448,0.19900000272734125,0.021999999295971403
0.12122321873903275,-0.039753325283527374,9.94553279876709,-0.0066999997943639755,-0.031199999153614044,0.11829999834299088,-1.3029999904400926,0.08799999718388561,0.01700000066872456
0.11353304237127304,-0.0517817959189415,9.94504451751709,-0.006399999838322401,-0.017099998891353607,0.12809999287128448,1.8530000128600175,0.18199999538851008,0.023000000021936765
0.12643299996852875,-0.04606444016098976,9.960721969604492,-0.01599999889731407,-0.033799998462200165,0.12809999287128448,0.7239999986604987,-0.008999999863581633,-0.03400000133744912
0.10357316583395004,-0.05402276664972305,9.962072372436523,0.003999999724328518,-0.028199998661875725,0.1476999968290329,1.793000002652629,0.06500000216452881,-0.019999999511567335
0.12012188881635666,-0.0437181256711483,9.955061912536621,-0.00559999980032444,-0.03439999744296074,0.1378999948501587,1.1740000218550601,-0.0749999994190225,0.10900000075647161
0.11887689679861069,-0.03940856084227562,9.956315994262695,-0.005799999926239252,-0.03739999979734421,0.1378999948501587,0.1620000008795227,0.009999999755783667,-0.0019999999928448997
0.11969093233346939,-0.0387381836771965,9.96945571899414,-0.005699999630451202,-0.037699997425079346,0.1574999988079071,0.1749999986443858,0.05200000106461238,0.0429999995335041
0.10523953288793564,-0.04241567477583885,9.966669082641602,-0.025100000202655792,-0.03790000081062317,0.1476999968290329,0.8949999743907032,-0.014999999216793838,-0.021999999295971403
0.12307154387235641,-0.04497268423438072,9.956670761108398,-0.00559999980032444,-0.04050000011920929,0.1378999948501587,0.9320000162591615,0.023000000021936765,-0.023000000021936765
0.11495999246835709,-0.03938940912485123,9.953998565673828,-0.005499999970197678,-0.042500000447034836,0.1378999948501587,-0.029999998433587676,0.10199999734224074,-0.024000000747902123
0.11468225717544556,-0.03942771628499031,9.945140838623047,-0.014999999664723873,-0.0421999990940094,0.12809999287128448,-0.3879999948599756,-0.10900000075647161,-0.004999999877891834
0.12757264077663422,-0.04273171350359917,9.96228313446045,0.00419999985024333,-0.04079999774694443,0.1476999968290329,-1.1980000259380155,-0.17400000292100043,-0.09899999683187131
0.11822567880153656,-0.024535780772566795,9.954524993896484,-0.0058999997563660145,-0.01809999905526638,0.1378999948501587,0.8609999863934674,0.0019999999928448997,-0.03100000082707969
0.11558248102664948,-0.04458961263298988,9.952648162841797,-0.0058999997563660145,-0.03989999741315842,0.1378999948501587,0.5209999996994026,0.09899999683187131,-0.0539999991814898
0.1307808756828308,-0.03469676896929741,9.948894500732422,-0.00559999980032444,-0.021699998527765274,0.12809999287128448,0.10100000161885533,0.12100000279794933,-0.08299999855663877
0.10683885961771011,-0.034208353608846664,9.953558921813965,0.004100000020116568,-0.033299997448921204,0.12809999287128448,-0.046999999102312236,-0.02899999937514897,0.0039999999856897995
0.11767023056745529,-0.03376782312989235,9.939739227294922,-0.014999999664723873,-0.033399999141693115,0.1378999948501587,0.5739999731420273,-0.02800000031671026,-0.0269999995907449
0.1075858473777771,-0.038757335394620895,9.947505950927734,-0.015099999494850636,-0.04399999976158142,0.12809999287128448,0.6859999744088683,0.05900000114378995,-0.006000000186975531
0.1260882467031479,-0.04637089744210243,9.957149505615234,-0.015099999494850636,-0.04399999976158142,0.12809999287128448,-0.7530000213810208,-0.08299999855663877,-0.04500000098543482
0.11176133900880814,-0.03369120880961418,9.955415725708008,-0.015099999494850636,-0.0340999998152256,0.1378999948501587,-0.6390000019869825,-0.05499999823992851,-0.06700000028140622
0.1284441351890564,-0.04739561676979065,9.944987297058105,0.004299999680370092,-0.04179999977350235,0.12809999287128448,-0.5560000234406636,-0.02800000031671026,0.038000000906257256
0.09578722715377808,-0.04332547262310982,9.957466125488281,0.004299999680370092,-0.04179999977350235,0.12809999287128448,0.23699998695833197,0.008999999863581633,0.009999999755783667
0.10516291856765747,-0.035108573734760284,9.964897155761719,-0.02499999850988388,-0.03059999831020832,0.1476999968290329,-0.14900000311465958,-0.0859999990670082,-0.02800000031671026
0.11516110599040985,-0.0350702665746212,9.961803436279297,-0.00559999980032444,-0.029999999329447746,0.1476999968290329,0.008999999863581633,-0.10999999647985702,-0.048000001495804245
0.10714531689882278,-0.03344221040606499,9.951327323913574,-0.015699999406933784,-0.029899999499320984,0.1378999948501587,0.10499999785261017,-0.05099999867112037,-0.03999999902313467
0.10294109582901001,-0.040059782564640045,9.952313423156738,-0.015699999406933784,-0.029899999499320984,0.1378999948501587,0.038000000906257256,-0.0539999991814898,0.07999999804626934
0.12439314275979996,-0.046409204602241516,9.954965591430664,-0.006099999882280827,-0.03969999775290489,0.1378999948501587,0.046999999102312236,-0.02800000031671026,-0.03100000082707969
0.11557290703058243,-0.03803907707333565,9.954965591430664,-0.006099999882280827,-0.02979999966919422,0.1378999948501587,-0.2589999995945166,0.03599999945432653,0.0009999999964224499
0.11052592098712921,-0.04776911064982414,9.952495574951172,-0.015799999237060547,-0.03869999945163727,0.1378999948501587,-0.08499999667351618,-0.07999999804626934,-0.12400000330831876
0.1277545988559723,-0.05766195431351662,9.941970825195312,0.003499999875202775,-0.05779999867081642,0.12809999287128448,0.02800000031671026,0.11400000605382507,0.03999999902313467
0.11994951218366623,-0.04251144453883171,9.946041107177734,-0.0058999997563660145,-0.03799999877810478,0.12809999287128448,-0.3999999969014533,-0.03699999851276524,0.043999998591942806
0.11910673975944519,-0.061243679374456406,9.939729690551758,-0.006000000052154064,-0.05649999901652336,0.11829999834299088,0.2469999975530389,0.04600000004387353,-0.08299999855663877
0.12137644737958908,-0.05123591795563698,9.95654582977295,-0.005799999926239252,-0.047199998050928116,0.1378999948501587,0.4310000110687462,0.05999999686717535,-0.0030000000934877653
0.11955685168504715,-0.03236003220081329,9.938379287719727,-0.005799999926239252,-0.026599999517202377,0.11829999834299088,-0.29699999716572056,0.007999999971379599,-0.0859999990670082
0.11955685168504715,-0.03236003220081329,9.938379287719727,-0.005799999926239252,-0.026599999517202377,0.11829999834299088,-0.29699999716572056,0.007999999971379599,-0.0859999990670082
0.11609005182981491,-0.04607401788234711,9.957303047180176,-0.0058999997563660145,-0.035599999129772186,0.1378999948501587,-0.13100000005244303,-0.06099999926066736,-0.1849999958988795
0.11609005182981491,-0.04607401788234711,9.957303047180176,-0.0058999997563660145,-0.035599999129772186,0.1378999948501587,-0.13100000005244303,-0.06099999926066736,-0.1849999958988795
0.10869675129652023,-0.047864880412817,9.959897994995117,-0.01589999906718731,-0.03500000014901161,0.1476999968290329,-0.07300000130214508,-0.06800000267489824,-0.16999999334703236
0.11783303320407867,-0.04435976967215538,9.958538055419922,-0.006199999712407589,-0.03460000082850456,0.1378999948501587,-0.3019999891228608,-0.1070000026395942,-0.21100000476881897
0.11948023736476898,-0.04140053689479828,9.945255279541016,-0.0064999996684491634,-0.03350000083446503,0.12809999287128448,-0.13600000534979648,-0.06399999977103679,-0.06099999926066736
0.1197771206498146,-0.03349009156227112,9.954554557800293,-0.006599999964237213,-0.02319999970495701,0.1378999948501587,-0.20299999896109608,-0.0019999999928448997,-0.14799999405106096
0.10863929986953735,-0.06121494993567467,9.968019485473633,-0.01640000008046627,-0.05179999768733978,0.1476999968290329,-0.12799999954207358,-0.05099999867112037,0.06700000028140622
0.12099337577819824,-0.04578671231865883,9.96825885772705,-0.006599999964237213,-0.032099999487400055,0.1476999968290329,0.10499999785261017,0.021000000237532696,0.14399999781730613
0.12069649249315262,-0.04847779497504234,9.94646167755127,-0.0064999996684491634,-0.041999999433755875,0.12809999287128448,-0.19699999794035722,0.0009999999964224499,-0.3559999983095105
0.11955685168504715,-0.03808695822954178,9.94424057006836,-0.0064999996684491634,-0.02159999869763851,0.12809999287128448,0.11400000605382507,0.05799999875029794,0.16599999711327754
0.11371500045061111,-0.052002061158418655,9.967425346374512,-0.016099998727440834,-0.04129999876022339,0.1476999968290329,-0.08299999855663877,-0.02800000031671026,0.24299998797907083
0.12166375666856766,-0.04981854930520058,9.962407112121582,-0.006399999838322401,-0.04089999943971634,0.1476999968290329,-0.031999999885518396,0.0009999999964224499,-0.39599998732748526
0.12199893593788147,-0.04062481224536896,9.939173698425293,-0.006399999838322401,-0.030799999833106995,0.11829999834299088,0.13600000534979648,0.021000000237532696,-0.015999999942759198
0.11957601457834244,-0.053045932203531265,9.959524154663086,-0.006300000008195639,-0.040699999779462814,0.1378999948501587,-0.02899999937514897,0.012000000373951061,-0.021000000237532696
0.12216175347566605,-0.043660663068294525,9.942879676818848,-0.006199999712407589,-0.03059999831020832,0.12809999287128448,0.15599999985878385,0.06700000028140622,0.0659999978879142
0.12046664953231812,-0.04603571072220802,9.940849304199219,-0.006000000052154064,-0.030799999833106995,0.12809999287128448,-0.046999999102312236,0.03899999996469596,-0.07000000079177565
0.1348414421081543,-0.042904093861579895,9.958155632019043,0.013599999248981476,-0.030499998480081558,0.1378999948501587,0.02800000031671026,-0.015999999942759198,-0.02800000031671026
0.11156021803617477,-0.061981093138456345,9.958701133728027,-0.015699999406933784,-0.04989999905228615,0.1378999948501587,0.06200000165415938,0.046999999102312236,0.07399999702553048
0.12254482507705688,-0.041955988854169846,9.952313423156738,-0.005799999926239252,-0.030299998819828033,0.1378999948501587,0.02800000031671026,-0.021000000237532696,-0.04900000055424296
0.11771810799837112,-0.05409938097000122,9.959227561950684,-0.005799999926239252,-0.03999999910593033,0.1378999948501587,-0.1079999983629796,-0.04200000047506539,-0.04900000055424296
0.11400230973958969,-0.04679227992892265,9.945714950561523,-0.015699999406933784,-0.029600000008940697,0.12809999287128448,-0.05200000106461238,0,0.03899999996469596
0.12348334491252899,-0.051293376833200455,9.95077133178711,-0.005799999926239252,-0.03909999877214432,0.1378999948501587,0.06500000216452881,-0.029999998433587676,0.01700000066872456
0.11495041102170944,-0.05454949289560318,9.955578804016113,-0.0058999997563660145,-0.039000000804662704,0.1378999948501587,0.017999999727163266,0,0.0429999995335041
0.11239340156316757,-0.05312254652380943,9.95043659210205,-0.015399999916553497,-0.03830000013113022,0.1378999948501587,0.12400000330831876,0.024000000747902123,-0.02899999937514897
0.12305238842964172,-0.03778050094842911,9.950273513793945,-0.005399999674409628,-0.01850000023841858,0.12809999287128448,0.10400000212922476,0.013000000266153095,0.015999999942759198
0.12584881484508514,-0.04448426887392998,9.955023765563965,0.004399999976158142,-0.0279999990016222,0.1378999948501587,0.10600000024610218,0.015999999942759198,-0.02899999937514897
0.10968316346406937,-0.05077622830867767,9.95687198638916,-0.014800000004470348,-0.037299998104572296,0.1378999948501587,-0.06200000165415938,-0.010999999647985701,-0.03100000082707969
0.1195664256811142,-0.04727111756801605,9.963096618652344,-0.004900000058114529,-0.026799999177455902,0.1476999968290329,-0.0019999999928448997,-0.008999999863581633,-0.10299999973573276
0.11165598779916763,-0.0415920726954937,9.953798294067383,-0.014499999582767487,-0.026200000196695328,0.1378999948501587,0.010999999647985701,-0.021000000237532696,-0.013000000266153095
0.11392569541931152,-0.04995262622833252,9.95256233215332,-0.0142000000923872,-0.03529999777674675,0.1378999948501587,-0.013000000266153095,0.01700000066872456,-0.0030000000934877653
0.12107956409454346,-0.04842991381883621,9.943243980407715,-0.004299999680370092,-0.03449999913573265,0.12809999287128448,-0.05300000012305109,0.007999999971379599,0.008999999863581633
0.11397358030080795,-0.05167644843459129,9.948607444763184,-0.013799999840557575,-0.03359999880194664,0.12809999287128448,0.01700000066872456,-0.010999999647985701,-0.03400000133744912
0.1150653287768364,-0.04437892138957977,9.947534561157227,-0.0038999998942017555,-0.02329999953508377,0.12809999287128448,0.007999999971379599,-0.007999999971379599,-0.024999999806340833
0.12889423966407776,-0.036909010261297226,9.95561695098877,0.005699999630451202,-0.013199999928474426,0.1378999948501587,-0.05099999867112037,-0.0039999999856897995,-0.1070000026395942
0.12464214116334915,-0.04151545837521553,9.948243141174316,0.005699999630451202,-0.02239999920129776,0.12809999287128448,0.0269999995907449,-0.009999999755783667,-0.05200000106461238
0.11245086789131165,-0.04831499233841896,9.949152946472168,-0.013599999248981476,-0.031599998474121094,0.12809999287128448,-0.043999998591942806,0.021999999295971403,-0.03400000133744912
0.10810299962759018,-0.051408298313617706,9.953251838684082,-0.013100000098347664,-0.030299998819828033,0.1378999948501587,-0.038000000906257256,-0.006000000186975531,-0.05200000106461238
0.12130940705537796,-0.03966713324189186,9.955023765563965,-0.0032999999821186066,-0.019899999722838402,0.1378999948501587,0.009999999755783667,0.010999999647985701,-0.06200000165415938
0.11113884299993515,-0.04081634804606438,9.944833755493164,-0.012799999676644802,-0.019500000402331352,0.12809999287128448,0.004999999877891834,0,-0.014999999216793838
0.12768757343292236,-0.03489788621664047,9.95015811920166,0.006599999964237213,-0.009499999694526196,0.12809999287128448,0.02899999937514897,0.0039999999856897995,-0.029999998433587676
0.11586020886898041,-0.035060688853263855,9.940064430236816,-0.003000000026077032,-0.00930000003427267,0.11829999834299088,0.0009999999964224499,0.0039999999856897995,-0.03599999945432653
0.11128249019384384,-0.05771941319108009,9.946825981140137,-0.01249999925494194,-0.03799999877810478,0.12809999287128448,-0.02600000053230619,0.019000000453128628,0.006000000186975531
0.11440453678369522,-0.04289451614022255,9.936894416809082,-0.012199999764561653,-0.017799999564886093,0.11829999834299088,-0.01400000015835513,-0.013000000266153095,-0.012000000373951061
0.12084972113370895,-0.03322194144129753,9.937028884887695,-0.0023999998811632395,-0.007799999788403511,0.11829999834299088,-0.0329999989439571,0.004999999877891834,-0.013000000266153095
0.12043792009353638,-0.04559517651796341,9.946721076965332,-0.002300000051036477,-0.017099998891353607,0.12809999287128448,0.03999999902313467,-0.029999998433587676,-0.019000000453128628
0.12480494379997253,-0.041668687015771866,9.952218055725098,0.0072999997064471245,-0.01679999940097332,0.1378999948501587,-0.021999999295971403,0.006000000186975531,0.01700000066872456
0.1249007135629654,-0.046907201409339905,9.95092487335205,0.007199999876320362,-0.01640000008046627,0.1378999948501587,0.07900000232288394,0.0009999999964224499,0.015999999942759198
0.12855905294418335,-0.04881298542022705,9.954477310180664,0.007199999876320362,-0.02589999884366989,0.1378999948501587,-0.0030000000934877653,-0.02800000031671026,-0.031999999885518396
0.12026554346084595,-0.043114785104990005,9.957226753234863,-0.0024999999441206455,-0.015799999237060547,0.1378999948501587,0.029999998433587676,0.06200000165415938,0.0030000000934877653
0.12022723257541656,-0.034466926008462906,9.94472885131836,-0.002300000051036477,-0.0058999997563660145,0.12809999287128448,0.03599999945432653,-0.0030000000934877653,0.024000000747902123
0.11300631612539291,-0.04912902042269707,9.957982063293457,-0.011899999342858791,-0.025100000202655792,0.1378999948501587,0.008999999863581633,0.031999999885518396,-0.04200000047506539
0.10171526670455933,-0.04500141367316246,9.951958656311035,-0.021299999207258224,-0.014999999664723873,0.1378999948501587,0.023000000021936765,0.0019999999928448997,0.0009999999964224499
0.11734461039304733,-0.062287550419569016,9.945034980773926,-0.0015999999595806003,-0.0340999998152256,0.12809999287128448,0.021999999295971403,-0.012000000373951061,0.014999999216793838
0.11796710640192032,-0.04286578670144081,9.949392318725586,-0.0015999999595806003,-0.0142000000923872,0.12809999287128448,-0.012000000373951061,0.004999999877891834,0.02600000053230619
0.11620496958494186,-0.042166680097579956,9.941817283630371,-0.001500000013038516,-0.013799999840557575,0.12809999287128448,-0.02899999937514897,-0.019999999511567335,-0.02800000031671026
0.11365754157304764,-0.05531563609838486,9.933245658874512,-0.01119999960064888,-0.023099999874830246,0.11829999834299088,-0.017999999727163266,-0.03899999996469596,-0.05300000012305109
0.11241255700588226,-0.03938940912485123,9.950799942016602,-0.011099999770522118,-0.012999999336898327,0.1378999948501587,0.0039999999856897995,0.021000000237532696,-0.06700000028140622
0.10917560011148453,-0.03948517516255379,9.960396766662598,-0.010900000110268593,-0.01269999984651804,0.1476999968290329,0.004999999877891834,-0.0429999995335041,-0.0539999991814898
0.12614570558071136,-0.052002061158418655,9.954716682434082,0.00839999970048666,-0.022099999710917473,0.1378999948501587,-0.0269999995907449,-0.007999999971379599,-0.008999999863581633
0.10836157202720642,-0.052854396402835846,9.957868576049805,-0.010900000110268593,-0.012000000104308128,0.11829999834299088,-0.007999999971379599,0.0039999999856897995,-0.0429999995335041
0.11374373733997345,-0.04949294030666351,9.94411563873291,-0.010799999348819256,-0.021299999207258224,0.1378999948501587,0.004999999877891834,-0.07000000079177565,0.02600000053230619
0.10500010848045349,-0.04241567477583885,9.952811241149902,-0.010599999688565731,-0.020999999716877937,0.12809999287128448,-0.05900000114378995,-0.019999999511567335,-0.03400000133744912
0.12007400393486023,-0.03552995249629021,9.951996803283691,-0.02029999904334545,-0.010900000110268593,0.1378999948501587,-0.009999999755783667,-0.012000000373951061,-0.0019999999928448997
0.12296620011329651,-0.03746446967124939,9.958480834960938,-0.000699999975040555,-0.000699999975040555,0.1378999948501587,0.0009999999964224499,0.009999999755783667,-0.010999999647985701
0.13389334082603455,-0.05127422511577606,9.958786964416504,0.008899999782443047,-0.019899999722838402,0.1378999948501587,-0.0039999999856897995,0.0039999999856897995,0.05200000106461238
0.1271321177482605,-0.037521932274103165,9.966889381408691,0.008899999782443047,-0.00019999999494757503,0.1476999968290329,0.015999999942759198,0.023000000021936765,0.024999999806340833
0.11046846956014633,-0.0347159244120121,9.938054084777832,-0.010400000028312206,-0.00009999999747378752,0.11829999834299088,-0.019000000453128628,0.004999999877891834,0.048000001495804245
0.10719320178031921,-0.05917508900165558,9.947160720825195,-0.010199999436736107,-0.028999999165534973,0.12809999287128448,0.03899999996469596,0.004999999877891834,0.02899999937514897
0.12331096827983856,-0.03324109688401222,9.961152076721191,-0.00039999998989515007,0.00029999998514540493,0.1476999968290329,-0.024999999806340833,0.03899999996469596,0.007000000079177565
0.11252748221158981,-0.04429273307323456,9.9500150680542,-0.00989999994635582,-0.009099999442696571,0.12809999287128448,0.009999999755783667,0.0019999999928448997,-0.038000000906257256
0.12214259058237076,-0.05035484954714775,9.943253517150879,-0.00009999999747378752,-0.01850000023841858,0.12809999287128448,-0.04500000098543482,0.01700000066872456,0.007999999971379599
0.1199207752943039,-0.03632482886314392,9.943703651428223,0,0.0011999999405816197,0.12809999287128448,0.02800000031671026,-0.008999999863581633,0.007999999971379599
0.11351389437913895,-0.044848185032606125,9.937115669250488,-0.00969999935477972,-0.008299999870359898,0.11819999665021896,-0.015999999942759198,0.004999999877891834,0.05200000106461238
0.11107181012630463,-0.04614105448126793,9.946165084838867,-0.009499999694526196,-0.007999999448657036,0.12809999287128448,0.05300000012305109,0.0039999999856897995,0.07099999651516105
0.12657664716243744,-0.03145981207489967,9.960329055786133,0.009999999776482582,0.0015999999595806003,0.1476999968290329,0.057000003026912535,0.024000000747902123,0.048000001495804245
0.11688492447137833,-0.04042370244860649,9.95621109008789,0.00019999999494757503,-0.007999999448657036,0.1378999948501587,-0.021999999295971403,0.012000000373951061,0.014999999216793838
0.12575304508209229,-0.04116111248731613,9.9410982131958,0.009999999776482582,-0.007699999958276749,0.12809999287128448,-0.019000000453128628,-0.023000000021936765,-0.02800000031671026
0.12413457036018372,-0.04704127460718155,9.955004692077637,0.00019999999494757503,-0.007499999832361937,0.1378999948501587,-0.023000000021936765,0.004999999877891834,0.014999999216793838
0.11677958071231842,-0.045815445482730865,9.948119163513184,-0.009399999864399433,-0.007199999876320362,0.12809999287128448,0.014999999216793838,0.008999999863581633,-0.01400000015835513
0.11677958071231842,-0.045815445482730865,9.948119163513184,0.00039999998989515007,-0.00699999975040555,0.12809999287128448,0.014999999216793838,0.008999999863581633,-0.01400000015835513
0.12514013051986694,-0.041620802134275436,9.945111274719238,0.010099999606609344,-0.006799999624490738,0.12809999287128448,0.02600000053230619,-0.0009999999964224499,-0.008999999863581633
0.1251114010810852,-0.041620802134275436,9.955263137817383,0.009999999776482582,-0.0066999997943639755,0.1378999948501587,0.05600000063342052,0.0009999999964224499,-0.004999999877891834
0.1148163378238678,-0.04588248208165169,9.959246635437012,-0.009399999864399433,-0.006599999964237213,0.1378999948501587,0.03100000082707969,-0.007000000079177565,-0.04600000004387353
0.12536998093128204,-0.048353299498558044,9.943790435791016,0.009999999776482582,-0.016200000420212746,0.12809999287128448,-0.019999999511567335,-0.007000000079177565,0.019999999511567335
0.12165417522192001,-0.055373094975948334,9.940046310424805,-0.009399999864399433,0.013199999928474426,0.12809999287128448,0.0269999995907449,0.008999999863581633,-0.0009999999964224499
0.1094820573925972,-0.023444022983312607,9.946117401123047,0.00039999998989515007,-0.01589999906718731,0.11819999665021896,0.01700000066872456,-0.04500000098543482,0.010999999647985701
0.11571655422449112,-0.033873166888952255,9.941596984863281,-0.009200000204145908,0.013399999588727951,0.12809999287128448,-0.043999998591942806,-0.04600000004387353,0
0.1110239177942276,-0.04317224398255348,9.939346313476562,-0.009200000204145908,-0.005799999926239252,0.11819999665021896,0.024999999806340833,-0.010999999647985701,-0.014999999216793838
0.11530475318431854,-0.04805641621351242,9.957073211669922,-0.009200000204145908,-0.005799999926239252,0.11819999665021896,-0.019999999511567335,-0.024000000747902123,-0.01700000066872456
0.12310027331113815,-0.04566221684217453,9.955157279968262,0.00039999998989515007,-0.005399999674409628,0.1378999948501587,-0.05099999867112037,-0.006000000186975531,0.006000000186975531
0.11955685168504715,-0.045317452400922775,9.940313339233398,0.00039999998989515007,-0.004999999888241291,0.11819999665021896,0.0039999999856897995,-0.015999999942759198,-0.0009999999964224499
0.11418426781892776,-0.04225287213921547,9.942852020263672,-0.009200000204145908,-0.004900000058114529,0.12809999287128448,0.012000000373951061,0.03100000082707969,-0.03899999996469596
0.11744038760662079,-0.04481945559382439,9.9302396774292,0.0005999999702908099,-0.004699999932199717,0.10839999467134476,-0.006000000186975531,0.006000000186975531,-0.009999999755783667
0.11666465550661087,-0.0319865345954895,9.956421852111816,0.000699999975040555,0.0050999997183680534,0.1378999948501587,-0.03899999996469596,-0.023000000021936765,-0.0749999994190225
0.12269805371761322,-0.03597048670053482,9.950560569763184,0.0005999999702908099,0.0052999998442828655,0.1378999948501587,0.03100000082707969,0.019999999511567335,0.035000000395887826
0.1322173923254013,-0.039964016526937485,9.942439079284668,0.010400000028312206,-0.004399999976158142,0.12809999287128448,0.019000000453128628,0.031999999885518396,0.03899999996469596
0.1250922530889511,-0.039274487644433975,9.967885971069336,0.010400000028312206,-0.004299999680370092,0.1476999968290329,-0.0039999999856897995,0.038000000906257256,0.02600000053230619
0.11467268317937851,-0.044091615825891495,9.95212173461914,-0.008899999782443047,-0.004100000020116568,0.1378999948501587,0.004999999877891834,0.007000000079177565,-0.009999999755783667
0.11249874532222748,-0.05932832136750221,9.94221019744873,-0.008700000122189522,-0.02329999953508377,0.12809999287128448,0.09300000248123906,0,0.08499999667351618
0.11158894747495651,-0.05792052671313286,9.960492134094238,-0.008700000122189522,-0.02329999953508377,0.12809999287128448,0.09300000248123906,0,0.08499999667351618
0.10825622826814651,-0.04332547262310982,9.9480619430542,-0.008599999360740185,-0.02319999970495701,0.1476999968290329,0.019000000453128628,-0.023000000021936765,-0.021000000237532696
0.11308293044567108,-0.04642836004495621,9.953597068786621,-0.008599999360740185,-0.003399999812245369,0.12809999287128448,0,0.004999999877891834,-0.02899999937514897
0.11211567372083664,-0.0515327975153923,9.946596145629883,-0.008599999360740185,-0.0032999999821186066,0.1378999948501587,-0.057000003026912535,0.007000000079177565,-0.06099999926066736
0.12382811307907104,-0.03773261979222298,9.947295188903809,0.0013000000035390258,0.006799999624490738,0.12809999287128448,0.07900000232288394,-0.024000000747902123,0.024000000747902123
0.11393526941537857,-0.04491522163152695,9.94282341003418,0.0013000000035390258,0.006799999624490738,0.12809999287128448,0.021000000237532696,0.004999999877891834,-0.017999999727163266
0.1112537607550621,-0.04903325065970421,9.95163345336914,-0.00839999970048666,-0.003000000026077032,0.12809999287128448,0,0.006000000186975531,-0.007000000079177565
0.12308112531900406,-0.04950251430273056,9.959121704101562,-0.008299999870359898,-0.012600000016391277,0.1378999948501587,0.004999999877891834,0.0009999999964224499,-0.05600000063342052
0.11440453678369522,-0.044608764350414276,9.947870254516602,0.001500000013038516,-0.012299999594688416,0.1378999948501587,-0.007000000079177565,-0.0009999999964224499,0.0019999999928448997
0.12708422541618347,-0.061416059732437134,9.950187683105469,-0.008100000210106373,-0.0023999998811632395,0.12799999117851257,0.03100000082707969,-0.0659999978879142,-0.06500000216452881
0.12122321873903275,-0.05026865750551224,9.938206672668457,0.011299999430775642,-0.021699998527765274,0.12809999287128448,0.019000000453128628,-0.017999999727163266,0.014999999216793838
0.12236285954713821,-0.049445051699876785,9.943349838256836,0.0013000000035390258,-0.011699999682605267,0.11819999665021896,0,0.004999999877891834,-0.03699999851276524
0.12018892914056778,-0.0444268062710762,9.950867652893066,0.0013000000035390258,-0.0015999999595806003,0.1378999948501587,0.004999999877891834,-0.046999999102312236,-0.02899999937514897
0.11797668784856796,-0.04852567985653877,9.9500150680542,0.0013000000035390258,-0.0015999999595806003,0.1378999948501587,0,0.014999999216793838,0.01700000066872456
0.1131691262125969,-0.02741839736700058,9.95130729675293,-0.00839999970048666,0.01809999905526638,0.1378999948501587,-0.03599999945432653,0.023000000021936765,0.0030000000934877653
0.11388739198446274,-0.04880340397357941,9.952695846557617,-0.008200000040233135,-0.010799999348819256,0.1378999948501587,0.007999999971379599,-0.007000000079177565,-0.031999999885518396
0.13506171107292175,-0.045202530920505524,9.948577880859375,0.020899999886751175,-0.0008999999845400453,0.12809999287128448,-0.010999999647985701,-0.012000000373951061,-0.02800000031671026
0.11667423695325851,-0.04196557030081749,9.955551147460938,0.0013000000035390258,-0.0007999999797903001,0.1378999948501587,-0.0030000000934877653,-0.05900000114378995,-0.07000000079177565
0.12051453441381454,-0.03736870363354683,9.955253601074219,0.0010999999940395355,0.008999999612569809,0.1378999948501587,0.012000000373951061,0.004999999877891834,0.0030000000934877653
0.11769896000623703,-0.05194459855556488,9.951164245605469,0.0011999999405816197,-0.010300000198185444,0.1378999948501587,0.031999999885518396,0.02899999937514897,0
0.11656889319419861,-0.03794331103563309,9.94274616241455,0.0013000000035390258,0.009099999442696571,0.12809999287128448,-0.02600000053230619,0.012000000373951061,0.023000000021936765
0.11864705383777618,-0.0477403849363327,9.960731506347656,0.0013000000035390258,-0.00039999998989515007,0.1476999968290329,-0.007000000079177565,-0.0009999999964224499,0.019999999511567335
0.10173442214727402,-0.03942771628499031,9.947888374328613,-0.017999999225139618,-0.00019999999494757503,0.12809999287128448,0.02899999937514897,-0.014999999216793838,-0.019000000453128628
0.12455594539642334,-0.04014597460627556,9.948837280273438,0.01119999960064888,-0.00019999999494757503,0.12809999287128448,0,0.029999998433587676,-0.024000000747902123
0.10795934498310089,-0.04035666212439537,9.946577072143555,-0.008100000210106373,-0.00009999999747378752,0.12809999287128448,0.017999999727163266,0.023000000021936765,0.02600000053230619
0.1099417433142662,-0.04172614589333534,9.948721885681152,-0.007999999448657036,0,0.12809999287128448,0.007999999971379599,0.03400000133744912,-0.07999999804626934
0.11924082040786743,-0.04551856219768524,9.946002006530762,0.0017999999690800905,0,0.12809999287128448,0.0019999999928448997,-0.0039999999856897995,-0.0539999991814898
0.12110830098390579,-0.04567179083824158,9.94438362121582,-0.007799999788403511,0.00009999999747378752,0.1378999948501587,-0.04200000047506539,0.006000000186975531,-0.048000001495804245
0.11868536472320557,-0.03743573650717735,9.948424339294434,0.001999999862164259,0.010199999436736107,0.12809999287128448,-0.0429999995335041,-0.07000000079177565,-0.0539999991814898
0.12125195562839508,-0.054894257336854935,9.945466041564941,0.0017999999690800905,-0.008999999612569809,0.12809999287128448,0.07900000232288394,0.008999999863581633,0.043999998591942806
0.11364796757698059,-0.03623863682150841,9.948127746582031,-0.007799999788403511,0.010400000028312206,0.12809999287128448,-0.024000000747902123,-0.006000000186975531,-0.03400000133744912
0.12643299996852875,-0.0400502048432827,9.940783500671387,0.011599999852478504,0.000699999975040555,0.12809999287128448,-0.019999999511567335,0.012000000373951061,-0.03599999945432653
0.11989204585552216,-0.038163572549819946,9.937814712524414,0.011599999852478504,0.000699999975040555,0.12809999287128448,-0.0030000000934877653,-0.02800000031671026,-0.04500000098543482
0.12212344259023666,-0.04516422376036644,9.938570022583008,0.0017999999690800905,0.0008999999845400453,0.11829999834299088,-0.0329999989439571,0.008999999863581633,-0.09399999820462447
0.10636001825332642,-0.039015911519527435,9.932958602905273,-0.007799999788403511,0.0011999999405816197,0.11829999834299088,-0.007999999971379599,-0.017999999727163266,-0.041000001416626686
0.12320561707019806,-0.052308518439531326,9.958748817443848,0.0018999999156221747,-0.008299999870359898,0.1378999948501587,0.004999999877891834,0.03899999996469596,0.019000000453128628
0.11677000671625137,-0.042904093861579895,9.933245658874512,0.001999999862164259,0.001500000013038516,0.11829999834299088,-0.021999999295971403,-0.007999999971379599,-0.02800000031671026
0.11132080107927322,-0.03651636466383934,9.947266578674316,-0.007599999662488699,0.011399999260902405,0.12809999287128448,0.04200000047506539,-0.012000000373951061,-0.04200000047506539
0.10135135054588318,-0.0345914252102375,9.9492769241333,-0.01730000041425228,0.011299999430775642,0.12809999287128448,-0.03100000082707969,-0.01700000066872456,-0.014999999216793838
0.11563993990421295,-0.05630204826593399,9.932910919189453,0.002199999988079071,-0.007899999618530273,0.11819999665021896,-0.007000000079177565,-0.0329999989439571,0.01700000066872456
0.11559205502271652,-0.04186980053782463,9.944507598876953,0.002099999925121665,0.0018999999156221747,0.12809999287128448,0.021999999295971403,-0.007000000079177565,0.004999999877891834
0.11117714643478394,-0.051360417157411575,9.957005500793457,-0.007499999832361937,-0.007699999958276749,0.1378999948501587,-0.0039999999856897995,-0.01400000015835513,-0.03599999945432653
0.11308293044567108,-0.045844174921512604,9.951087951660156,-0.007499999832361937,0.002199999988079071,0.1378999948501587,0.04600000004387353,-0.007999999971379599,-0.031999999885518396
0.12195105850696564,-0.039820361882448196,9.946328163146973,0.002199999988079071,0.002099999925121665,0.12809999287128448,0.004999999877891834,-0.01400000015835513,-0.01400000015835513
0.11804372072219849,-0.04691677540540695,9.952333450317383,0.002199999988079071,0.002199999988079071,0.1378999948501587,0.006000000186975531,-0.007999999971379599,-0.0269999995907449
0.1217978298664093,-0.03468719497323036,9.953194618225098,0.002199999988079071,0.012000000104308128,0.1378999948501587,0.024000000747902123,0,-0.0039999999856897995
0.11035354435443878,-0.036315251141786575,9.952945709228516,-0.007499999832361937,0.012000000104308128,0.1378999948501587,-0.009999999755783667,0.021000000237532696,-0.038000000906257256
0.10703997313976288,-0.03373908996582031,9.939374923706055,-0.0072999997064471245,0.012000000104308128,0.11819999665021896,0.004999999877891834,0.0039999999856897995,-0.031999999885518396
0.1071261614561081,-0.04416823014616966,9.936722755432129,-0.007199999876320362,0.002300000051036477,0.11819999665021896,-0.017999999727163266,-0.019999999511567335,-0.06099999926066736
0.11525686830282211,-0.04931097850203514,9.92961597442627,0.0024999999441206455,-0.0071000000461936,0.10839999467134476,0.004999999877891834,0.004999999877891834,-0.012000000373951061
0.11147402971982956,-0.04901409521698952,9.945944786071777,-0.0071000000461936,-0.00699999975040555,0.12809999287128448,0.0329999989439571,0.021999999295971403,0.02899999937514897
0.12349291890859604,-0.055746592581272125,9.938158988952637,0.0026000000070780516,-0.006899999920278788,0.11819999665021896,0.021000000237532696,0.006000000186975531,-0.004999999877891834
0.11545798182487488,-0.0438426211476326,9.95190143585205,0.0026000000070780516,0.002899999963119626,0.1378999948501587,0.021999999295971403,0.004999999877891834,0.01700000066872456
0.11218271404504776,-0.05062299966812134,9.929290771484375,-0.00699999975040555,-0.0066999997943639755,0.10839999467134476,-0.019999999511567335,0.007999999971379599,0
0.11313082277774811,-0.05132210999727249,9.9351806640625,-0.006799999624490738,-0.006399999838322401,0.11819999665021896,-0.0329999989439571,0.004999999877891834,-0.05799999875029794
0.12668199837207794,-0.04423527047038078,9.931291580200195,-0.0066999997943639755,0.013199999928474426,0.12809999287128448,0.014999999216793838,-0.0039999999856897995,0.0269999995907449
0.10550767928361893,-0.03159388527274132,9.946940422058105,-0.0066999997943639755,0.013299999758601189,0.12809999287128448,0.0659999978879142,0.012000000373951061,0.0009999999964224499
0.12455594539642334,-0.03575979545712471,9.947074890136719,-0.0066999997943639755,0.013299999758601189,0.12809999287128448,0.019000000453128628,-0.021000000237532696,-0.03699999851276524
0.11174218356609344,-0.03784754127264023,9.946442604064941,0.01269999984651804,0.013100000098347664,0.12809999287128448,-0.07099999651516105,-0.06099999926066736,-0.04600000004387353
0.107691191136837,-0.043785158544778824,9.953672409057617,-0.006799999624490738,0.003499999875202775,0.1378999948501587,0.0039999999856897995,0.0039999999856897995,-0.07699999753589991
0.10859141498804092,-0.041716571897268295,9.930841445922852,-0.0066999997943639755,0.003599999938160181,0.10839999467134476,0.09200000008774706,0.004999999877891834,-0.019000000453128628
0.13082875311374664,-0.03910209983587265,9.934510231018066,0.01269999984651804,0.003399999812245369,0.11819999665021896,0.0039999999856897995,0.004999999877891834,0.013000000266153095
0.11993034929037094,-0.03354755416512489,9.931809425354004,0.002899999963119626,0.013199999928474426,0.11819999665021896,0.012000000373951061,0.006000000186975531,0.0269999995907449
0.12390472739934921,-0.04256890341639519,9.946394920349121,0.002899999963119626,0.003399999812245369,0.12809999287128448,0.009999999755783667,0.012000000373951061,0.021000000237532696
0.12123279273509979,-0.042262446135282516,9.933178901672363,0.002899999963119626,0.003499999875202775,0.11819999665021896,0.007999999971379599,-0.0009999999964224499,0.019000000453128628
0.11448115110397339,-0.038144420832395554,9.936003684997559,-0.0066999997943639755,0.013299999758601189,0.11819999665021896,-0.0429999995335041,0.004999999877891834,-0.0039999999856897995
0.11797668784856796,-0.03985866904258728,9.928390502929688,0.003000000026077032,0.003700000001117587,0.10839999467134476,-0.019000000453128628,0.03100000082707969,0
0.12400049716234207,-0.036966472864151,9.9220609664917,0.0030999998562037945,0.013499999418854713,0.10839999467134476,0.004999999877891834,-0.007000000079177565,0.01700000066872456
0.128108948469162,-0.041103653609752655,9.94340705871582,0.012799999676644802,0.0037999998312443495,0.12809999287128448,0.06500000216452881,0.012000000373951061,0.031999999885518396
0.10792103409767151,-0.04080677404999733,9.937565803527832,-0.006599999964237213,0.003700000001117587,0.11819999665021896,0.006000000186975531,-0.019000000453128628,-0.06500000216452881
0.11081323027610779,-0.03005201928317547,9.952408790588379,-0.006599999964237213,0.013499999418854713,0.1378999948501587,-0.0030000000934877653,-0.0030000000934877653,-0.08100000043976135
0.11809160560369492,-0.0483437180519104,9.959563255310059,0.0030999998562037945,-0.005799999926239252,0.1378999948501587,-0.012000000373951061,-0.007000000079177565,-0.0019999999928448997
0.1272757649421692,-0.04462791979312897,9.94886589050293,0.012799999676644802,0.003999999724328518,0.12809999287128448,-0.01700000066872456,0.007999999971379599,-0.03100000082707969
0.10873506218194962,-0.037244200706481934,9.939010620117188,-0.006599999964237213,0.013899999670684338,0.11819999665021896,0.021999999295971403,0.031999999885518396,-0.023000000021936765
0.12237243354320526,-0.034035973250865936,9.94153881072998,0.0031999999191612005,0.013799999840557575,0.12809999287128448,-0.05900000114378995,0.0009999999964224499,-0.0659999978879142
0.12297577410936356,-0.04993347078561783,9.94694995880127,0.0031999999191612005,-0.005399999674409628,0.12809999287128448,-0.0009999999964224499,0.01400000015835513,0.006000000186975531
0.10779654234647751,-0.040605660527944565,9.944661140441895,-0.006399999838322401,0.004399999976158142,0.12809999287128448,0.009999999755783667,0.0019999999928448997,-0.09800000110848592
0.12281297147274017,-0.04955997318029404,9.927125930786133,0.0032999999821186066,-0.0050999997183680534,0.10839999467134476,0.03100000082707969,0.004999999877891834,0.004999999877891834
0.11880028247833252,-0.04628470540046692,9.938838958740234,0.0032999999821186066,0.004600000102072954,0.11819999665021896,0.006000000186975531,0.006000000186975531,0.038000000906257256
0.12125195562839508,-0.04495352879166603,9.949488639831543,0.003399999812245369,0.004600000102072954,0.12809999287128448,0.004999999877891834,-0.019000000453128628,-0.017999999727163266
0.11880987137556076,-0.041745301336050034,9.941941261291504,0.0032999999821186066,0.004699999932199717,0.12809999287128448,0.009999999755783667,-0.0429999995335041,-0.05499999823992851
0.10814130306243896,-0.052567094564437866,9.935237884521484,0.0031999999191612005,0.004699999932199717,0.11819999665021896,0.023000000021936765,-0.007000000079177565,-0.13100000005244303
0.10949163138866425,-0.04521210491657257,9.93925952911377,-0.006399999838322401,-0.004799999762326479,0.11819999665021896,-0.008999999863581633,0.0329999989439571,-0.05499999823992851
0.1112729161977768,-0.05014416202902794,9.951001167297363,-0.006300000008195639,0.004900000058114529,0.11819999665021896,0.0329999989439571,0.006000000186975531,-0.014999999216793838
0.11531433463096619,-0.04858314245939255,9.941387176513672,-0.006199999712407589,-0.004600000102072954,0.1378999948501587,-0.007000000079177565,0.0009999999964224499,-0.09099999769425504
0.11804372072219849,-0.04832456633448601,9.943923950195312,0.003499999875202775,-0.004399999976158142,0.12809999287128448,0.012000000373951061,0.004999999877891834,-0.03699999851276524
0.10863929986953735,-0.04986643046140671,9.9396333694458,-0.006099999882280827,-0.00419999985024333,0.11819999665021896,-0.008999999863581633,-0.008999999863581633,0.0009999999964224499
0.1073560044169426,-0.03447650372982025,9.954161643981934,-0.006000000052154064,0.01529999915510416,0.1378999948501587,0,-0.0329999989439571,0
0.10938628017902374,-0.03312617540359497,9.941912651062012,-0.006000000052154064,0.01529999915510416,0.12809999287128448,0.008999999863581633,-0.023000000021936765,-0.024000000747902123
0.1112537607550621,-0.03854664787650108,9.951126098632812,-0.006000000052154064,0.005499999970197678,0.1378999948501587,0.024000000747902123,0,0.009999999755783667
0.12926773726940155,-0.05043146386742592,9.951863288879395,0.013399999588727951,-0.004100000020116568,0.1378999948501587,0.0039999999856897995,0.0039999999856897995,0.007999999971379599
0.11217314004898071,-0.04511633515357971,9.945609092712402,-0.006000000052154064,0.005699999630451202,0.12809999287128448,0.0039999999856897995,0.019000000453128628,-0.0030000000934877653
0.12057200074195862,-0.043277591466903687,9.944708824157715,0.003700000001117587,0.005799999926239252,0.12809999287128448,0.006000000186975531,-0.019000000453128628,-0.015999999942759198
0.11050677299499512,-0.03009990230202675,9.936702728271484,0.003700000001117587,0.005799999926239252,0.12809999287128448,0.007999999971379599,0.006000000186975531,0.013000000266153095
0.11050677299499512,-0.03009990230202675,9.936702728271484,-0.0058999997563660145,0.015699999406933784,0.11819999665021896,0.007999999971379599,0.006000000186975531,0.013000000266153095
0.12196063250303268,-0.03549164533615112,9.935649871826172,0.0037999998312443495,0.015599999576807022,0.11819999665021896,0,0,-0.024000000747902123
0.11601343750953674,-0.027849353849887848,9.940179824829102,0.0037999998312443495,0.025299999862909317,0.11819999665021896,0.009999999755783667,0.004999999877891834,-0.05600000063342052
0.11716265231370926,-0.049397170543670654,9.927902221679688,0.0037999998312443495,-0.0038999998942017555,0.10839999467134476,-0.0009999999964224499,0.0009999999964224499,0.010999999647985701
0.11707646399736404,-0.04307647794485092,9.937651634216309,0.0037999998312443495,0.0058999997563660145,0.11819999665021896,0.0030000000934877653,0.004999999877891834,-0.06899999839828364
0.10813172906637192,-0.04246356338262558,9.949143409729004,-0.005799999926239252,0.006000000052154064,0.12809999287128448,-0.02600000053230619,0.02600000053230619,0.0030000000934877653
0.11438538134098053,-0.0482192225754261,9.940093994140625,-0.005699999630451202,-0.003499999875202775,0.11819999665021896,-0.0269999995907449,-0.007999999971379599,-0.07600000181251451
0.10222283750772476,-0.0462176688015461,9.950972557067871,-0.01529999915510416,0.006300000008195639,0.1378999948501587,-0.015999999942759198,0.004999999877891834,-0.021000000237532696
0.11353304237127304,-0.04049073904752731,9.951834678649902,-0.005499999970197678,0.0064999996684491634,0.1378999948501587,0.03100000082707969,0.0019999999928448997,-0.09200000008774706
0.11888648569583893,-0.03574064373970032,9.956441879272461,0.00419999985024333,0.016200000420212746,0.1378999948501587,0.004999999877891834,0.004999999877891834,0.035000000395887826
0.1145864948630333,-0.038948871195316315,9.949498176574707,-0.005399999674409628,0.006399999838322401,0.12799999117851257,0.02600000053230619,0.021000000237532696,0.007000000079177565
0.1056704893708229,-0.04463749751448631,9.937430381774902,-0.0052999998442828655,0.006399999838322401,0.12799999117851257,0.004999999877891834,0.0030000000934877653,-0.024000000747902123
0.11500786989927292,-0.03823061287403107,9.938962936401367,-0.0050999997183680534,0.006399999838322401,0.11819999665021896,0.0009999999964224499,-0.007000000079177565,0.02600000053230619
0.10679096728563309,-0.03571191430091858,9.9497652053833,0.004600000102072954,0.016200000420212746,0.11819999665021896,-0.0429999995335041,0,0.012000000373951061
0.11519940942525864,-0.029870059341192245,9.944584846496582,0.004600000102072954,0.016300000250339508,0.12799999117851257,-0.0039999999856897995,-0.0039999999856897995,0.019000000453128628
0.1204858124256134,-0.046246398240327835,9.949641227722168,0.004600000102072954,0.016300000250339508,0.12799999117851257,0.01400000015835513,-0.007000000079177565,-0.08499999667351618
0.11563993990421295,-0.03900633379817009,9.951576232910156,0.0044999998062849045,0.006599999964237213,0.1378999948501587,0.007000000079177565,-0.0329999989439571,-0.06800000267489824
0.1131499707698822,-0.04185064882040024,9.945714950561523,-0.005200000014156103,0.0066999997943639755,0.12799999117851257,0.0039999999856897995,-0.019000000453128628,-0.017999999727163266
0.10590033233165741,-0.040960002690553665,9.953787803649902,-0.005200000014156103,0.0066999997943639755,0.1378999948501587,0.017999999727163266,0.029999998433587676,-0.0329999989439571
0.12036130577325821,-0.03967671096324921,9.943052291870117,0.004600000102072954,0.0066999997943639755,0.12799999117851257,0.0019999999928448997,0.006000000186975531,-0.05499999823992851
0.11940362304449081,-0.03532884269952774,9.942487716674805,0.004600000102072954,0.016499999910593033,0.12799999117851257,0.04900000055424296,0.004999999877891834,0.0039999999856897995
0.12433568388223648,-0.04556644707918167,9.946778297424316,0.004600000102072954,0.006599999964237213,0.12799999117851257,0.004999999877891834,0.019000000453128628,-0.10299999973573276
0.11431834101676941,-0.0529693178832531,9.95469856262207,-0.004999999888241291,-0.002899999963119626,0.1378999948501587,-0.009999999755783667,-0.0019999999928448997,0.02800000031671026
0.12007400393486023,-0.038642413914203644,9.928217887878418,0.004699999932199717,0.006899999920278788,0.10839999467134476,0.024000000747902123,-0.01700000066872456,0.03599999945432653
0.11020031571388245,-0.045796290040016174,9.949335098266602,-0.004999999888241291,0.006899999920278788,0.12799999117851257,0.03400000133744912,-0.0329999989439571,-0.04600000004387353
0.11383949965238571,-0.0420709103345871,9.931761741638184,-0.004999999888241291,0.006799999624490738,0.11819999665021896,-0.021000000237532696,-0.019999999511567335,0.024000000747902123
0.11383949965238571,-0.0420709103345871,9.931761741638184,-0.004999999888241291,0.006899999920278788,0.11819999665021896,-0.021000000237532696,-0.019999999511567335,0.024000000747902123
0.1065036728978157,-0.040442854166030884,9.954411506652832,-0.004999999888241291,0.00699999975040555,0.1378999948501587,0.009999999755783667,0,-0.02800000031671026
0.10206002742052078,-0.040078938007354736,9.948348999023438,-0.014699999243021011,0.00699999975040555,0.12799999117851257,0.02600000053230619,0.043999998591942806,-0.015999999942759198
0.12853990495204926,-0.03286759927868843,9.938024520874023,0.014599999412894249,0.00699999975040555,0.12799999117851257,-0.007000000079177565,-0.023000000021936765,-0.03100000082707969
0.12853990495204926,-0.03286759927868843,9.938024520874023,0.014599999412894249,0.01679999940097332,0.11819999665021896,-0.007000000079177565,-0.023000000021936765,-0.03100000082707969
0.12575304508209229,-0.04289451614022255,9.940677642822266,0.014399999752640724,0.00699999975040555,0.11819999665021896,0.03100000082707969,-0.004999999877891834,0.029999998433587676
0.11863747984170914,-0.045039720833301544,9.952476501464844,0.004600000102072954,0.00699999975040555,0.1378999948501587,-0.008999999863581633,0.012000000373951061,0.03100000082707969
0.11048761755228043,-0.04118984565138817,9.94118595123291,-0.014800000004470348,0.0071000000461936,0.12799999117851257,0.014999999216793838,-0.024999999806340833,-0.041000001416626686
0.12277466803789139,-0.027437550947070122,9.928400039672852,-0.004999999888241291,0.0071000000461936,0.12799999117851257,0.010999999647985701,-0.013000000266153095,-0.0659999978879142
0.11751700192689896,-0.028423961251974106,9.941903114318848,0.004699999932199717,0.026599999517202377,0.10839999467134476,0.05600000063342052,-0.03999999902313467,-0.024999999806340833
0.11663593351840973,-0.033921051770448685,9.947122573852539,0.004600000102072954,0.026499999687075615,0.12799999117851257,-0.0019999999928448997,-0.007999999971379599,-0.019000000453128628
0.12001653760671616,-0.05081453546881676,9.941337585449219,0.0044999998062849045,0.016499999910593033,0.12799999117851257,0.004999999877891834,0.004999999877891834,0.0039999999856897995
0.10719320178031921,-0.029850905761122704,9.947965621948242,-0.0050999997183680534,0.016599999740719795,0.12799999117851257,-0.021000000237532696,-0.029999998433587676,-0.06399999977103679
0.1214434877038002,-0.05253836140036583,9.936358451843262,0.0044999998062849045,-0.002699999837204814,0.11819999665021896,0.019999999511567335,0.0030000000934877653,0.04200000047506539
0.11570698022842407,-0.04910028725862503,9.945839881896973,0.0044999998062849045,-0.0026000000070780516,0.12799999117851257,0.0030000000934877653,0.029999998433587676,-0.007000000079177565
0.11405019462108612,-0.039705440402030945,9.959026336669922,-0.0050999997183680534,0.007199999876320362,0.1378999948501587,0.014999999216793838,-0.0039999999856897995,-0.006000000186975531
0.11745953559875488,-0.03699520602822304,9.959314346313477,0.004600000102072954,0.016899999231100082,0.1378999948501587,-0.01400000015835513,0.0009999999964224499,-0.02600000053230619
0.12226708978414536,-0.04630386084318161,9.93834114074707,0.004600000102072954,0.007199999876320362,0.11819999665021896,0.004999999877891834,0.021000000237532696,0.031999999885518396
0.10964486002922058,-0.036458905786275864,9.943684577941895,-0.004999999888241291,0.016999999061226845,0.12799999117851257,0.019000000453128628,0.004999999877891834,-0.031999999885518396
0.1091277152299881,-0.0450301431119442,9.950263977050781,-0.004900000058114529,0.007199999876320362,0.12799999117851257,0.02600000053230619,-0.007000000079177565,0.03699999851276524
0.12103168666362762,-0.04218583181500435,9.951825141906738,0.004699999932199717,0.007199999876320362,0.1378999948501587,0,0.006000000186975531,-0.019999999511567335
0.12063904106616974,-0.04487691447138786,9.953760147094727,0.004699999932199717,0.007199999876320362,0.1378999948501587,0.0039999999856897995,0.0039999999856897995,-0.031999999885518396
0.10747092217206955,-0.03809653967618942,9.947035789489746,-0.004900000058114529,0.016999999061226845,0.12799999117851257,0.004999999877891834,0.01700000066872456,0.024999999806340833
0.10774865001440048,-0.04572925344109535,9.954459190368652,-0.004799999762326479,0.007199999876320362,0.1378999948501587,-0.004999999877891834,0.006000000186975531,-0.019999999511567335
0.1161283552646637,-0.035817258059978485,9.948080062866211,0.004900000058114529,0.016999999061226845,0.12799999117851257,-0.007000000079177565,0.006000000186975531,0.007999999971379599
0.12539871037006378,-0.039772480726242065,9.956268310546875,0.014699999243021011,0.0072999997064471245,0.1378999948501587,0.004999999877891834,0.004999999877891834,0.024999999806340833
0.11067915707826614,-0.04593036696314812,9.937756538391113,-0.004699999932199717,0.007400000002235174,0.11819999665021896,-0.0039999999856897995,0.019999999511567335,0.013000000266153095
0.12473791092634201,-0.046054862439632416,9.927892684936523,-0.004699999932199717,0.007400000002235174,0.11819999665021896,0.03599999945432653,-0.03699999851276524,0.0030000000934877653
0.1119624450802803,-0.044848185032606125,9.950590133666992,-0.004799999762326479,0.007499999832361937,0.1378999948501587,-0.010999999647985701,-0.021999999295971403,-0.08799999718388561
0.10950120538473129,-0.04618893936276436,9.948396682739258,-0.004799999762326479,0.007499999832361937,0.1378999948501587,-0.012000000373951061,-0.048000001495804245,-0.048000001495804245
0.1187140941619873,-0.038422148674726486,9.957590103149414,-0.004799999762326479,0.007599999662488699,0.12799999117851257,0.004999999877891834,0.007999999971379599,0.046999999102312236
0.12170206755399704,-0.035817258059978485,9.942353248596191,0.004799999762326479,0.017400000244379044,0.12799999117851257,-0.024000000747902123,0,0.0429999995335041
0.1257338970899582,-0.04666777700185776,9.940801620483398,0.004799999762326479,0.017400000244379044,0.12799999117851257,-0.007000000079177565,-0.008999999863581633,0
0.10749965906143188,-0.03999274596571922,9.94748592376709,0.014499999582767487,0.007699999958276749,0.12799999117851257,-0.012000000373951061,0.004999999877891834,0.04200000047506539
0.1197962835431099,-0.044704534113407135,9.95677661895752,0.004699999932199717,0.007899999618530273,0.1378999948501587,0.014999999216793838,0.004999999877891834,-0.0019999999928448997
0.12535081803798676,-0.04906198009848595,9.952658653259277,0.014399999752640724,-0.0016999999061226845,0.1378999948501587,0.02899999937514897,-0.0019999999928448997,-0.013000000266153095
0.12722787261009216,-0.05748957023024559,9.939691543579102,0.014299999922513962,-0.011399999260902405,0.11819999665021896,0.0019999999928448997,0.006000000186975531,-0.007000000079177565
0.12311942875385284,-0.0515327975153923,9.946155548095703,0.0044999998062849045,-0.00139999995008111,0.12809999287128448,0.04500000098543482,-0.031999999885518396,0.0429999995335041
0.1213189885020256,-0.03712927922606468,9.946499824523926,0.004399999976158142,0.017899999395012856,0.12809999287128448,-0.021999999295971403,0.012000000373951061,-0.031999999885518396
0.11959516257047653,-0.047405194491147995,9.942276954650879,0.004399999976158142,0.008299999870359898,0.12809999287128448,-0.0030000000934877653,0.004999999877891834,-0.023000000021936765
0.11514194309711456,-0.04239652305841446,9.938111305236816,0.004399999976158142,0.008299999870359898,0.11819999665021896,0.014999999216793838,0.021000000237532696,0.019999999511567335
0.12289915978908539,-0.04630386084318161,9.955463409423828,0.0044999998062849045,0.008299999870359898,0.1378999948501587,0.007999999971379599,0.0019999999928448997,-0.017999999727163266
0.13630668818950653,-0.04447469115257263,9.93131160736084,0.023899998515844345,0.008299999870359898,0.11829999834299088,0.02800000031671026,-0.0019999999928448997,-0.017999999727163266
0.11472056806087494,-0.047500960528850555,9.951135635375977,-0.005399999674409628,0.008299999870359898,0.1378999948501587,0.021000000237532696,-0.006000000186975531,0.0039999999856897995
0.11238382756710052,-0.03788584843277931,9.945686340332031,-0.0052999998442828655,0.01809999905526638,0.12809999287128448,0.021999999295971403,0.0019999999928448997,-0.05300000012305109
0.11358092725276947,-0.04129519313573837,9.947831153869629,-0.005200000014156103,0.008200000040233135,0.12809999287128448,0.029999998433587676,0.03100000082707969,-0.03599999945432653
0.12615527212619781,-0.04784572497010231,9.950799942016602,0.014299999922513962,0.008200000040233135,0.1378999948501587,0.035000000395887826,0.006000000186975531,-0.007000000079177565
0.12054326385259628,-0.03924575448036194,9.94859790802002,0.0044999998062849045,0.008200000040233135,0.12809999287128448,-0.021000000237532696,-0.012000000373951061,-0.017999999727163266
0.11925039440393448,-0.042712558060884476,9.942008972167969,0.004399999976158142,0.008299999870359898,0.12809999287128448,0.02600000053230619,-0.014999999216793838,-0.05799999875029794
0.11322658509016037,-0.04658158868551254,9.950427055358887,-0.0052999998442828655,0.008299999870359898,0.1378999948501587,-0.038000000906257256,0.004999999877891834,-0.013000000266153095
0.11188583076000214,-0.04530787095427513,9.944575309753418,-0.005200000014156103,0.00839999970048666,0.12809999287128448,0.007999999971379599,0.0030000000934877653,0.024000000747902123
0.12383769452571869,-0.044043734669685364,9.93997859954834,0.0044999998062849045,0.00839999970048666,0.11819999665021896,-0.035000000395887826,0.02600000053230619,-0.031999999885518396
0.11420342326164246,-0.037665579468011856,9.942831993103027,-0.004999999888241291,0.018299998715519905,0.12809999287128448,0.04900000055424296,-0.0019999999928448997,0.01400000015835513
0.11515152454376221,-0.04725196585059166,9.937163352966309,0.014399999752640724,-0.0011999999405816197,0.12809999287128448,-0.03100000082707969,0.0019999999928448997,0.015999999942759198
0.12075395882129669,-0.05843767523765564,9.948577880859375,0.0044999998062849045,-0.010699999518692493,0.12809999287128448,0.006000000186975531,0.0039999999856897995,0.02600000053230619
0.11844594776630402,-0.049330130219459534,9.939701080322266,0.0044999998062849045,-0.0007999999797903001,0.11819999665021896,-0.019999999511567335,-0.007999999971379599,-0.03699999851276524
0.1027112528681755,-0.04054819792509079,9.944421768188477,-0.014800000004470348,0.008999999612569809,0.12809999287128448,0.04600000004387353,-0.007000000079177565,0.015999999942759198
0.11497914046049118,-0.043306320905685425,9.937767028808594,0.004600000102072954,0.008999999612569809,0.11819999665021896,0.004999999877891834,0.0039999999856897995,-0.05200000106461238
0.12349291890859604,-0.03450523316860199,9.947103500366211,0.004600000102072954,0.018699999898672104,0.12809999287128448,-0.008999999863581633,0.019000000453128628,-0.035000000395887826
0.11796710640192032,-0.04853525385260582,9.947563171386719,0.004699999932199717,-0.000699999975040555,0.12809999287128448,0.031999999885518396,-0.012000000373951061,0.03999999902313467
0.10870634019374847,-0.03747404366731644,9.942180633544922,-0.004999999888241291,0.018699999898672104,0.12809999287128448,0.007000000079177565,-0.019000000453128628,-0.0969999987149939
0.11464395374059677,-0.03982993960380554,9.94584846496582,-0.004999999888241291,0.008999999612569809,0.12809999287128448,0.012000000373951061,0.024000000747902123,-0.07799999992939192
0.12342588603496552,-0.0399257093667984,9.946250915527344,0.004799999762326479,0.008999999612569809,0.12809999287128448,0.017999999727163266,0.006000000186975531,0.0019999999928448997
0.11270944029092789,-0.04762545973062515,9.947659492492676,-0.004900000058114529,0.008999999612569809,0.12809999287128448,0.0030000000934877653,-0.031999999885518396,-0.019000000453128628
0.11698069423437119,-0.052931010723114014,9.957523345947266,0.004699999932199717,-0.0005999999702908099,0.1378999948501587,-0.024000000747902123,-0.010999999647985701,-0.0329999989439571
0.11475887149572372,-0.04666777700185776,9.956019401550293,-0.004900000058114529,0.009200000204145908,0.1378999948501587,0.023000000021936765,-0.007000000079177565,0.024000000747902123
0.11379161477088928,-0.04748180881142616,9.944814682006836,-0.004900000058114529,0.009200000204145908,0.12809999287128448,-0.031999999885518396,0.01400000015835513,-0.024999999806340833
0.11748826503753662,-0.045556869357824326,9.954381942749023,0.004900000058114529,0.00930000003427267,0.1378999948501587,0.007000000079177565,0.004999999877891834,0.024999999806340833
0.11515152454376221,-0.046485818922519684,9.951393127441406,0.004900000058114529,0.009399999864399433,0.1378999948501587,0.004999999877891834,-0.02800000031671026,0.013000000266153095
0.10711658746004105,-0.04480987787246704,9.954381942749023,-0.004900000058114529,0.009399999864399433,0.1378999948501587,0.021999999295971403,0,-0.043999998591942806
0.11746910959482193,-0.046648625284433365,9.951576232910156,0.004799999762326479,0.009399999864399433,0.1378999948501587,0.03999999902313467,0.007000000079177565,-0.06700000028140622
0.11343728005886078,-0.0427795946598053,9.946328163146973,-0.004799999762326479,0.00930000003427267,0.12809999287128448,-0.009999999755783667,0.023000000021936765,0.01700000066872456
0.13053187727928162,-0.050603847950696945,9.939116477966309,0.014699999243021011,-0.00029999998514540493,0.11819999665021896,-0.023000000021936765,0.0030000000934877653,-0.038000000906257256
0.12933477759361267,-0.047759536653757095,9.939604759216309,0.014599999412894249,0.009599999524652958,0.11829999834299088,0.03899999996469596,0.004999999877891834,0.010999999647985701
0.11370542645454407,-0.040768466889858246,9.934873580932617,-0.004900000058114529,0.009499999694526196,0.11819999665021896,0.017999999727163266,-0.004999999877891834,-0.01700000066872456
0.11471099406480789,-0.04720408096909523,9.949095726013184,-0.004799999762326479,0.009499999694526196,0.12809999287128448,0.007999999971379599,-0.019999999511567335,0
0.12214259058237076,-0.0444268062710762,9.947458267211914,0.004799999762326479,0.009499999694526196,0.12809999287128448,-0.012000000373951061,-0.01400000015835513,-0.0030000000934877653
0.10998962074518204,-0.050038814544677734,9.948702812194824,-0.004799999762326479,0,0.12809999287128448,-0.007000000079177565,-0.008999999863581633,-0.015999999942759198
0.125484898686409,-0.04305732250213623,9.954190254211426,0.014499999582767487,0.00969999935477972,0.1378999948501587,0.004999999877891834,0.007000000079177565,-0.0539999991814898
0.12129025906324387,-0.03521391749382019,9.9539794921875,0.004699999932199717,0.019500000402331352,0.1378999948501587,0.008999999863581633,0,-0.07199999890865307
0.12036130577325821,-0.043679818511009216,9.953865051269531,0.004699999932199717,0.00969999935477972,0.1378999948501587,0.0039999999856897995,0.004999999877891834,-0.06700000028140622
0.11606132239103317,-0.04772122949361801,9.939116477966309,-0.004900000058114529,0,0.12809999287128448,0.03100000082707969,0.021000000237532696,-0.03400000133744912
0.11392569541931152,-0.04488649219274521,9.9415864944458,-0.004799999762326479,0.00989999994635582,0.12809999287128448,-0.0039999999856897995,0.007000000079177565,-0.029999998433587676
0.11390653997659683,-0.04782657325267792,9.939892768859863,-0.004699999932199717,0.009999999776482582,0.11819999665021896,0.01700000066872456,0,0.015999999942759198
0.12076353281736374,-0.04779784381389618,9.945427894592285,0.004999999888241291,0.009999999776482582,0.12809999287128448,-0.02600000053230619,-0.007000000079177565,-0.0269999995907449
0.12672987580299377,-0.04924394190311432,9.944182395935059,0.014699999243021011,0.00029999998514540493,0.12809999287128448,0.008999999863581633,0.023000000021936765,-0.07600000181251451
0.11643481254577637,-0.04848737269639969,9.944039344787598,0.004900000058114529,0.00039999998989515007,0.12809999287128448,-0.024000000747902123,-0.015999999942759198,-0.007999999971379599
0.12246821075677872,-0.038134846836328506,9.94966983795166,0.004799999762326479,0.020099999383091927,0.12809999287128448,0.0019999999928448997,-0.01700000066872456,-0.012000000373951061
0.11168472468852997,-0.056292470544576645,9.944489479064941,-0.004799999762326479,0.0005999999702908099,0.12809999287128448,-0.014999999216793838,0.0039999999856897995,-0.057000003026912535
0.12242031842470169,-0.027887661010026932,9.949956893920898,0.004900000058114529,0.029899999499320984,0.12809999287128448,-0.03100000082707969,0.004999999877891834,0.03599999945432653
0.11329362541437149,-0.043095629662275314,9.94379997253418,-0.004799999762326479,0.010400000028312206,0.12809999287128448,-0.019999999511567335,-0.024000000747902123,-0.03100000082707969
0.12303323298692703,-0.05056554079055786,9.95238971710205,0.004900000058114529,0.0007999999797903001,0.1378999948501587,-0.024999999806340833,0.008999999863581633,0.015999999942759198
0.11449072510004044,-0.04185064882040024,9.954957008361816,-0.004799999762326479,0.010699999518692493,0.1378999948501587,-0.0009999999964224499,0.004999999877891834,-0.014999999216793838
0.11553459614515305,-0.04597824811935425,9.94499683380127,0.004900000058114529,0.010699999518692493,0.12809999287128448,0.0030000000934877653,-0.019000000453128628,0.01700000066872456
0.11984416097402573,-0.05225105583667755,9.938522338867188,0.004900000058114529,0.0009999999310821295,0.11829999834299088,0.006000000186975531,-0.0009999999964224499,0.007999999971379599
0.12342588603496552,-0.03349967300891876,9.938350677490234,0.004799999762326479,0.020600000396370888,0.11829999834299088,0.038000000906257256,0.009999999755783667,0.007000000079177565
0.1067526638507843,-0.05076665058732033,9.947218894958496,-0.004799999762326479,0.0009999999310821295,0.12809999287128448,0.007000000079177565,0,0.0009999999964224499
0.11949940025806427,-0.036861129105091095,9.944307327270508,0.004900000058114529,0.020499998703598976,0.12809999287128448,-0.013000000266153095,0.004999999877891834,0.029999998433587676
0.11945150792598724,-0.049512092024087906,9.951891899108887,0.004900000058114529,0.0009999999310821295,0.1378999948501587,-0.021000000237532696,0,0.015999999942759198
0.11691366136074066,-0.03922659903764725,9.950454711914062,0.004900000058114529,0.010900000110268593,0.1378999948501587,0.0039999999856897995,-0.019999999511567335,0.035000000395887826
0.11251790821552277,-0.0399257093667984,9.942008972167969,-0.004799999762326479,0.010999999940395355,0.12809999287128448,0.03100000082707969,0.004999999877891834,0.03599999945432653
0.11246044188737869,-0.03549164533615112,9.94859790802002,-0.004699999932199717,0.020600000396370888,0.12809999287128448,-0.015999999942759198,-0.008999999863581633,0.014999999216793838
0.12888465821743011,-0.05227978900074959,9.945686340332031,0.014699999243021011,0.0011999999405816197,0.12809999287128448,-0.012000000373951061,0.0019999999928448997,-0.06099999926066736
0.11424172669649124,-0.04987601190805435,9.938810348510742,-0.004799999762326479,0.0013000000035390258,0.11829999834299088,-0.017999999727163266,-0.007000000079177565,-0.05999999686717535
0.11254663020372391,-0.03671747446060181,9.936263084411621,-0.004699999932199717,0.020899999886751175,0.11829999834299088,0.043999998591942806,-0.0019999999928448997,0.041000001416626686
0.12555193901062012,-0.04783615097403526,9.950704574584961,-0.004699999932199717,0.0013000000035390258,0.12809999287128448,-0.023000000021936765,-0.004999999877891834,0.0030000000934877653
0.1127956286072731,-0.043497856706380844,9.942793846130371,0.014699999243021011,0.01119999960064888,0.1378999948501587,0.0019999999928448997,-0.019999999511567335,-0.03899999996469596
0.11409807950258255,-0.04322970658540726,9.93900203704834,-0.004699999932199717,0.01119999960064888,0.12809999287128448,0.06099999926066736,0.004999999877891834,-0.03699999851276524
0.1177564188838005,-0.038948871195316315,9.955138206481934,0.004999999888241291,0.011099999770522118,0.1378999948501587,-0.019000000453128628,0.007000000079177565,0.0009999999964224499
0.11952812224626541,-0.0453844889998436,9.9581937789917,0.004999999888241291,0.01119999960064888,0.1378999948501587,0.010999999647985701,0.008999999863581633,-0.05200000106461238
0.11997823417186737,-0.04358404874801636,9.947783470153809,0.004999999888241291,0.01119999960064888,0.1378999948501587,-0.007999999971379599,0.0019999999928448997,-0.019000000453128628
0.12198936194181442,-0.042339060455560684,9.942219734191895,0.004999999888241291,0.01119999960064888,0.12809999287128448,-0.021999999295971403,0.04500000098543482,0.05499999823992851
0.11437579989433289,-0.04050031676888466,9.938694953918457,-0.0044999998062849045,0.011299999430775642,0.11829999834299088,0.05099999867112037,-0.014999999216793838,0.05499999823992851
0.12754391133785248,-0.03628652170300484,9.952648162841797,0.01489999983459711,0.020899999886751175,0.1378999948501587,0.006000000186975531,0.004999999877891834,0.004999999877891834
0.12039003521203995,-0.036506786942481995,9.954017639160156,0.0050999997183680534,0.020899999886751175,0.1378999948501587,-0.008999999863581633,0.004999999877891834,-0.04500000098543482
0.12122321873903275,-0.04762545973062515,9.943809509277344,0.004999999888241291,0.011099999770522118,0.12809999287128448,-0.0039999999856897995,0.007000000079177565,0.023000000021936765
0.10274955630302429,-0.05221274867653847,9.943953514099121,-0.014299999922513962,0.00139999995008111,0.12809999287128448,0.007999999971379599,0.008999999863581633,-0.0429999995335041
0.11832144856452942,-0.03993528336286545,9.9393949508667,0.005200000014156103,0.01119999960064888,0.11829999834299088,-0.015999999942759198,0.021999999295971403,0.02800000031671026
0.12386641651391983,-0.04246356338262558,9.932001113891602,0.0052999998442828655,0.011299999430775642,0.11829999834299088,0.041000001416626686,0.007000000079177565,0.057000003026912535
0.11245086789131165,-0.04815218225121498,9.944901466369629,-0.004399999976158142,0.001500000013038516,0.12809999287128448,-0.03100000082707969,-0.019000000453128628,0.07399999702553048
0.11344685405492783,-0.04045243188738823,9.948376655578613,-0.004399999976158142,0.011399999260902405,0.12809999287128448,0.0019999999928448997,0.0019999999928448997,0.010999999647985701
0.11502702534198761,-0.04303817078471184,9.947093963623047,0.0052999998442828655,0.011399999260902405,0.12809999287128448,-0.0039999999856897995,0.004999999877891834,-0.0429999995335041
0.10739430785179138,-0.04848737269639969,9.956009864807129,-0.004299999680370092,0.0016999999061226845,0.1378999948501587,0.02600000053230619,0.012000000373951061,0.013000000266153095
0.11879070848226547,-0.03688985854387283,9.954248428344727,0.005399999674409628,0.021199999377131462,0.1378999948501587,-0.024000000747902123,0.01700000066872456,-0.019000000453128628
0.10907982289791107,-0.06023811176419258,9.951345443725586,-0.00419999985024333,-0.007799999788403511,0.1378999948501587,0.0429999995335041,0.008999999863581633,-0.02600000053230619
0.12980404496192932,-0.04625597596168518,9.946653366088867,0.015199999324977398,0.011599999852478504,0.12809999287128448,-0.008999999863581633,0.03599999945432653,-0.03400000133744912
0.11461522430181503,-0.02876872755587101,9.942813873291016,-0.004100000020116568,0.021399999037384987,0.12809999287128448,-0.046999999102312236,0.006000000186975531,-0.0030000000934877653
0.12006442993879318,-0.06094679981470108,9.94308090209961,0.00559999980032444,-0.007599999662488699,0.12809999287128448,0.03599999945432653,0.008999999863581633,0.010999999647985701
0.11330319941043854,-0.04448426887392998,9.940399169921875,-0.003999999724328518,0.011799999512732029,0.11819999665021896,0.06700000028140622,0.006000000186975531,0.041000001416626686
0.12495817244052887,-0.04319139942526817,9.957868576049805,-0.0038999998942017555,0.0018999999156221747,0.12809999287128448,-0.03899999996469596,-0.010999999647985701,0.012000000373951061
0.1189631000161171,-0.031976956874132156,9.936224937438965,0.01549999974668026,0.011799999512732029,0.1378999948501587,-0.0009999999964224499,-0.021000000237532696,-0.006000000186975531
0.11211567372083664,-0.05052723363041878,9.934759140014648,0.005699999630451202,0.021699998527765274,0.11829999834299088,-0.010999999647985701,0.0269999995907449,-0.03699999851276524
0.1119624450802803,-0.042664673179388046,9.936559677124023,-0.0038999998942017555,0.012000000104308128,0.11819999665021896,-0.014999999216793838,-0.0009999999964224499,0.05099999867112037
0.1214434877038002,-0.04165910929441452,9.94166374206543,0.005799999926239252,0.01209999993443489,0.12809999287128448,0.0039999999856897995,0.0030000000934877653,-0.03100000082707969
0.120399609208107,-0.04897578805685043,9.944786071777344,0.005799999926239252,0.0023999998811632395,0.12809999287128448,0.014999999216793838,-0.03699999851276524,-0.024999999806340833
0.11034397035837173,-0.03981078788638115,9.95419979095459,0.005799999926239252,0.0023999998811632395,0.12809999287128448,0.012000000373951061,0.007000000079177565,0.03599999945432653
0.12809936702251434,-0.05014416202902794,9.96144962310791,0.015399999916553497,0.0023999998811632395,0.1476999968290329,-0.024000000747902123,-0.02800000031671026,0.04200000047506539
0.12235328555107117,-0.0475105382502079,9.956087112426758,0.005499999970197678,0.012299999594688416,0.1378999948501587,-0.007999999971379599,-0.0329999989439571,0.05099999867112037
0.11531433463096619,-0.04575798287987709,9.944537162780762,0.005399999674409628,0.012399999424815178,0.12809999287128448,0.02600000053230619,-0.0269999995907449,0.04600000004387353
0.13266751170158386,-0.05594770610332489,9.957436561584473,0.015099999494850636,0.0026000000070780516,0.1378999948501587,-0.023000000021936765,0.007000000079177565,-0.017999999727163266
0.11941319704055786,-0.04521210491657257,9.95887279510498,0.0052999998442828655,0.01249999925494194,0.1378999948501587,-0.0329999989439571,-0.009999999755783667,-0.021000000237532696
0.13215036690235138,-0.04050031676888466,9.942947387695312,0.01489999983459711,0.012600000016391277,0.12809999287128448,0.007000000079177565,-0.0009999999964224499,0.049999999612681666
0.1274002641439438,-0.03651636466383934,9.953136444091797,0.014800000004470348,0.002899999963119626,0.12809999287128448,-0.014999999216793838,0.010999999647985701,0.008999999863581633
0.10939586907625198,-0.03643017262220383,9.95402717590332,0.014699999243021011,0.022299999371170998,0.1378999948501587,-0.01400000015835513,0.019000000453128628,0.0429999995335041
0.12070606648921967,-0.046457089483737946,9.93233585357666,-0.004699999932199717,0.022299999371170998,0.1378999948501587,-0.0009999999964224499,0.0039999999856897995,0.029999998433587676
0.1217978298664093,-0.034869153052568436,9.945906639099121,0.004999999888241291,0.012600000016391277,0.11829999834299088,-0.021000000237532696,0.021999999295971403,-0.0009999999964224499
0.1105642318725586,-0.05445372313261032,9.93606185913086,0.004999999888241291,0.022299999371170998,0.12809999287128448,0.009999999755783667,0.006000000186975531,-0.013000000266153095
0.11716265231370926,-0.04149630293250084,9.947171211242676,0.0050999997183680534,0.012600000016391277,0.12809999287128448,-0.021000000237532696,0.024000000747902123,-0.0039999999856897995
0.12483368068933487,-0.04397669434547424,9.929693222045898,0.0050999997183680534,0.012600000016391277,0.12809999287128448,-0.0429999995335041,-0.06299999737754478,0.012000000373951061
0.11796710640192032,-0.036171600222587585,9.947352409362793,0.01489999983459711,0.01269999984651804,0.10849999636411667,-0.010999999647985701,0.0039999999856897995,0.029999998433587676
0.13170024752616882,-0.038498762995004654,9.940744400024414,0.004900000058114529,0.022599998861551285,0.12809999287128448,0.0039999999856897995,0.019000000453128628,-0.010999999647985701
0.11580274999141693,-0.04373727738857269,9.94455623626709,0.004799999762326479,0.012799999676644802,0.12809999287128448,0.0019999999928448997,0.004999999877891834,0.019999999511567335
0.12999556958675385,-0.046054862439632416,9.963700294494629,0.004799999762326479,0.012799999676644802,0.12809999287128448,-0.035000000395887826,-0.021000000237532696,0.02800000031671026
0.10873506218194962,-0.04382346570491791,9.958672523498535,-0.004999999888241291,0.012899999506771564,0.1378999948501587,-0.029999998433587676,0.031999999885518396,0.03100000082707969
0.11920251697301865,-0.04639962688088417,9.937995910644531,-0.004999999888241291,0.012899999506771564,0.1378999948501587,0.0019999999928448997,-0.007000000079177565,0.06800000267489824
0.11294885724782944,-0.04223372042179108,9.943838119506836,-0.004799999762326479,0.012999999336898327,0.12809999287128448,0.03100000082707969,0.029999998433587676,0.01700000066872456
0.12582966685295105,-0.050469771027565,9.959783554077148,0.014699999243021011,0.0031999999191612005,0.1378999948501587,-0.012000000373951061,-0.007999999971379599,-0.01400000015835513
0.11057381331920624,-0.04322970658540726,9.951969146728516,-0.004799999762326479,0.013100000098347664,0.1378999948501587,0.007999999971379599,0.015999999942759198,0.10199999734224074
0.12317688763141632,-0.040366239845752716,9.946107864379883,0.004900000058114529,0.013100000098347664,0.12809999287128448,-0.019999999511567335,-0.038000000906257256,0.01400000015835513
0.1164827048778534,-0.0451354905962944,9.944077491760254,0.004799999762326479,0.013199999928474426,0.12809999287128448,0.01400000015835513,-0.004999999877891834,0.023000000021936765
0.12350250035524368,-0.03530968725681305,9.935439109802246,0.004799999762326479,0.02290000021457672,0.11829999834299088,0.008999999863581633,-0.0030000000934877653,0.02600000053230619
0.11581232398748398,-0.050699613988399506,9.930899620056152,0.004699999932199717,0.0032999999821186066,0.10849999636411667,-0.048000001495804245,0.0030000000934877653,-0.004999999877891834
0.10866802930831909,-0.0441969633102417,9.93887710571289,-0.004900000058114529,0.013299999758601189,0.11829999834299088,0.0039999999856897995,0.0019999999928448997,0.035000000395887826
0.12377065420150757,-0.04933971166610718,9.936041831970215,0.004799999762326479,0.003499999875202775,0.11829999834299088,0.008999999863581633,0.0039999999856897995,-0.007000000079177565
0.11526644974946976,-0.05510494485497475,9.94749641418457,0.004799999762326479,0.003599999938160181,0.12809999287128448,-0.021000000237532696,0.023000000021936765,-0.03100000082707969
0.12057200074195862,-0.0444268062710762,9.945935249328613,0.004799999762326479,0.013499999418854713,0.12809999287128448,0.007999999971379599,-0.049999999612681666,0.017999999727163266
0.1100662350654602,-0.02986048348248005,9.945427894592285,-0.004900000058114529,0.02319999970495701,0.12809999287128448,0.021999999295971403,0.006000000186975531,0.057000003026912535
0.12118491530418396,-0.046744391322135925,9.953280448913574,0.004799999762326479,0.013299999758601189,0.1378999948501587,-0.04900000055424296,-0.007999999971379599,-0.004999999877891834
0.12926773726940155,-0.042549751698970795,9.947908401489258,0.014499999582767487,0.013499999418854713,0.12809999287128448,-0.06200000165415938,0.012000000373951061,0.05999999686717535
0.12069649249315262,-0.04606444016098976,9.959563255310059,0.004699999932199717,0.013700000010430813,0.1378999948501587,0.0539999991814898,0.004999999877891834,0.03699999851276524
0.11475887149572372,-0.04262636601924896,9.94046688079834,-0.004999999888241291,0.013499999418854713,0.11829999834299088,0.004999999877891834,-0.0030000000934877653,0.06800000267489824
0.12278424203395844,-0.052174441516399384,9.95033073425293,0.004699999932199717,0.02329999953508377,0.12809999287128448,-0.029999998433587676,0.017999999727163266,0
0.11239340156316757,-0.047970227897167206,9.929932594299316,-0.004900000058114529,0.0038999998942017555,0.10849999636411667,0,0.0039999999856897995,0.04600000004387353
0.11577402055263519,-0.03725377470254898,9.936942100524902,0.004799999762326479,0.023499999195337296,0.11829999834299088,0,-0.007000000079177565,0.049999999612681666
0.12384726852178574,-0.054750602692365646,9.947122573852539,0.004799999762326479,0.0038999998942017555,0.12809999287128448,-0.0039999999856897995,-0.0039999999856897995,-0.035000000395887826
0.10561302304267883,-0.03593217954039574,9.942688941955566,-0.004900000058114529,0.023499999195337296,0.12809999287128448,0.007999999971379599,0.021999999295971403,-0.08499999667351618
0.12218090146780014,-0.045748405158519745,9.944412231445312,0.004900000058114529,0.013700000010430813,0.12809999287128448,0.05499999823992851,0.004999999877891834,0.041000001416626686
0.11813949048519135,-0.03371993452310562,9.94743824005127,0.004900000058114529,0.02329999953508377,0.12809999287128448,-0.04500000098543482,0.007000000079177565,-0.02800000031671026
0.1251305490732193,-0.052049946039915085,9.947525024414062,0.014599999412894249,0.0038999998942017555,0.12809999287128448,-0.031999999885518396,0.02899999937514897,0.009999999755783667
0.1166933923959732,-0.04542279615998268,9.937737464904785,0.004799999762326479,0.013799999840557575,0.11829999834299088,-0.03699999851276524,-0.03100000082707969,0.05999999686717535
0.11248917132616043,-0.04474284127354622,9.929252624511719,-0.004900000058114529,0.013799999840557575,0.10849999636411667,0.0009999999964224499,-0.024000000747902123,0.0019999999928448997
0.11245086789131165,-0.03659297898411751,9.937296867370605,-0.004900000058114529,0.023599999025464058,0.11829999834299088,0.013000000266153095,-0.010999999647985701,0.04200000047506539
0.1144619956612587,-0.05455906689167023,9.93625259399414,-0.004799999762326479,0.003999999724328518,0.11829999834299088,0.05499999823992851,0.006000000186975531,-0.0539999991814898
