Accelerometer_Gx,Accelerometer_Gy,Accelerometer_Gz,Accelerometer_X,Accelerometer_Y,Accelerometer_Z,Gyroscope_Z,Gyroscope_X,Gyroscope_Y
0.11034397035837173,-0.04090254381299019,9.926857948303223,-0.004900000058114529,0.004900000058114529,0.10839999467134476,0.5939999943314411,0.3759999928184979,0.09500000059811649
0.11376288533210754,-0.055765748023986816,9.93256664276123,-0.0038999998942017555,-0.006399999838322401,0.11819999665021896,-0.8979999749010726,0.2899999870813831,-0.21999999295971404
0.11044930666685104,-0.057575762271881104,9.937047958374023,-0.0030999998562037945,-0.013799999840557575,0.11819999665021896,-0.13100000005244303,0.16400000566650674,-0.09099999769425504
0.11923124641180038,-0.05157110467553139,9.937862396240234,0.0071000000461936,-0.003599999938160181,0.11819999665021896,-0.9579999851084613,-0.3789999933288673,-0.23900000508552924
0.10204087942838669,-0.04139095917344093,9.94274616241455,-0.013299999758601189,0.00839999970048666,0.12799999117851257,-0.012000000373951061,-0.18700000068586353,0
0.11682746559381485,-0.04533660411834717,9.93038272857666,0.005699999630451202,0.00839999970048666,0.10839999467134476,-0.838000018054537,0.06700000028140622,0
0.11305420845746994,-0.052164867520332336,9.940189361572266,-0.0037999998312443495,0.0011999999405816197,0.11819999665021896,1.411000008813392,-0.09999999922536333,-0.07900000232288394
0.12035173177719116,-0.05167644843459129,9.939030647277832,0.005699999630451202,-0.002099999925121665,0.11819999665021896,1.1089999930101049,-0.07099999651516105,-0.1070000026395942
0.12788867950439453,-0.052480898797512054,9.93238353729248,0.01529999915510416,-0.005499999970197678,0.11819999665021896,-0.0019999999928448997,0.06700000028140622,-0.07799999992939192
0.12400049716234207,-0.0468018539249897,9.935649871826172,0.00559999980032444,0.00419999985024333,0.11819999665021896,-1.060999984844194,0.2159999967259592,-0.12599999475508955
0.11937489360570908,-0.0569915771484375,9.934318542480469,0.006199999712407589,-0.0026000000070780516,0.11819999665021896,-1.450999944470514,0.21100000476881897,-0.017999999727163266
0.12049538642168045,-0.03902548551559448,9.936578750610352,0.006899999920278788,0.011599999852478504,0.11819999665021896,0.6879999925360656,0.06899999839828364,0.08799999718388561
0.12760137021541595,-0.0653904378414154,9.95290756225586,0.016899999231100082,0.00989999994635582,0.11819999665021896,-0.0749999994190225,0.03400000133744912,-0.08700000146050021
0.12760137021541595,-0.0653904378414154,9.95290756225586,0.016699999570846558,-0.0139999995008111,0.13779999315738678,-0.0749999994190225,0.03400000133744912,-0.08700000146050021
0.12272677570581436,-0.05317043140530586,9.929290771484375,0.00699999975040555,-0.003999999724328518,0.10839999467134476,0.12100000279794933,-0.08899999957737763,-0.10600000024610218
0.11180921643972397,-0.05585193634033203,9.931234359741211,-0.002899999963119626,-0.00419999985024333,0.11819999665021896,-0.796000010909365,-0.04900000055424296,-0.09000000197086964
0.12213301658630371,-0.06137775257229805,9.929262161254883,0.006599999964237213,-0.011599999852478504,0.10839999467134476,0.6999999945775432,-0.05499999823992851,-0.015999999942759198
0.11789049208164215,-0.0508241131901741,9.923467636108398,0.0064999996684491634,-0.003499999875202775,0.10839999467134476,1.627000045559991,-0.0859999990670082,-0.02600000053230619
0.13750380277633667,-0.03587471693754196,9.922433853149414,0.02579999901354313,0.010999999940395355,0.10839999467134476,-1.3589999643930868,0.021999999295971403,-0.1729999938574018
0.11975797265768051,-0.043756432831287384,9.93238353729248,0.006300000008195639,-0.004799999762326479,0.10839999467134476,-0.7069999779814543,-0.3019999891228608,-0.1849999958988795
0.11650185286998749,-0.04861186817288399,9.930066108703613,0.00559999980032444,-0.006199999712407589,0.10839999467134476,0.15999999609253868,0.4840000111917973,0.06700000028140622
0.11165598779916763,-0.044963106513023376,9.923583030700684,0.00559999980032444,-0.006199999712407589,0.10839999467134476,0.2770000026567332,-0.21200000049220435,-0.26500000061525547
0.124402716755867,-0.04966532066464424,9.929482460021973,-0.0026000000070780516,0.003000000026077032,0.10839999467134476,0.78199999074069,-0.11400000605382507,-0.046999999102312236
0.11891520768404007,-0.0368419773876667,9.928122520446777,0.006300000008195639,0.010199999436736107,0.10839999467134476,-0.5149999986786638,-0.18400000017549412,-0.2159999967259592
0.11767023056745529,-0.0420709103345871,9.936100006103516,0.006300000008195639,0.010199999436736107,0.10839999467134476,-0.9510000017045502,0.1400000015835513,0.0019999999928448997
0.1130446270108223,-0.045010991394519806,9.930066108703613,-0.003599999938160181,0.00419999985024333,0.10839999467134476,-0.18099999966512467,0.20599999947146552,0.02600000053230619
0.12614570558071136,-0.042904093861579895,9.927671432495117,0.016499999910593033,0.004699999932199717,0.10839999467134476,0.6020000134793773,-0.12199999852133472,0.06099999926066736
0.12019850313663483,-0.052950166165828705,9.948875427246094,0.006300000008195639,-0.006899999920278788,0.12799999117851257,1.070000039736155,-0.37299999230812847,-0.06299999737754478
0.11307335644960403,-0.043967120349407196,9.94705581665039,-0.004299999680370092,0.00029999998514540493,0.12799999117851257,1.2650000195493152,-0.5470000219095553,-0.24899998899980968
0.11790964752435684,-0.05398445948958397,9.943703651428223,0.003700000001117587,-0.013399999588727951,0.12799999117851257,-0.24500000610626807,0.046999999102312236,0.06200000165415938
0.10813172906637192,-0.03844130411744118,9.944930076599121,-0.0058999997563660145,-0.003000000026077032,0.12799999117851257,0.8709999703077478,-0.18099999966512467,-0.11200000126684104
0.11051634699106216,-0.05037400498986244,9.94656753540039,-0.006300000008195639,-0.015199999324977398,0.12799999117851257,-0.041000001416626686,-0.27500001120996237,-0.07999999804626934
0.11482591181993484,-0.03580768033862114,9.9329195022583,-0.007199999876320362,0.0044999998062849045,0.11819999665021896,-0.9070000297930338,0.7810000083575178,-0.01400000015835513
0.10648451000452042,-0.05467398837208748,9.927499771118164,-0.0052999998442828655,-0.012899999506771564,0.10839999467134476,-1.073999969268844,0.48599997595814165,-0.006000000186975531
0.12686395645141602,-0.04827668517827988,9.927490234375,0.015599999576807022,-0.00989999994635582,0.10839999467134476,0.620999998924766,-0.09800000110848592,-0.02600000053230619
0.11953770369291306,-0.04568136855959892,9.93931770324707,0.005499999970197678,-0.002099999925121665,0.11819999665021896,0.09800000110848592,-0.34299998720443414,-0.19799999366374263
0.12928690016269684,-0.05646485090255737,9.937239646911621,0.014399999752640724,-0.01209999993443489,0.11819999665021896,-0.23099998593759313,0.49799997799961937,-0.0030000000934877653
0.11180921643972397,-0.04540364071726799,9.928352355957031,-0.003499999875202775,-0.0015999999595806003,0.10839999467134476,0.1830000044521087,0.019000000453128628,-0.010999999647985701
0.11554417759180069,-0.04203260317444801,9.945819854736328,0.006199999712407589,-0.002099999925121665,0.12799999117851257,-0.07099999651516105,-0.1629999966029081,-0.16500000138989213
0.12695972621440887,-0.06026684492826462,9.929932594299316,0.015699999406933784,-0.02159999869763851,0.10839999467134476,0.6269999999455048,-0.2050000037480801,-0.08200000283325337
0.11637736111879349,-0.03483084589242935,9.926916122436523,0.005200000014156103,0.005799999926239252,0.10839999467134476,-1.0460000356531998,0.09399999820462447,-0.048000001495804245
0.11418426781892776,-0.047663770616054535,9.944499015808105,-0.004299999680370092,-0.00139999995008111,0.12799999117851257,0.10199999734224074,0.07600000181251451,-0.007000000079177565
0.12242031842470169,-0.05283524468541145,9.938848495483398,0.005699999630451202,-0.011500000022351742,0.11819999665021896,-0.3540000068627397,-0.20899999998183494,-0.04600000004387353
0.11288182437419891,-0.04967489466071129,9.922146797180176,-0.004600000102072954,-0.010499999858438969,0.10839999467134476,1.2110000103626655,-0.38400001196643396,-0.1930000017066024
0.12423034012317657,-0.05837063491344452,9.94526481628418,0.00419999985024333,-0.02319999970495701,0.12799999117851257,-0.6179999984143966,0.5620000244614024,0.0019999999928448997
0.11914505064487457,-0.06464345008134842,9.942630767822266,0.0052999998442828655,-0.018400000408291817,0.12799999117851257,0.9140000131969449,-0.2680000011256249,-0.22299999347008345
0.11689449846744537,-0.05443457141518593,9.929817199707031,0.004600000102072954,-0.011099999770522118,0.10839999467134476,0.7620000229121291,-0.07399999702553048,-0.1189999980109653
0.11293928325176239,-0.048851292580366135,9.940888404846191,-0.0052999998442828655,-0.012999999336898327,0.12799999117851257,-0.015999999942759198,-0.0039999999856897995,-0.06200000165415938
0.12113703042268753,-0.042003877460956573,9.943876266479492,0.004399999976158142,-0.0030999998562037945,0.12799999117851257,-0.6110000150104855,0.3989999878378547,0.06200000165415938
0.10922347754240036,-0.046265553683042526,9.928648948669434,-0.004299999680370092,-0.0015999999595806003,0.10839999467134476,-0.551000004803097,0.30400000725005805,-0.031999999885518396
0.13037864863872528,-0.04395754262804985,9.929147720336914,0.016099998727440834,0,0.10839999467134476,-1.242999980232704,0.3849999943496062,0.0429999995335041
0.11902055144309998,-0.04762545973062515,9.916878700256348,0.007400000002235174,0.003399999812245369,0.09860000014305115,-1.1990000083211878,0.5440000213991859,0.0039999999856897995
0.11604216694831848,-0.043287165462970734,9.929826736450195,0.008700000122189522,0.006199999712407589,0.10839999467134476,-1.6599999978132018,0.4669999905127529,0.019999999511567335
0.10988428443670273,-0.05684792250394821,9.93703842163086,0.00029999998514540493,0.001500000013038516,0.11819999665021896,-0.15900000036915327,0.3750000104353257,0.06200000165415938
0.12611696124076843,-0.04028962552547455,9.937891006469727,0.020899999886751175,0.011699999682605267,0.11819999665021896,0.10199999734224074,0.07999999804626934,0.009999999755783667
0.12659581005573273,-0.05732676759362221,9.92807388305664,0.020999999716877937,0.0015999999595806003,0.10839999467134476,1.0090000471455944,-0.1629999966029081,-0.06099999926066736
0.12134771794080734,-0.044465113431215286,9.934700965881348,0.010699999518692493,0.008299999870359898,0.11819999665021896,0.30100000673968863,-0.09099999769425504,-0.06500000216452881
0.1215679869055748,-0.05621585622429848,9.919991493225098,0.010499999858438969,-0.002099999925121665,0.09860000014305115,-0.9239999437503725,0.24099999653230003,0.007999999971379599
0.11034397035837173,-0.052308518439531326,9.944881439208984,0.00139999995008111,0.00029999998514540493,0.12799999117851257,0.20599999947146552,0.06200000165415938,0.021999999295971403
0.11724884808063507,-0.03907337039709091,9.943503379821777,0.011399999260902405,0.009499999694526196,0.12799999117851257,0.9140000131969449,-0.4999999961268166,-0.2159999967259592
0.11473014950752258,-0.04871721565723419,9.93256664276123,0.00039999998989515007,-0.0024999999441206455,0.11819999665021896,-0.934999963408678,0.35899999881987993,0.013000000266153095
0.12170206755399704,-0.052547939121723175,9.92041301727295,0.011299999430775642,0.00029999998514540493,0.09860000014305115,1.060999984844194,-0.3130000087811663,-0.1319999957758284
0.11314039677381516,-0.04163995757699013,9.944182395935059,0.000699999975040555,0.007199999876320362,0.12799999117851257,-1.2329999429575706,0.3989999878378547,0.0019999999928448997
0.12051453441381454,-0.04066311940550804,9.951010704040527,0.011399999260902405,0.010199999436736107,0.13779999315738678,0.3690000094145868,-0.10600000024610218,-0.03100000082707969
0.11758402734994888,-0.04495352879166603,9.943551063537598,0.011099999770522118,0.008999999612569809,0.12799999117851257,-1.6479999957717242,0.4879999940853389,0.024999999806340833
0.12014104425907135,-0.05416642129421234,9.94345474243164,0.012299999594688416,0.0031999999191612005,0.12799999117851257,1.2609999832949206,-0.5579999882070079,-0.18799999640924894
0.11480676382780075,-0.04919605702161789,9.937440872192383,0.0007999999797903001,-0.0005999999702908099,0.11819999665021896,-0.24800000661663751,0.536999984634422,-0.03699999851276524
0.12446975708007812,-0.045154642313718796,9.950072288513184,0.012000000104308128,0.00969999935477972,0.12799999117851257,-1.1659999493462712,0.4849999935749695,-0.1079999983629796
0.11476845294237137,-0.05824613943696022,9.940668106079102,0.003399999812245369,-0.00699999975040555,0.11819999665021896,1.17199995036701,-0.5570000058238358,-0.22700000304405152
0.11586020886898041,-0.05845683068037033,9.926158905029297,0.011699999682605267,0.00930000003427267,0.11819999665021896,0.9149999955801171,-0.38400001196643396,-0.014999999216793838
0.11670296639204025,-0.047884032130241394,9.936224937438965,0.010599999688565731,-0.012899999506771564,0.10839999467134476,-1.034000033611722,0.5669999897381163,0.021999999295971403
0.1338454633951187,-0.045623909682035446,9.92362117767334,0.010999999940395355,-0.0030999998562037945,0.11819999665021896,-1.3850000399640923,0.4709999734062945,-0.03599999945432653
0.11418426781892776,-0.04397669434547424,9.931492805480957,0.02239999920129776,0.009399999864399433,0.10839999467134476,-1.2119999927458376,0.49000001221253614,-0.007999999971379599
0.11772768199443817,-0.056455276906490326,9.929759979248047,0.004100000020116568,0.013199999928474426,0.11819999665021896,-0.3369999861836953,0.01400000015835513,-0.14499999354069154
0.12155841290950775,-0.04923436418175697,9.932910919189453,0.015099999494850636,0.006300000008195639,0.10839999467134476,-1.401999953921431,0.11599999750059588,0.06700000028140622
0.1082945317029953,-0.056484006345272064,9.948837280273438,0.00559999980032444,0.01119999960064888,0.12799999117851257,-1.3229999582686536,0.6930000111736323,-0.03699999851276524
0.11104307323694229,-0.058284446597099304,9.943148612976074,0.0072999997064471245,0.0044999998062849045,0.12799999117851257,-1.2179999937665764,0.43699998540905866,0.007000000079177565
0.12468045204877853,-0.061128757894039154,9.935840606689453,0.0072999997064471245,0.0044999998062849045,0.12799999117851257,0.6159999802871993,0.29500000571894974,-0.02800000031671026
0.1206294521689415,-0.04317224398255348,9.92819881439209,0.019199999049305916,0.026399999856948853,0.10839999467134476,0.8829999723492256,-0.30100000673968863,-0.09600000299160849
0.11712434142827988,-0.050939034670591354,9.958040237426758,0.018400000408291817,0.0142000000923872,0.13779999315738678,0.41600000851689906,-0.321000001248676,-0.09399999820462447
0.11866621673107147,-0.04911944270133972,9.938465118408203,0.017400000244379044,0.012899999506771564,0.11819999665021896,-1.5870000031811633,0.5270000007201415,-0.007999999971379599
0.12470917403697968,-0.052164867520332336,9.940322875976562,0.0284000001847744,0.016699999570846558,0.11819999665021896,0.5540000053134664,0.2899999870813831,-0.05900000114378995
0.128108948469162,-0.059232551604509354,9.938255310058594,0.02929999865591526,0.005200000014156103,0.11819999665021896,1.339999978947698,-0.5080000152747527,-0.07600000181251451
0.11384908109903336,-0.04855440929532051,9.938197135925293,0.008299999870359898,0.011299999430775642,0.11819999665021896,-1.5399999773984248,0.6179999984143966,0.07300000130214508
0.11688492447137833,-0.050843264907598495,9.932604789733887,0.019600000232458115,0.014999999664723873,0.11819999665021896,0.9370000348967281,-0.42899999294154895,-0.11299999699022645
0.11952812224626541,-0.05040273442864418,9.931349754333496,0.018299998715519905,0.01209999993443489,0.11819999665021896,-1.5389999950152524,0.47399997391666393,0.03400000133744912
0.12113703042268753,-0.049540821462869644,9.930391311645508,0.017899999395012856,0.011500000022351742,0.10839999467134476,-1.248999981253443,0.49600001323327503,-0.0009999999964224499
0.12545616924762726,-0.050986919552087784,9.931598663330078,0.017899999395012856,0.011500000022351742,0.10839999467134476,0.0269999995907449,-0.407999989368963,-0.2150000010025738
0.10663773864507675,-0.04448426887392998,9.933782577514648,0.029199998825788498,0.01529999915510416,0.11819999665021896,0.59999999535218,-0.14399999781730613,-0.10199999734224074
0.10663773864507675,-0.04448426887392998,9.933782577514648,0.008599999360740185,0.025100000202655792,0.11819999665021896,0.59999999535218,-0.14399999781730613,-0.10199999734224074
0.12236285954713821,-0.05189671739935875,9.938225746154785,0.017999999225139618,0.013399999588727951,0.11819999665021896,-1.2439999626158762,0.44399999549339614,0.010999999647985701
0.10724107921123505,-0.053304508328437805,9.954085350036621,0.00930000003427267,0.016599999740719795,0.13779999315738678,-0.9039999759218116,0.19900000272734125,-0.05200000106461238
0.11088984459638596,-0.046696510165929794,9.939786911010742,0.009800000116229057,0.028699999675154686,0.11819999665021896,1.0919999723310605,-0.585999975183505,-0.11200000126684104
0.1196526288986206,-0.050086699426174164,9.94068717956543,0.017899999395012856,0.01549999974668026,0.11819999665021896,1.3879999871136088,-0.46099998949201404,-0.012000000373951061
0.12921984493732452,-0.04204218462109566,9.939604759216309,0.016599999740719795,0.02149999886751175,0.11819999665021896,-1.1850000415133657,0.5489999866758997,0.03400000133744912
0.12094549834728241,-0.047261543571949005,9.941701889038086,0.02630000002682209,0.020800000056624413,0.11819999665021896,-1.229000013424882,0.585999975183505,0.023000000021936765
0.11618582159280777,-0.03943729028105736,9.933849334716797,0.019500000402331352,0.026999998837709427,0.11819999665021896,-0.8480000019688174,0.4999999961268166,0.04500000098543482
0.11709561944007874,-0.05222232639789581,9.934021949768066,0.020800000056624413,0.019500000402331352,0.11819999665021896,-1.034000033611722,0.5380000203784471,0.07699999753589991
0.12331096827983856,-0.04320097714662552,9.93834114074707,0.022499999031424522,0.032499998807907104,0.11819999665021896,0.47899999255423065,0.03599999945432653,0
0.11459606885910034,-0.03720589354634285,9.935860633850098,0.012799999676644802,0.04089999943971634,0.11819999665021896,0.859000021627123,-0.26300000916848465,-0.03599999945432653
0.10802638530731201,-0.050910305231809616,9.924636840820312,0.012199999764561653,0.019299998879432678,0.10839999467134476,1.2900000060154428,-0.40299999741182274,-0.19200000598321698
0.12693099677562714,-0.062383320182561874,9.93895435333252,0.030499998480081558,0.005499999970197678,0.11819999665021896,-0.3980000054546825,0.05999999686717535,-0.015999999942759198
0.11640609055757523,-0.04710831493139267,9.930526733398438,0.020899999886751175,0.025999998673796654,0.10839999467134476,-0.8089999953340149,0.5209999996994026,0.07300000130214508
0.1303211748600006,-0.04757757484912872,9.938800811767578,0.032099999487400055,0.028199998661875725,0.11819999665021896,1.0050000108911998,-0.29699999716572056,-0.0039999999856897995
0.12517844140529633,-0.04322970658540726,9.926934242248535,0.031199999153614044,0.025100000202655792,0.10839999467134476,0.7230000162773266,-0.2549999900205486,-0.1079999983629796
0.11482591181993484,-0.04358404874801636,9.928160667419434,0.010999999940395355,0.023399999365210533,0.10839999467134476,-0.9450000006838114,0.41300000800652964,0.012000000373951061
0.11926955729722977,-0.042616792023181915,9.940351486206055,0.012299999594688416,0.016499999910593033,0.10839999467134476,-0.7450000022330847,0.2570000081477458,0.014999999216793838
0.11926955729722977,-0.042616792023181915,9.940351486206055,0.021199999377131462,0.023899998515844345,0.11819999665021896,-0.7450000022330847,0.2570000081477458,0.014999999216793838
0.12078268080949783,-0.050651729106903076,9.925077438354492,0.021900000050663948,0.016200000420212746,0.10839999467134476,0.49000001221253614,-0.08400000095013078,-0.05799999875029794
0.12247778475284576,-0.053045932203531265,9.939470291137695,0.02159999869763851,0.014699999243021011,0.12799999117851257,-0.70500001321511,0.14699999832767557,-0.031999999885518396
0.12410584092140198,-0.05703946202993393,9.94265079498291,0.02199999988079071,0.016300000250339508,0.11819999665021896,-0.057000003026912535,0.38400001196643396,-0.0009999999964224499
0.12809936702251434,-0.05345773696899414,9.944125175476074,0.03189999982714653,0.013499999418854713,0.12799999117851257,-0.46600000812958076,0.21999999295971404,-0.05799999875029794
0.12306196242570877,-0.06165548413991928,9.948166847229004,0.022599998861551285,0.004799999762326479,0.12799999117851257,0.7919999746549705,-0.29399999665535115,-0.049999999612681666
0.1217978298664093,-0.043708544224500656,9.929213523864746,0.022599998861551285,0.004799999762326479,0.12799999117851257,1.0350000159948942,-0.2680000011256249,-0.05799999875029794
0.11392569541931152,-0.042837053537368774,9.928333282470703,0.021699998527765274,0.02199999988079071,0.10830000042915344,-0.1529999993484144,0.09300000248123906,-0.02600000053230619
0.12401007115840912,-0.05025908350944519,9.924607276916504,0.01119999960064888,0.019199999049305916,0.10830000042915344,-0.23499999551156117,0.11500000177721047,0.023000000021936765
0.11534306406974792,-0.069182850420475,9.936616897583008,0.021199999377131462,0.00969999935477972,0.10830000042915344,-0.4969999956164472,0.31600000929153577,0.0019999999928448997
0.11223059892654419,-0.0529693178832531,9.929387092590332,0.02149999886751175,-0.009099999442696571,0.11809999495744705,-0.13400000056281244,0.08200000283325337,-0.021999999295971403
0.12456552684307098,-0.04391923546791077,9.934979438781738,0.01249999925494194,0.011599999852478504,0.10830000042915344,0.3259999932058162,-0.024999999806340833,-0.019999999511567335
0.1083998829126358,-0.05589982122182846,9.932154655456543,0.03229999914765358,0.021800000220537186,0.11809999495744705,-0.3579999897562813,0.13100000005244303,0.008999999863581633
0.11320743709802628,-0.0573459193110466,9.934433937072754,0.012899999506771564,0.011899999342858791,0.11809999495744705,-0.37100000086135765,0.11699999322398127,-0.04500000098543482
0.11273816972970963,-0.043306320905685425,9.925824165344238,0.013199999928474426,0.022699998691678047,0.10830000042915344,-0.3759999928184979,0.14300000209392072,-0.010999999647985701
0.11955685168504715,-0.04329674690961838,9.932929992675781,0.013199999928474426,0.022699998691678047,0.10830000042915344,-0.18799999640924894,-0.07799999992939192,-0.06399999977103679
0.12422076612710953,-0.056905388832092285,9.928974151611328,0.02319999970495701,0.014499999582767487,0.10830000042915344,0.07900000232288394,-0.049999999612681666,-0.0039999999856897995
0.11501745134592056,-0.043028589338064194,9.946662902832031,0.023000000044703484,0.02410000003874302,0.12789998948574066,0.3059999986968288,-0.08899999957737763,-0.07999999804626934
0.12032299488782883,-0.044043734669685364,9.934041023254395,0.02279999852180481,0.023099999874830246,0.11809999495744705,-0.2050000037480801,0.10400000212922476,-0.01400000015835513
0.1189631000161171,-0.0438426211476326,9.940648078918457,0.023000000044703484,0.023599999025464058,0.11809999495744705,0.34899998822517303,0.19900000272734125,-0.08499999667351618
0.11351389437913895,-0.03299209848046303,9.93508529663086,0.013799999840557575,0.03240000084042549,0.11809999495744705,0.27599999359313454,-0.09800000110848592,-0.0269999995907449
0.11924082040786743,-0.054635681211948395,9.933714866638184,0.023399999365210533,0.012000000104308128,0.11809999495744705,-0.325000010822644,0.1070000026395942,-0.07300000130214508
0.1086297258734703,-0.04805641621351242,9.919991493225098,0.013799999840557575,0.01269999984651804,0.09849999845027924,-0.23499999551156117,0.07300000130214508,-0.06700000028140622
0.1093767061829567,-0.0372154675424099,9.932575225830078,0.0139999995008111,0.03309999778866768,0.11809999495744705,0.17100000241063099,0.23199999500119176,-0.035000000395887826
0.12223836779594421,-0.04180276021361351,9.93064022064209,0.024399999529123306,0.02279999852180481,0.10830000042915344,0.06099999926066736,-0.041000001416626686,-0.021000000237532696
0.11199118196964264,-0.04639005288481712,9.936473846435547,0.014499999582767487,0.022599998861551285,0.11809999495744705,-0.006000000186975531,0.0030000000934877653,-0.01700000066872456
0.1258009374141693,-0.05040273442864418,9.937929153442383,0.03399999812245369,0.012799999676644802,0.11809999495744705,0.3890000039235742,0.013000000266153095,-0.05799999875029794
0.126567080616951,-0.04747223109006882,9.940102577209473,0.03399999812245369,0.021699998527765274,0.11809999495744705,-0.4930000127229056,0.19900000272734125,-0.057000003026912535
0.11099519580602646,-0.04549941048026085,9.9386568069458,0.014999999664723873,0.023000000044703484,0.11809999495744705,-0.6720000076010463,0.04900000055424296,0.024000000747902123
0.12110830098390579,-0.05277778208255768,9.932250022888184,0.024899998679757118,0.01529999915510416,0.11809999495744705,0.1400000015835513,-0.019000000453128628,-0.11599999750059588
0.11473014950752258,-0.05062299966812134,9.939709663391113,0.014999999664723873,0.01489999983459711,0.11809999495744705,-0.09200000008774706,-0.0749999994190225,-0.07600000181251451
0.11609963327646255,-0.050699613988399506,9.942391395568848,0.02410000003874302,0.013599999248981476,0.12789998948574066,-0.2740000021463637,0.09600000299160849,-0.023000000021936765
0.11217314004898071,-0.039753325283527374,9.934348106384277,0.014499999582767487,0.024000000208616257,0.11809999495744705,-0.09200000008774706,0.15500000413539844,-0.07300000130214508
0.11090900003910065,-0.04696466028690338,9.942391395568848,0.014999999664723873,0.024299999698996544,0.12789998948574066,0.16699999283666295,-0.02600000053230619,-0.014999999216793838
0.11292970180511475,-0.05562209337949753,9.938972473144531,0.01489999983459711,0.0139999995008111,0.11809999495744705,-0.2399999874687014,0.14600000260429016,-0.0539999991814898
0.11292970180511475,-0.05562209337949753,9.938972473144531,0.01489999983459711,0.0139999995008111,0.11809999495744705,-0.2399999874687014,0.14600000260429016,-0.0539999991814898
0.1257338970899582,-0.046696510165929794,9.93513298034668,0.03500000014901161,0.02419999986886978,0.11809999495744705,-0.17599999436777122,-0.10199999734224074,-0.017999999727163266
0.11262324452400208,-0.04592078924179077,9.939863204956055,0.015099999494850636,0.02459999918937683,0.11809999495744705,-0.46900000863995017,0.23399998644796255,-0.07999999804626934
0.1260499358177185,-0.05765237659215927,9.934798240661621,0.03529999777674675,0.006199999712407589,0.11809999495744705,0.5230000178265999,0.08400000095013078,-0.06299999737754478
0.11378204077482224,-0.04462791979312897,9.928093910217285,0.01599999889731407,0.02419999986886978,0.10830000042915344,0.5209999996994026,-0.20899999998183494,-0.10199999734224074
0.11631989479064941,-0.057288460433483124,9.944977760314941,0.025200000032782555,0.012999999336898327,0.12789998948574066,0.3100000082707969,-0.14300000209392072,-0.043999998591942806
0.12538912892341614,-0.05095818638801575,9.936722755432129,0.025200000032782555,0.012999999336898327,0.12789998948574066,0.6330000009662436,-0.3119999997175677,-0.12400000330831876
0.11215398460626602,-0.05726930499076843,9.928821563720703,0.014099999330937862,0.010400000028312206,0.10830000042915344,0.34299998720443414,-0.20200000323771067,0.014999999216793838
0.12107956409454346,-0.05170518159866333,9.94526481628418,0.023499999195337296,0.009499999694526196,0.12789998948574066,0.5240000002097721,-0.1930000017066024,-0.11699999322398127
0.11691366136074066,-0.054990023374557495,9.936080932617188,0.02290000021457672,0.007899999618530273,0.11809999495744705,0.11200000126684104,-0.2770000026567332,-0.08700000146050021
0.12066776305437088,-0.04229117929935455,9.929444313049316,0.022099999710917473,0.017400000244379044,0.10830000042915344,0.44699999600376555,-0.13000000432905762,-0.0969999987149939
0.12200852483510971,-0.046935927122831345,9.932211875915527,0.021800000220537186,0.016300000250339508,0.11809999495744705,-0.3319999942265551,0.22700000304405152,0.043999998591942806
0.12181698530912399,-0.044043734669685364,9.935142517089844,0.022499999031424522,0.01730000041425228,0.11809999495744705,-0.06899999839828364,0.08200000283325337,-0.05600000063342052
0.12342588603496552,-0.04493437707424164,9.942008972167969,0.022599998861551285,0.017500000074505806,0.12789998948574066,-0.3349999947369245,0.03599999945432653,-0.009999999755783667
0.11703815311193466,-0.0568670779466629,9.948424339294434,0.022699998691678047,0.008599999360740185,0.12789998948574066,0.14399999781730613,-0.363000008393848,-0.0009999999964224499
0.10477026551961899,-0.04646666720509529,9.949938774108887,0.001999999862164259,0.017899999395012856,0.12789998948574066,0.5390000027616192,-0.149999998838045,-0.05300000012305109
0.11724884808063507,-0.05336196720600128,9.93126392364502,0.021199999377131462,0.006799999624490738,0.11809999495744705,-0.6200000165415938,0.0539999991814898,-0.023000000021936765
0.11284351348876953,-0.05067088454961777,9.930832862854004,0.011599999852478504,0.008499999530613422,0.10830000042915344,0.6669999889634796,-0.38400001196643396,-0.024999999806340833
0.12781205773353577,-0.0488225594162941,9.929012298583984,0.029999999329447746,0.006399999838322401,0.10830000042915344,-0.4939999951060778,0.3540000068627397,-0.01400000015835513
0.11467268317937851,-0.04276043921709061,9.933303833007812,0.01119999960064888,0.017400000244379044,0.11809999495744705,0.6140000155208549,-0.2039999946844815,-0.04600000004387353
0.11276689916849136,-0.05007712170481682,9.928974151611328,0.010599999688565731,0.005699999630451202,0.10830000042915344,-0.2250000115972807,0.3280000113330135,-0.048000001495804245
0.11670296639204025,-0.054108958691358566,9.946097373962402,0.020399998873472214,0.004600000102072954,0.12789998948574066,0.15800000464576788,-0.09000000197086964,0.06399999977103679
0.10598652064800262,-0.050632577389478683,9.935036659240723,0.010300000198185444,0.004100000020116568,0.11809999495744705,0.5089999976579249,0.02899999937514897,-0.0039999999856897995
0.12786951661109924,-0.04360320419073105,9.939767837524414,0.029999999329447746,0.012600000016391277,0.11809999495744705,0.4139999903897018,-0.27200001069959295,-0.06200000165415938
0.12428779900074005,-0.04338293522596359,9.941692352294922,0.019299998879432678,0.011299999430775642,0.12789998948574066,-0.3130000087811663,-0.20200000323771067,0.03599999945432653
0.11455776542425156,-0.03430412337183952,9.93459701538086,0.008999999612569809,0.02199999988079071,0.11809999495744705,-0.29699999716572056,0.26500000061525547,0.0019999999928448997
0.11723926663398743,-0.04293282330036163,9.945255279541016,0.01939999870955944,0.012899999506771564,0.12789998948574066,0.6579999874323713,0.29399999665535115,-0.04500000098543482
0.11409807950258255,-0.041841067373752594,9.928610801696777,0.010499999858438969,0.010900000110268593,0.10830000042915344,0.5709999726316578,-0.15800000464576788,-0.06200000165415938
0.12037088721990585,-0.04808514937758446,9.922635078430176,0.019899999722838402,-0.00039999998989515007,0.10830000042915344,0.7500000208706514,-0.3100000082707969,-0.09300000248123906
0.11727757006883621,-0.04275086522102356,9.941405296325684,0.01899999938905239,0.007199999876320362,0.12789998948574066,0.3770000018820965,-0.043999998591942806,-0.029999998433587676
0.10803595930337906,-0.04132392257452011,9.940773010253906,0.009099999442696571,0.006199999712407589,0.12789998948574066,0.545000003782358,-0.1610000051561373,-0.08899999957737763
0.12209471315145493,-0.041266459971666336,9.938024520874023,0.01850000023841858,0.004900000058114529,0.11809999495744705,0.6039999782457216,-0.3280000113330135,-0.029999998433587676
0.12255439907312393,-0.05300762504339218,9.942334175109863,0.01759999990463257,-0.0064999996684491634,0.12789998948574066,-0.39299998681711584,0.2810000122307012,-0.08400000095013078
0.11338938772678375,-0.05522944778203964,9.947534561157227,0.008599999360740185,-0.0052999998442828655,0.12789998948574066,0.690999993046435,0.09999999922536333,-0.08400000095013078
0.107691191136837,-0.04158249497413635,9.929452896118164,0.008899999782443047,0.0024999999441206455,0.10830000042915344,-0.5050000147643833,0.3379999952472939,-0.07699999753589991
0.11857043951749802,-0.04509718343615532,9.932863235473633,0.019500000402331352,0.003700000001117587,0.11809999495744705,-0.5009999785099888,-0.3999999969014533,-0.049999999612681666
0.12446018308401108,-0.03748362511396408,9.947677612304688,0.018299998715519905,0.01489999983459711,0.12789998948574066,0.1390000058601659,-0.3690000094145868,-0.06099999926066736
0.11255621165037155,-0.041697416454553604,9.943253517150879,0.007599999662488699,0.004799999762326479,0.12789998948574066,-0.21999999295971404,0.21999999295971404,-0.0749999994190225
0.1317194104194641,-0.042118798941373825,9.951777458190918,0.027799999341368675,0.0052999998442828655,0.13769999146461487,-0.09000000197086964,0.4549999884712752,-0.021999999295971403
0.11415553838014603,-0.04069185256958008,9.949756622314453,0.009499999694526196,0.00559999980032444,0.12789998948574066,0.45700000659847245,-0.5209999996994026,-0.048000001495804245
0.1345062553882599,-0.056081779301166534,9.928534507751465,0.037699997425079346,-0.005200000014156103,0.10830000042915344,0.4769999744270334,-0.10600000024610218,0.043999998591942806
0.12110830098390579,-0.04933971166610718,9.934922218322754,0.017799999564886093,-0.0066999997943639755,0.11809999495744705,0.39699999639108385,-0.3690000094145868,-0.04900000055424296
0.11370542645454407,-0.04653370380401611,9.944766998291016,0.0071000000461936,0.002099999925121665,0.12789998948574066,-0.08700000146050021,0.2810000122307012,0.0030000000934877653
0.12129025906324387,-0.044062890112400055,9.934586524963379,0.01759999990463257,0.002300000051036477,0.11809999495744705,0.6949999759399766,-0.44099999498302667,-0.004999999877891834
0.11461522430181503,-0.0536780022084713,9.951958656311035,0.006399999838322401,-0.009599999524652958,0.13769999146461487,-0.02600000053230619,0.564999971610919,-0.043999998591942806
0.12150094658136368,-0.040414124727249146,9.938197135925293,0.01759999990463257,0.00019999999494757503,0.11809999495744705,0.48599997595814165,-0.43799999447265725,-0.08899999957737763
0.12373234331607819,-0.04952166602015495,9.936320304870605,0.01640000008046627,-0.010900000110268593,0.11809999495744705,-0.2959999881021219,-0.7009999769607155,-0.0030000000934877653
0.12627018988132477,-0.03756023943424225,9.944766998291016,0.024000000208616257,0.009599999524652958,0.12789998948574066,-0.5240000002097721,0.3879999948599756,0.0039999999856897995
0.11523772031068802,-0.04553771764039993,9.931015014648438,0.015099999494850636,-0.008700000122189522,0.11809999495744705,0.015999999942759198,-0.585999975183505,-0.05600000063342052
0.11095688492059708,-0.0561583936214447,9.94161605834961,0.01599999889731407,0.002300000051036477,0.10830000042915344,0.33900000431089256,0.046999999102312236,-0.02600000053230619
0.12960292398929596,-0.054961297661066055,9.926685333251953,0.004600000102072954,-0.007499999832361937,0.12789998948574066,-0.6239999994351354,-0.3459999877148036,-0.04200000047506539
0.1091277152299881,-0.042808327823877335,9.936100006103516,0.003599999938160181,0.0032999999821186066,0.11809999495744705,-0.24200000559589865,0.4849999935749695,-0.06200000165415938
0.12236285954713821,-0.04881298542022705,9.94607925415039,0.014699999243021011,-0.005799999926239252,0.12789998948574066,-0.6720000076010463,0.7570000042745624,0.0019999999928448997
0.11060254275798798,-0.051695603877305984,9.942803382873535,0.00699999975040555,-0.0038999998942017555,0.12789998948574066,0.7639999876784734,-0.057000003026912535,-0.02600000053230619
0.11934617161750793,-0.04326801374554634,9.936675071716309,0.016599999740719795,0.003700000001117587,0.11809999495744705,-0.4019999883482241,0.39699999639108385,-0.013000000266153095
0.11558248102664948,-0.05086242035031319,9.924215316772461,0.01759999990463257,-0.0050999997183680534,0.10830000042915344,0.9469999654501557,0.2499999980634083,-0.0659999978879142
0.12415372580289841,-0.052049946039915085,9.930516242980957,0.018199998885393143,-0.007699999958276749,0.10830000042915344,0.4429999864297975,-0.5470000219095553,-0.049999999612681666
0.11413638293743134,-0.04381389170885086,9.938570022583008,0.0066999997943639755,0.0005999999702908099,0.11809999495744705,1.034000033611722,-0.2729999930827651,-0.06399999977103679
0.1207156553864479,-0.04919605702161789,9.933993339538574,0.015799999237060547,-0.011899999342858791,0.11809999495744705,-1.2679999666988317,0.15399999507179982,-0.03100000082707969
0.12671072781085968,-0.055200714617967606,9.930325508117676,0.02589999884366989,-0.008899999782443047,0.10830000042915344,0.18600000496247812,0.2069999951948509,-0.08499999667351618
0.12328223139047623,-0.05014416202902794,9.925421714782715,0.01679999940097332,-0.009499999694526196,0.10830000042915344,0.9389999996630725,0.035000000395887826,-0.038000000906257256
0.1296316534280777,-0.05374504253268242,9.927040100097656,0.026599999517202377,-0.011699999682605267,0.10830000042915344,0.7930000103989956,0.11200000126684104,-0.09999999922536333
0.12657664716243744,-0.05301720276474953,9.927605628967285,0.026999998837709427,-0.0142000000923872,0.10830000042915344,-0.5320000193577081,0.19600000221697184,-0.1079999983629796
0.1154005229473114,-0.04678269848227501,9.928869247436523,0.01769999973475933,-0.002899999963119626,0.10830000042915344,0.9039999759218116,-0.25100000712700693,-0.006000000186975531
0.11203905940055847,-0.04080677404999733,9.929932594299316,0.007199999876320362,-0.0050999997183680534,0.10830000042915344,0.6390000019869825,-0.004999999877891834,-0.09200000008774706
0.11495999246835709,-0.0407588891685009,9.93838882446289,0.016999999061226845,-0.00699999975040555,0.11809999495744705,2.449999954340975,-0.1719999981340164,0.009999999755783667
0.12295661866664886,-0.03924575448036194,9.926800727844238,0.016599999740719795,-0.013299999758601189,0.10830000042915344,0.17400000292100043,0.0969999987149939,-0.0539999991814898
0.11205822229385376,-0.0529693178832531,9.93953800201416,0.00699999975040555,-0.023499999195337296,0.11809999495744705,-1.8390000460521954,0.2499999980634083,0.06500000216452881
0.115984708070755,-0.05318000912666321,9.931492805480957,0.01759999990463257,-0.017899999395012856,0.11809999495744705,0.8799999718388561,-0.15699999558216926,-0.035000000395887826
0.11033438891172409,-0.03877649083733559,9.939126014709473,0.007400000002235174,-0.010199999436736107,0.11809999495744705,-0.283000003677472,0.1319999957758284,-0.03599999945432653
0.1095874011516571,-0.04853525385260582,9.936089515686035,0.007699999958276749,-0.019199999049305916,0.11809999495744705,-0.27200001069959295,-0.08200000283325337,-0.1079999983629796
0.12070606648921967,-0.05762364715337753,9.939825057983398,0.01730000041425228,-0.028199998661875725,0.11809999495744705,1.3790000389433534,-0.13499999628619785,-0.0009999999964224499
0.11962389200925827,-0.03888183459639549,9.940544128417969,0.016899999231100082,-0.021699998527765274,0.10830000042915344,-0.669999989473849,-0.25599999908414717,-0.05600000063342052
0.11043015867471695,-0.047759536653757095,9.941712379455566,0.016099998727440834,-0.009800000116229057,0.11809999495744705,-0.6450000030077214,0.10299999973573276,-0.08299999855663877
0.12079226970672607,-0.05419514700770378,9.924569129943848,0.006599999964237213,-0.0066999997943639755,0.12789998948574066,0.7360000007019765,-0.07999999804626934,-0.11099999887334903
0.12117534130811691,-0.0494067445397377,9.931004524230957,0.016599999740719795,-0.014999999664723873,0.10830000042915344,-3.4030000275335754,0.09899999683187131,-0.16899999762364695
0.13018712401390076,-0.03818272799253464,9.927155494689941,0.026399999856948853,0.010400000028312206,0.10830000042915344,-1.8069999694604508,0.07600000181251451,-0.15200000362502902
0.11690407991409302,-0.03597048670053482,9.923640251159668,0.026399999856948853,0.010400000028312206,0.10830000042915344,1.5360000478657359,-0.1419999930303221,-0.12299999424472013
0.10737515985965729,-0.048755522817373276,9.927988052368164,0.006599999964237213,-0.007799999788403511,0.10830000042915344,-0.34299998720443414,0.10400000212922476,-0.035000000395887826
0.13139379024505615,-0.045010991394519806,9.919053077697754,0.026399999856948853,0.002699999837204814,0.09849999845027924,1.689000020533724,-0.14300000209392072,-0.07799999992939192
0.12180740386247635,-0.05207867547869682,9.94291877746582,0.016200000420212746,-0.011599999852478504,0.12789998948574066,-0.29699999716572056,-0.03999999902313467,-0.149999998838045
0.11643481254577637,-0.04949294030666351,9.943110466003418,0.016099998727440834,-0.010699999518692493,0.12789998948574066,-0.2039999946844815,0.07000000079177565,-0.08499999667351618
0.11247959733009338,-0.04377558454871178,9.93441390991211,0.006399999838322401,-0.00039999998989515007,0.11809999495744705,0.3100000082707969,-0.019999999511567335,-0.0429999995335041
0.10749008506536484,-0.0548655241727829,9.930890083312988,0.006399999838322401,-0.010900000110268593,0.10830000042915344,-0.03100000082707969,0.024999999806340833,-0.06899999839828364
0.10859141498804092,-0.04161122441291809,9.927193641662598,0.006399999838322401,-0.0009999999310821295,0.10830000042915344,-0.6709999718570212,0.14499999354069154,-0.021999999295971403
0.1164635494351387,-0.05503791198134422,9.938167572021484,0.016599999740719795,-0.008999999612569809,0.11809999495744705,0.9180000494513394,-0.04500000098543482,0.01400000015835513
0.11602301895618439,-0.03897760435938835,9.946854591369629,0.016499999910593033,-0.001999999862164259,0.12789998948574066,0.5390000027616192,-0.019000000453128628,0.0039999999856897995
0.11068873852491379,-0.04227202758193016,9.929089546203613,0.026200000196695328,-0.013299999758601189,0.10830000042915344,-0.7600000047849319,0.12100000279794933,0.0329999989439571
0.11068873852491379,-0.04227202758193016,9.929089546203613,0.0064999996684491634,-0.0030999998562037945,0.10830000042915344,-0.7600000047849319,0.12100000279794933,0.0329999989439571
0.11747869104146957,-0.05991250276565552,9.916994094848633,0.016599999740719795,-0.020399998873472214,0.09849999845027924,0.10400000212922476,0.013000000266153095,-0.0539999991814898
0.12354081124067307,-0.04993347078561783,9.925039291381836,0.016599999740719795,-0.010799999348819256,0.10830000042915344,-0.6819999915153268,0.008999999863581633,-0.1729999938574018
0.12992854416370392,-0.053285352885723114,9.926531791687012,0.016599999740719795,0.010599999688565731,0.10830000042915344,-0.11599999750059588,0.07600000181251451,-0.06500000216452881
0.1107940748333931,-0.04633259028196335,9.927011489868164,0.026599999517202377,-0.008599999360740185,0.10830000042915344,0.11500000177721047,-0.021999999295971403,-0.046999999102312236
0.1107940748333931,-0.04633259028196335,9.927011489868164,0.006899999920278788,0.0008999999845400453,0.10830000042915344,0.28799999563461226,-0.03699999851276524,-0.03400000133744912
0.10920432955026627,-0.03941813483834267,9.921859741210938,0.006799999624490738,0.00009999999747378752,0.10830000042915344,-0.07999999804626934,0.007999999971379599,-0.007000000079177565
0.1157548651099205,-0.043995849788188934,9.926886558532715,0.016599999740719795,0.00029999998514540493,0.10830000042915344,-0.12400000330831876,0.057000003026912535,-0.041000001416626686
0.11606132239103317,-0.058428097516298294,9.930688858032227,-0.00279999990016222,-0.009099999442696571,0.11809999495744705,-0.12199999852133472,0.03400000133744912,-0.08899999957737763
0.1115027591586113,-0.046131476759910583,9.943608283996582,0.01679999940097332,-0.01850000023841858,0.10830000042915344,0.3059999986968288,0.015999999942759198,0.007000000079177565
0.11275732517242432,-0.04062481224536896,9.944459915161133,0.006899999920278788,0.0013000000035390258,0.12789998948574066,0.057000003026912535,0.029999998433587676,-0.08499999667351618
0.1163390502333641,-0.05132210999727249,9.94149112701416,0.006899999920278788,0.0004999999655410647,0.12789998948574066,0.4319999934519184,-0.0429999995335041,-0.0019999999928448997
0.1261935830116272,-0.05547844246029854,9.938915252685547,0.026499999687075615,-0.010400000028312206,0.11809999495744705,0.031999999885518396,0.004999999877891834,-0.0859999990670082
0.12232455611228943,-0.04511633515357971,9.941855430603027,0.026499999687075615,-0.010400000028312206,0.11809999495744705,0.1930000017066024,0.0019999999928448997,-0.031999999885518396
0.11273816972970963,-0.05163814127445221,9.937172889709473,0.006799999624490738,-0.010999999940395355,0.11809999495744705,-0.149999998838045,0.031999999885518396,0
0.11991120129823685,-0.03585556522011757,9.926149368286133,0.016699999570846558,0.008799999952316284,0.10830000042915344,0.17400000292100043,0.021000000237532696,-0.06500000216452881
0.11829271912574768,-0.04481945559382439,9.936962127685547,0.016699999570846558,-0.00139999995008111,0.11809999495744705,0.08799999718388561,0,-0.012000000373951061
0.11898224800825119,-0.04997177794575691,9.932700157165527,0.016699999570846558,-0.011399999260902405,0.11809999495744705,-0.12199999852133472,0.021999999295971403,-0.10600000024610218
0.11331277340650558,-0.043852198868989944,9.932632446289062,0.006899999920278788,-0.0013000000035390258,0.11809999495744705,0.15800000464576788,-0.013000000266153095,-0.013000000266153095
0.12011231482028961,-0.04000232368707657,9.92434024810791,0.016599999740719795,-0.0016999999061226845,0.10830000042915344,-0.1400000015835513,-0.03100000082707969,-0.023000000021936765
0.11620496958494186,-0.06387729942798615,9.925288200378418,0.016499999910593033,-0.020999999716877937,0.10830000042915344,-0.21999999295971404,0.0019999999928448997,-0.17700000343136985
0.11364796757698059,-0.047864880412817,9.934884071350098,0.0066999997943639755,-0.000699999975040555,0.11809999495744705,0.10900000075647161,0.021000000237532696,-0.13600000534979648
0.11581232398748398,-0.052452173084020615,9.92682933807373,0.02630000002682209,-0.010900000110268593,0.10830000042915344,0.0969999987149939,0.0539999991814898,0.02800000031671026
0.12248735874891281,-0.051982905715703964,9.925843238830566,0.016499999910593033,-0.010400000028312206,0.10830000042915344,0.06299999737754478,0.013000000266153095,-0.1319999957758284
0.11720095574855804,-0.05312254652380943,9.941357612609863,0.016599999740719795,-0.010599999688565731,0.10830000042915344,-0.07600000181251451,0.031999999885518396,-0.14600000260429016
0.11586020886898041,-0.05844724923372269,9.932632446289062,0.016599999740719795,-0.020399998873472214,0.11809999495744705,0.08400000095013078,0.015999999942759198,-0.2159999967259592
0.11722011864185333,-0.052097827196121216,9.92530632019043,0.016699999570846558,-0.010799999348819256,0.10830000042915344,-0.1390000058601659,0.009999999755783667,-0.2469999975530389
0.11733503639698029,-0.04908113554120064,9.934768676757812,0.016699999570846558,-0.010799999348819256,0.10830000042915344,-0.16800000190026157,-0.019999999511567335,-0.4019999883482241
0.12295661866664886,-0.058236561715602875,9.932374000549316,0.016599999740719795,-0.01979999989271164,0.11809999495744705,0.03599999945432653,-0.0269999995907449,-0.10600000024610218
0.1177564188838005,-0.04653370380401611,9.936491966247559,0.016599999740719795,-0.01979999989271164,0.11809999495744705,0.023000000021936765,-0.008999999863581633,0.049999999612681666
0.11483548581600189,-0.05755661055445671,9.943521499633789,0.016499999910593033,-0.00029999998514540493,0.11809999495744705,0.09500000059811649,0.029999998433587676,0.23499999551156117
0.10207918286323547,-0.05300762504339218,9.935946464538574,-0.003000000026077032,-0.010400000028312206,0.11809999495744705,-0.035000000395887826,0.021999999295971403,0.3669999912873896
0.11785218864679337,-0.0350702665746212,9.932096481323242,-0.003000000026077032,-0.010400000028312206,0.11809999495744705,0.057000003026912535,-0.0030000000934877653,-0.2499999980634083
0.11348515748977661,-0.051666874438524246,9.936971664428711,0.0066999997943639755,-0.010400000028312206,0.11809999495744705,0.08100000043976135,0.014999999216793838,0.08200000283325337
0.11650185286998749,-0.05170518159866333,9.938733100891113,0.016499999910593033,-0.010599999688565731,0.11809999495744705,-0.04600000004387353,-0.015999999942759198,-0.17700000343136985
0.1142129972577095,-0.06639600545167923,9.940256118774414,0.0066999997943639755,-0.02019999921321869,0.11809999495744705,0.014999999216793838,0.057000003026912535,-0.07199999890865307
0.12527421116828918,-0.05583278089761734,9.936683654785156,0.02630000002682209,-0.010499999858438969,0.11809999495744705,-0.05999999686717535,-0.0030000000934877653,-0.10999999647985702
0.11502702534198761,-0.05025908350944519,9.933706283569336,0.016499999910593033,-0.010199999436736107,0.11809999495744705,0,-0.007000000079177565,0.15800000464576788
0.11178048700094223,-0.049636587500572205,9.937335014343262,0.006599999964237213,-0.010199999436736107,0.11809999495744705,0.10999999647985702,-0.08400000095013078,-0.1620000008795227
0.11824483424425125,-0.05348646640777588,9.939892768859863,0.016200000420212746,-0.010499999858438969,0.11809999495744705,-0.05900000114378995,0.014999999216793838,-0.009999999755783667
0.11535263806581497,-0.04933971166610718,9.937870979309082,0.016200000420212746,-0.010300000198185444,0.11809999495744705,0.057000003026912535,0.03899999996469596,-0.05099999867112037
0.11678916215896606,-0.045221682637929916,9.939040184020996,0.016300000250339508,-0.0005999999702908099,0.11809999495744705,0.03100000082707969,-0.0030000000934877653,-0.1189999980109653
0.12067734450101852,-0.047711651772260666,9.94331169128418,0.016200000420212746,-0.000699999975040555,0.12789998948574066,-0.04200000047506539,-0.03999999902313467,0.006000000186975531
0.12447933107614517,-0.05122634023427963,9.932086944580078,0.016099998727440834,-0.010400000028312206,0.11809999495744705,-0.013000000266153095,0.021999999295971403,-0.03400000133744912
0.12691184878349304,-0.05215528979897499,9.94990062713623,0.025499999523162842,-0.010099999606609344,0.12789998948574066,0.021999999295971403,-0.02899999937514897,-0.0329999989439571
0.12410584092140198,-0.050057969987392426,9.950167655944824,0.01529999915510416,-0.009999999776482582,0.12789998948574066,0.05900000114378995,-0.0019999999928448997,0.004999999877891834
0.11370542645454407,-0.0355491079390049,9.935553550720215,0.005399999674409628,0.009099999442696571,0.11809999495744705,-0.05600000063342052,-0.0030000000934877653,-0.013000000266153095
0.11839806288480759,-0.04833414405584335,9.933714866638184,0.01489999983459711,-0.010099999606609344,0.11809999495744705,0.014999999216793838,0,-0.09099999769425504
0.11560162901878357,-0.04907156154513359,9.940237045288086,0.014699999243021011,-0.00989999994635582,0.11809999495744705,-0.07099999651516105,0.021999999295971403,-0.007999999971379599
0.11524729430675507,-0.05661807954311371,9.928333282470703,0.014399999752640724,-0.009499999694526196,0.10830000042915344,-0.031999999885518396,0.024000000747902123,-0.0039999999856897995
0.12211386114358902,-0.06179913505911827,9.934356689453125,0.004600000102072954,-0.00930000003427267,0.12789998948574066,-0.0539999991814898,0.023000000021936765,-0.13700000107318186
0.12211386114358902,-0.06179913505911827,9.934356689453125,0.0142000000923872,-0.01850000023841858,0.11809999495744705,-0.0539999991814898,0.023000000021936765,-0.13700000107318186
0.12283211946487427,-0.051599834114313126,9.943971633911133,0.014099999330937862,-0.00839999970048666,0.12789998948574066,-0.0009999999964224499,0.0539999991814898,0.0030000000934877653
0.11971966922283173,-0.05481764301657677,9.938034057617188,0.013700000010430813,-0.008499999530613422,0.11809999495744705,0.024000000747902123,-0.0030000000934877653,-0.0329999989439571
0.12373234331607819,-0.05242343991994858,9.933897018432617,0.013499999418854713,-0.00839999970048666,0.11809999495744705,-0.06500000216452881,0.02800000031671026,-0.05499999823992851
0.11179964244365692,-0.04734773188829422,9.943703651428223,0.003700000001117587,0.001500000013038516,0.12789998948574066,0.07600000181251451,0.0030000000934877653,-0.06399999977103679
0.11179964244365692,-0.04734773188829422,9.943703651428223,0.003700000001117587,0.001500000013038516,0.12789998948574066,0.07600000181251451,0.0030000000934877653,-0.06399999977103679
0.10779654234647751,-0.04114196076989174,9.933321952819824,0.003399999812245369,0.0011999999405816197,0.11809999495744705,0.007999999971379599,0,-0.06200000165415938
0.12508267164230347,-0.054731450974941254,9.932441711425781,0.022599998861551285,-0.00839999970048666,0.11809999495744705,-0.07399999702553048,0.024000000747902123,-0.0030000000934877653
0.12610739469528198,-0.059280432760715485,9.95748519897461,0.02239999920129776,-0.01769999973475933,0.13779999315738678,0.024999999806340833,0.019000000453128628,-0.0269999995907449
0.11591766774654388,-0.04599740356206894,9.932833671569824,0.012399999424815178,0.0016999999061226845,0.11809999495744705,0.03699999851276524,0.008999999863581633,-0.10299999973573276
0.11497914046049118,-0.05339069664478302,9.937191009521484,0.012299999594688416,-0.007999999448657036,0.11809999495744705,0.014999999216793838,-0.01700000066872456,-0.01700000066872456
0.11980585753917694,-0.041084498167037964,9.936166763305664,0.012000000104308128,0.0015999999595806003,0.11809999495744705,0.017999999727163266,0.0009999999964224499,-0.007999999971379599
0.13284945487976074,-0.054731450974941254,9.944930076599121,0.02159999869763851,-0.007999999448657036,0.12799999117851257,0.0019999999928448997,0.007000000079177565,-0.008999999863581633
0.11232636868953705,-0.058801595121622086,9.955358505249023,0.001999999862164259,-0.01759999990463257,0.13779999315738678,0.0539999991814898,-0.0039999999856897995,-0.03899999996469596
0.12949758768081665,-0.0501154288649559,9.939126014709473,0.021199999377131462,-0.007799999788403511,0.11819999665021896,0.023000000021936765,-0.04600000004387353,-0.11099999887334903
0.1096065491437912,-0.04530787095427513,9.9371337890625,0.001500000013038516,0.0017999999690800905,0.11819999665021896,-0.017999999727163266,0.007000000079177565,-0.0429999995335041
0.12445060908794403,-0.050986919552087784,9.94296646118164,0.01119999960064888,-0.007699999958276749,0.12799999117851257,-0.021000000237532696,0.0329999989439571,-0.09200000008774706
0.1146918386220932,-0.043095629662275314,9.928658485412598,0.00139999995008111,0.001999999862164259,0.10830000042915344,-0.010999999647985701,-0.0009999999964224499,-0.03100000082707969
0.11376288533210754,-0.04498226195573807,9.931608200073242,0.00139999995008111,0.001999999862164259,0.11819999665021896,0.021999999295971403,0.024000000747902123,-0.13000000432905762
0.12278424203395844,-0.05919424444437027,9.935352325439453,0.011099999770522118,-0.017400000244379044,0.11819999665021896,-0.0019999999928448997,-0.019999999511567335,-0.05999999686717535
0.1224011704325676,-0.039370253682136536,9.930909156799316,0.010900000110268593,0.002099999925121665,0.10839999467134476,-0.006000000186975531,-0.0429999995335041,0.021999999295971403
0.12383769452571869,-0.04339251294732094,9.940064430236816,0.010699999518692493,0.002099999925121665,0.11819999665021896,0.015999999942759198,0.03100000082707969,-0.07399999702553048
0.12497732788324356,-0.04592078924179077,9.938350677490234,0.02029999904334545,0.001999999862164259,0.11819999665021896,0.04500000098543482,-0.013000000266153095,0.0009999999964224499
0.13097241520881653,-0.05160941183567047,9.921026229858398,0.019899999722838402,-0.007699999958276749,0.09860000014305115,-0.024000000747902123,-0.021999999295971403,-0.15699999558216926
0.11750741302967072,-0.046888045966625214,9.936310768127441,0.00989999994635582,0.001999999862164259,0.11819999665021896,0.007999999971379599,0.012000000373951061,-0.09800000110848592
0.11429918557405472,-0.03734954819083214,9.951040267944336,0.00019999999494757503,0.011699999682605267,0.13779999315738678,-0.029999998433587676,0.0019999999928448997,-0.019000000453128628
0.1215679869055748,-0.06312073767185211,9.948856353759766,0.00989999994635582,-0.017400000244379044,0.12799999117851257,-0.014999999216793838,0.019000000453128628,-0.09000000197086964
0.12035173177719116,-0.04971320182085037,9.938417434692383,0.009800000116229057,-0.007400000002235174,0.11819999665021896,-0.006000000186975531,0.0030000000934877653,-0.08799999718388561
0.12413457036018372,-0.043114785104990005,9.945638656616211,0.00969999935477972,0.002300000051036477,0.12799999117851257,-0.035000000395887826,0.023000000021936765,-0.14900000311465958
0.12082099169492722,-0.04338293522596359,9.949239730834961,0.009599999524652958,0.0023999998811632395,0.12799999117851257,-0.0039999999856897995,0.010999999647985701,-0.05200000106461238
0.10352528095245361,-0.04639005288481712,9.935678482055664,-0.009800000116229057,0.002300000051036477,0.11819999665021896,0,0,-0.0039999999856897995
0.11515152454376221,-0.0710790604352951,9.91887092590332,0.009599999524652958,-0.026599999517202377,0.09860000014305115,-0.007999999971379599,0.0009999999964224499,-0.13600000534979648
0.11621455103158951,-0.050201620906591415,9.926896095275879,0.009499999694526196,-0.006799999624490738,0.10839999467134476,-0.004999999877891834,-0.0019999999928448997,-0.06800000267489824
0.12334927171468735,-0.05128380283713341,9.920690536499023,0.009399999864399433,-0.0066999997943639755,0.09860000014305115,-0.007999999971379599,0.014999999216793838,-0.0019999999928448997
0.11722969263792038,-0.05490383133292198,9.936760902404785,0.009399999864399433,-0.0066999997943639755,0.09860000014305115,-0.007000000079177565,0.04900000055424296,-0.05799999875029794
0.12155841290950775,-0.044091615825891495,9.906201362609863,0.00930000003427267,0.003000000026077032,0.08879999816417694,0.07000000079177565,-0.0019999999928448997,-0.010999999647985701
0.11559205502271652,-0.05481764301657677,9.941242218017578,0.009200000204145908,-0.006799999624490738,0.12799999117851257,0,-0.0539999991814898,-0.008999999863581633
0.10946290194988251,-0.05762364715337753,9.933073043823242,-0.000699999975040555,-0.01640000008046627,0.11819999665021896,-0.031999999885518396,-0.0030000000934877653,-0.13700000107318186
0.11666465550661087,-0.054635681211948395,9.93544864654541,0.008899999782443047,-0.006399999838322401,0.11819999665021896,-0.16899999762364695,0.04200000047506539,-0.0269999995907449
0.11988247185945511,-0.046006981283426285,9.932690620422363,0.008999999612569809,0.003700000001117587,0.11819999665021896,-0.007000000079177565,-0.024999999806340833,-0.11599999750059588
0.12909534573554993,-0.0510731115937233,9.937986373901367,0.01850000023841858,-0.0058999997563660145,0.11819999665021896,-0.029999998433587676,0.008999999863581633,0.010999999647985701
0.10728896409273148,-0.0499909333884716,9.937727928161621,-0.0009999999310821295,-0.005799999926239252,0.11819999665021896,0.017999999727163266,0.015999999942759198,-0.023000000021936765
0.12084972113370895,-0.052883125841617584,9.947352409362793,0.008700000122189522,-0.005799999926239252,0.12799999117851257,-0.007999999971379599,0.057000003026912535,-0.10400000212922476
0.11384908109903336,-0.04247313737869263,9.945274353027344,-0.0007999999797903001,0.0038999998942017555,0.12799999117851257,0.01400000015835513,-0.0030000000934877653,-0.13700000107318186
0.12705549597740173,-0.04116111248731613,9.942075729370117,0.01850000023841858,0.0037999998312443495,0.12799999117851257,-0.015999999942759198,-0.02600000053230619,-0.02600000053230619
0.11311166733503342,-0.05504748597741127,9.928707122802734,-0.0009999999310821295,-0.005799999926239252,0.10839999467134476,-0.023000000021936765,0.004999999877891834,-0.041000001416626686
0.10917560011148453,-0.043162669986486435,9.94225788116455,-0.0009999999310821295,0.003999999724328518,0.12799999117851257,0.03400000133744912,0.01400000015835513,-0.06899999839828364
0.11001835763454437,-0.05371630936861038,9.93033504486084,-0.0008999999845400453,-0.005799999926239252,0.10839999467134476,0.019000000453128628,0.02899999937514897,0.012000000373951061
0.11321701109409332,-0.04405330866575241,9.924559593200684,-0.0007999999797903001,0.0037999998312443495,0.10839999467134476,0.019999999511567335,0.021999999295971403,0.02600000053230619
0.12470917403697968,-0.05708734691143036,9.926274299621582,0.01850000023841858,-0.0058999997563660145,0.10839999467134476,0.024999999806340833,0.0030000000934877653,-0.0019999999928448997
0.11037269234657288,-0.061885327100753784,9.946634292602539,-0.0009999999310821295,-0.015599999576807022,0.12799999117851257,-0.021000000237532696,-0.0030000000934877653,-0.10499999785261017
0.10907024890184402,-0.048065993934869766,9.931771278381348,-0.0008999999845400453,-0.005699999630451202,0.11819999665021896,0.024999999806340833,-0.006000000186975531,-0.07900000232288394
0.1175457239151001,-0.029151801019906998,9.924358367919922,0.008700000122189522,0.013599999248981476,0.10839999467134476,0.019000000453128628,-0.0019999999928448997,-0.04200000047506539
0.11189541220664978,-0.05525817349553108,9.951154708862305,0.008599999360740185,0.003700000001117587,0.10839999467134476,0.0019999999928448997,-0.0009999999964224499,-0.09899999683187131
0.1114836037158966,-0.05440583825111389,9.945082664489746,-0.0010999999940395355,-0.006000000052154064,0.13779999315738678,0.024000000747902123,0.007999999971379599,0.04200000047506539
0.1148163378238678,-0.061100028455257416,9.935707092285156,-0.0010999999940395355,-0.0058999997563660145,0.12799999117851257,0.008999999863581633,0,-0.0859999990670082
0.12254482507705688,-0.03713885322213173,9.935487747192383,-0.0009999999310821295,-0.015599999576807022,0.11819999665021896,0.031999999885518396,0.03400000133744912,-0.12199999852133472
0.11586020886898041,-0.03628652170300484,9.932001113891602,0.008599999360740185,0.013299999758601189,0.11819999665021896,-0.006000000186975531,-0.0009999999964224499,-0.11500000177721047
0.11539094895124435,-0.060343459248542786,9.938015937805176,0.008599999360740185,0.013299999758601189,0.11819999665021896,0.014999999216793838,0.02800000031671026,-0.041000001416626686
0.1142129972577095,-0.043095629662275314,9.934117317199707,-0.0010999999940395355,0.003599999938160181,0.11819999665021896,0.006000000186975531,-0.006000000186975531,-0.007999999971379599
0.11005666106939316,-0.057547032833099365,9.942363739013672,-0.0010999999940395355,-0.015799999237060547,0.12799999117851257,0.0009999999964224499,0.0039999999856897995,-0.043999998591942806
0.11764149367809296,-0.050441041588783264,9.937804222106934,0.008499999530613422,-0.0058999997563660145,0.11819999665021896,-0.009999999755783667,0.019999999511567335,-0.0019999999928448997
0.12472832947969437,-0.03916914016008377,9.93757438659668,0.018199998885393143,0.0037999998312443495,0.11819999665021896,0.014999999216793838,0.06099999926066736,-0.004999999877891834
0.12145306169986725,-0.028969841077923775,9.925814628601074,0.008499999530613422,0.013399999588727951,0.10839999467134476,-0.0009999999964224499,-0.004999999877891834,-0.07900000232288394
0.11176133900880814,-0.04332547262310982,9.943426132202148,-0.0011999999405816197,0.003499999875202775,0.12799999117851257,-0.004999999877891834,-0.004999999877891834,-0.046999999102312236
0.11334151029586792,-0.05022077634930611,9.927001953125,-0.0011999999405816197,-0.006099999882280827,0.10839999467134476,-0.03400000133744912,-0.0019999999928448997,-0.06200000165415938
0.11383949965238571,-0.05649358406662941,9.932250022888184,-0.0011999999405816197,-0.006000000052154064,0.11819999665021896,0.019999999511567335,0.03400000133744912,-0.019000000453128628
0.1237131878733635,-0.0513029545545578,9.944001197814941,0.008599999360740185,-0.006000000052154064,0.12799999117851257,-0.0039999999856897995,0.015999999942759198,-0.03599999945432653
0.11725842207670212,-0.041620802134275436,9.934280395507812,0.008499999530613422,0.003700000001117587,0.11819999665021896,-0.017999999727163266,0.019000000453128628,-0.11699999322398127
0.12246821075677872,-0.04997177794575691,9.919273376464844,0.008499999530613422,-0.0058999997563660145,0.09860000014305115,-0.03899999996469596,-0.006000000186975531,-0.015999999942759198
0.11986330896615982,-0.05726930499076843,9.933667182922363,0.00839999970048666,0.013599999248981476,0.10839999467134476,-0.09200000008774706,0.0039999999856897995,-0.03100000082707969
0.11986330896615982,-0.05726930499076843,9.933667182922363,0.008299999870359898,-0.006000000052154064,0.11819999665021896,-0.09200000008774706,0.0039999999856897995,-0.03100000082707969
0.11744996160268784,-0.04263594374060631,9.939040184020996,0.008299999870359898,0.003999999724328518,0.11819999665021896,-0.0329999989439571,0,-0.08100000043976135
0.11516110599040985,-0.05466441437602043,9.943714141845703,0.008200000040233135,-0.00559999980032444,0.12799999117851257,-0.03100000082707969,0.006000000186975531,-0.08200000283325337
0.11607089638710022,-0.0368419773876667,9.95789623260498,0.008100000210106373,0.013899999670684338,0.13779999315738678,-0.007000000079177565,0.03699999851276524,0.0019999999928448997
0.11312124133110046,-0.056551042944192886,9.93692398071289,-0.00139999995008111,-0.00559999980032444,0.11819999665021896,0.04600000004387353,0.021999999295971403,0.031999999885518396
0.11926955729722977,-0.05340985208749771,9.94748592376709,0.008299999870359898,-0.005699999630451202,0.12799999117851257,-0.019000000453128628,0.013000000266153095,-0.07399999702553048
0.10233776271343231,-0.05251920595765114,9.929970741271973,0.008200000040233135,-0.00559999980032444,0.11819999665021896,0.02899999937514897,0.007000000079177565,-0.08200000283325337
0.11330319941043854,-0.04064396768808365,9.931655883789062,-0.011099999770522118,-0.00559999980032444,0.10839999467134476,-0.0329999989439571,0,-0.07099999651516105
0.1201314628124237,-0.045010991394519806,9.922682762145996,-0.0011999999405816197,0.004100000020116568,0.11819999665021896,-0.0039999999856897995,0.01400000015835513,-0.0019999999928448997
0.11431834101676941,-0.046437934041023254,9.927997589111328,-0.0011999999405816197,0.004100000020116568,0.10839999467134476,0,-0.0030000000934877653,0.0429999995335041
0.12974658608436584,-0.0610138364136219,9.948415756225586,0.01809999905526638,-0.01529999915510416,0.12799999117851257,0.02899999937514897,-0.0030000000934877653,-0.12499999903170415
0.11453860998153687,-0.05078580603003502,9.942688941955566,0.01809999905526638,-0.01529999915510416,0.12799999117851257,0.0030000000934877653,0.029999998433587676,0.019999999511567335
0.10936713218688965,-0.042099643498659134,9.932182312011719,-0.0013000000035390258,0.004100000020116568,0.11819999665021896,-0.004999999877891834,0.01400000015835513,-0.024000000747902123
0.10915643721818924,-0.03874776139855385,9.926427841186523,-0.0011999999405816197,0.004100000020116568,0.10839999467134476,0.009999999755783667,0.01400000015835513,-0.0269999995907449
0.1321312040090561,-0.047500960528850555,9.929740905761719,0.01809999905526638,0.003999999724328518,0.10839999467134476,-0.009999999755783667,0.010999999647985701,-0.0030000000934877653
0.13255257904529572,-0.04879382997751236,9.923324584960938,0.017999999225139618,-0.00559999980032444,0.10839999467134476,0.03599999945432653,0.008999999863581633,0.01400000015835513
0.11044930666685104,-0.05837063491344452,9.950685501098633,-0.001500000013038516,-0.015399999916553497,0.13779999315738678,0.0329999989439571,-0.0030000000934877653,0.038000000906257256
0.12754391133785248,-0.04138138145208359,9.943100929260254,0.017899999395012856,0.003999999724328518,0.12799999117851257,-0.0030000000934877653,0.006000000186975531,-0.03400000133744912
0.11542925238609314,-0.04011724516749382,9.931991577148438,0.007999999448657036,0.0038999998942017555,0.12799999117851257,-0.0009999999964224499,0.031999999885518396,-0.14399999781730613
0.10820834338665009,-0.047692496329545975,9.929213523864746,0.008100000210106373,0.0038999998942017555,0.11819999665021896,-0.006000000186975531,-0.01700000066872456,0.021999999295971403
0.09707050770521164,-0.051887139678001404,9.933667182922363,-0.0016999999061226845,0.0037999998312443495,0.10839999467134476,0.019000000453128628,0.015999999942759198,-0.038000000906257256
0.12143390625715256,-0.049588706344366074,9.929923057556152,-0.011299999430775642,-0.006000000052154064,0.11819999665021896,-0.004999999877891834,-0.0030000000934877653,-0.05900000114378995
0.12031342089176178,-0.04277002066373825,9.946778297424316,0.008200000040233135,-0.006000000052154064,0.10839999467134476,0.0329999989439571,0.0009999999964224499,0.035000000395887826
0.11348515748977661,-0.05387911573052406,9.94389533996582,0.008100000210106373,0.003700000001117587,0.12799999117851257,0.017999999727163266,0.014999999216793838,-0.06700000028140622
0.11155064404010773,-0.04423527047038078,9.929923057556152,-0.0015999999595806003,-0.006000000052154064,0.12799999117851257,0.017999999727163266,0.014999999216793838,-0.06700000028140622
0.11513236910104752,-0.05382165685296059,9.940544128417969,-0.001500000013038516,0.003599999938160181,0.10839999467134476,0.02600000053230619,-0.01400000015835513,-0.03400000133744912
0.11338938772678375,-0.04297113046050072,9.937929153442383,0.008100000210106373,-0.006199999712407589,0.11819999665021896,0.05499999823992851,-0.0269999995907449,-0.06299999737754478
0.12003570050001144,-0.051408298313617706,9.936702728271484,-0.0015999999595806003,0.003599999938160181,0.11819999665021896,0.0030000000934877653,-0.008999999863581633,-0.05799999875029794
0.1098363921046257,-0.051245495676994324,9.9326810836792,0.007899999618530273,-0.006199999712407589,0.11819999665021896,-0.01400000015835513,0.02899999937514897,-0.06099999926066736
0.1190875917673111,-0.05637866258621216,9.944144248962402,-0.0017999999690800905,-0.006199999712407589,0.11819999665021896,0.0659999978879142,-0.0030000000934877653,0.019000000453128628
0.10640789568424225,-0.04734773188829422,9.947994232177734,0.007999999448657036,-0.006099999882280827,0.12799999117851257,0.006000000186975531,-0.007000000079177565,-0.06500000216452881
0.13524366915225983,-0.05422388017177582,9.942985534667969,-0.0016999999061226845,0.003399999812245369,0.12799999117851257,-0.013000000266153095,0.0030000000934877653,0.0039999999856897995
0.11893436312675476,-0.048573561012744904,9.948127746582031,0.027300000190734863,-0.006300000008195639,0.12799999117851257,0.01400000015835513,-0.02899999937514897,-0.023000000021936765
0.11701900511980057,-0.04630386084318161,9.941070556640625,0.007599999662488699,0.003399999812245369,0.12799999117851257,0.021000000237532696,0.021000000237532696,-0.057000003026912535
0.11880987137556076,-0.06467217206954956,9.94161605834961,0.007599999662488699,-0.01599999889731407,0.12799999117851257,-0.015999999942759198,0.012000000373951061,-0.06099999926066736
0.11439495533704758,-0.048142608255147934,9.948328971862793,0.007599999662488699,-0.01599999889731407,0.12799999117851257,-0.0039999999856897995,0.0269999995907449,-0.019000000453128628
0.11450030654668808,-0.04604528844356537,9.938206672668457,-0.001999999862164259,0.003599999938160181,0.11819999665021896,0.031999999885518396,0.013000000266153095,0.04500000098543482
0.11697111278772354,-0.06244077906012535,9.930171966552734,0.007699999958276749,-0.015799999237060547,0.10839999467134476,-0.04500000098543482,-0.01700000066872456,-0.10999999647985702
0.1214434877038002,-0.04841075837612152,9.944537162780762,0.007599999662488699,-0.0058999997563660145,0.12799999117851257,-0.013000000266153095,0,0.03100000082707969
0.11744038760662079,-0.04249228909611702,9.94477653503418,0.007499999832361937,0.0037999998312443495,0.12799999117851257,0,0,-0.017999999727163266
0.11201032996177673,-0.04910028725862503,9.922511100769043,-0.002099999925121665,-0.005799999926239252,0.10839999467134476,0,0.0429999995335041,-0.019000000453128628
0.11819694936275482,-0.04734773188829422,9.940735816955566,0.007599999662488699,0.0037999998312443495,0.12799999117851257,-0.02899999937514897,0.013000000266153095,-0.006000000186975531
0.12042834609746933,-0.053543925285339355,9.930420875549316,0.007599999662488699,-0.005699999630451202,0.10839999467134476,0.010999999647985701,0.04200000047506539,-0.017999999727163266
0.11817779392004013,-0.05241386592388153,9.92385196685791,0.007699999958276749,-0.005699999630451202,0.10839999467134476,-0.041000001416626686,0,-0.08200000283325337
0.11432792246341705,-0.04694550856947899,9.940381050109863,-0.001999999862164259,0.003999999724328518,0.11819999665021896,0.02800000031671026,-0.007999999971379599,-0.017999999727163266
0.11738292127847672,-0.036411017179489136,9.931522369384766,0.007599999662488699,0.013599999248981476,0.11819999665021896,-0.007999999971379599,0.0030000000934877653,-0.03999999902313467
0.10837114602327347,-0.04572925344109535,9.944028854370117,-0.002099999925121665,0.0037999998312443495,0.12799999117851257,0.08499999667351618,0.03899999996469596,-0.0039999999856897995
0.1236940398812294,-0.056579772382974625,9.934126853942871,0.007699999958276749,-0.015799999237060547,0.13779999315738678,-0.012000000373951061,0.0039999999856897995,-0.09899999683187131
0.11663593351840973,-0.051149725914001465,9.943655967712402,0.007599999662488699,-0.006099999882280827,0.12799999117851257,0.04600000004387353,0.008999999863581633,-0.08899999957737763
0.10689631849527359,-0.04948335886001587,9.939901351928711,-0.001999999862164259,-0.006099999882280827,0.11819999665021896,0.0019999999928448997,0.021000000237532696,-0.07699999753589991
0.12079226970672607,-0.048401180654764175,9.941731452941895,0.007699999958276749,-0.006099999882280827,0.12799999117851257,-0.01700000066872456,0.009999999755783667,-0.04200000047506539
0.11972924321889877,-0.05002924054861069,9.946097373962402,0.007699999958276749,-0.006000000052154064,0.12799999117851257,0.031999999885518396,-0.0030000000934877653,0.021000000237532696
0.11744996160268784,-0.04231990873813629,9.93953800201416,0.007599999662488699,0.003599999938160181,0.11819999665021896,-0.03699999851276524,0.0019999999928448997,0.024999999806340833
0.11955685168504715,-0.05755661055445671,9.935640335083008,0.007599999662488699,-0.015699999406933784,0.11819999665021896,-0.03400000133744912,0.023000000021936765,-0.04900000055424296
0.11970050632953644,-0.04822879657149315,9.935247421264648,0.007599999662488699,-0.005699999630451202,0.11819999665021896,-0.021999999295971403,-0.0019999999928448997,-0.043999998591942806
0.11216355860233307,-0.05263412743806839,9.936511993408203,-0.002099999925121665,-0.00559999980032444,0.11819999665021896,-0.038000000906257256,0.04900000055424296,0.0039999999856897995
0.10701123625040054,-0.05028781294822693,9.928141593933105,-0.0018999999156221747,-0.005499999970197678,0.10839999467134476,-0.03400000133744912,-0.006000000186975531,-0.10100000161885533
0.11737334728240967,-0.04530787095427513,9.947639465332031,0.007699999958276749,0.004299999680370092,0.12799999117851257,0.0009999999964224499,0.019999999511567335,0.006000000186975531
0.11111011356115341,-0.04842991381883621,9.936702728271484,-0.0018999999156221747,-0.005399999674409628,0.11819999665021896,-0.038000000906257256,0.008999999863581633,0.02800000031671026
0.11359050869941711,-0.04663905128836632,9.936464309692383,-0.0018999999156221747,0.004399999976158142,0.11819999665021896,0.038000000906257256,-0.007999999971379599,-0.007999999971379599
0.12355995923280716,-0.047970227897167206,9.949641227722168,0.007799999788403511,-0.005399999674409628,0.12799999117851257,0.0329999989439571,-0.02600000053230619,0.02800000031671026
0.12354081124067307,-0.0446758046746254,9.934893608093262,0.007599999662488699,0.00419999985024333,0.11819999665021896,0.05499999823992851,0.019999999511567335,0.08499999667351618
0.10833284258842468,-0.04081634804606438,9.941893577575684,-0.001999999862164259,0.003999999724328518,0.12799999117851257,0.0009999999964224499,0.03899999996469596,0.03400000133744912
0.11934617161750793,-0.04334462806582451,9.928524017333984,0.007799999788403511,0.003999999724328518,0.10839999467134476,0.023000000021936765,-0.02800000031671026,-0.03100000082707969
0.11514194309711456,-0.03967671096324921,9.936932563781738,0.007599999662488699,0.0038999998942017555,0.11819999665021896,0.021999999295971403,0.017999999727163266,0.04200000047506539
0.11328405141830444,-0.06251739710569382,9.932269096374512,-0.001999999862164259,-0.015599999576807022,0.11819999665021896,0.11299999699022645,0.031999999885518396,0.08799999718388561
0.11626243591308594,-0.05087199807167053,9.938780784606934,0.007699999958276749,-0.006000000052154064,0.11819999665021896,-0.007999999971379599,0.04600000004387353,0.01400000015835513
0.12868355214595795,-0.06266104429960251,9.930554389953613,0.017500000074505806,-0.015599999576807022,0.10839999467134476,-0.01400000015835513,0.05799999875029794,-0.10199999734224074
0.10546937584877014,-0.04635174572467804,9.949785232543945,-0.0017999999690800905,0.0038999998942017555,0.12799999117851257,0.019000000453128628,-0.009999999755783667,0.06299999737754478
0.13229399919509888,-0.049301404505968094,9.938436508178711,0.017500000074505806,-0.005799999926239252,0.11819999665021896,0.11099999887334903,0.019999999511567335,0.057000003026912535
0.10939586907625198,-0.04950251430273056,9.93930721282959,-0.0018999999156221747,-0.006099999882280827,0.11819999665021896,0.06299999737754478,-0.007000000079177565,0.0009999999964224499
0.12745772302150726,-0.059251703321933746,9.942028045654297,0.017400000244379044,-0.01589999906718731,0.12799999117851257,-0.01400000015835513,-0.007999999971379599,0.08400000095013078
0.110899418592453,-0.04739561676979065,9.941893577575684,-0.002099999925121665,0.003599999938160181,0.12799999117851257,0.0269999995907449,-0.0039999999856897995,0.05099999867112037
0.1115027591586113,-0.04477157071232796,9.944067001342773,-0.002099999925121665,0.003499999875202775,0.12799999117851257,-0.006000000186975531,0.021999999295971403,0.004999999877891834
0.11645397543907166,-0.04229117929935455,9.930602073669434,0.007599999662488699,0.003499999875202775,0.10839999467134476,-0.035000000395887826,-0.009999999755783667,0.012000000373951061
0.12299492955207825,-0.05067088454961777,9.9396333694458,0.007599999662488699,-0.006099999882280827,0.11819999665021896,-0.015999999942759198,0.0019999999928448997,0.013000000266153095
0.13179601728916168,-0.053208738565444946,9.922635078430176,0.01719999872148037,-0.006000000052154064,0.10839999467134476,0.0009999999964224499,0.006000000186975531,-0.03400000133744912
0.1126711368560791,-0.04191768169403076,9.927997589111328,-0.002300000051036477,0.003700000001117587,0.10839999467134476,0.007999999971379599,0.007000000079177565,0.0039999999856897995
0.11745953559875488,-0.0420709103345871,9.944297790527344,0.007400000002235174,0.003599999938160181,0.11819999665021896,0.024000000747902123,-0.0030000000934877653,0.023000000021936765
0.12074437737464905,-0.05327577516436577,9.933120727539062,0.007199999876320362,-0.006099999882280827,0.11819999665021896,-0.015999999942759198,0.019999999511567335,-0.023000000021936765
0.10827537626028061,-0.059280432760715485,9.934700965881348,-0.0023999998811632395,-0.015699999406933784,0.11819999665021896,-0.031999999885518396,-0.01700000066872456,-0.023000000021936765
0.11981543153524399,-0.0540323443710804,9.935352325439453,0.007199999876320362,-0.005799999926239252,0.11819999665021896,0.03100000082707969,-0.0030000000934877653,0.010999999647985701
0.11136868596076965,-0.047194503247737885,9.95605754852295,-0.0023999998811632395,0.0037999998312443495,0.13779999315738678,0.03699999851276524,-0.007000000079177565,0.0269999995907449
0.12092633545398712,-0.05892609432339668,9.942506790161133,0.007199999876320362,-0.015699999406933784,0.12799999117851257,-0.004999999877891834,-0.008999999863581633,-0.06200000165415938
0.12469002604484558,-0.04106534644961357,9.929903030395508,0.01679999940097332,0.0037999998312443495,0.10839999467134476,-0.010999999647985701,-0.009999999755783667,-0.0019999999928448997
0.11204864084720612,-0.04360320419073105,9.941701889038086,-0.002699999837204814,0.0037999998312443495,0.12799999117851257,0.017999999727163266,0.014999999216793838,0.0019999999928448997
0.12431652843952179,-0.046121902763843536,9.94748592376709,0.00699999975040555,0.003700000001117587,0.12799999117851257,0.035000000395887826,-0.021999999295971403,0
0.1189631000161171,-0.0348404236137867,9.938197135925293,0.006899999920278788,0.013199999928474426,0.11819999665021896,-0.008999999863581633,0.024000000747902123,0.07199999890865307
0.11797668784856796,-0.03995443880558014,9.932747840881348,0.006899999920278788,0.003399999812245369,0.11819999665021896,-0.017999999727163266,-0.007999999971379599,0.031999999885518396
0.11032481491565704,-0.05845683068037033,9.939757347106934,-0.00279999990016222,-0.01589999906718731,0.11819999665021896,-0.02800000031671026,0.008999999863581633,-0.05600000063342052
0.1231098473072052,-0.03583640977740288,9.940552711486816,0.006899999920278788,0.013399999588727951,0.11819999665021896,0.03699999851276524,0.031999999885518396,0.012000000373951061
0.12643299996852875,-0.05696284770965576,9.93043041229248,0.016699999570846558,-0.006199999712407589,0.10839999467134476,-0.01700000066872456,0.05600000063342052,-0.0009999999964224499
0.11969093233346939,-0.052691590040922165,9.941357612609863,0.00699999975040555,-0.006099999882280827,0.12799999117851257,0.009999999755783667,0.019000000453128628,0.007999999971379599
0.10738473385572433,-0.0401747040450573,9.945369720458984,-0.002699999837204814,0.003499999875202775,0.12799999117851257,-0.015999999942759198,-0.009999999755783667,-0.017999999727163266
0.12284170091152191,-0.047002967447042465,9.932815551757812,0.00699999975040555,0.003499999875202775,0.11819999665021896,-0.007999999971379599,-0.021000000237532696,0.05999999686717535
0.11627200990915298,-0.048755522817373276,9.93059253692627,0.006899999920278788,-0.006099999882280827,0.10839999467134476,0.007000000079177565,0.014999999216793838,-0.03699999851276524
0.11663593351840973,-0.05111141875386238,9.934893608093262,0.006899999920278788,-0.006099999882280827,0.11819999665021896,0.004999999877891834,0.0030000000934877653,0.01400000015835513
0.12304281443357468,-0.03983951732516289,9.946423530578613,0.006799999624490738,0.003599999938160181,0.12799999117851257,0.05099999867112037,-0.006000000186975531,0.06800000267489824
0.12115617841482162,-0.0423007532954216,9.936301231384277,0.0066999997943639755,0.003399999812245369,0.11819999665021896,0.0019999999928448997,0.007000000079177565,0.021999999295971403
0.11261367052793503,-0.04927267134189606,9.942325592041016,-0.002899999963119626,-0.006300000008195639,0.12799999117851257,0.007000000079177565,0.014999999216793838,-0.03599999945432653
0.12208513915538788,-0.053237468004226685,9.95654582977295,0.006799999624490738,-0.006199999712407589,0.13779999315738678,-0.035000000395887826,0,-0.0030000000934877653
0.10907982289791107,-0.047405194491147995,9.946499824523926,-0.002899999963119626,0.003499999875202775,0.12799999117851257,0.023000000021936765,-0.03999999902313467,0.041000001416626686
0.105689637362957,-0.061808712780475616,9.955042839050293,0.0066999997943639755,0.003399999812245369,0.12799999117851257,-0.041000001416626686,0.03699999851276524,-0.03599999945432653
0.1136288121342659,-0.06591715663671494,9.932441711425781,-0.002899999963119626,-0.015799999237060547,0.13779999315738678,-0.0030000000934877653,-0.0039999999856897995,0.019000000453128628
0.12138602137565613,-0.04154418781399727,9.945599555969238,-0.00279999990016222,-0.015699999406933784,0.11819999665021896,-0.024999999806340833,-0.023000000021936765,0.0019999999928448997
0.11239340156316757,-0.04765418916940689,9.938368797302246,0.006799999624490738,0.0037999998312443495,0.12799999117851257,-0.01700000066872456,-0.021999999295971403,0.07799999992939192
0.10371682047843933,-0.042616792023181915,9.939116477966309,-0.002899999963119626,0.0037999998312443495,0.11819999665021896,-0.0269999995907449,-0.05200000106461238,-0.06399999977103679
0.12028469145298004,-0.04817133769392967,9.931072235107422,0.0066999997943639755,-0.005699999630451202,0.10839999467134476,0.006000000186975531,-0.009999999755783667,0.04600000004387353
0.1221521645784378,-0.052385132759809494,9.941108703613281,0.006599999964237213,-0.005699999630451202,0.12799999117851257,-0.007000000079177565,-0.0030000000934877653,-0.07300000130214508
0.12872186303138733,-0.05283524468541145,9.929452896118164,0.016200000420212746,-0.00559999980032444,0.10839999467134476,0.019999999511567335,-0.009999999755783667,0.010999999647985701
0.12406753748655319,-0.04952166602015495,9.945647239685059,0.006399999838322401,-0.005699999630451202,0.12799999117851257,0.010999999647985701,-0.009999999755783667,0.06399999977103679
0.11397358030080795,-0.05184883251786232,9.948760986328125,-0.0032999999821186066,-0.00559999980032444,0.12799999117851257,0.07000000079177565,0.007000000079177565,0.023000000021936765
0.11049719899892807,-0.04458961263298988,9.939596176147461,-0.0032999999821186066,0.0037999998312443495,0.11819999665021896,0,0.007000000079177565,0.017999999727163266
0.12597331404685974,-0.03597048670053482,9.940753936767578,0.016099998727440834,0.013499999418854713,0.12799999117851257,0.0039999999856897995,0.0030000000934877653,0.008999999863581633
0.12397176027297974,-0.0476350374519825,9.941988945007324,0.006300000008195639,0.003599999938160181,0.12799999117851257,0.0019999999928448997,-0.0009999999964224499,0.06899999839828364
0.11709561944007874,-0.049895163625478745,9.934232711791992,0.006300000008195639,-0.006000000052154064,0.11819999665021896,-0.031999999885518396,-0.009999999755783667,0.038000000906257256
0.12409625947475433,-0.043469127267599106,9.940313339233398,0.006199999712407589,0.003700000001117587,0.11819999665021896,0.010999999647985701,-0.0269999995907449,-0.017999999727163266
0.11445241421461105,-0.047568000853061676,9.92868709564209,-0.003599999938160181,0.003700000001117587,0.10839999467134476,0.017999999727163266,0.0030000000934877653,0
0.11140698939561844,-0.052614975720644,9.940007209777832,-0.003499999875202775,-0.006000000052154064,0.11819999665021896,0.0030000000934877653,0.006000000186975531,-0.0009999999964224499
0.11824483424425125,-0.05402276664972305,9.940658569335938,0.006199999712407589,-0.006000000052154064,0.11819999665021896,0.004999999877891834,0.01400000015835513,0
0.11059296131134033,-0.04971320182085037,9.935611724853516,-0.003499999875202775,-0.006000000052154064,0.11819999665021896,0.008999999863581633,0.017999999727163266,0.09399999820462447
0.11894393712282181,-0.05083369091153145,9.933762550354004,0.006300000008195639,-0.0058999997563660145,0.11819999665021896,-0.031999999885518396,0.019999999511567335,0.024999999806340833
0.11523772031068802,-0.03689943626523018,9.934194564819336,0.006300000008195639,0.013499999418854713,0.11819999665021896,0.021000000237532696,0.01400000015835513,0.041000001416626686
0.11749783903360367,-0.05916551128029823,9.92890739440918,-0.0032999999821186066,-0.015699999406933784,0.11819999665021896,0.004999999877891834,0.008999999863581633,-0.012000000373951061
0.11749783903360367,-0.05916551128029823,9.92890739440918,0.006300000008195639,-0.015599999576807022,0.10839999467134476,0.004999999877891834,0.008999999863581633,-0.012000000373951061
0.1252167522907257,-0.06289089471101761,9.937402725219727,0.01599999889731407,-0.01549999974668026,0.11819999665021896,0.02600000053230619,-0.009999999755783667,0.021999999295971403
0.10931925475597382,-0.037454891949892044,9.925066947937012,0.01589999906718731,-0.005699999630451202,0.10839999467134476,0.015999999942759198,-0.008999999863581633,0.043999998591942806
0.12339715659618378,-0.054539911448955536,9.936856269836426,-0.003599999938160181,0.013700000010430813,0.10839999467134476,-0.009999999755783667,0.0030000000934877653,-0.029999998433587676
0.11559205502271652,-0.05382165685296059,9.938791275024414,0.006099999882280827,-0.005799999926239252,0.11819999665021896,0.043999998591942806,-0.024999999806340833,-0.11400000605382507
0.12364615499973297,-0.05594770610332489,9.940668106079102,0.006099999882280827,-0.005799999926239252,0.11819999665021896,-0.049999999612681666,0.004999999877891834,0.0030000000934877653
0.11695196479558945,-0.05424303561449051,9.937201499938965,0.0058999997563660145,-0.005699999630451202,0.11819999665021896,-0.008999999863581633,-0.007000000079177565,0.06399999977103679
0.12410584092140198,-0.04405330866575241,9.942363739013672,0.0058999997563660145,-0.005699999630451202,0.11819999665021896,-0.015999999942759198,0.0039999999856897995,-0.0329999989439571
0.12641385197639465,-0.04791276529431343,9.926820755004883,0.01549999974668026,-0.00559999980032444,0.10839999467134476,0.014999999216793838,0.06099999926066736,0.04900000055424296
0.1250060647726059,-0.04842991381883621,9.94847297668457,0.015599999576807022,-0.00559999980032444,0.12799999117851257,-0.01400000015835513,-0.0019999999928448997,-0.008999999863581633
0.13038823008537292,-0.04931097850203514,9.947649002075195,0.01549999974668026,-0.005499999970197678,0.12799999117851257,-0.02800000031671026,-0.02600000053230619,0.0269999995907449
0.11971966922283173,-0.050364427268505096,9.951116561889648,0.00559999980032444,-0.005399999674409628,0.13779999315738678,0.008999999863581633,0.004999999877891834,-0.02600000053230619
0.11654973775148392,-0.04822879657149315,9.94762134552002,0.005499999970197678,-0.005399999674409628,0.12799999117851257,-0.0329999989439571,-0.01700000066872456,0.019999999511567335
0.11518983542919159,-0.043287165462970734,9.955713272094727,0.005499999970197678,0.004399999976158142,0.13779999315738678,-0.012000000373951061,-0.0030000000934877653,-0.010999999647985701
0.11216355860233307,-0.05069003626704216,9.954985618591309,-0.00419999985024333,-0.0052999998442828655,0.13779999315738678,0.015999999942759198,-0.009999999755783667,-0.0019999999928448997
0.12041877210140228,-0.04902367293834686,9.946730613708496,0.005399999674409628,-0.0052999998442828655,0.12799999117851257,-0.0269999995907449,0.046999999102312236,0.029999998433587676
0.12247778475284576,-0.049588706344366074,9.950963020324707,0.005499999970197678,-0.005200000014156103,0.13779999315738678,0.05900000114378995,-0.006000000186975531,0.05499999823992851
0.11735418438911438,-0.05220317468047142,9.928668022155762,0.005499999970197678,-0.0052999998442828655,0.10839999467134476,-0.01400000015835513,-0.023000000021936765,-0.07699999753589991
0.11735418438911438,-0.05220317468047142,9.928668022155762,0.005399999674409628,-0.005200000014156103,0.10839999467134476,-0.004999999877891834,-0.02600000053230619,0.019000000453128628
0.12044750154018402,-0.034821268171072006,9.928179740905762,0.0052999998442828655,0.0142000000923872,0.10839999467134476,0.008999999863581633,-0.009999999755783667,-0.03999999902313467
0.1289421170949936,-0.044685378670692444,9.934232711791992,-0.004399999976158142,-0.0052999998442828655,0.11819999665021896,0.012000000373951061,-0.007999999971379599,0.08299999855663877
0.1289421170949936,-0.044685378670692444,9.934232711791992,0.014999999664723873,0.004299999680370092,0.11819999665021896,0.021000000237532696,-0.0329999989439571,0.009999999755783667
0.12687353789806366,-0.04317224398255348,9.92753791809082,0.004999999888241291,0.00419999985024333,0.11819999665021896,-0.038000000906257256,-0.03599999945432653,0.0019999999928448997
0.12084972113370895,-0.03517561033368111,9.92090129852295,0.014599999412894249,0.00419999985024333,0.10839999467134476,0.004999999877891834,-0.015999999942759198,0.021000000237532696
0.11336066573858261,-0.0548655241727829,9.935553550720215,0.004799999762326479,0.013899999670684338,0.09860000014305115,-0.017999999727163266,-0.009999999755783667,-0.035000000395887826
0.11320743709802628,-0.0370909720659256,9.940284729003906,-0.004900000058114529,-0.00559999980032444,0.11819999665021896,0.014999999216793838,-0.007999999971379599,-0.02899999937514897
0.11320743709802628,-0.0370909720659256,9.940284729003906,-0.004900000058114529,0.013799999840557575,0.11819999665021896,0.014999999216793838,-0.007999999971379599,-0.02899999937514897
0.11897267401218414,-0.0536780022084713,9.94144344329834,0.004799999762326479,-0.015399999916553497,0.12799999117851257,-0.006000000186975531,0.008999999863581633,-0.02899999937514897
0.12397176027297974,-0.043804313987493515,9.938167572021484,0.004699999932199717,-0.005499999970197678,0.12799999117851257,-0.0039999999856897995,-0.023000000021936765,0
0.11767980456352234,-0.04752011597156525,9.927480697631836,0.004699999932199717,0.00419999985024333,0.11819999665021896,-0.0329999989439571,-0.008999999863581633,-0.05300000012305109
0.12562856078147888,-0.053831230849027634,9.946605682373047,0.014299999922513962,-0.005399999674409628,0.12799999117851257,0.0019999999928448997,-0.03400000133744912,-0.029999998433587676
0.11533348262310028,-0.05456864461302757,9.946434020996094,0.014299999922513962,-0.005399999674409628,0.12799999117851257,-0.009999999755783667,0.02800000031671026,0.11299999699022645
0.12326307594776154,-0.04003105312585831,9.942066192626953,0.004399999976158142,0.004299999680370092,0.12799999117851257,-0.007999999971379599,-0.007999999971379599,-0.004999999877891834
0.11074618995189667,-0.04942589998245239,9.951729774475098,-0.0052999998442828655,-0.005399999674409628,0.13779999315738678,-0.03699999851276524,0.04600000004387353,0.049999999612681666
0.12059114873409271,-0.04243483021855354,9.944930076599121,0.004600000102072954,0.004399999976158142,0.12799999117851257,-0.0030000000934877653,0.007000000079177565,-0.03699999851276524
0.1253412514925003,-0.05175306275486946,9.939404487609863,0.014299999922513962,-0.005200000014156103,0.11819999665021896,0.014999999216793838,-0.006000000186975531,0.048000001495804245
0.11549629271030426,-0.040251318365335464,9.94046688079834,0.004399999976158142,0.004399999976158142,0.11819999665021896,0.024000000747902123,0.0030000000934877653,-0.04500000098543482
0.12205640226602554,-0.05819825455546379,9.931580543518066,0.004399999976158142,-0.015099999494850636,0.11819999665021896,0.0009999999964224499,-0.021999999295971403,0.01400000015835513
0.12106999009847641,-0.04732858017086983,9.937440872192383,0.004299999680370092,0.004399999976158142,0.11819999665021896,0.0329999989439571,0.014999999216793838,0.09300000248123906
0.12446018308401108,-0.035434186458587646,9.932863235473633,0.004299999680370092,0.0139999995008111,0.11819999665021896,0.0019999999928448997,0.04900000055424296,-0.024000000747902123
0.11371500045061111,-0.046102747321128845,9.939547538757324,-0.005200000014156103,0.004100000020116568,0.11819999665021896,0.05099999867112037,-0.008999999863581633,0.03999999902313467
0.10603440552949905,-0.05417599529027939,9.935870170593262,-0.0050999997183680534,-0.00559999980032444,0.11819999665021896,0.038000000906257256,0.015999999942759198,0.046999999102312236
0.11483548581600189,-0.03971501812338829,9.93674087524414,-0.0050999997183680534,-0.00559999980032444,0.11819999665021896,-0.041000001416626686,-0.03899999996469596,-0.029999998433587676
0.11631032079458237,-0.04479072615504265,9.958069801330566,0.004600000102072954,0.004100000020116568,0.13779999315738678,0.004999999877891834,-0.014999999216793838,0.004999999877891834
0.11226890236139297,-0.05106353387236595,9.943703651428223,-0.0050999997183680534,-0.00559999980032444,0.12799999117851257,-0.008999999863581633,0.014999999216793838,0.024999999806340833
0.1219223216176033,-0.04955997318029404,9.938617706298828,-0.0050999997183680534,-0.00559999980032444,0.12799999117851257,-0.009999999755783667,0.014999999216793838,0.0429999995335041
0.11685619503259659,-0.050986919552087784,9.946126937866211,0.004600000102072954,-0.005499999970197678,0.12799999117851257,0.043999998591942806,-0.007000000079177565,0.031999999885518396
0.12187444418668747,-0.051006071269512177,9.948702812194824,0.004600000102072954,-0.005499999970197678,0.12799999117851257,0.0539999991814898,-0.021999999295971403,0.02899999937514897
0.11971008032560349,-0.04962701350450516,9.951384544372559,0.0044999998062849045,-0.005699999630451202,0.13779999315738678,-0.012000000373951061,0,0.0659999978879142
0.11644439399242401,-0.04083550348877907,9.93790054321289,0.0044999998062849045,0.003999999724328518,0.11819999665021896,-0.008999999863581633,-0.008999999863581633,0.0030000000934877653
0.12682566046714783,-0.04677312448620796,9.944250106811523,0.0044999998062849045,0.003999999724328518,0.11819999665021896,0.019999999511567335,-0.0009999999964224499,0.05099999867112037
0.12312900274991989,-0.04528871923685074,9.951910972595215,0.004299999680370092,0.0038999998942017555,0.13779999315738678,0.041000001416626686,-0.021000000237532696,-0.03699999851276524
0.11570698022842407,-0.054731450974941254,9.931580543518066,0.00419999985024333,-0.005799999926239252,0.11819999665021896,-0.007000000079177565,-0.0039999999856897995,-0.07900000232288394
0.11697111278772354,-0.052672434598207474,9.93197250366211,0.00419999985024333,-0.005799999926239252,0.11819999665021896,0.0009999999964224499,0.01400000015835513,-0.024999999806340833
0.10846690833568573,-0.04691677540540695,9.951451301574707,-0.005399999674409628,0.0038999998942017555,0.13779999315738678,0.04900000055424296,0,0.08799999718388561
0.13238976895809174,-0.038517918437719345,9.94019889831543,0.0139999995008111,0.003700000001117587,0.11819999665021896,-0.024000000747902123,-0.009999999755783667,-0.007999999971379599
0.1161283552646637,-0.050747498869895935,9.935304641723633,0.004100000020116568,-0.0058999997563660145,0.11819999665021896,0.02600000053230619,0.006000000186975531,-0.024999999806340833
0.12299492955207825,-0.05163814127445221,9.93272876739502,0.004100000020116568,-0.0058999997563660145,0.11819999665021896,0.019000000453128628,0.007000000079177565,-0.03899999996469596
0.1274673044681549,-0.04935886338353157,9.951700210571289,0.013799999840557575,-0.0058999997563660145,0.13779999315738678,-0.0329999989439571,-0.023000000021936765,-0.0969999987149939
0.10775823146104813,-0.04852567985653877,9.937948226928711,-0.005699999630451202,-0.005799999926239252,0.11819999665021896,0.012000000373951061,-0.014999999216793838,-0.05600000063342052
0.11116757243871689,-0.05274904891848564,9.94312858581543,-0.005699999630451202,-0.005799999926239252,0.12799999117851257,-0.03100000082707969,0.029999998433587676,-0.013000000266153095
0.12182655930519104,-0.04594951868057251,9.948482513427734,0.004100000020116568,0.003999999724328518,0.12799999117851257,-0.008999999863581633,0.0019999999928448997,0.03999999902313467
0.11477802693843842,-0.050038814544677734,9.949420928955078,-0.005499999970197678,-0.005699999630451202,0.12799999117851257,-0.017999999727163266,-0.006000000186975531,-0.0019999999928448997
0.11655931919813156,-0.044963106513023376,9.9443359375,0.004100000020116568,0.003999999724328518,0.12799999117851257,-0.019999999511567335,0.009999999755783667,0.0030000000934877653
0.11807245016098022,-0.05611051246523857,9.94699764251709,0.004100000020116568,-0.00559999980032444,0.12799999117851257,-0.010999999647985701,0.02600000053230619,-0.043999998591942806
0.11920251697301865,-0.04793192073702812,9.947284698486328,0.00419999985024333,-0.005499999970197678,0.12799999117851257,-0.012000000373951061,-0.0269999995907449,-0.046999999102312236
0.12232455611228943,-0.050297390669584274,9.938063621520996,0.004100000020116568,-0.005399999674409628,0.11819999665021896,-0.023000000021936765,0.014999999216793838,0.009999999755783667
0.1081700399518013,-0.049655742943286896,9.943666458129883,-0.005499999970197678,-0.0052999998442828655,0.12799999117851257,-0.012000000373951061,0.035000000395887826,0.05200000106461238
0.11505575478076935,-0.04397669434547424,9.939384460449219,0.004299999680370092,0.004399999976158142,0.11819999665021896,0.009999999755783667,0.010999999647985701,-0.02800000031671026
0.09915825724601746,-0.043210551142692566,9.957513809204102,-0.015099999494850636,0.004299999680370092,0.13779999315738678,0.0269999995907449,-0.035000000395887826,0.019999999511567335
0.11839806288480759,-0.05668511986732483,9.943120002746582,0.004299999680370092,-0.005499999970197678,0.12799999117851257,-0.006000000186975531,-0.05999999686717535,-0.05300000012305109
0.11856086552143097,-0.050364427268505096,9.94379997253418,0.004100000020116568,-0.005399999674409628,0.12799999117851257,-0.010999999647985701,0.01400000015835513,0.06099999926066736
0.11487379670143127,-0.04237736761569977,9.96390151977539,-0.005499999970197678,0.004399999976158142,0.1476999968290329,-0.010999999647985701,0.01700000066872456,-0.04900000055424296
0.12114660441875458,-0.04569094628095627,9.940964698791504,0.004299999680370092,0.004399999976158142,0.12799999117851257,0.0019999999928448997,-0.008999999863581633,-0.024000000747902123
0.11841721087694168,-0.0395713672041893,9.939643859863281,0.00419999985024333,0.004299999680370092,0.11819999665021896,0.013000000266153095,-0.006000000186975531,0.015999999942759198
0.12220963090658188,-0.05352477356791496,9.950465202331543,0.00419999985024333,-0.005399999674409628,0.13779999315738678,-0.05099999867112037,0,-0.03699999851276524
0.11203905940055847,-0.0381539985537529,9.926542282104492,-0.005499999970197678,0.014099999330937862,0.10839999467134476,-0.008999999863581633,0,0.035000000395887826
0.11993992328643799,-0.04729985073208809,9.948214530944824,0.00419999985024333,0.004299999680370092,0.12799999117851257,0.04200000047506539,0.006000000186975531,-0.03699999851276524
0.11993992328643799,-0.04729985073208809,9.948214530944824,0.00419999985024333,0.004299999680370092,0.12799999117851257,0.04200000047506539,0.006000000186975531,-0.03699999851276524
0.11130165308713913,-0.05499960482120514,9.94416332244873,-0.005499999970197678,-0.00559999980032444,0.12799999117851257,0.012000000373951061,-0.017999999727163266,0.0269999995907449
0.11677958071231842,-0.054137688130140305,9.935524940490723,0.00419999985024333,-0.00559999980032444,0.11819999665021896,0,-0.023000000021936765,-0.021999999295971403
0.1174020767211914,-0.05622543394565582,9.943291664123535,0.004100000020116568,-0.005499999970197678,0.12799999117851257,-0.007000000079177565,0.01700000066872456,-0.012000000373951061
0.11521855741739273,-0.04492479935288429,9.929740905761719,0.004100000020116568,0.004100000020116568,0.10839999467134476,-0.01400000015835513,0.02600000053230619,-0.0039999999856897995
0.12301408499479294,-0.04571967571973801,9.932106018066406,0.00419999985024333,0.004100000020116568,0.11819999665021896,0.02800000031671026,0.012000000373951061,0.04900000055424296
0.12283211946487427,-0.04847779497504234,9.937105178833008,0.00419999985024333,-0.00559999980032444,0.11819999665021896,0.0030000000934877653,-0.006000000186975531,-0.012000000373951061
0.12141475826501846,-0.05251920595765114,9.937756538391113,0.004100000020116568,-0.00559999980032444,0.11819999665021896,-0.009999999755783667,0.0030000000934877653,0.021999999295971403
0.11317870020866394,-0.05092945694923401,9.925296783447266,-0.005499999970197678,-0.005499999970197678,0.10839999467134476,-0.029999998433587676,0.015999999942759198,-0.007999999971379599
0.11899182200431824,-0.04694550856947899,9.946596145629883,0.00419999985024333,0.00419999985024333,0.12799999117851257,-0.03999999902313467,-0.0030000000934877653,-0.05900000114378995
0.1161283552646637,-0.05274904891848564,9.951690673828125,0.00419999985024333,-0.0052999998442828655,0.13779999315738678,-0.01400000015835513,0.0329999989439571,0.021000000237532696
0.1149216815829277,-0.05258624628186226,9.93326473236084,0.004299999680370092,-0.005200000014156103,0.11819999665021896,0.008999999863581633,-0.008999999863581633,-0.041000001416626686
0.11920251697301865,-0.06264188885688782,9.939863204956055,0.00419999985024333,-0.01489999983459711,0.11819999665021896,0.0009999999964224499,0.010999999647985701,-0.05300000012305109
0.11947066336870193,-0.04603571072220802,9.947908401489258,0.00419999985024333,0.0044999998062849045,0.12799999117851257,-0.010999999647985701,-0.009999999755783667,-0.019999999511567335
0.12409625947475433,-0.04358404874801636,9.951690673828125,0.00419999985024333,0.0044999998062849045,0.1378999948501587,0.0269999995907449,0.021999999295971403,-0.029999998433587676
0.12008357793092728,-0.04225287213921547,9.941568374633789,0.00419999985024333,0.004399999976158142,0.12799999117851257,-0.010999999647985701,-0.0030000000934877653,0.038000000906257256
0.11845552176237106,-0.0527203232049942,9.944661140441895,0.00419999985024333,-0.005200000014156103,0.12799999117851257,0.0269999995907449,-0.0030000000934877653,-0.09099999769425504
0.12783122062683105,-0.05767153203487396,9.938158988952637,0.013899999670684338,-0.014999999664723873,0.11819999665021896,-0.013000000266153095,0.021000000237532696,0.031999999885518396
0.11291055381298065,-0.05172433331608772,9.931779861450195,-0.005499999970197678,-0.0050999997183680534,0.11819999665021896,0.023000000021936765,-0.006000000186975531,0.019000000453128628
0.11828314512968063,-0.04099830985069275,9.935074806213379,0.00419999985024333,0.0044999998062849045,0.11819999665021896,0.007000000079177565,0.0009999999964224499,-0.02600000053230619
0.12259270250797272,-0.06239289417862892,9.939969062805176,-0.005499999970197678,-0.005200000014156103,0.12799999117851257,-0.008999999863581633,-0.007000000079177565,0.023000000021936765
0.1224011704325676,-0.03895844891667366,9.94100284576416,0.003999999724328518,0.004600000102072954,0.12799999117851257,-0.007999999971379599,-0.007000000079177565,-0.01400000015835513
0.1150653287768364,-0.039398983120918274,9.935745239257812,0.003999999724328518,0.004600000102072954,0.11819999665021896,0.007999999971379599,-0.009999999755783667,-0.06399999977103679
0.11718180775642395,-0.048832137137651443,9.94308090209961,0.0038999998942017555,-0.0050999997183680534,0.12799999117851257,0.03999999902313467,0.019000000453128628,-0.07399999702553048
0.09535626322031021,-0.04433104023337364,9.954803466796875,-0.025100000202655792,0.0044999998062849045,0.13779999315738678,-0.012000000373951061,-0.03699999851276524,-0.09899999683187131
0.12297577410936356,-0.041457995772361755,9.938694953918457,0.004100000020116568,0.0044999998062849045,0.11819999665021896,0.03100000082707969,-0.0030000000934877653,0.029999998433587676
0.10939586907625198,-0.053352389484643936,9.94007396697998,-0.00559999980032444,-0.0052999998442828655,0.11819999665021896,0.019999999511567335,0.0030000000934877653,0.03100000082707969
0.11746910959482193,-0.04723281040787697,9.944891929626465,0.004100000020116568,0.004299999680370092,0.12799999117851257,0.04900000055424296,-0.008999999863581633,0.03100000082707969
0.12578178942203522,-0.041266459971666336,9.94722843170166,0.013799999840557575,0.00419999985024333,0.12799999117851257,0.0009999999964224499,0.029999998433587676,-0.024000000747902123
0.12237243354320526,-0.052787356078624725,9.934289932250977,0.003999999724328518,-0.005499999970197678,0.11819999665021896,0.012000000373951061,0.004999999877891834,0.01700000066872456
0.11047804355621338,-0.0541568398475647,9.945551872253418,-0.00559999980032444,-0.005499999970197678,0.12799999117851257,-0.0269999995907449,-0.04900000055424296,0.01700000066872456
0.12566685676574707,-0.056455276906490326,9.9304780960083,0.013700000010430813,-0.005399999674409628,0.10839999467134476,0.012000000373951061,-0.013000000266153095,-0.023000000021936765
0.12556152045726776,-0.034466926008462906,9.944489479064941,0.013499999418854713,0.0139999995008111,0.12799999117851257,-0.01400000015835513,-0.010999999647985701,-0.07199999890865307
0.10634086281061172,-0.043162669986486435,9.954937934875488,-0.0058999997563660145,0.00419999985024333,0.1378999948501587,-0.019999999511567335,-0.03599999945432653,0.021999999295971403
0.12300451099872589,-0.05777687579393387,9.924952507019043,0.003599999938160181,-0.015199999324977398,0.10839999467134476,-0.01400000015835513,-0.008999999863581633,0.0329999989439571
0.12246821075677872,-0.053237468004226685,9.928553581237793,0.003599999938160181,-0.0052999998442828655,0.10839999467134476,0.04900000055424296,0.006000000186975531,0.048000001495804245
0.114442840218544,-0.04919605702161789,9.958499908447266,-0.006000000052154064,-0.0052999998442828655,0.1378999948501587,-0.006000000186975531,-0.009999999755783667,-0.05499999823992851
0.11390653997659683,-0.03936067596077919,9.954190254211426,-0.006000000052154064,0.004299999680370092,0.1378999948501587,0.06399999977103679,0,0.012000000373951061
0.11502702534198761,-0.04908113554120064,9.932709693908691,0.003700000001117587,-0.005499999970197678,0.11819999665021896,-0.007000000079177565,0.006000000186975531,0.021999999295971403
0.12152967602014542,-0.03520434349775314,9.946423530578613,0.003700000001117587,0.013899999670684338,0.12799999117851257,0.01700000066872456,0.008999999863581633,-0.08499999667351618
0.11169429868459702,-0.05250963196158409,9.943953514099121,-0.0058999997563660145,-0.00559999980032444,0.12799999117851257,-0.035000000395887826,-0.010999999647985701,-0.11699999322398127
0.11948023736476898,-0.04416823014616966,9.937469482421875,0.013499999418854713,-0.005499999970197678,0.12799999117851257,-0.0030000000934877653,0.0030000000934877653,-0.010999999647985701
0.11948023736476898,-0.04416823014616966,9.937469482421875,0.003599999938160181,0.00419999985024333,0.11819999665021896,0.03999999902313467,-0.0039999999856897995,-0.046999999102312236
0.11960473656654358,-0.044110771268606186,9.949018478393555,0.003599999938160181,-0.00559999980032444,0.11819999665021896,-0.01400000015835513,-0.03599999945432653,-0.031999999885518396
0.125944584608078,-0.047663770616054535,9.928333282470703,0.003499999875202775,0.004100000020116568,0.12799999117851257,0.004999999877891834,-0.012000000373951061,-0.023000000021936765
0.11156979948282242,-0.04810430109500885,9.940849304199219,0.013199999928474426,0.003999999724328518,0.10839999467134476,0,0.031999999885518396,-0.024000000747902123
0.11720095574855804,-0.04755842313170433,9.94776439666748,-0.006300000008195639,-0.00559999980032444,0.12799999117851257,-0.021000000237532696,0.008999999863581633,0.004999999877891834
0.1238185316324234,-0.043402086943387985,9.940524101257324,0.003499999875202775,0.003999999724328518,0.12799999117851257,-0.02600000053230619,-0.009999999755783667,-0.1199999937343507
0.11901097744703293,-0.03855622559785843,9.95197868347168,0.003399999812245369,0.004100000020116568,0.1378999948501587,-0.03699999851276524,0.013000000266153095,0.041000001416626686
0.1166933923959732,-0.04826710373163223,9.938962936401367,0.003399999812245369,0.004100000020116568,0.1378999948501587,-0.012000000373951061,-0.015999999942759198,0.0039999999856897995
0.10881167650222778,-0.046409204602241516,9.937727928161621,-0.006199999712407589,0.00419999985024333,0.11819999665021896,0.01400000015835513,0.012000000373951061,-0.0030000000934877653
0.11651142686605453,-0.043900080025196075,9.939825057983398,0.003499999875202775,0.004100000020116568,0.11819999665021896,-0.02800000031671026,-0.008999999863581633,-0.0429999995335041
0.11419384926557541,-0.03765600547194481,9.934557914733887,-0.006199999712407589,0.013899999670684338,0.11819999665021896,-0.06500000216452881,-0.009999999755783667,-0.029999998433587676
0.11404062062501907,-0.044350191950798035,9.926206588745117,-0.006099999882280827,0.00419999985024333,0.10839999467134476,0.0039999999856897995,-0.009999999755783667,-0.03999999902313467
0.11712434142827988,-0.05127422511577606,9.937565803527832,0.003499999875202775,-0.005499999970197678,0.11819999665021896,-0.007999999971379599,0.024000000747902123,0
0.11132080107927322,-0.04900452122092247,9.937948226928711,-0.006000000052154064,-0.005399999674409628,0.11819999665021896,0.006000000186975531,-0.035000000395887826,-0.01700000066872456
0.10819876194000244,-0.05102522671222687,9.925651550292969,-0.006099999882280827,-0.005399999674409628,0.10839999467134476,-0.013000000266153095,-0.0009999999964224499,-0.024999999806340833
0.10666647553443909,-0.05348646640777588,9.928888320922852,-0.006000000052154064,-0.0052999998442828655,0.10839999467134476,-0.038000000906257256,-0.0039999999856897995,-0.03999999902313467
0.10868717730045319,-0.04773080348968506,9.929108619689941,-0.0058999997563660145,0.004399999976158142,0.10839999467134476,-0.03899999996469596,-0.012000000373951061,-0.049999999612681666
0.10657070577144623,-0.050201620906591415,9.944977760314941,-0.0058999997563660145,-0.0050999997183680534,0.12799999117851257,0.010999999647985701,-0.012000000373951061,0.004999999877891834
0.13031160831451416,-0.04955997318029404,9.941941261291504,0.013499999418854713,-0.0050999997183680534,0.12799999117851257,-0.013000000266153095,0.010999999647985701,0.057000003026912535
0.11637736111879349,-0.05069003626704216,9.948607444763184,0.003700000001117587,-0.004999999888241291,0.12799999117851257,0.01700000066872456,0.01400000015835513,-0.03100000082707969
0.11318828165531158,-0.05702031031250954,9.93985366821289,-0.0058999997563660145,-0.004999999888241291,0.11819999665021896,0.021999999295971403,0.006000000186975531,0.0030000000934877653
0.11884817481040955,-0.05295974388718605,9.938407897949219,0.0037999998312443495,-0.0050999997183680534,0.11819999665021896,-0.01400000015835513,-0.05900000114378995,-0.07900000232288394
0.10911813378334045,-0.05824613943696022,9.951528549194336,-0.006000000052154064,-0.014699999243021011,0.1378999948501587,-0.04200000047506539,-0.007000000079177565,0
0.11667423695325851,-0.042051758617162704,9.941080093383789,0.013399999588727951,0.004900000058114529,0.12809999287128448,-0.021000000237532696,0.012000000373951061,-0.043999998591942806
0.12898044288158417,-0.05950070172548294,9.936884880065918,0.003399999812245369,0.004799999762326479,0.12809999287128448,-0.024000000747902123,0.013000000266153095,-0.05600000063342052
0.12898044288158417,-0.05950070172548294,9.936884880065918,0.013100000098347664,-0.014599999412894249,0.11819999665021896,-0.024000000747902123,0.013000000266153095,-0.05600000063342052
0.12114660441875458,-0.04903325065970421,9.925785064697266,0.0032999999821186066,-0.004600000102072954,0.10839999467134476,0,-0.01400000015835513,0.01700000066872456
0.11542925238609314,-0.049109868705272675,9.943865776062012,0.012999999336898327,-0.004600000102072954,0.11819999665021896,0.008999999863581633,0.006000000186975531,0.012000000373951061
0.10444465279579163,-0.04929182305932045,9.936539649963379,0.0031999999191612005,-0.0044999998062849045,0.12809999287128448,-0.010999999647985701,-0.010999999647985701,-0.0019999999928448997
0.11161768436431885,-0.045623909682035446,9.934337615966797,-0.016200000420212746,-0.0044999998062849045,0.11819999665021896,0.01400000015835513,0.02800000031671026,-0.057000003026912535
0.10658028721809387,-0.0495312474668026,9.945714950561523,-0.006199999712407589,-0.0044999998062849045,0.12809999287128448,0.021000000237532696,-0.0039999999856897995,-0.004999999877891834
0.12355038523674011,-0.03405512496829033,9.946547508239746,-0.006199999712407589,-0.0044999998062849045,0.12809999287128448,0.031999999885518396,-0.024000000747902123,-0.0019999999928448997
0.12706507742404938,-0.05099649727344513,9.9401216506958,0.013100000098347664,-0.004799999762326479,0.11819999665021896,0.01400000015835513,-0.013000000266153095,0.014999999216793838
0.10955867171287537,-0.055459290742874146,9.942947387695312,-0.006399999838322401,-0.004799999762326479,0.12809999287128448,-0.0030000000934877653,0.0019999999928448997,-0.04600000004387353
0.11415553838014603,-0.05343858152627945,9.94095516204834,-0.006300000008195639,-0.004699999932199717,0.12809999287128448,-0.009999999755783667,-0.01400000015835513,0.013000000266153095
0.12040919810533524,-0.060630764812231064,9.947103500366211,0.003399999812245369,-0.014399999752640724,0.12809999287128448,-0.007000000079177565,-0.01400000015835513,-0.10400000212922476
0.12231498211622238,-0.048209644854068756,9.941482543945312,0.0032999999821186066,-0.004600000102072954,0.12809999287128448,0.09399999820462447,0.017999999727163266,0.006000000186975531
0.12412498891353607,-0.043612778186798096,9.943838119506836,0.0032999999821186066,0.004900000058114529,0.12809999287128448,-0.0539999991814898,0.015999999942759198,0.05900000114378995
0.12439314275979996,-0.053285352885723114,9.940247535705566,0.003399999812245369,-0.004600000102072954,0.11819999665021896,-0.02600000053230619,-0.013000000266153095,0.013000000266153095
0.11885774880647659,-0.053543925285339355,9.9413480758667,0.0032999999821186066,-0.0044999998062849045,0.12809999287128448,0,0.008999999863581633,-0.023000000021936765
0.1304648369550705,-0.05255751311779022,9.934021949768066,0.003399999812245369,-0.004600000102072954,0.12809999287128448,-0.031999999885518396,-0.009999999755783667,0.004999999877891834
0.12281297147274017,-0.049042828381061554,9.934749603271484,0.013100000098347664,-0.0044999998062849045,0.11819999665021896,0,-0.02600000053230619,0.06399999977103679
0.11810117959976196,-0.04952166602015495,9.936827659606934,0.0031999999191612005,-0.004399999976158142,0.11829999834299088,-0.013000000266153095,-0.010999999647985701,-0.0539999991814898
0.12314815819263458,-0.0524904802441597,9.926504135131836,0.0030999998562037945,-0.004299999680370092,0.10839999467134476,0.021999999295971403,-0.024000000747902123,-0.013000000266153095
0.12992854416370392,-0.03829764947295189,9.934548377990723,0.0030999998562037945,-0.004299999680370092,0.10839999467134476,-0.017999999727163266,-0.024000000747902123,-0.07000000079177565
0.1133989691734314,-0.05322789400815964,9.944670677185059,0.01269999984651804,0.014999999664723873,0.11829999834299088,0.021000000237532696,-0.010999999647985701,0.01700000066872456
0.12461341172456741,-0.05033569782972336,9.949708938598633,0.012600000016391277,-0.004399999976158142,0.12809999287128448,0.006000000186975531,-0.009999999755783667,-0.021999999295971403
0.11465353518724442,-0.043469127267599106,9.940179824829102,0.012600000016391277,-0.004399999976158142,0.12809999287128448,-0.004999999877891834,-0.010999999647985701,0.07199999890865307
0.12891338765621185,-0.03071282058954239,9.941577911376953,-0.006799999624490738,0.005200000014156103,0.11829999834299088,-0.010999999647985701,-0.009999999755783667,-0.06399999977103679
0.12064861506223679,-0.05101565271615982,9.944708824157715,0.002699999837204814,-0.004600000102072954,0.12809999287128448,-0.03899999996469596,0.014999999216793838,-0.02800000031671026
0.12124237418174744,-0.03999274596571922,9.94362735748291,0.002699999837204814,-0.004600000102072954,0.12809999287128448,-0.013000000266153095,-0.008999999863581633,-0.021000000237532696
0.12355038523674011,-0.04590163379907608,9.949679374694824,0.002699999837204814,0.005200000014156103,0.12809999287128448,-0.010999999647985701,-0.01400000015835513,0.07099999651516105
0.12431652843952179,-0.04463749751448631,9.94584846496582,0.002699999837204814,0.005200000014156103,0.12809999287128448,0.015999999942759198,0.015999999942759198,0.0030000000934877653
0.12010274082422256,-0.05092945694923401,9.93790054321289,0.002699999837204814,0.005200000014156103,0.12809999287128448,0.006000000186975531,0.03100000082707969,0.021999999295971403
0.12241074442863464,-0.05365884676575661,9.94543743133545,0.00279999990016222,-0.0044999998062849045,0.12809999287128448,0.010999999647985701,0.007999999971379599,-0.021000000237532696
0.13327084481716156,-0.051149725914001465,9.939470291137695,0.00279999990016222,-0.0044999998062849045,0.12809999287128448,0.007000000079177565,-0.0269999995907449,0.007999999971379599
0.11651142686605453,-0.043028589338064194,9.93135929107666,0.0026000000070780516,0.0050999997183680534,0.11829999834299088,0.021000000237532696,-0.038000000906257256,-0.035000000395887826
0.12687353789806366,-0.05313212424516678,9.942142486572266,0.012199999764561653,-0.004600000102072954,0.12809999287128448,0.01700000066872456,-0.010999999647985701,0.05200000106461238
