Accelerometer_Gx,Accelerometer_Gy,Accelerometer_Gz,Accelerometer_X,Accelerometer_Y,Accelerometer_Z,Gyroscope_Z,Gyroscope_X,Gyroscope_Y
0.11699027568101883,-0.050364427268505096,9.926302909851074,0.0030999998562037945,-0.0031999999191612005,0.10839999467134476,-0.007999999971379599,0.015999999942759198,-0.0030000000934877653
0.11984416097402573,-0.045346178114414215,9.940773010253906,-0.0064999996684491634,-0.0031999999191612005,0.12809999287128448,0.8669999874142063,-0.22199999774669807,-0.043999998591942806
0.12231498211622238,-0.0568670779466629,9.942813873291016,0.0031999999191612005,0.0064999996684491634,0.12809999287128448,0.17700000343136985,0.2379999960219306,-0.18400000017549412
0.10850521922111511,-0.049914319068193436,9.93823528289795,-0.006599999964237213,-0.006000000052154064,0.11819999665021896,-0.5600000063342052,0.726000016787696,0.13700000107318186
0.11167514324188232,-0.05872498080134392,9.936884880065918,-0.006599999964237213,-0.006000000052154064,0.11819999665021896,0.6889999749192377,0.19699999794035722,-0.15999999609253868
0.12630850076675415,-0.0513029545545578,9.94962215423584,-0.004299999680370092,-0.014099999330937862,0.11819999665021896,1.0309999797404998,0.43999998591942807,-0.019000000453128628
0.1217978298664093,-0.059108052402734756,9.941329002380371,0.015699999406933784,-0.0058999997563660145,0.12799999117851257,0.690999993046435,-0.517000016805861,-0.2469999975530389
0.11454818397760391,-0.04993347078561783,9.946270942687988,-0.0037999998312443495,-0.010900000110268593,0.12799999117851257,-0.23000000355442093,-0.6009999777353522,-0.08299999855663877
0.12005484849214554,-0.049301404505968094,9.92825698852539,-0.0037999998312443495,-0.010900000110268593,0.12799999117851257,0.24399999704266945,-0.8840000080932506,-0.25299999857377775
0.1301966905593872,-0.042262446135282516,9.945724487304688,0.004100000020116568,-0.010199999436736107,0.10839999467134476,-0.27899999410350396,-0.5960000124586383,0.28199999461387343
0.12106999009847641,-0.04588248208165169,9.933945655822754,0.00029999998514540493,-0.00039999998989515007,0.11829999834299088,0.06800000267489824,-0.1529999993484144,-0.05300000012305109
0.11073661595582962,-0.04006936028599739,9.935898780822754,-0.00989999994635582,-0.0005999999702908099,0.11829999834299088,0.4139999903897018,-0.8480000019688174,-0.22199999774669807
0.11005666106939316,-0.04124730825424194,9.936731338500977,-0.011899999342858791,-0.0015999999595806003,0.11829999834299088,0.32700000226941484,-0.4070000069857908,-0.09200000008774706
0.11299674212932587,-0.0433637797832489,9.933810234069824,-0.013199999928474426,-0.0026000000070780516,0.11829999834299088,0.05499999823992851,-0.14600000260429016,0.4100000074961602
0.11241255700588226,-0.05258624628186226,9.947687149047852,-0.013599999248981476,-0.01249999925494194,0.12809999287128448,-0.3319999942265551,0.739999983595518,0.1830000044521087
0.11318828165531158,-0.04294240102171898,9.933706283569336,-0.011799999512732029,-0.0018999999156221747,0.11829999834299088,0.24599998848944027,-0.1070000026395942,0.10900000075647161
0.11630074679851532,-0.04874594509601593,9.94308090209961,-0.002300000051036477,-0.01249999925494194,0.12809999287128448,-0.2699999925723957,0.25400000763737635,0.15200000362502902
0.1111484244465828,-0.037617698311805725,9.942400932312012,-0.011500000022351742,0.007699999958276749,0.12809999287128448,0.11299999699022645,0.5089999976579249,0.3139999911643385
0.11849382519721985,-0.055890243500471115,9.947553634643555,-0.00029999998514540493,-0.01209999993443489,0.12809999287128448,-0.0969999987149939,-0.28799999563461226,-0.05200000106461238
0.12756305932998657,-0.0562828928232193,9.942852020263672,0.009200000204145908,-0.011299999430775642,0.12809999287128448,-0.4799999749374028,-0.1419999930303221,0.057000003026912535
0.12987108528614044,-0.03224511072039604,9.946721076965332,0.009200000204145908,-0.011299999430775642,0.12809999287128448,-0.4799999749374028,-0.1419999930303221,0.057000003026912535
0.11500786989927292,-0.04611232504248619,9.937775611877441,0.008700000122189522,0.00969999935477972,0.12809999287128448,0.4169999909000712,-0.18199999538851008,-0.23499999551156117
0.12189359962940216,-0.04389050602912903,9.943062782287598,-0.00139999995008111,0,0.12809999287128448,0.3469999967784022,-0.06299999737754478,-0.20599999947146552
0.10692504793405533,-0.06333142518997192,9.935850143432617,-0.00139999995008111,0,0.12809999287128448,0.2159999967259592,0.0030000000934877653,0.17400000292100043
0.11293928325176239,-0.03664086014032364,9.936186790466309,-0.011399999260902405,0.008200000040233135,0.11829999834299088,1.0640000387154163,-0.03899999996469596,-0.24599998848944027
0.11983458697795868,-0.05792052671313286,9.937000274658203,-0.0016999999061226845,-0.024399999529123306,0.11829999834299088,1.0940000438191106,-0.16999999334703236,-0.024999999806340833
0.12077310681343079,-0.04910028725862503,9.928811073303223,-0.002199999988079071,-0.01759999990463257,0.10849999636411667,-0.6819999915153268,-0.09300000248123906,0.09300000248123906
0.12643299996852875,-0.0454898327589035,9.940084457397461,-0.002199999988079071,-0.01759999990463257,0.10849999636411667,-0.6819999915153268,-0.09300000248123906,0.09300000248123906
0.12705549597740173,-0.043181825429201126,9.946988105773926,0.0072999997064471245,-0.006099999882280827,0.11829999834299088,0.3660000089042174,0.3660000089042174,0.06200000165415938
0.1244218721985817,-0.051408298313617706,9.939452171325684,-0.000699999975040555,-0.008700000122189522,0.11829999834299088,1.011000011911939,0.5889999756938744,0.25100000712700693
0.11579317599534988,-0.05499960482120514,9.932642936706543,0.0007999999797903001,-0.011500000022351742,0.11829999834299088,2.7360000385700958,0.16800000190026157,0.0269999995907449
0.1163390502333641,-0.05086242035031319,9.933418273925781,0.0011999999405816197,-0.017999999225139618,0.11819999665021896,0.3029999981864594,0.3409999957576634,-0.09999999922536333
0.10997047275304794,-0.04507802799344063,9.926820755004883,-0.007499999832361937,-0.009099999442696571,0.10839999467134476,0.9339999810255059,0.12299999424472013,-0.01400000015835513
0.12106999009847641,-0.05379292368888855,9.93895435333252,0.0026000000070780516,-0.02149999886751175,0.11819999665021896,-0.21100000476881897,0.4270000014947782,0.22400000253368207
0.12099337577819824,-0.04479072615504265,9.9567289352417,0.0037999998312443495,-0.011099999770522118,0.13779999315738678,-0.22700000304405152,0.3529999977991411,0.3349999947369245
0.10914686322212219,-0.03505111485719681,9.937326431274414,-0.004999999888241291,-0.0005999999702908099,0.11819999665021896,-0.9819999891914167,0.5099999800410971,0.32700000226941484
0.11263282597064972,-0.041266459971666336,9.92761516571045,-0.0037999998312443495,-0.008100000210106373,0.10839999467134476,-0.0019999999928448997,0.19600000221697184,-0.046999999102312236
0.1125657856464386,-0.04823837801814079,9.933120727539062,-0.0031999999191612005,-0.017899999395012856,0.11819999665021896,0.8889999733699644,-0.26000000865811523,-0.2050000037480801
0.11223059892654419,-0.047970227897167206,9.93554401397705,-0.0038999998942017555,-0.02029999904334545,0.11819999665021896,-0.9790000420419002,-0.2150000010025738,0.01700000066872456
0.11899182200431824,-0.040299203246831894,9.952964782714844,0.0052999998442828655,-0.008100000210106373,0.13779999315738678,0.6230000170519632,0.08499999667351618,0
0.11223059892654419,-0.04942589998245239,9.952733993530273,-0.004100000020116568,-0.01979999989271164,0.13779999315738678,1.2600000009117485,0.1620000008795227,-0.021000000237532696
0.10499053448438644,-0.034849997609853745,9.943598747253418,-0.013599999248981476,-0.0031999999191612005,0.12799999117851257,-2.196999929086771,0.6870000101528934,0.043999998591942806
0.10886914283037186,-0.045058876276016235,9.938005447387695,-0.0018999999156221747,-0.00699999975040555,0.11819999665021896,0.12100000279794933,-0.3139999911643385,-0.02800000031671026
0.11853213608264923,-0.04485776275396347,9.924511909484863,0.006899999920278788,-0.007400000002235174,0.10839999467134476,-0.7290000172980654,0.4549999884712752,0.2150000010025738
0.11416511237621307,-0.04476199299097061,9.931857109069824,-0.0016999999061226845,-0.00559999980032444,0.11819999665021896,-0.11500000177721047,-0.24200000559589865,-0.09500000059811649
0.12504436075687408,-0.04492479935288429,9.935927391052246,0.016999999061226845,-0.0052999998442828655,0.11819999665021896,0.30100000673968863,-0.05499999823992851,0.14600000260429016
0.11372458189725876,-0.0488225594162941,9.922348022460938,-0.0026000000070780516,-0.01589999906718731,0.10839999467134476,-0.13100000005244303,0.3980000054546825,0.18700000068586353
0.10716446489095688,-0.04225287213921547,9.93010425567627,-0.0016999999061226845,-0.005799999926239252,0.10839999467134476,-0.12499999903170415,-0.48299997544777223,-0.18099999966512467
0.10569921880960464,-0.024823084473609924,9.947917938232422,-0.0031999999191612005,0.014099999330937862,0.12799999117851257,1.8150000419692398,0.04200000047506539,0.11200000126684104
0.1150461807847023,-0.051504068076610565,9.918305397033691,0.006599999964237213,-0.00969999935477972,0.10839999467134476,-1.842999975584884,0.4300000020051476,0.14399999781730613
0.12476664036512375,-0.03974374756217003,9.936176300048828,0.017099998891353607,-0.0030999998562037945,0.11819999665021896,1.8490000833273288,-0.07799999992939192,-0.03400000133744912
0.11902055144309998,-0.043047744780778885,9.952858924865723,0.0071000000461936,-0.007499999832361937,0.13779999315738678,0.9070000297930338,-0.5440000213991859,-0.06800000267489824
0.12032299488782883,-0.048947058618068695,9.932604789733887,0.005399999674409628,-0.020099999383091927,0.11819999665021896,0.433000002515517,-0.2780000117203318,-0.0019999999928448997
0.11858002841472626,-0.04341166839003563,9.94428825378418,0.004600000102072954,-0.011399999260902405,0.12799999117851257,1.8459999227344006,-0.3019999891228608,-0.09800000110848592
0.11063127219676971,-0.053304508328437805,9.942066192626953,-0.0058999997563660145,-0.02630000002682209,0.12799999117851257,1.054000001440283,-0.33300000329015367,-0.1719999981340164
0.12578178942203522,-0.05244259163737297,9.940505027770996,0.01269999984651804,-0.029199998825788498,0.11819999665021896,1.34099996133087,-0.3469999967784022,-0.20099999417411205
0.12254482507705688,-0.05641696974635124,9.949737548828125,0.0018999999156221747,-0.032899998128414154,0.12799999117851257,1.7790000358448068,-0.16400000566650674,-0.07699999753589991
0.12389514595270157,-0.039370253682136536,9.946117401123047,0.001500000013038516,-0.027899999171495438,0.12799999117851257,1.702000004958374,-0.017999999727163266,-0.05600000063342052
0.11685619503259659,-0.04514506831765175,9.943732261657715,0.00139999995008111,-0.032600000500679016,0.12799999117851257,-2.4100000186838533,0.3849999943496062,0.149999998838045
0.1168370470404625,-0.038948871195316315,9.937623023986816,0.0024999999441206455,-0.025999998673796654,0.11819999665021896,-0.9039999759218116,0.16400000566650674,0.18799999640924894
0.11105264723300934,-0.035625722259283066,9.939279556274414,-0.006799999624490738,-0.0139999995008111,0.11819999665021896,1.9169999526000947,-0.1729999938574018,-0.1189999980109653
0.12609781324863434,-0.03796246275305748,9.934700965881348,0.01209999993443489,-0.019899999722838402,0.11819999665021896,-0.2039999946844815,0.14300000209392072,0.029999998433587676
0.11700942367315292,-0.03948517516255379,9.927854537963867,0.002699999837204814,-0.029099998995661736,0.10839999467134476,-1.9600000488501446,0.3989999878378547,0.09600000299160849
0.11902055144309998,-0.04236779361963272,9.929338455200195,0.003700000001117587,-0.024399999529123306,0.10839999467134476,0.8249999802690342,-0.4199999914104407,0.04900000055424296
0.11912590265274048,-0.04412992298603058,9.938206672668457,0.0023999998811632395,-0.026899999007582664,0.11819999665021896,-2.0389999377812162,0.4669999905127529,0.2609999910412874
0.11672212183475494,-0.05687665566802025,9.942660331726074,0.003499999875202775,-0.03179999813437462,0.12799999117851257,1.6170000082848577,-0.28699998657101367,-0.10999999647985702
0.1155250146985054,-0.048784252256155014,9.931282997131348,0.0026000000070780516,-0.03680000081658363,0.11819999665021896,-1.5740000187565135,0.545000003782358,0.28499999512424284
0.12043792009353638,-0.045911211520433426,9.924779891967773,0.004100000020116568,-0.022699998691678047,0.10839999467134476,2.1459999737713433,-0.46600000812958076,-0.1729999938574018
0.11085154116153717,-0.0386328399181366,9.931474685668945,-0.0066999997943639755,-0.027799999341368675,0.11819999665021896,-1.6330000465807297,0.3819999938392367,0.1610000051561373
0.1221521645784378,-0.05495171621441841,9.943885803222656,0.004100000020116568,-0.032600000500679016,0.12799999117851257,-1.4129999735797365,0.21200000049220435,0.13700000107318186
0.12191274762153625,-0.04049073904752731,9.942516326904297,0.004600000102072954,-0.01939999870955944,0.12799999117851257,1.7159999717661958,-0.43999998591942807,-0.08299999855663877
0.11826398223638535,-0.05042188614606857,9.939135551452637,0.003399999812245369,-0.033900000154972076,0.11819999665021896,-1.0239999963365887,0.1749999986443858,-0.06800000267489824
0.12016976624727249,-0.04472368583083153,9.939834594726562,0.003999999724328518,-0.020899999886751175,0.11819999665021896,-1.404000025409481,0.5709999726316578,0.12599999475508955
0.11259452253580093,-0.041151538491249084,9.927203178405762,-0.004399999976158142,-0.017500000074505806,0.10839999467134476,-0.859000021627123,0.15900000036915327,0.18700000068586353
0.10762415081262589,-0.04961743578314781,9.938896179199219,-0.0038999998942017555,-0.024699999019503593,0.11819999665021896,-0.2549999900205486,-0.019000000453128628,0.015999999942759198
0.11519940942525864,-0.05512410029768944,9.931636810302734,0.005799999926239252,-0.024000000208616257,0.11819999665021896,1.1070000282437604,0.03899999996469596,-0.08100000043976135
0.12735237181186676,-0.043497856706380844,9.938810348510742,0.015699999406933784,-0.01679999940097332,0.11819999665021896,0.9999999922536332,-0.2710000016359943,-0.021999999295971403
0.11493125557899475,-0.038144420832395554,9.945005416870117,0.004999999888241291,-0.010099999606609344,0.12799999117851257,1.7360000463164627,-0.2589999995945166,-0.031999999885518396
0.11014284938573837,-0.04752011597156525,9.942726135253906,-0.006000000052154064,-0.02969999983906746,0.12799999117851257,1.4079999549421698,-0.25400000763737635,-0.10900000075647161
0.1156303659081459,-0.05397488549351692,9.924464225769043,0.003000000026077032,-0.043299999088048935,0.10839999467134476,-0.7350000183188042,0.18099999966512467,0.14300000209392072
0.11758402734994888,-0.029745562002062798,9.948080062866211,0.003399999812245369,-0.021900000050663948,0.12799999117851257,-1.7430000297203736,0.5059999971475555,0.0749999994190225
0.11586979031562805,-0.05215528979897499,9.94105052947998,0.004999999888241291,-0.03619999811053276,0.12799999117851257,-1.4230000108548697,0.25100000712700693,0.06700000028140622
0.1302350014448166,-0.043708544224500656,9.940648078918457,0.01549999974668026,-0.022499999031424522,0.11819999665021896,2.471000011274414,-0.44399999549339614,-0.16400000566650674
0.12035173177719116,-0.03937982767820358,9.941530227661133,0.004399999976158142,-0.029199998825788498,0.12799999117851257,0.726000016787696,0.07300000130214508,0.1079999983629796
0.10251971334218979,-0.06038176640868187,9.930506706237793,-0.01489999983459711,-0.050599999725818634,0.10839999467134476,-1.5579999804606413,0.30799999014359963,0.08200000283325337
0.11653058975934982,-0.04345954954624176,9.950934410095215,0.00559999980032444,-0.026099998503923416,0.13779999315738678,2.033000043482183,-0.3999999969014533,-0.15500000413539844
0.1258583962917328,-0.05819825455546379,9.931580543518066,0.014299999922513962,-0.05130000039935112,0.11819999665021896,-2.0049998964231275,0.3119999997175677,0.11400000605382507
0.1249869093298912,-0.044943954795598984,9.940007209777832,0.015099999494850636,-0.026200000196695328,0.11819999665021896,0.3240000017590454,-0.2780000117203318,-0.04500000098543482
0.1273619532585144,-0.0479893796145916,9.930440902709961,0.014299999922513962,-0.03689999878406525,0.10839999467134476,-1.1200000126684104,0.2909999961449817,0.1529999993484144
0.12802274525165558,-0.036554671823978424,9.932863235473633,0.014999999664723873,-0.014599999412894249,0.11819999665021896,0.7069999779814543,-0.28199999461387343,-0.03899999996469596
0.10952036082744598,-0.04873637109994888,9.923937797546387,-0.005399999674409628,-0.03629999980330467,0.10839999467134476,-2.409000036300681,0.35499998924591186,0.14499999354069154
0.10586202144622803,-0.06300581246614456,9.932806015014648,-0.004399999976158142,-0.03949999809265137,0.11819999665021896,2.0580000299483108,-0.21700000578955783,-0.1610000051561373
0.11854171752929688,-0.061100028455257416,9.933782577514648,0.004799999762326479,-0.044499997049570084,0.11819999665021896,-1.2989999541856982,-0.031999999885518396,-0.03999999902313467
0.11218271404504776,-0.053898271173238754,9.931368827819824,-0.004999999888241291,-0.03059999831020832,0.11819999665021896,-2.1180000401556995,0.3369999861836953,0.149999998838045
0.11476845294237137,-0.0376751609146595,9.939720153808594,-0.00419999985024333,-0.0058999997563660145,0.11819999665021896,0.4649999723855557,0.10400000212922476,0.06700000028140622
0.11237425357103348,-0.04434061422944069,9.940974235534668,-0.0038999998942017555,-0.016999999061226845,0.12799999117851257,2.1849999270452933,-0.4089999984325616,-0.0659999978879142
0.12507309019565582,-0.04414907842874527,9.929348945617676,0.014299999922513962,-0.02369999885559082,0.10839999467134476,1.7689999985696734,-0.3860000034132048,-0.13499999628619785
0.11707646399736404,-0.0418219156563282,9.94345474243164,0.003599999938160181,-0.0279999990016222,0.12799999117851257,0.45300002370493087,-0.13700000107318186,-0.05799999875029794
0.10481815040111542,-0.050086699426174164,9.938504219055176,-0.01640000008046627,-0.03909999877214432,0.11819999665021896,-0.6999999945775432,-0.0749999994190225,0.0269999995907449
0.10975977778434753,-0.04219541326165199,9.951432228088379,-0.006799999624490738,-0.027400000020861626,0.13779999315738678,-1.5089999899115583,0.05900000114378995,0.07300000130214508
0.1142321527004242,-0.0542621873319149,9.942047119140625,-0.0066999997943639755,-0.0139999995008111,0.11819999665021896,-1.702000004958374,0.2740000021463637,0.11200000126684104
0.11219228804111481,-0.05331408232450485,9.93659782409668,-0.005799999926239252,-0.028299998492002487,0.12799999117851257,0.2959999881021219,-0.23499999551156117,-0.10100000161885533
0.12520717084407806,-0.0390925258398056,9.94326400756836,-0.005799999926239252,-0.02719999849796295,0.11819999665021896,1.1910000425341045,-0.23399998644796255,-0.1400000015835513
0.12701718509197235,-0.05713523179292679,9.934385299682617,0.012999999336898327,-0.018299998715519905,0.12799999117851257,1.0019999570199776,0,-0.0019999999928448997
0.11200075596570969,-0.051168881356716156,9.941692352294922,-0.007199999876320362,-0.03370000049471855,0.12799999117851257,-0.5390000027616192,0.32899999371618566,0.128999995265459
0.12211386114358902,-0.042923249304294586,9.92874526977539,-0.007199999876320362,-0.03370000049471855,0.12799999117851257,-1.3759999850721312,0.39599998732748526,0.07999999804626934
0.11530475318431854,-0.05157110467553139,9.937382698059082,0.004600000102072954,-0.028299998492002487,0.11819999665021896,1.7109999531286293,-0.18099999966512467,-0.05099999867112037
0.1270076185464859,-0.04638047516345978,9.932413101196289,0.013899999670684338,-0.023099999874830246,0.11819999665021896,-0.5309999836136831,0.08299999855663877,0.0039999999856897995
0.11982500553131104,-0.04056735336780548,9.926724433898926,0.004299999680370092,-0.021800000220537186,0.10839999467134476,-0.4489999874505363,-0.14900000311465958,0.007999999971379599
0.11798626184463501,-0.043277591466903687,9.930947303771973,0.0037999998312443495,-0.020399998873472214,0.10839999467134476,0.9450000006838114,-0.024999999806340833,-0.019999999511567335
0.11791922152042389,-0.04073973372578621,9.936789512634277,0.003700000001117587,-0.023000000044703484,0.11819999665021896,-1.6849999842793295,0.2519999895101791,0.15999999609253868
0.12035173177719116,-0.04464707151055336,9.936980247497559,0.004399999976158142,-0.018400000408291817,0.11819999665021896,1.6719999998546795,-0.13000000432905762,-0.007000000079177565
0.1308383345603943,-0.05971139296889305,9.931522369384766,0.013799999840557575,-0.04259999841451645,0.11819999665021896,-0.9399999820462447,-0.08400000095013078,-0.019999999511567335
0.1016673818230629,-0.03623863682150841,9.947802543640137,-0.015699999406933784,-0.010900000110268593,0.12799999117851257,0.9020000111554672,0.07000000079177565,0.023000000021936765
0.11426088213920593,-0.04482903331518173,9.942803382873535,-0.005699999630451202,-0.023499999195337296,0.12799999117851257,0.796000010909365,-0.019999999511567335,-0.015999999942759198
0.12339715659618378,-0.05234682559967041,9.940333366394043,0.003999999724328518,-0.03539999946951866,0.11819999665021896,-1.0979999733517993,0.03400000133744912,0.128999995265459
0.11448115110397339,-0.04345954954624176,9.943033218383789,0.013899999670684338,-0.023000000044703484,0.12799999117851257,0.36800000035098823,0.013000000266153095,-0.09899999683187131
0.11448115110397339,-0.04345954954624176,9.943033218383789,-0.005499999970197678,-0.020999999716877937,0.12799999117851257,0.36800000035098823,0.013000000266153095,-0.09899999683187131
0.1207156553864479,-0.04903325065970421,9.93730640411377,0.004299999680370092,-0.031700000166893005,0.11819999665021896,0.8690000055414034,-0.19499999315337319,-0.11599999750059588
0.12597331404685974,-0.04701254144310951,9.943167686462402,0.003700000001117587,-0.02419999986886978,0.11819999665021896,1.0259999611029331,-0.2810000122307012,-0.05600000063342052
0.12597331404685974,-0.04701254144310951,9.943167686462402,0.01269999984651804,-0.027400000020861626,0.12799999117851257,-0.15699999558216926,-0.07699999753589991,0.057000003026912535
0.11657846719026566,-0.04492479935288429,9.930564880371094,0.002699999837204814,-0.026899999007582664,0.10839999467134476,-0.8320000170337981,0.11200000126684104,0.06200000165415938
0.12487198412418365,-0.0456143319606781,9.927165031433105,0.012799999676644802,-0.024299999698996544,0.10839999467134476,-0.08100000043976135,-0.023000000021936765,0
0.1066473200917244,-0.04016512632369995,9.936856269836426,0.01269999984651804,-0.014299999922513962,0.10839999467134476,-0.830999981289773,-0.03999999902313467,-0.041000001416626686
0.1066473200917244,-0.04016512632369995,9.936856269836426,-0.006899999920278788,-0.022699998691678047,0.11819999665021896,-0.830999981289773,-0.03999999902313467,-0.041000001416626686
0.12213301658630371,-0.0460931695997715,9.930516242980957,0.002699999837204814,-0.020099999383091927,0.11819999665021896,0.836999982310512,-0.10499999785261017,-0.023000000021936765
0.1280514895915985,-0.038709454238414764,9.937498092651367,0.002899999963119626,-0.021199999377131462,0.10839999467134476,-0.24599998848944027,-0.08100000043976135,0.08299999855663877
0.11665508151054382,-0.0510731115937233,9.9215726852417,0.012299999594688416,-0.023799998685717583,0.11819999665021896,-0.42599999243117953,0.05900000114378995,0.06399999977103679
0.11936531960964203,-0.05434837564826012,9.93860912322998,0.0023999998811632395,-0.03189999982714653,0.11819999665021896,-0.4969999956164472,0.0030000000934877653,-0.06299999737754478
0.1118571013212204,-0.04143884405493736,9.946375846862793,0.0023999998811632395,-0.03189999982714653,0.11819999665021896,0.15399999507179982,0.05200000106461238,0.04600000004387353
0.12199893593788147,-0.045365333557128906,9.938321113586426,0.0024999999441206455,-0.020899999886751175,0.11819999665021896,-0.31800000073830653,0.010999999647985701,0.07300000130214508
0.12444102764129639,-0.0513029545545578,9.946298599243164,0.0026000000070780516,-0.029899999499320984,0.12799999117851257,0.5699999902484857,-0.013000000266153095,-0.0749999994190225
0.11759361624717712,-0.048382025212049484,9.947745323181152,0.0024999999441206455,-0.03150000050663948,0.12799999117851257,-0.5399999851447914,0.08100000043976135,-0.024999999806340833
0.11905886232852936,-0.05727888271212578,9.93677043914795,0.002699999837204814,-0.03019999898970127,0.11819999665021896,0.20800000425844953,0,0.006000000186975531
0.11076535284519196,-0.05519114062190056,9.941980361938477,-0.00699999975040555,-0.030799999833106995,0.12799999117851257,0.3690000094145868,0.004999999877891834,0.10999999647985702
0.10754753649234772,-0.04831499233841896,9.956756591796875,-0.00699999975040555,-0.031700000166893005,0.13779999315738678,0.24099999653230003,-0.019000000453128628,-0.043999998591942806
0.11038228124380112,-0.04547068104147911,9.945523262023926,-0.0071000000461936,-0.022599998861551285,0.12799999117851257,-0.5799999741627662,0.11699999322398127,0.08100000043976135
0.1259254366159439,-0.04881298542022705,9.938054084777832,0.002899999963119626,-0.011399999260902405,0.11819999665021896,0.564999971610919,0.019999999511567335,0
0.10972147434949875,-0.035865142941474915,9.934069633483887,0.01249999925494194,-0.028999999165534973,0.11819999665021896,-0.5420000032719886,-0.004999999877891834,-0.013000000266153095
0.11419384926557541,-0.029659369960427284,9.923917770385742,-0.00699999975040555,-0.010900000110268593,0.11819999665021896,-0.6729999899842184,-0.12599999475508955,-0.0329999989439571
0.11691366136074066,-0.05257666856050491,9.936089515686035,-0.00699999975040555,-0.009599999524652958,0.10839999467134476,-0.2890000046982109,0.05900000114378995,0.014999999216793838
0.11450030654668808,-0.0341317392885685,9.9389066696167,0.002300000051036477,-0.02709999866783619,0.11819999665021896,-0.5709999726316578,-0.009999999755783667,0.012000000373951061
0.12709380686283112,-0.04024174064397812,9.933370590209961,-0.0072999997064471245,-0.006799999624490738,0.11819999665021896,-0.4270000014947782,0.10600000024610218,0.03899999996469596
0.1112537607550621,-0.055296480655670166,9.942459106445312,0.012199999764561653,-0.014999999664723873,0.11819999665021896,0.22100000202331266,-0.06399999977103679,0.03699999851276524
0.11031524091959,-0.05400361120700836,9.94002628326416,-0.0071000000461936,-0.024000000208616257,0.11819999665021896,0.44399999549339614,-0.06500000216452881,0.07199999890865307
0.12148179858922958,-0.05381207540631294,9.92607307434082,-0.0071000000461936,-0.024000000208616257,0.11819999665021896,0.21999999295971404,0.014999999216793838,0.09099999769425504
0.12220963090658188,-0.050536807626485825,9.938685417175293,0.0023999998811632395,-0.02579999901354313,0.11819999665021896,0.6969999940671738,0.023000000021936765,0.057000003026912535
0.10660901665687561,-0.04122815281152725,9.925125122070312,-0.0072999997064471245,-0.017899999395012856,0.10839999467134476,-0.325000010822644,0.019000000453128628,0.03599999945432653
0.12299492955207825,-0.04752969369292259,9.928160667419434,-0.0072999997064471245,-0.017899999395012856,0.10839999467134476,-0.6720000076010463,-0.01700000066872456,0.04600000004387353
0.12018892914056778,-0.04227202758193016,9.944048881530762,0.0023999998811632395,-0.01529999915510416,0.12799999117851257,-0.7829999731238623,0.0019999999928448997,0.0009999999964224499
0.10870634019374847,-0.041908107697963715,9.948071479797363,0.0023999998811632395,-0.01529999915510416,0.12799999117851257,-0.22199999774669807,0.057000003026912535,0.04900000055424296
0.11644439399242401,-0.039580944925546646,9.953855514526367,-0.0072999997064471245,-0.012899999506771564,0.12799999117851257,-0.18400000017549412,0.12499999903170415,0.007000000079177565
0.1226501613855362,-0.033260248601436615,9.943416595458984,0.002899999963119626,-0.001999999862164259,0.12799999117851257,0.5069999795307276,0.13000000432905762,0.012000000373951061
0.11634862422943115,-0.04663905128836632,9.944001197814941,0.002899999963119626,-0.001999999862164259,0.12799999117851257,-0.6189999807975687,0.14900000311465958,0.006000000186975531
0.10974062979221344,-0.051312532275915146,9.927949905395508,-0.006000000052154064,-0.021399999037384987,0.10839999467134476,-0.49000001221253614,0.10999999647985702,0.14600000260429016
0.11198160797357559,-0.0441969633102417,9.93708610534668,-0.005799999926239252,-0.010400000028312206,0.11819999665021896,-0.7979999756757093,0.09099999769425504,0.06700000028140622
0.11424172669649124,-0.043258439749479294,9.954429626464844,-0.005499999970197678,-0.007899999618530273,0.13779999315738678,-0.06899999839828364,-0.14799999405106096,0.017999999727163266
0.12734279036521912,-0.04884171113371849,9.92856216430664,0.013599999248981476,-0.017500000074505806,0.10839999467134476,0.5579999882070079,-0.09300000248123906,0.01700000066872456
0.11310208588838577,-0.042023029178380966,9.93882942199707,-0.006199999712407589,-0.009399999864399433,0.11819999665021896,0.9870000078289833,0.18199999538851008,-0.0019999999928448997
0.1292964667081833,-0.04808514937758446,9.93881893157959,0.013799999840557575,-0.021900000050663948,0.11819999665021896,-0.05099999867112037,0.1419999930303221,0.04600000004387353
0.12114660441875458,-0.047500960528850555,9.940351486206055,0.004299999680370092,-0.012000000104308128,0.11819999665021896,0.10400000212922476,-0.05099999867112037,0.024000000747902123
0.10843818634748459,-0.043785158544778824,9.94984245300293,-0.005499999970197678,-0.012199999764561653,0.12799999117851257,0.9920000264665501,0.07999999804626934,-0.048000001495804245
0.11167514324188232,-0.04554729536175728,9.954113960266113,-0.005200000014156103,-0.015199999324977398,0.13779999315738678,-0.8900000091139895,0.12400000330831876,0.02600000053230619
0.1257147490978241,-0.05333323776721954,9.941108703613281,0.014599999412894249,-0.022599998861551285,0.12799999117851257,0.5149999986786638,0.0009999999964224499,-0.014999999216793838
0.120275117456913,-0.040442854166030884,9.961478233337402,0.004799999762326479,-0.0142000000923872,0.147599995136261,-1.0770000231400663,0.01400000015835513,0.03400000133744912
0.11202948540449142,-0.04833414405584335,9.937919616699219,-0.004900000058114529,-0.020999999716877937,0.11819999665021896,0.7690000063160402,0.01700000066872456,-0.11099999887334903
0.1181299164891243,-0.028165388852357864,9.930420875549316,0.004799999762326479,0.0064999996684491634,0.10839999467134476,-0.2140000052791884,-0.17799999915475526,-0.05300000012305109
0.11984416097402573,-0.04445553570985794,9.942066192626953,0.004299999680370092,-0.012399999424815178,0.12799999117851257,0.19099999691961836,0.12199999852133472,0.0039999999856897995
0.11688492447137833,-0.05290227755904198,9.925344467163086,-0.01489999983459711,-0.022599998861551285,0.10839999467134476,0.5410000208888165,-0.10900000075647161,-0.014999999216793838
0.11728715151548386,-0.0548655241727829,9.930574417114258,0.004100000020116568,-0.021299999207258224,0.10839999467134476,0.3750000104353257,0.18400000017549412,0.03400000133744912
0.11801499128341675,-0.056742578744888306,9.93881893157959,0.0044999998062849045,-0.022099999710917473,0.11819999665021896,0.3049999896332302,0.1400000015835513,0.05900000114378995
0.13457328081130981,-0.04101746529340744,9.926445960998535,0.02449999935925007,-0.013199999928474426,0.10839999467134476,0.36399999077702017,-0.014999999216793838,-0.11200000126684104
0.11471099406480789,-0.04498226195573807,9.936989784240723,-0.004900000058114529,-0.014299999922513962,0.11819999665021896,-0.13300000483942703,-0.11699999322398127,0
0.11870452016592026,-0.04983770474791527,9.934491157531738,0.0044999998062849045,-0.02369999885559082,0.11819999665021896,-0.9459999830669835,-0.12199999852133472,0.010999999647985701
0.1226501613855362,-0.042597636580467224,9.932853698730469,0.004100000020116568,-0.010999999940395355,0.11819999665021896,0.06800000267489824,-0.19699999794035722,0.017999999727163266
0.11831187456846237,-0.05478890985250473,9.939116477966309,0.004100000020116568,-0.010999999940395355,0.11819999665021896,-0.09300000248123906,-0.19799999366374263,-0.0009999999964224499
0.10764331370592117,-0.052567094564437866,9.93343734741211,-0.006599999964237213,-0.020600000396370888,0.11819999665021896,0.8050000124404733,-0.06200000165415938,-0.05099999867112037
0.10280702263116837,-0.042808327823877335,9.944499015808105,-0.016599999740719795,-0.013299999758601189,0.12799999117851257,0.18799999640924894,0.06700000028140622,0.012000000373951061
0.10699208825826645,-0.03412216156721115,9.947936058044434,-0.006599999964237213,-0.0038999998942017555,0.12799999117851257,0.7780000078471484,0.14300000209392072,0.05499999823992851
0.12171164155006409,-0.04601655527949333,9.927490234375,0.003499999875202775,-0.016099998727440834,0.10839999467134476,-0.6889999749192377,0.03899999996469596,-0.02600000053230619
0.14683160185813904,-0.0699106901884079,9.922242164611816,0.032999999821186066,-0.04360000044107437,0.10839999467134476,-0.10299999973573276,0,0.021000000237532696
0.12909534573554993,-0.05978800728917122,9.900867462158203,0.013399999588727951,-0.033399999141693115,0.07899999618530273,0.007000000079177565,-0.23099998593759313,0.03899999996469596
0.11561121046543121,-0.040078938007354736,9.915107727050781,0.002899999963119626,-0.013799999840557575,0.09860000014305115,0.08100000043976135,-0.0659999978879142,0.04200000047506539
0.11684662103652954,-0.03682282194495201,9.920604705810547,0.002699999837204814,-0.00419999985024333,0.09860000014305115,0.15500000413539844,0.18400000017549412,0.09000000197086964
0.11702857911586761,-0.043210551142692566,9.931282997131348,0.0031999999191612005,-0.014399999752640724,0.11819999665021896,-1.1049999567557103,-0.1719999981340164,0.023000000021936765
0.11685619503259659,-0.047855306416749954,9.946011543273926,0.002699999837204814,-0.011399999260902405,0.12799999117851257,0.4720000091503196,0.3059999986968288,0.06399999977103679
0.11308293044567108,-0.05260540172457695,9.928629875183105,-0.006199999712407589,-0.022499999031424522,0.10839999467134476,-0.9829999715745888,-0.325000010822644,0.04900000055424296
0.11959516257047653,-0.03627694398164749,9.946069717407227,0.0026000000070780516,-0.00009999999747378752,0.12799999117851257,-0.4799999749374028,0.29899998861249133,-0.004999999877891834
0.11668381839990616,-0.04762545973062515,9.919723510742188,0.003399999812245369,-0.008599999360740185,0.09860000014305115,-0.8050000124404733,-0.4070000069857908,0.009999999755783667
0.11470141261816025,-0.03203441947698593,9.936214447021484,-0.007400000002235174,0.0032999999821186066,0.11819999665021896,-0.5759999912692245,0.43400001157911566,0.019000000453128628
0.10975977778434753,-0.04073015972971916,9.927691459655762,-0.006399999838322401,-0.004999999888241291,0.10839999467134476,0.39699999639108385,0.4019999883482241,-0.007999999971379599
0.11626243591308594,-0.058217406272888184,9.933849334716797,0.004600000102072954,-0.02579999901354313,0.11819999665021896,-1.1579999835591879,-0.27200001069959295,-0.006000000186975531
0.12266931682825089,-0.04916732758283615,9.9242525100708,0.0037999998312443495,-0.012799999676644802,0.10839999467134476,-1.0150000481663333,0.1610000051561373,-0.019999999511567335
0.11688492447137833,-0.04165910929441452,9.925268173217773,0.00419999985024333,-0.0005999999702908099,0.10839999467134476,0.06299999737754478,0.16699999283666295,-0.007000000079177565
0.11996866017580032,-0.05066130682826042,9.943703651428223,0.004699999932199717,-0.010499999858438969,0.12799999117851257,0.7110000142358488,-0.39699999639108385,0.031999999885518396
0.10972147434949875,-0.04801810905337334,9.944220542907715,-0.006000000052154064,-0.012199999764561653,0.12799999117851257,-0.545000003782358,-0.45300002370493087,0.031999999885518396
0.13146083056926727,-0.04604528844356537,9.955483436584473,0.0024999999441206455,0.008799999952316284,0.11819999665021896,-0.9289999623879391,-0.024999999806340833,0.007999999971379599
0.12161586433649063,-0.04191768169403076,9.951432228088379,0.0013000000035390258,0.001999999862164259,0.1378999948501587,0.5579999882070079,-0.5099999800410971,-0.05200000106461238
0.12526462972164154,-0.053093817085027695,9.955962181091309,0.009599999524652958,-0.009399999864399433,0.1378999948501587,-1.502000006507647,-0.09000000197086964,0.03100000082707969
0.1172967329621315,-0.04767334461212158,9.948127746582031,-0.00039999998989515007,0.0038999998942017555,0.12809999287128448,0.23199999500119176,-0.2609999910412874,-0.017999999727163266
0.10791146010160446,-0.049943044781684875,9.938915252685547,-0.010900000110268593,-0.006399999838322401,0.11829999834299088,1.040000034632461,-0.25400000763737635,-0.08100000043976135
0.11767980456352234,-0.048707637935876846,9.943914413452148,-0.0018999999156221747,-0.009599999524652958,0.12809999287128448,0.8769999713284867,-0.6709999718570212,0.02600000053230619
0.11853213608264923,-0.03516603633761406,9.951863288879395,-0.003499999875202775,0.007799999788403511,0.1378999948501587,-0.29399999665535115,0.3409999957576634,0.07600000181251451
0.11738292127847672,-0.0475105382502079,9.928974151611328,-0.0024999999441206455,-0.0008999999845400453,0.10849999636411667,-0.49499997748924995,-0.09500000059811649,-0.007000000079177565
0.12253524363040924,-0.04220498725771904,9.930171966552734,-0.002699999837204814,0.00029999998514540493,0.10849999636411667,-1.0629999496105385,0.13300000483942703,-0.015999999942759198
0.11147402971982956,-0.03788584843277931,9.932652473449707,-0.012199999764561653,0.01269999984651804,0.11829999834299088,-0.1079999983629796,0.006000000186975531,0.013000000266153095
0.10972147434949875,-0.026786329224705696,9.932077407836914,-0.012199999764561653,0.02279999852180481,0.11829999834299088,-0.021999999295971403,0.009999999755783667,0.014999999216793838
0.12434525787830353,-0.03962882608175278,9.949956893920898,-0.002300000051036477,0.0031999999191612005,0.12809999287128448,0.3579999897562813,-0.14699999832767557,-0.035000000395887826
0.11163683235645294,-0.03993528336286545,9.939020156860352,-0.012600000016391277,0.002300000051036477,0.11829999834299088,-1.8260000616275454,0.3450000053316314,0.021999999295971403
0.11341812461614609,-0.0351947620511055,9.943100929260254,-0.011599999852478504,0.017099998891353607,0.12809999287128448,-0.32899999371618566,-0.019000000453128628,-0.009999999755783667
0.1216733306646347,-0.046437934041023254,9.929500579833984,-0.0018999999156221747,0.008100000210106373,0.10849999636411667,-1.4069999725589977,0.2069999951948509,0.017999999727163266
0.11705730855464935,-0.04907156154513359,9.941376686096191,-0.0011999999405816197,0.0026000000070780516,0.12809999287128448,1.8929999485171394,-0.19200000598321698,-0.05999999686717535
0.12733322381973267,-0.055842362344264984,9.946577072143555,0.007899999618530273,-0.0023999998811632395,0.12809999287128448,-1.2239999947873152,0.5429999856551608,-0.04200000047506539
0.11420342326164246,-0.039705440402030945,9.946643829345703,-0.010099999606609344,0.010699999518692493,0.12809999287128448,0.433000002515517,0.06299999737754478,0.02899999937514897
0.10537360608577728,-0.031028853729367256,9.956575393676758,-0.009999999776482582,0.01939999870955944,0.1378999948501587,-1.17199995036701,-0.09000000197086964,-0.03899999996469596
0.11426088213920593,-0.0355491079390049,9.945427894592285,-0.010300000198185444,0.023099999874830246,0.12809999287128448,-3.060000093689994,0.19499999315337319,-0.11200000126684104
0.1137533113360405,-0.03665044158697128,9.954668998718262,-0.00969999935477972,0.03150000050663948,0.1379999965429306,0.9750000057875057,0.28799999563461226,0.031999999885518396
0.11764149367809296,-0.049895163625478745,9.943578720092773,0.000699999975040555,0.009499999694526196,0.12809999287128448,-0.5609999887173774,0.023000000021936765,-0.03999999902313467
0.12287043035030365,-0.05364927276968956,9.955291748046875,0.000699999975040555,0.011299999430775642,0.1379999965429306,2.1249999168379046,-0.07099999651516105,0.11599999750059588
0.12214259058237076,-0.041697416454553604,9.94265079498291,0.0004999999655410647,0.01599999889731407,0.12809999287128448,2.1719999426206433,-0.0269999995907449,0.10900000075647161
0.11545798182487488,-0.03995443880558014,9.933370590209961,0.0004999999655410647,0.00930000003427267,0.11829999834299088,-0.35499998924591186,-0.0009999999964224499,-0.035000000395887826
0.11989204585552216,-0.041343074291944504,9.927366256713867,0.010300000198185444,0.0004999999655410647,0.11829999834299088,2.258999904060504,0.008999999863581633,-0.0659999978879142
0.11768937855958939,-0.04140053689479828,9.939653396606445,0.00019999999494757503,0.006000000052154064,0.10849999636411667,1.452000033575392,-0.043999998591942806,0.08100000043976135
0.12485282868146896,-0.042501870542764664,9.938407897949219,0.00019999999494757503,-0.0007999999797903001,0.11829999834299088,1.164999966963099,0.024999999806340833,0.07699999753589991
0.12474748492240906,-0.047194503247737885,9.938666343688965,0.00989999994635582,-0.007400000002235174,0.11819999665021896,0.9889999725953277,-0.03899999996469596,-0.07399999702553048
0.11293928325176239,-0.04866933077573776,9.940265655517578,0.00989999994635582,-0.007400000002235174,0.11819999665021896,-1.4869999505949472,0.048000001495804245,-0.06200000165415938
0.13460202515125275,-0.04829583689570427,9.935439109802246,0.019700000062584877,-0.016699999570846558,0.11819999665021896,0.5900000114378995,-0.02899999937514897,0.021000000237532696
0.12687353789806366,-0.04594951868057251,9.931427001953125,0.009800000116229057,-0.008700000122189522,0.11819999665021896,-0.03999999902313467,0.024999999806340833,-0.021999999295971403
0.11422257125377655,-0.05106353387236595,9.938838958740234,-0.009599999524652958,-0.018299998715519905,0.11819999665021896,-0.838000018054537,-0.017999999727163266,-0.09000000197086964
0.11357135325670242,-0.04571009799838066,9.934002876281738,-0.00969999935477972,-0.0064999996684491634,0.11819999665021896,-0.14300000209392072,0.05999999686717535,0.0329999989439571
0.11541967839002609,-0.046935927122831345,9.935391426086426,0.00019999999494757503,-0.006000000052154064,0.11819999665021896,0.4709999734062945,0.014999999216793838,0.09399999820462447
0.10992259532213211,-0.05197333171963692,9.952112197875977,-0.009499999694526196,-0.016999999061226845,0.1378999948501587,-0.33600000380052314,0.0039999999856897995,-0.021000000237532696
0.12066776305437088,-0.04599740356206894,9.932182312011719,0.00029999998514540493,-0.006099999882280827,0.11819999665021896,-0.5600000063342052,-0.017999999727163266,-0.0269999995907449
0.11364796757698059,-0.05843767523765564,9.943340301513672,-0.009499999694526196,-0.02419999986886978,0.12809999287128448,-0.6859999744088683,-0.0030000000934877653,0.012000000373951061
0.11735418438911438,-0.045231256633996964,9.944250106811523,0.00019999999494757503,-0.002899999963119626,0.12809999287128448,-0.5270000007201415,0.008999999863581633,0.010999999647985701
0.1312788724899292,-0.04497268423438072,9.931119918823242,0.009999999776482582,-0.0011999999405816197,0.10849999636411667,-0.5260000183369693,0.046999999102312236,0.01700000066872456
0.12258312851190567,-0.04649539664387703,9.93054485321045,0.00029999998514540493,0.00009999999747378752,0.10849999636411667,-0.7299999996812375,-0.08100000043976135,-0.1189999980109653
0.12231498211622238,-0.04452257603406906,9.938119888305664,0.00009999999747378752,0.001999999862164259,0.11829999834299088,-0.5810000099067912,-0.0019999999928448997,-0.0019999999928448997
0.11946108937263489,-0.048065993934869766,9.945724487304688,0.00009999999747378752,-0.006199999712407589,0.12809999287128448,-0.03699999851276524,0.004999999877891834,0.06800000267489824
0.12114660441875458,-0.03668874874711037,9.93451976776123,0.00009999999747378752,0.013399999588727951,0.11829999834299088,0.7339999825747792,0.019999999511567335,0.12499999903170415
0.11637736111879349,-0.05495171621441841,9.942248344421387,0.00019999999494757503,-0.008100000210106373,0.12809999287128448,-0.10600000024610218,-0.015999999942759198,0.0539999991814898
0.11605174094438553,-0.03047339990735054,9.948884963989258,0.00009999999747378752,0.011699999682605267,0.12809999287128448,-0.22199999774669807,-0.0009999999964224499,-0.09399999820462447
0.12201809883117676,-0.040155552327632904,9.944230079650879,0.00009999999747378752,0.0023999998811632395,0.12809999287128448,-0.26900001018922354,-0.004999999877891834,-0.05900000114378995
0.12242989987134933,-0.056455276906490326,9.939298629760742,0.00009999999747378752,-0.0064999996684491634,0.11829999834299088,0.05099999867112037,0.021999999295971403,0.05900000114378995
0.11914505064487457,-0.046457089483737946,9.931818962097168,0.00009999999747378752,0.003000000026077032,0.11829999834299088,-0.4500000231945614,-0.009999999755783667,0.019000000453128628
0.12570516765117645,-0.054798487573862076,9.938762664794922,0.00009999999747378752,0.004299999680370092,0.11829999834299088,-0.22800001210765014,-0.004999999877891834,-0.0749999994190225
0.11371500045061111,-0.037100546061992645,9.93944263458252,0.009999999776482582,-0.0052999998442828655,0.11829999834299088,0.2069999951948509,0.004999999877891834,0.09200000008774706
0.12970826029777527,-0.05244259163737297,9.94510269165039,-0.009599999524652958,0.01489999983459711,0.11829999834299088,-0.05900000114378995,-0.01700000066872456,-0.06899999839828364
0.12469002604484558,-0.04045243188738823,9.937191009521484,0.009800000116229057,0.004799999762326479,0.11829999834299088,0.09000000197086964,-0.0039999999856897995,-0.019999999511567335
0.11072704195976257,-0.04032793268561363,9.933313369750977,0.009800000116229057,0.004799999762326479,0.11829999834299088,-0.1729999938574018,0.019000000453128628,0.06700000028140622
0.12706507742404938,-0.047855306416749954,9.932594299316406,0.00989999994635582,0.004900000058114529,0.11829999834299088,-0.3379999952472939,-0.02800000031671026,-0.07999999804626934
0.11716265231370926,-0.04784572497010231,9.926131248474121,0,0.006000000052154064,0.10849999636411667,0.2469999975530389,-0.007999999971379599,-0.021000000237532696
0.1163581982254982,-0.05007712170481682,9.938694953918457,0,-0.004299999680370092,0.11829999834299088,0.0039999999856897995,0.013000000266153095,0.12499999903170415
0.12044750154018402,-0.0456143319606781,9.93233585357666,0,0.005399999674409628,0.11829999834299088,-0.2360000045751598,-0.009999999755783667,-0.11400000605382507
0.11007582396268845,-0.04767334461212158,9.940658569335938,-0.009800000116229057,0.006099999882280827,0.11829999834299088,-0.19799999366374263,-0.023000000021936765,-0.08799999718388561
0.12055283784866333,-0.054511185735464096,9.951576232910156,0,-0.0030999998562037945,0.1378999948501587,-0.09399999820462447,-0.015999999942759198,-0.1079999983629796
0.11654973775148392,-0.048496946692466736,9.949382781982422,-0.00009999999747378752,-0.00279999990016222,0.12809999287128448,-0.0859999990670082,0.041000001416626686,-0.11299999699022645
0.11943235993385315,-0.04018428176641464,9.93392562866211,0.00969999935477972,0.0071000000461936,0.11829999834299088,0.038000000906257256,-0.019999999511567335,-0.149999998838045
0.11771810799837112,-0.03303998336195946,9.949095726013184,0,0.007699999958276749,0.11829999834299088,0.038000000906257256,-0.019999999511567335,-0.149999998838045
0.10897448658943176,-0.04620809108018875,9.95034122467041,-0.00009999999747378752,0.017400000244379044,0.12809999287128448,-0.17400000292100043,-0.019000000453128628,-0.21100000476881897
0.11716265231370926,-0.03289633244276047,9.936675071716309,-0.00019999999494757503,0.018299998715519905,0.11829999834299088,0.007000000079177565,0.007999999971379599,0.14600000260429016
0.1163390502333641,-0.031833305954933167,9.945350646972656,-0.00019999999494757503,0.018299998715519905,0.11829999834299088,0.043999998591942806,-0.0329999989439571,0.24399999704266945
0.1278408020734787,-0.04818091541528702,9.934759140014648,-0.00019999999494757503,0.018299998715519905,0.12809999287128448,0.10900000075647161,-0.015999999942759198,0.2549999900205486
0.11569740623235703,-0.04932055622339249,9.941224098205566,0.009399999864399433,-0.0013000000035390258,0.11829999834299088,0.10900000075647161,-0.015999999942759198,0.2549999900205486
0.11569740623235703,-0.04932055622339249,9.941224098205566,-0.00029999998514540493,-0.0015999999595806003,0.12809999287128448,0.08200000283325337,-0.049999999612681666,0.321000001248676
0.10697293281555176,-0.03220680356025696,9.940620422363281,-0.010300000198185444,0.007899999618530273,0.1378999948501587,0.15800000464576788,0.017999999727163266,0.18900000547284757
0.12017935514450073,-0.030789434909820557,9.956747055053711,-0.00039999998989515007,0.017400000244379044,0.1378999948501587,-0.0749999994190225,-0.0030000000934877653,-0.09099999769425504
0.1202559694647789,-0.0550953708589077,9.937430381774902,-0.0004999999655410647,-0.0017999999690800905,0.11829999834299088,0.10999999647985702,-0.02899999937514897,-0.149999998838045
0.11636777967214584,-0.0449056476354599,9.93392562866211,-0.0004999999655410647,-0.0017999999690800905,0.11829999834299088,-0.03599999945432653,0.014999999216793838,0.057000003026912535
0.13013921678066254,-0.04931097850203514,9.94379997253418,-0.0004999999655410647,0.007599999662488699,0.11829999834299088,0.07600000181251451,0.02800000031671026,0.010999999647985701
0.110439732670784,-0.03399766609072685,9.953375816345215,0.009200000204145908,-0.002099999925121665,0.12809999287128448,-0.18199999538851008,-0.0030000000934877653,0.0429999995335041
0.11708603799343109,-0.048286259174346924,9.937870979309082,-0.00039999998989515007,-0.0018999999156221747,0.11829999834299088,0.0329999989439571,-0.017999999727163266,0.0429999995335041
0.11622412502765656,-0.05193502455949783,9.932470321655273,-0.0004999999655410647,-0.001999999862164259,0.11829999834299088,-0.031999999885518396,-0.0039999999856897995,-0.035000000395887826
0.12480494379997253,-0.04932055622339249,9.946117401123047,-0.0004999999655410647,-0.001999999862164259,0.11829999834299088,-0.10600000024610218,0.021000000237532696,-0.041000001416626686
0.110899418592453,-0.04741477221250534,9.93877124786377,-0.010199999436736107,0.008100000210106373,0.11829999834299088,0.11500000177721047,0.024000000747902123,0.05200000106461238
0.10976935923099518,-0.04308605194091797,9.954822540283203,-0.010099999606609344,0.007699999958276749,0.1378999948501587,0.06399999977103679,-0.0030000000934877653,0.07399999702553048
0.11177091300487518,-0.054875101894140244,9.957925796508789,-0.010099999606609344,-0.002199999988079071,0.1378999948501587,0.004999999877891834,0.0019999999928448997,-0.0019999999928448997
0.11105264723300934,-0.04742434620857239,9.935908317565918,-0.00989999994635582,0.007400000002235174,0.11829999834299088,-0.03999999902313467,-0.0039999999856897995,0.0009999999964224499
0.10685800760984421,-0.04549941048026085,9.93403148651123,-0.00969999935477972,0.0072999997064471245,0.11829999834299088,-0.007000000079177565,0,-0.09899999683187131
0.11035354435443878,-0.04296155646443367,9.947372436523438,-0.009399999864399433,0.007199999876320362,0.12809999287128448,-0.03100000082707969,-0.004999999877891834,-0.004999999877891834
0.1286548227071762,-0.050201620906591415,9.94553279876709,0.00989999994635582,-0.0023999998811632395,0.12809999287128448,-0.05499999823992851,0.03100000082707969,-0.04200000047506539
0.12081141769886017,-0.03902548551559448,9.936616897583008,0.00019999999494757503,0.0072999997064471245,0.11829999834299088,-0.03100000082707969,-0.029999998433587676,0.03400000133744912
0.12208513915538788,-0.05239471048116684,9.949402809143066,0.00009999999747378752,-0.002300000051036477,0.12809999287128448,0.05200000106461238,-0.0030000000934877653,0.013000000266153095
0.11786176264286041,-0.04114196076989174,9.929137229919434,0.00009999999747378752,0.0071000000461936,0.10849999636411667,-0.006000000186975531,0.013000000266153095,0.007000000079177565
0.11216355860233307,-0.04257848486304283,9.941118240356445,-0.00930000003427267,0.00699999975040555,0.12809999287128448,0.029999998433587676,0.01700000066872456,0.024999999806340833
0.12441229820251465,-0.05258624628186226,9.931530952453613,0.00039999998989515007,-0.002699999837204814,0.11829999834299088,-0.024999999806340833,0.007000000079177565,-0.023000000021936765
0.12044750154018402,-0.04341166839003563,9.928735733032227,0.00039999998989515007,0.0066999997943639755,0.10849999636411667,-0.009999999755783667,-0.007000000079177565,0.031999999885518396
0.11993992328643799,-0.04066311940550804,9.94002628326416,0.00039999998989515007,0.0066999997943639755,0.10849999636411667,0.02600000053230619,-0.0030000000934877653,-0.03400000133744912
0.12226708978414536,-0.04069185256958008,9.932489395141602,0.00039999998989515007,0.006399999838322401,0.11829999834299088,-0.06899999839828364,0.0030000000934877653,0.021999999295971403
0.11262324452400208,-0.042003877460956573,9.938360214233398,0.00039999998989515007,0.006399999838322401,0.11829999834299088,0.08400000095013078,0.023000000021936765,0.04500000098543482
0.12270762771368027,-0.0492822490632534,9.93856143951416,0.0005999999702908099,-0.0032999999821186066,0.11829999834299088,-0.05300000012305109,-0.049999999612681666,-0.04600000004387353
0.1179000735282898,-0.03720589354634285,9.940016746520996,0.0004999999655410647,0.016099998727440834,0.11829999834299088,0.05499999823992851,0.024999999806340833,0
0.107566699385643,-0.04661031812429428,9.93397331237793,-0.008999999612569809,0.006000000052154064,0.11829999834299088,0.0030000000934877653,0.014999999216793838,0.015999999942759198
0.10975020378828049,-0.04566221684217453,9.933370590209961,-0.008799999952316284,0.0058999997563660145,0.11829999834299088,0.008999999863581633,-0.0009999999964224499,0.02800000031671026
0.11730630695819855,-0.057786453515291214,9.951460838317871,0.0008999999845400453,-0.013399999588727951,0.1378999948501587,-0.02600000053230619,-0.015999999942759198,0.06200000165415938
0.12361742556095123,-0.05255751311779022,9.94269847869873,0.0008999999845400453,-0.003499999875202775,0.12809999287128448,-0.007000000079177565,-0.02800000031671026,-0.007999999971379599
0.10911813378334045,-0.04996220022439957,9.930516242980957,-0.008700000122189522,-0.003399999812245369,0.10849999636411667,-0.013000000266153095,-0.012000000373951061,0.0269999995907449
0.1216924786567688,-0.04888959974050522,9.941194534301758,0.0009999999310821295,-0.003399999812245369,0.12809999287128448,0.007000000079177565,0.03699999851276524,-0.019000000453128628
0.11672212183475494,-0.05402276664972305,9.934404373168945,0.0009999999310821295,-0.0032999999821186066,0.11829999834299088,-0.03999999902313467,-0.01700000066872456,-0.014999999216793838
0.1157548651099205,-0.038134846836328506,9.940974235534668,0.0009999999310821295,0.016099998727440834,0.12809999287128448,-0.05999999686717535,-0.021000000237532696,-0.038000000906257256
0.13043610751628876,-0.04587290436029434,9.938705444335938,0.010599999688565731,0.006300000008195639,0.11829999834299088,0.015999999942759198,0.0039999999856897995,0.021000000237532696
0.11993992328643799,-0.04185064882040024,9.933762550354004,0.0007999999797903001,0.006199999712407589,0.11829999834299088,-0.0019999999928448997,-0.0269999995907449,0.02899999937514897
0.11430876702070236,-0.0465720109641552,9.925661087036133,-0.008799999952316284,0.006099999882280827,0.10849999636411667,0,-0.0030000000934877653,0.03999999902313467
0.12306196242570877,-0.05492299050092697,9.956930160522461,0.0008999999845400453,-0.003599999938160181,0.1378999948501587,-0.035000000395887826,-0.017999999727163266,-0.01400000015835513
0.12439314275979996,-0.04257848486304283,9.94287109375,0.0007999999797903001,0.006099999882280827,0.12809999287128448,-0.05600000063342052,-0.01700000066872456,0.007999999971379599
0.10906067490577698,-0.05900270864367485,9.912511825561523,-0.008799999952316284,-0.012999999336898327,0.09869999438524246,0.013000000266153095,0.023000000021936765,0.024000000747902123
0.11608047783374786,-0.01874181255698204,9.916773796081543,0.0009999999310821295,0.03529999777674675,0.09869999438524246,-0.06700000028140622,-0.007999999971379599,-0.05900000114378995
0.12634681165218353,-0.043181825429201126,9.954621315002441,0.010699999518692493,0.006000000052154064,0.1378999948501587,0.038000000906257256,0.008999999863581633,0.019999999511567335
0.10921390354633331,-0.06726749241352081,9.945274353027344,-0.008700000122189522,-0.023099999874830246,0.12809999287128448,0.06500000216452881,-0.006000000186975531,-0.05600000063342052
0.12391430884599686,-0.03762727230787277,9.931675910949707,0.0009999999310821295,0.015599999576807022,0.11829999834299088,0.041000001416626686,0.035000000395887826,0.019000000453128628
0.11052592098712921,-0.037636853754520416,9.923544883728027,-0.00839999970048666,0.015199999324977398,0.10849999636411667,-0.024999999806340833,0.017999999727163266,0.0039999999856897995
0.1262797713279724,-0.05429091677069664,9.95034122467041,0.010999999940395355,-0.00419999985024333,0.1378999948501587,0.05499999823992851,0.01700000066872456,0.012000000373951061
0.11519940942525864,-0.055440135300159454,9.936041831970215,0.0013000000035390258,-0.004299999680370092,0.11829999834299088,-0.0749999994190225,0.019999999511567335,0.01700000066872456
0.12843455374240875,-0.04127603769302368,9.92050838470459,0.010999999940395355,0.005499999970197678,0.09869999438524246,0,0.0009999999964224499,0.06399999977103679
0.12097422033548355,-0.04517379775643349,9.946423530578613,0.0011999999405816197,0.005399999674409628,0.12809999287128448,-0.0019999999928448997,-0.007000000079177565,0.010999999647985701
0.12097422033548355,-0.04517379775643349,9.946423530578613,0.0011999999405816197,0.005399999674409628,0.12809999287128448,-0.0019999999928448997,-0.007000000079177565,0.010999999647985701
0.1184842512011528,-0.04929182305932045,9.930554389953613,-0.00839999970048666,0.005399999674409628,0.12809999287128448,0.019000000453128628,-0.0009999999964224499,-0.04600000004387353
0.12153925001621246,-0.06395391374826431,9.927309036254883,0.0013000000035390258,-0.013899999670684338,0.10849999636411667,-0.031999999885518396,-0.01700000066872456,0.029999998433587676
0.10480856895446777,-0.05456864461302757,9.947420120239258,-0.017999999225139618,-0.003999999724328518,0.12809999287128448,0.023000000021936765,-0.007000000079177565,0.05600000063342052
0.11128249019384384,-0.04687846824526787,9.92641830444336,-0.007999999448657036,0.00559999980032444,0.10849999636411667,0.0039999999856897995,0.04200000047506539,-0.024999999806340833
0.11388739198446274,-0.05637866258621216,9.935361862182617,-0.007799999788403511,-0.004100000020116568,0.11829999834299088,0.012000000373951061,0,-0.006000000186975531
0.12489113956689835,-0.054990023374557495,9.926169395446777,0.011599999852478504,-0.004100000020116568,0.10849999636411667,-0.009999999755783667,0.007000000079177565,0.029999998433587676
0.11763191968202591,-0.0501154288649559,9.934510231018066,0.0018999999156221747,-0.003999999724328518,0.11829999834299088,0.038000000906257256,-0.0269999995907449,0.0030000000934877653
0.11427046358585358,-0.04365108534693718,9.941224098205566,-0.007799999788403511,0.005499999970197678,0.12809999287128448,-0.017999999727163266,0.013000000266153095,0.04500000098543482
0.11358092725276947,-0.03862326219677925,9.94722843170166,-0.007599999662488699,0.005499999970197678,0.12809999287128448,0.021000000237532696,-0.021000000237532696,-0.012000000373951061
0.1175457239151001,-0.03438073769211769,9.941970825195312,0.001999999862164259,0.015099999494850636,0.12809999287128448,-0.0009999999964224499,-0.03100000082707969,-0.0539999991814898
0.11661677807569504,-0.050699613988399506,9.945944786071777,0.0018999999156221747,-0.004399999976158142,0.12809999287128448,-0.010999999647985701,-0.007999999971379599,0.010999999647985701
0.12348334491252899,-0.057403381913900375,9.933341979980469,0.0018999999156221747,-0.004299999680370092,0.11829999834299088,0.0009999999964224499,0.006000000186975531,0.007000000079177565
0.11390653997659683,-0.03900633379817009,9.93708610534668,-0.007599999662488699,0.0052999998442828655,0.11829999834299088,-0.01700000066872456,-0.006000000186975531,0.007999999971379599
0.1152760237455368,-0.04590163379907608,9.938838958740234,0.002099999925121665,0.0052999998442828655,0.11829999834299088,-0.01400000015835513,0,-0.01400000015835513
0.11807245016098022,-0.04132392257452011,9.933993339538574,0.002099999925121665,0.0052999998442828655,0.11829999834299088,0.01400000015835513,-0.0030000000934877653,0.0009999999964224499
0.11245086789131165,-0.04776911064982414,9.937823295593262,-0.007499999832361937,0.005200000014156103,0.11829999834299088,-0.0019999999928448997,-0.0030000000934877653,0
0.12197978794574738,-0.05988377332687378,9.937315940856934,0.002199999988079071,-0.0142000000923872,0.11829999834299088,-0.024000000747902123,-0.03400000133744912,0.009999999755783667
0.11609005182981491,-0.044091615825891495,9.95566463470459,0.002099999925121665,0.0052999998442828655,0.1378999948501587,0.015999999942759198,-0.0039999999856897995,0.023000000021936765
0.11651142686605453,-0.046313438564538956,9.926916122436523,0.002099999925121665,0.005200000014156103,0.10849999636411667,0,-0.0030000000934877653,0.035000000395887826
0.11505575478076935,-0.041697416454553604,9.92192554473877,0.002099999925121665,0.005200000014156103,0.10849999636411667,-0.004999999877891834,-0.012000000373951061,0.046999999102312236
0.11964304745197296,-0.05343858152627945,9.94063949584961,0.002099999925121665,-0.0044999998062849045,0.11829999834299088,-0.08200000283325337,-0.0019999999928448997,0.05600000063342052
0.1145673394203186,-0.03399766609072685,9.948175430297852,-0.007499999832361937,0.015099999494850636,0.12809999287128448,-0.01400000015835513,-0.0030000000934877653,0.004999999877891834
0.11642523854970932,-0.03011905588209629,9.939547538757324,0.002199999988079071,0.01489999983459711,0.11829999834299088,0.017999999727163266,-0.0030000000934877653,0.007999999971379599
0.11872366815805435,-0.03793372958898544,9.94603157043457,0.002199999988079071,0.014699999243021011,0.12809999287128448,-0.012000000373951061,0,0.07199999890865307
0.12705549597740173,-0.041908107697963715,9.934998512268066,0.011899999342858791,0.014599999412894249,0.12809999287128448,-0.017999999727163266,-0.0019999999928448997,0.03400000133744912
0.10981724411249161,-0.0629100427031517,9.934165000915527,0.011799999512732029,0.004799999762326479,0.11829999834299088,-0.007999999971379599,-0.019999999511567335,0.05600000063342052
0.1049809604883194,-0.04923436418175697,9.9530029296875,-0.007499999832361937,-0.014599999412894249,0.11829999834299088,-0.007999999971379599,-0.019999999511567335,0.05600000063342052
0.11642523854970932,-0.05092945694923401,9.95718765258789,0.002300000051036477,-0.004699999932199717,0.1378999948501587,-0.02800000031671026,-0.038000000906257256,-0.05300000012305109
0.12110830098390579,-0.031555578112602234,9.94105052947998,0.002199999988079071,0.014699999243021011,0.12809999287128448,-0.08400000095013078,0.029999998433587676,0.0030000000934877653
0.12363657355308533,-0.042310334742069244,9.938292503356934,0.002300000051036477,0.0050999997183680534,0.11829999834299088,-0.019999999511567335,0.021000000237532696,0.03899999996469596
0.11850340664386749,-0.045939940959215164,9.928811073303223,0.0023999998811632395,0.0050999997183680534,0.10849999636411667,0,-0.03699999851276524,0.035000000395887826
0.12383769452571869,-0.05582320690155029,9.95006275177002,0.002300000051036477,-0.004600000102072954,0.12809999287128448,0.041000001416626686,-0.0039999999856897995,0.041000001416626686
0.11239340156316757,-0.04143884405493736,9.953194618225098,-0.0072999997064471245,0.004999999888241291,0.1378999948501587,0.06399999977103679,0.007000000079177565,0.06700000028140622
0.12194148451089859,-0.038450878113508224,9.932853698730469,0.0023999998811632395,0.004799999762326479,0.11829999834299088,-0.021999999295971403,0.0039999999856897995,0.03400000133744912
0.11616666615009308,-0.03460100293159485,9.934768676757812,0.0023999998811632395,0.014499999582767487,0.11829999834299088,0.004999999877891834,-0.0030000000934877653,0.007999999971379599
0.12524548172950745,-0.05652231350541115,9.946232795715332,0.01209999993443489,-0.004999999888241291,0.12809999287128448,0.0019999999928448997,-0.0039999999856897995,0.004999999877891834
0.11403103917837143,-0.03799119219183922,9.927988052368164,-0.0072999997064471245,0.014299999922513962,0.10839999467134476,0.007000000079177565,0,-0.023000000021936765
0.12508267164230347,-0.05462610721588135,9.931465148925781,0.01209999993443489,-0.005200000014156103,0.11829999834299088,0.01700000066872456,-0.029999998433587676,0.08200000283325337
0.11486422270536423,-0.04549941048026085,9.93397331237793,-0.0072999997064471245,0.004399999976158142,0.11829999834299088,-0.0039999999856897995,0.041000001416626686,0.03400000133744912
0.11547713726758957,-0.051293376833200455,9.93478775024414,0.0024999999441206455,-0.005200000014156103,0.11829999834299088,0.01400000015835513,-0.0030000000934877653,0.009999999755783667
0.11920251697301865,-0.0471561960875988,9.93887710571289,0.0024999999441206455,0.004399999976158142,0.11829999834299088,-0.019999999511567335,-0.0039999999856897995,0.0269999995907449
0.10350612550973892,-0.04617936164140701,9.945561408996582,-0.01679999940097332,0.004399999976158142,0.12809999287128448,-0.0030000000934877653,-0.0030000000934877653,0.014999999216793838
0.12255439907312393,-0.06199067085981369,9.940620422363281,0.002699999837204814,-0.01489999983459711,0.11829999834299088,0.019000000453128628,-0.0030000000934877653,-0.021000000237532696
0.12598289549350739,-0.0579492561519146,9.943368911743164,0.012399999424815178,-0.014800000004470348,0.12809999287128448,0.017999999727163266,0,0.038000000906257256
0.12176909297704697,-0.04996220022439957,9.945906639099121,0.0026000000070780516,-0.004999999888241291,0.12809999287128448,-0.008999999863581633,-0.021000000237532696,0.004999999877891834
0.12078268080949783,-0.054137688130140305,9.928160667419434,0.0024999999441206455,-0.004900000058114529,0.10839999467134476,-0.05200000106461238,0,0.004999999877891834
0.11834059655666351,-0.039044640958309174,9.941012382507324,0.0026000000070780516,0.004900000058114529,0.12809999287128448,-0.0269999995907449,-0.0019999999928448997,0.031999999885518396
0.12012188881635666,-0.04841075837612152,9.936013221740723,0.0026000000070780516,-0.004699999932199717,0.11829999834299088,0.010999999647985701,-0.0019999999928448997,-0.03899999996469596
0.11893436312675476,-0.05225105583667755,9.94957447052002,0.0026000000070780516,-0.004699999932199717,0.12809999287128448,0,0.01400000015835513,0.0329999989439571
0.1292964667081833,-0.048449065536260605,9.934328079223633,0.0026000000070780516,-0.004699999932199717,0.12809999287128448,0.010999999647985701,-0.021999999295971403,0.0019999999928448997
0.11673169583082199,-0.048994943499565125,9.924798965454102,0.012299999594688416,-0.004699999932199717,0.11829999834299088,0.01400000015835513,-0.007000000079177565,0.0749999994190225
0.12406753748655319,-0.0486980639398098,9.940896987915039,0.0023999998811632395,-0.004600000102072954,0.12809999287128448,0.007000000079177565,-0.0030000000934877653,0.024000000747902123
0.11781387776136398,-0.05086242035031319,9.937344551086426,0.0023999998811632395,-0.004600000102072954,0.12809999287128448,0.0039999999856897995,-0.01400000015835513,0.029999998433587676
0.11428003758192062,-0.053898271173238754,9.931417465209961,0.0023999998811632395,-0.004600000102072954,0.11829999834299088,-0.0039999999856897995,-0.021000000237532696,0.02899999937514897
0.12785036861896515,-0.05070919170975685,9.928295135498047,0.012199999764561653,-0.0044999998062849045,0.10849999636411667,0.02600000053230619,0.06399999977103679,0.009999999755783667
0.12186487019062042,-0.04435976967215538,9.936531066894531,0.012199999764561653,-0.0044999998062849045,0.10849999636411667,-0.014999999216793838,0.008999999863581633,-0.038000000906257256
0.11404062062501907,-0.04992389306426048,9.945198059082031,-0.00699999975040555,-0.004600000102072954,0.12809999287128448,0.10499999785261017,0.006000000186975531,0.03999999902313467
0.1266532689332962,-0.03597048670053482,9.934778213500977,0.012399999424815178,0.014499999582767487,0.11829999834299088,0.029999998433587676,-0.0030000000934877653,-0.010999999647985701
0.11737334728240967,-0.055555056780576706,9.93429946899414,0.0026000000070780516,-0.0050999997183680534,0.11829999834299088,-0.010999999647985701,-0.0019999999928448997,0.03899999996469596
0.11839806288480759,-0.031239543110132217,9.94139575958252,0.0026000000070780516,0.014299999922513962,0.12809999287128448,-0.010999999647985701,0.008999999863581633,-0.024999999806340833
0.11636777967214584,-0.04303817078471184,9.94815731048584,0.0026000000070780516,0.0044999998062849045,0.12809999287128448,-0.01400000015835513,0.0009999999964224499,-0.014999999216793838
0.11636777967214584,-0.04303817078471184,9.94815731048584,0.0026000000070780516,0.0044999998062849045,0.12809999287128448,-0.01400000015835513,0.0009999999964224499,-0.014999999216793838
0.12235328555107117,-0.05604347214102745,9.940485954284668,0.0026000000070780516,-0.005200000014156103,0.11829999834299088,0.02899999937514897,-0.0030000000934877653,0.0009999999964224499
0.1184842512011528,-0.048688482493162155,9.948281288146973,0.0026000000070780516,-0.005200000014156103,0.12809999287128448,0.021000000237532696,0.038000000906257256,0.04900000055424296
0.12823344767093658,-0.04519294947385788,9.937565803527832,0.012399999424815178,0.004399999976158142,0.11829999834299088,-0.007999999971379599,-0.0030000000934877653,-0.02899999937514897
0.12178825587034225,-0.03174711391329765,9.948348999023438,0.0026000000070780516,0.014099999330937862,0.12809999287128448,-0.0269999995907449,0.008999999863581633,0.0329999989439571
0.12320561707019806,-0.05206909775733948,9.947372436523438,-0.00699999975040555,0.004299999680370092,0.11829999834299088,-0.03899999996469596,-0.009999999755783667,-0.06500000216452881
0.12320561707019806,-0.05206909775733948,9.947372436523438,0.002699999837204814,-0.0052999998442828655,0.12809999287128448,0.01700000066872456,-0.0019999999928448997,0.0329999989439571
0.11103349924087524,-0.058207832276821136,9.940179824829102,-0.006899999920278788,-0.014999999664723873,0.11829999834299088,-0.035000000395887826,0.007999999971379599,0.007000000079177565
0.1225065141916275,-0.03616202250123024,9.946203231811523,0.01249999925494194,0.004600000102072954,0.09860000014305115,-0.0009999999964224499,0.008999999863581633,-0.007999999971379599
0.11985373497009277,-0.04492479935288429,9.938398361206055,0.002699999837204814,0.0142000000923872,0.12809999287128448,0.01700000066872456,-0.021000000237532696,0.02800000031671026
0.12128067761659622,-0.04223372042179108,9.943483352661133,0.002699999837204814,0.004299999680370092,0.12809999287128448,-0.007000000079177565,-0.0039999999856897995,0.07399999702553048
0.12233413010835648,-0.04588248208165169,9.93131160736084,0.002699999837204814,0.004299999680370092,0.12809999287128448,-0.007000000079177565,-0.0039999999856897995,0.07399999702553048
0.12236285954713821,-0.05137956887483597,9.93429946899414,0.002699999837204814,0.004299999680370092,0.11829999834299088,-0.0009999999964224499,-0.021000000237532696,-0.0030000000934877653
0.11113884299993515,-0.059893347322940826,9.939863204956055,0.002699999837204814,-0.005399999674409628,0.11829999834299088,-0.006000000186975531,0.013000000266153095,0.024999999806340833
0.11863747984170914,-0.04113238677382469,9.940295219421387,-0.006899999920278788,-0.015099999494850636,0.11829999834299088,-0.004999999877891834,0.006000000186975531,-0.007000000079177565
0.10917560011148453,-0.043287165462970734,9.934845924377441,0.00279999990016222,0.004399999976158142,0.11829999834299088,-0.01400000015835513,-0.009999999755783667,-0.012000000373951061
0.11558248102664948,-0.04770207777619362,9.949018478393555,-0.006799999624490738,0.004399999976158142,0.11829999834299088,-0.004999999877891834,-0.024999999806340833,-0.046999999102312236
0.11390653997659683,-0.038307227194309235,9.939193725585938,-0.006799999624490738,0.004299999680370092,0.11829999834299088,-0.012000000373951061,-0.046999999102312236,0.009999999755783667
0.12405795603990555,-0.043612778186798096,9.946260452270508,0.00279999990016222,0.004299999680370092,0.12809999287128448,0.004999999877891834,0.041000001416626686,0.04200000047506539
0.11851298809051514,-0.045010991394519806,9.933696746826172,0.002899999963119626,0.004299999680370092,0.11829999834299088,-0.0019999999928448997,-0.02899999937514897,0.021999999295971403
0.1248815581202507,-0.05191586911678314,9.933753967285156,0.01249999925494194,-0.005399999674409628,0.11829999834299088,0,-0.0019999999928448997,0.043999998591942806
0.12175951898097992,-0.05427176132798195,9.932394027709961,0.002699999837204814,-0.0052999998442828655,0.11829999834299088,0.004999999877891834,-0.019000000453128628,0.01400000015835513
0.11773726344108582,-0.03749319911003113,9.94149112701416,0.002699999837204814,0.0139999995008111,0.12809999287128448,-0.004999999877891834,-0.0030000000934877653,0.10499999785261017
0.10956824570894241,-0.04582501947879791,9.936041831970215,-0.006899999920278788,0.00419999985024333,0.11829999834299088,-0.017999999727163266,-0.0009999999964224499,0.04600000004387353
0.1270459145307541,-0.04749138653278351,9.931732177734375,0.01249999925494194,0.00419999985024333,0.11829999834299088,-0.04900000055424296,-0.004999999877891834,0.007999999971379599
0.12422076612710953,-0.04293282330036163,9.943923950195312,0.002699999837204814,0.004299999680370092,0.12809999287128448,-0.0329999989439571,-0.0030000000934877653,-0.03599999945432653
0.11664550751447678,-0.05237555876374245,9.91984748840332,-0.006899999920278788,0.004299999680370092,0.11829999834299088,-0.007999999971379599,-0.01400000015835513,0.007999999971379599
0.1105450838804245,-0.04061523824930191,9.943062782287598,-0.006899999920278788,0.004399999976158142,0.12809999287128448,-0.07799999992939192,-0.0039999999856897995,0.008999999863581633
0.11962389200925827,-0.044848185032606125,9.922760009765625,0.00279999990016222,0.0044999998062849045,0.10839999467134476,0.017999999727163266,-0.0019999999928448997,-0.029999998433587676
0.12099337577819824,-0.034352004528045654,9.934404373168945,0.00279999990016222,0.014099999330937862,0.11829999834299088,-0.006000000186975531,0.013000000266153095,-0.07399999702553048
0.11827356368303299,-0.044043734669685364,9.948713302612305,0.00279999990016222,0.014099999330937862,0.11829999834299088,-0.007000000079177565,-0.007000000079177565,-0.0009999999964224499
0.11443326622247696,-0.038853105157613754,9.943694114685059,-0.006799999624490738,0.004299999680370092,0.12809999287128448,-0.013000000266153095,0.012000000373951061,0.024999999806340833
0.12253524363040924,-0.032925061881542206,9.942506790161133,-0.006799999624490738,0.004299999680370092,0.12809999287128448,-0.007000000079177565,0.013000000266153095,0.008999999863581633
0.12391430884599686,-0.062096014618873596,9.922567367553711,0.003000000026077032,0.0139999995008111,0.12809999287128448,-0.01400000015835513,-0.009999999755783667,0.0030000000934877653
0.12158713489770889,-0.05836106091737747,9.944690704345703,0.003000000026077032,-0.014999999664723873,0.12809999287128448,-0.0269999995907449,-0.021000000237532696,0.0329999989439571
0.12197021394968033,-0.045039720833301544,9.942229270935059,0.003000000026077032,-0.014999999664723873,0.12809999287128448,-0.009999999755783667,0,0.09800000110848592
0.12812809646129608,-0.04625597596168518,9.92366886138916,0.012600000016391277,0.0044999998062849045,0.10839999467134476,-0.0030000000934877653,-0.02600000053230619,-0.08899999957737763
0.10574710369110107,-0.03749319911003113,9.937641143798828,-0.006799999624490738,0.0142000000923872,0.11829999834299088,0.007999999971379599,0.02800000031671026,0.035000000395887826
0.10956824570894241,-0.04861186817288399,9.939432144165039,-0.0066999997943639755,-0.0052999998442828655,0.11819999665021896,-0.004999999877891834,0.02600000053230619,0.03899999996469596
0.1274673044681549,-0.058686673641204834,9.918593406677246,0.012799999676644802,-0.01489999983459711,0.09860000014305115,-0.007000000079177565,0.031999999885518396,-0.0039999999856897995
0.11159852892160416,-0.04961743578314781,9.92525863647461,-0.0064999996684491634,-0.004999999888241291,0.10839999467134476,-0.013000000266153095,-0.0030000000934877653,0.0329999989439571
0.11829271912574768,-0.05717353895306587,9.93692398071289,0.0031999999191612005,-0.004900000058114529,0.11819999665021896,0,-0.03599999945432653,-0.04200000047506539
0.11326489597558975,-0.046955082565546036,9.942544937133789,-0.0064999996684491634,0.004699999932199717,0.12809999287128448,0.008999999863581633,0.0009999999964224499,-0.06200000165415938
0.11692323535680771,-0.044206537306308746,9.946682929992676,0.0031999999191612005,0.004600000102072954,0.12809999287128448,0.009999999755783667,-0.0019999999928448997,0.006000000186975531
0.1111484244465828,-0.04367023706436157,9.950321197509766,-0.006399999838322401,0.004600000102072954,0.1378999948501587,-0.009999999755783667,-0.029999998433587676,0.04200000047506539
0.10794977098703384,-0.0401747040450573,9.953817367553711,-0.006399999838322401,0.004600000102072954,0.1378999948501587,-0.0039999999856897995,-0.013000000266153095,0.0329999989439571
0.1164827048778534,-0.061052143573760986,9.955694198608398,0.0031999999191612005,-0.014800000004470348,0.1378999948501587,-0.019999999511567335,0.0019999999928448997,0.05300000012305109
0.11428961157798767,-0.042808327823877335,9.931205749511719,-0.006399999838322401,0.004699999932199717,0.11819999665021896,0.021000000237532696,0.01400000015835513,0.038000000906257256
0.10703997313976288,-0.036985624581575394,9.948539733886719,-0.006199999712407589,0.014299999922513962,0.12809999287128448,-0.0039999999856897995,0.009999999755783667,0.04600000004387353
0.11103349924087524,-0.04173572361469269,9.943071365356445,-0.006099999882280827,0.0044999998062849045,0.12799999117851257,-0.01400000015835513,-0.015999999942759198,0.01700000066872456
0.12912409007549286,-0.04617936164140701,9.947151184082031,0.013299999758601189,0.0044999998062849045,0.12809999287128448,-0.035000000395887826,-0.02899999937514897,0.04200000047506539
0.11522813886404037,-0.06014234572649002,9.9351806640625,0.003399999812245369,-0.014800000004470348,0.11819999665021896,0.0019999999928448997,0.0019999999928448997,-0.06099999926066736
0.11805330216884613,-0.057432111352682114,9.93958568572998,0.003399999812245369,-0.004999999888241291,0.11819999665021896,-0.004999999877891834,-0.02800000031671026,-0.023000000021936765
0.11805330216884613,-0.04757757484912872,9.945906639099121,0.0032999999821186066,0.004699999932199717,0.12809999287128448,0.01700000066872456,-0.006000000186975531,0.01700000066872456
0.10280702263116837,-0.05369715392589569,9.925191879272461,-0.01599999889731407,-0.004999999888241291,0.10839999467134476,-0.0039999999856897995,-0.009999999755783667,-0.013000000266153095
0.11863747984170914,-0.04268382489681244,9.93834114074707,-0.006099999882280827,0.004699999932199717,0.12809999287128448,0.02600000053230619,-0.0019999999928448997,-0.009999999755783667
0.11856086552143097,-0.04142926633358002,9.93059253692627,0.003499999875202775,0.004600000102072954,0.10839999467134476,0.0009999999964224499,0,-0.017999999727163266
0.1271512657403946,-0.048496946692466736,9.950982093811035,0.013299999758601189,-0.0050999997183680534,0.1378999948501587,0.021999999295971403,-0.0030000000934877653,-0.02899999937514897
0.1093767061829567,-0.051456183195114136,9.936607360839844,-0.006199999712407589,-0.0050999997183680534,0.11819999665021896,-0.007000000079177565,-0.006000000186975531,0.023000000021936765
0.11067915707826614,-0.0414675734937191,9.941644668579102,-0.006099999882280827,0.004600000102072954,0.12799999117851257,-0.03599999945432653,-0.0030000000934877653,-0.0969999987149939
0.11521855741739273,-0.034869153052568436,9.949478149414062,0.003599999938160181,0.014399999752640724,0.12799999117851257,-0.007000000079177565,0.007999999971379599,0.041000001416626686
0.11795752495527267,-0.05359181389212608,9.948099136352539,0.003599999938160181,-0.0050999997183680534,0.12799999117851257,0.0039999999856897995,0.008999999863581633,0.0269999995907449
0.12223836779594421,-0.04353616386651993,9.938407897949219,0.003700000001117587,0.004600000102072954,0.11819999665021896,-0.057000003026912535,-0.0030000000934877653,0.043999998591942806
0.11722011864185333,-0.06026684492826462,9.946328163146973,0.003700000001117587,-0.014699999243021011,0.12799999117851257,-0.0429999995335041,-0.013000000266153095,0.019000000453128628
0.11216355860233307,-0.035252224653959274,9.934778213500977,-0.006000000052154064,0.014599999412894249,0.11819999665021896,0.01400000015835513,-0.019000000453128628,0.0329999989439571
0.11767980456352234,-0.03954263776540756,9.937019348144531,0.003700000001117587,0.004699999932199717,0.11819999665021896,-0.03999999902313467,-0.007000000079177565,0.019999999511567335
0.1110239177942276,-0.0643274113535881,9.926896095275879,-0.006000000052154064,-0.014499999582767487,0.10839999467134476,-0.03999999902313467,0.0030000000934877653,-0.019000000453128628
0.1291336715221405,-0.056273315101861954,9.935065269470215,0.013399999588727951,-0.004600000102072954,0.11819999665021896,0.007000000079177565,-0.0019999999928448997,0.006000000186975531
0.10840945690870285,-0.03784754127264023,9.935420036315918,-0.006000000052154064,0.014800000004470348,0.11819999665021896,-0.010999999647985701,0,-0.02600000053230619
0.10648451000452042,-0.04228160157799721,9.944220542907715,-0.0058999997563660145,0.004999999888241291,0.12799999117851257,-0.007000000079177565,0.015999999942759198,-0.007000000079177565
0.12832920253276825,-0.05276820436120033,9.934088706970215,0.013599999248981476,-0.004699999932199717,0.11819999665021896,0.0030000000934877653,0.02600000053230619,0.013000000266153095
0.12137644737958908,-0.05322789400815964,9.95197868347168,0.0037999998312443495,-0.004600000102072954,0.1378999948501587,0.014999999216793838,-0.006000000186975531,0.03899999996469596
0.11044930666685104,-0.04450342059135437,9.935736656188965,-0.005799999926239252,0.004999999888241291,0.11819999665021896,-0.007000000079177565,-0.009999999755783667,0.05099999867112037
0.11498871445655823,-0.04907156154513359,9.941261291503906,0.0038999998942017555,-0.004699999932199717,0.12799999117851257,-0.0009999999964224499,-0.03999999902313467,0.043999998591942806
0.10905110090970993,-0.055909398943185806,9.943923950195312,-0.0058999997563660145,-0.004600000102072954,0.12799999117851257,-0.0039999999856897995,-0.023000000021936765,0.05799999875029794
0.14202405512332916,-0.052145712077617645,9.924981117248535,0.02319999970495701,-0.004600000102072954,0.10839999467134476,0.008999999863581633,-0.0039999999856897995,0.017999999727163266
0.1126902848482132,-0.045125916600227356,9.937967300415039,-0.006099999882280827,0.0050999997183680534,0.11819999665021896,-0.0329999989439571,0.013000000266153095,0.04500000098543482
0.10590990632772446,-0.030607474967837334,9.937583923339844,-0.0058999997563660145,0.014800000004470348,0.11819999665021896,-0.024000000747902123,-0.0030000000934877653,0.03899999996469596
0.1151706799864769,-0.045154642313718796,9.933849334716797,0.0037999998312443495,0.004999999888241291,0.11819999665021896,-0.0030000000934877653,0.006000000186975531,0.01400000015835513
0.11783303320407867,-0.042597636580467224,9.92956829071045,0.0037999998312443495,0.004999999888241291,0.10839999467134476,0,-0.007000000079177565,0.0030000000934877653
0.11258494108915329,-0.049109868705272675,9.941473007202148,-0.0058999997563660145,-0.004699999932199717,0.12799999117851257,-0.006000000186975531,-0.0019999999928448997,0.007999999971379599
0.11839806288480759,-0.06490202248096466,9.950972557067871,0.0037999998312443495,-0.014399999752640724,0.1378999948501587,-0.013000000266153095,-0.0030000000934877653,-0.05900000114378995
0.11274775117635727,-0.04604528844356537,9.935792922973633,-0.005799999926239252,0.0050999997183680534,0.11819999665021896,-0.007000000079177565,-0.0019999999928448997,0.010999999647985701
0.13360603153705597,-0.053639695048332214,9.934242248535156,0.013599999248981476,-0.0044999998062849045,0.11819999665021896,0.004999999877891834,-0.009999999755783667,-0.02899999937514897
0.11232636868953705,-0.05369715392589569,9.938972473144531,0.0037999998312443495,-0.0044999998062849045,0.11819999665021896,-0.004999999877891834,-0.03699999851276524,-0.0429999995335041
0.11534306406974792,-0.05729803442955017,9.928811073303223,0.003700000001117587,-0.004399999976158142,0.10839999467134476,-0.006000000186975531,-0.07099999651516105,-0.01700000066872456
0.11399272829294205,-0.037196315824985504,9.944469451904297,-0.006099999882280827,0.014999999664723873,0.12809999287128448,0.017999999727163266,-0.01400000015835513,0.031999999885518396
0.12014104425907135,-0.05729803442955017,9.937402725219727,0.003499999875202775,-0.0044999998062849045,0.11819999665021896,0.0030000000934877653,-0.0019999999928448997,-0.004999999877891834
0.11892478913068771,-0.054396264255046844,9.929041862487793,0.003499999875202775,-0.0044999998062849045,0.10839999467134476,0.02600000053230619,-0.0030000000934877653,0.02600000053230619
0.10231859982013702,-0.044541727751493454,9.9386568069458,-0.015799999237060547,0.0050999997183680534,0.11819999665021896,-0.024000000747902123,-0.015999999942759198,-0.03999999902313467
0.11657846719026566,-0.05104437842965126,9.939241409301758,0.003599999938160181,-0.0044999998062849045,0.11819999665021896,0,0.021000000237532696,-0.006000000186975531
0.12427821755409241,-0.043593622744083405,9.938005447387695,0.003700000001117587,0.005200000014156103,0.11819999665021896,-0.007999999971379599,-0.01700000066872456,0.029999998433587676
0.12018892914056778,-0.04971320182085037,9.932604789733887,0.003700000001117587,-0.0044999998062849045,0.11819999665021896,0.04200000047506539,0.0019999999928448997,0.03999999902313467
0.12397176027297974,-0.04422569274902344,9.94215202331543,0.003700000001117587,0.004999999888241291,0.12809999287128448,-0.013000000266153095,-0.007000000079177565,-0.07199999890865307
0.1237993836402893,-0.039896976202726364,9.94570541381836,0.003599999938160181,0.004999999888241291,0.12809999287128448,0.0019999999928448997,-0.02800000031671026,-0.0009999999964224499
0.1212136447429657,-0.052002061158418655,9.947774887084961,0.003599999938160181,-0.004600000102072954,0.12809999287128448,0,0,0.024999999806340833
0.1036689281463623,-0.04050031676888466,9.945599555969238,-0.015799999237060547,0.004999999888241291,0.12799999117851257,0.02600000053230619,0.0030000000934877653,-0.0859999990670082
0.10895533114671707,-0.036880284547805786,9.930373191833496,-0.0058999997563660145,0.014599999412894249,0.10839999467134476,-0.0329999989439571,-0.01400000015835513,-0.01400000015835513
0.11441411077976227,-0.03534799441695213,9.928448677062988,-0.005799999926239252,0.014599999412894249,0.10839999467134476,-0.0030000000934877653,0.0019999999928448997,0.0009999999964224499
0.11515152454376221,-0.056244585663080215,9.935822486877441,0.0038999998942017555,-0.004900000058114529,0.11819999665021896,-0.004999999877891834,0.021999999295971403,0.0749999994190225
0.1172967329621315,-0.03331771120429039,9.92972183227539,0.0038999998942017555,0.014499999582767487,0.10839999467134476,0.021000000237532696,0.008999999863581633,0.019000000453128628
0.10824665427207947,-0.038240186870098114,9.928974151611328,-0.005699999630451202,0.014299999922513962,0.10839999467134476,0.015999999942759198,-0.0030000000934877653,0.010999999647985701
0.11030566692352295,-0.047242388129234314,9.931809425354004,-0.00559999980032444,0.004399999976158142,0.11819999665021896,-0.007999999971379599,-0.0030000000934877653,-0.043999998591942806
0.11912590265274048,-0.03817315399646759,9.934185028076172,0.004100000020116568,0.014099999330937862,0.11819999665021896,0,0,0.024000000747902123
0.11769896000623703,-0.05070919170975685,9.926369667053223,0.004100000020116568,-0.005399999674409628,0.10839999467134476,0.007000000079177565,0.006000000186975531,0.014999999216793838
0.12767799198627472,-0.05384080857038498,9.938360214233398,0.013799999840557575,-0.0052999998442828655,0.11819999665021896,0.04200000047506539,-0.021999999295971403,0.019000000453128628
0.11925996840000153,-0.05049850046634674,9.948539733886719,0.003999999724328518,-0.005399999674409628,0.12799999117851257,0.01700000066872456,0.0030000000934877653,-0.02600000053230619
0.11695196479558945,-0.04390966147184372,9.932029724121094,0.003999999724328518,0.00419999985024333,0.11819999665021896,0.019000000453128628,-0.0030000000934877653,0.031999999885518396
0.11493125557899475,-0.042118798941373825,9.93980598449707,0.003999999724328518,0.004100000020116568,0.11819999665021896,0.008999999863581633,-0.012000000373951061,-0.04200000047506539
0.12059114873409271,-0.0401747040450573,9.948569297790527,0.0038999998942017555,0.003999999724328518,0.11819999665021896,0.009999999755783667,-0.0030000000934877653,0.006000000186975531
0.11707646399736404,-0.0517817959189415,9.950303077697754,0.0038999998942017555,0.003999999724328518,0.12799999117851257,-0.0019999999928448997,0.008999999863581633,0
0.11948023736476898,-0.05903143808245659,9.936444282531738,0.0038999998942017555,-0.015399999916553497,0.11819999665021896,-0.02600000053230619,-0.01400000015835513,0.004999999877891834
0.11559205502271652,-0.06327396631240845,9.948731422424316,0.0038999998942017555,-0.015399999916553497,0.11819999665021896,-0.012000000373951061,0.041000001416626686,0.031999999885518396
0.11554417759180069,-0.04291366785764694,9.943933486938477,0.0038999998942017555,0.004299999680370092,0.12799999117851257,0.0269999995907449,0.021999999295971403,0.02899999937514897
0.11798626184463501,-0.03677493706345558,9.932229995727539,0.003999999724328518,0.013899999670684338,0.11819999665021896,-0.029999998433587676,-0.0030000000934877653,0.007999999971379599
0.12355995923280716,-0.045298296958208084,9.926705360412598,0.003999999724328518,0.00419999985024333,0.10839999467134476,-0.03100000082707969,-0.013000000266153095,-0.0429999995335041
0.12057200074195862,-0.05289270356297493,9.925402641296387,0.0038999998942017555,-0.005399999674409628,0.10839999467134476,-0.03899999996469596,-0.038000000906257256,-0.049999999612681666
0.12393345683813095,-0.057211846113204956,9.927309036254883,0.0037999998312443495,-0.005200000014156103,0.10839999467134476,0.02899999937514897,-0.0019999999928448997,0.035000000395887826
0.12125195562839508,-0.04412992298603058,9.936501502990723,0.0037999998312443495,-0.0052999998442828655,0.11819999665021896,-0.007000000079177565,0.007999999971379599,0.014999999216793838
0.12125195562839508,-0.04412992298603058,9.936501502990723,0.003700000001117587,0.004399999976158142,0.11819999665021896,-0.007000000079177565,0.007999999971379599,0.014999999216793838
0.12129983305931091,-0.038996756076812744,9.941760063171387,0.0037999998312443495,0.004399999976158142,0.12799999117851257,-0.0039999999856897995,0.0019999999928448997,0.0269999995907449
0.12003570050001144,-0.05596685782074928,9.940552711486816,0.0037999998312443495,-0.005200000014156103,0.11819999665021896,0.007000000079177565,0.06500000216452881,0.041000001416626686
0.11473014950752258,-0.04558560252189636,9.942985534667969,-0.005699999630451202,0.004399999976158142,0.12799999117851257,-0.007000000079177565,-0.035000000395887826,0.024000000747902123
0.11546756327152252,-0.05422388017177582,9.939940452575684,0.003999999724328518,-0.005200000014156103,0.11819999665021896,0.07399999702553048,-0.0039999999856897995,0.03100000082707969
0.1140884980559349,-0.05033569782972336,9.952935218811035,-0.005699999630451202,-0.005399999674409628,0.1378999948501587,0.014999999216793838,-0.009999999755783667,0.03400000133744912
0.12332054227590561,-0.04839160665869713,9.94913387298584,0.003999999724328518,-0.005399999674409628,0.12799999117851257,-0.007999999971379599,0.048000001495804245,0.03699999851276524
0.11309251189231873,-0.04921520873904228,9.95033073425293,-0.005499999970197678,-0.0052999998442828655,0.13779999315738678,-0.015999999942759198,-0.023000000021936765,0.0030000000934877653
0.11085154116153717,-0.057049039751291275,9.936702728271484,0.013799999840557575,-0.005200000014156103,0.11819999665021896,-0.0269999995907449,-0.0030000000934877653,0.012000000373951061
0.11085154116153717,-0.057049039751291275,9.936702728271484,-0.00559999980032444,-0.005200000014156103,0.11819999665021896,-0.0269999995907449,-0.0030000000934877653,0.012000000373951061
0.11728715151548386,-0.05111141875386238,9.93513298034668,0.004100000020116568,-0.0050999997183680534,0.11819999665021896,-0.05900000114378995,-0.019999999511567335,0.0009999999964224499
0.12249693274497986,-0.04480987787246704,9.951480865478516,0.003999999724328518,0.004699999932199717,0.1378999948501587,-0.0009999999964224499,-0.0039999999856897995,0.01700000066872456
0.12600204348564148,-0.05431964993476868,9.935429573059082,0.013700000010430813,-0.004900000058114529,0.11819999665021896,0.01400000015835513,-0.007000000079177565,0.013000000266153095
0.12735237181186676,-0.04206133633852005,9.928821563720703,0.0038999998942017555,0.004699999932199717,0.11819999665021896,0.007000000079177565,0.010999999647985701,0.05099999867112037
0.12154883146286011,-0.052931010723114014,9.937163352966309,0.013599999248981476,0.004699999932199717,0.10839999467134476,-0.01400000015835513,-0.02899999937514897,0.004999999877891834
0.11004708707332611,-0.04333505406975746,9.942094802856445,0.0037999998312443495,-0.004999999888241291,0.11819999665021896,0.012000000373951061,-0.01700000066872456,0.0429999995335041
0.1190875917673111,-0.0428849421441555,9.930717468261719,0.003700000001117587,0.004600000102072954,0.10839999467134476,0.010999999647985701,-0.0030000000934877653,0.04600000004387353
0.11677958071231842,-0.04604528844356537,9.933733940124512,0.003700000001117587,0.004600000102072954,0.10839999467134476,-0.0039999999856897995,-0.01700000066872456,0.017999999727163266
0.12132856994867325,-0.04569094628095627,9.935583114624023,0.003700000001117587,0.0044999998062849045,0.11819999665021896,0.007000000079177565,-0.0329999989439571,0.031999999885518396
0.11615709215402603,-0.04237736761569977,9.941089630126953,0.003599999938160181,0.004399999976158142,0.12799999117851257,-0.004999999877891834,0.024999999806340833,0.03599999945432653
0.12503479421138763,-0.03442861884832382,9.934385299682617,0.013399999588727951,0.014099999330937862,0.11819999665021896,0.007999999971379599,-0.004999999877891834,-0.0429999995335041
0.10500968992710114,-0.04485776275396347,9.921821594238281,-0.015799999237060547,0.00419999985024333,0.10839999467134476,0.007999999971379599,-0.0030000000934877653,0.007999999971379599
0.12170206755399704,-0.03941813483834267,9.92709732055664,0.003700000001117587,0.00419999985024333,0.10839999467134476,0.009999999755783667,-0.0030000000934877653,0.019999999511567335
0.1140884980559349,-0.042999863624572754,9.943291664123535,-0.0058999997563660145,0.004100000020116568,0.12799999117851257,-0.01700000066872456,0.017999999727163266,0.07099999651516105
0.11201032996177673,-0.05588066950440407,9.939623832702637,-0.005799999926239252,-0.005499999970197678,0.11819999665021896,0.0019999999928448997,0.03899999996469596,0.11500000177721047
0.11319785565137863,-0.043373361229896545,9.946404457092285,-0.00559999980032444,0.00419999985024333,0.12799999117851257,0.02600000053230619,-0.0030000000934877653,-0.010999999647985701
0.1258583962917328,-0.03582683578133583,9.943473815917969,-0.005499999970197678,0.004100000020116568,0.13779999315738678,0.008999999863581633,-0.007999999971379599,0.021999999295971403
0.12001653760671616,-0.046313438564538956,9.943253517150879,0.013899999670684338,0.013799999840557575,0.12799999117851257,0.015999999942759198,-0.004999999877891834,0
0.1094820573925972,-0.045441947877407074,9.928428649902344,0.004100000020116568,0.0038999998942017555,0.12799999117851257,0.02600000053230619,-0.0019999999928448997,-0.02800000031671026
0.1278408020734787,-0.0489279069006443,9.92908000946045,-0.00559999980032444,0.0038999998942017555,0.10839999467134476,0.014999999216793838,0,0.02800000031671026
0.1257147490978241,-0.05744168907403946,9.935286521911621,0.013799999840557575,-0.0058999997563660145,0.10839999467134476,0.015999999942759198,-0.012000000373951061,0.017999999727163266
0.12627018988132477,-0.03868072107434273,9.935860633850098,0.013700000010430813,-0.0058999997563660145,0.11819999665021896,-0.019999999511567335,-0.0019999999928448997,0.013000000266153095
0.1250060647726059,-0.05019204318523407,9.932642936706543,0.013599999248981476,0.0037999998312443495,0.11819999665021896,-0.015999999942759198,-0.024999999806340833,-0.05300000012305109
0.12382811307907104,-0.034754231572151184,9.945082664489746,0.013499999418854713,-0.005799999926239252,0.11819999665021896,-0.007000000079177565,-0.0039999999856897995,0.07000000079177565
0.12277466803789139,-0.037445317953825,9.938542366027832,0.003599999938160181,0.013599999248981476,0.12799999117851257,-0.0019999999928448997,-0.015999999942759198,0.05200000106461238
0.12972743809223175,-0.03810611367225647,9.94056224822998,0.003599999938160181,0.013499999418854713,0.11819999665021896,0,-0.06700000028140622,0.03699999851276524
0.11130165308713913,-0.04767334461212158,9.945858001708984,0.013299999758601189,0.013399999588727951,0.11819999665021896,0,-0.06700000028140622,0.03699999851276524
0.11457692086696625,-0.043756432831287384,9.932891845703125,-0.006300000008195639,0.003499999875202775,0.11819999665021896,-0.007000000079177565,0.021999999295971403,0.019999999511567335
0.10969274491071701,-0.05581362918019295,9.925871849060059,-0.006099999882280827,-0.006099999882280827,0.10839999467134476,-0.01400000015835513,-0.0019999999928448997,-0.041000001416626686
0.1090032085776329,-0.04453215003013611,9.939892768859863,-0.006099999882280827,-0.006099999882280827,0.10839999467134476,0,0,0
0.11628158390522003,-0.03369120880961418,9.95517635345459,0.003700000001117587,0.013299999758601189,0.1378999948501587,0.02600000053230619,0,0.004999999877891834
0.11950897425413132,-0.05096776410937309,9.935352325439453,0.003700000001117587,0.013299999758601189,0.1378999948501587,-0.01400000015835513,-0.0039999999856897995,-0.014999999216793838
0.10548852384090424,-0.04891832917928696,9.937440872192383,-0.006000000052154064,-0.006099999882280827,0.11819999665021896,0.03899999996469596,-0.007999999971379599,0.014999999216793838
0.10967358946800232,-0.041697416454553604,9.948463439941406,-0.0058999997563660145,0.003399999812245369,0.12799999117851257,-0.03599999945432653,0.019000000453128628,0.03699999851276524
0.1202559694647789,-0.04227202758193016,9.927576065063477,0.0038999998942017555,0.003499999875202775,0.10839999467134476,-0.029999998433587676,0.012000000373951061,-0.03699999851276524
0.11611878126859665,-0.051408298313617706,9.934538841247559,0.0038999998942017555,-0.006099999882280827,0.11819999665021896,-0.023000000021936765,0.010999999647985701,0.010999999647985701
0.11418426781892776,-0.04081634804606438,9.936616897583008,-0.005699999630451202,0.003700000001117587,0.11819999665021896,0.07999999804626934,0.0030000000934877653,-0.043999998591942806
0.10307516902685165,-0.0348404236137867,9.952763557434082,-0.015399999916553497,0.013199999928474426,0.13779999315738678,0.04500000098543482,0.004999999877891834,0.03100000082707969
0.12972743809223175,-0.03671747446060181,9.940888404846191,0.013899999670684338,0.012899999506771564,0.12799999117851257,0.006000000186975531,0.007000000079177565,0.0539999991814898
0.11974839121103287,-0.044398076832294464,9.937047958374023,0.004100000020116568,0.0030999998562037945,0.11819999665021896,0.035000000395887826,0.013000000266153095,0.029999998433587676
0.11703815311193466,-0.04956955462694168,9.947639465332031,0.004100000020116568,-0.0066999997943639755,0.12799999117851257,0.013000000266153095,0.007000000079177565,0.0009999999964224499
0.11358092725276947,-0.03822103515267372,9.940428733825684,-0.005499999970197678,0.01269999984651804,0.11819999665021896,-0.013000000266153095,0,0.0329999989439571
0.12225751578807831,-0.048640601336956024,9.937679290771484,0.00419999985024333,-0.0066999997943639755,0.11819999665021896,0.007999999971379599,-0.019999999511567335,0.0659999978879142
0.10546937584877014,-0.049205634742975235,9.953136444091797,-0.005499999970197678,-0.0066999997943639755,0.13779999315738678,0.007999999971379599,-0.0039999999856897995,-0.024999999806340833
0.1203804612159729,-0.04219541326165199,9.93752670288086,0.004100000020116568,0.002899999963119626,0.11819999665021896,0.03899999996469596,-0.007000000079177565,0.08200000283325337
0.11792880296707153,-0.03848918527364731,9.936051368713379,0.004100000020116568,0.002699999837204814,0.11819999665021896,-0.021999999295971403,-0.02899999937514897,0.017999999727163266
0.11792880296707153,-0.03848918527364731,9.936051368713379,0.004100000020116568,0.002699999837204814,0.11819999665021896,-0.021999999295971403,-0.02899999937514897,0.017999999727163266
0.11584105342626572,-0.06057330220937729,9.938139915466309,-0.00559999980032444,0.002699999837204814,0.11819999665021896,-0.0429999995335041,0,0.008999999863581633
0.11012370139360428,-0.04935886338353157,9.933073043823242,-0.005499999970197678,-0.0066999997943639755,0.11819999665021896,-0.009999999755783667,-0.03100000082707969,0.03599999945432653
0.11345642805099487,-0.04310520738363266,9.932642936706543,-0.005499999970197678,0.003000000026077032,0.11819999665021896,-0.012000000373951061,-0.0039999999856897995,0.06800000267489824
0.11924082040786743,-0.038642413914203644,9.936578750610352,0.00419999985024333,0.003000000026077032,0.11819999665021896,-0.0039999999856897995,-0.0019999999928448997,0.0019999999928448997
0.12491986900568008,-0.04627513140439987,9.929060935974121,0.013899999670684338,0.003000000026077032,0.10839999467134476,0.004999999877891834,0.019000000453128628,0.023000000021936765
0.1156303659081459,-0.04344039410352707,9.926753044128418,0.00419999985024333,0.003000000026077032,0.10839999467134476,-0.004999999877891834,0.021999999295971403,-0.0039999999856897995
0.115984708070755,-0.03846045583486557,9.93718147277832,0.00419999985024333,0.003000000026077032,0.11819999665021896,0.012000000373951061,0.008999999863581633,-0.014999999216793838
0.11142614483833313,-0.05038357898592949,9.940256118774414,-0.005399999674409628,-0.0066999997943639755,0.11819999665021896,-0.024999999806340833,0.012000000373951061,0.024999999806340833
0.12141475826501846,-0.03265691176056862,9.93459701538086,0.004399999976158142,0.012799999676644802,0.11819999665021896,-0.019000000453128628,0.024999999806340833,0.041000001416626686
0.11787133663892746,-0.03788584843277931,9.94443130493164,0.004399999976158142,0.01269999984651804,0.12799999117851257,0.024999999806340833,0.0019999999928448997,0.009999999755783667
0.11334151029586792,-0.03855622559785843,9.949113845825195,-0.005200000014156103,0.00279999990016222,0.12799999117851257,0.01400000015835513,0.013000000266153095,0.03100000082707969
0.11684662103652954,-0.05422388017177582,9.928008079528809,0.0044999998062849045,-0.006899999920278788,0.10839999467134476,-0.007999999971379599,0.014999999216793838,-0.013000000266153095
0.1102098897099495,-0.05337154492735863,9.938848495483398,-0.0050999997183680534,-0.006799999624490738,0.11819999665021896,-0.019999999511567335,-0.008999999863581633,0.02800000031671026
0.11890563368797302,-0.04822879657149315,9.935247421264648,0.004600000102072954,-0.0066999997943639755,0.11819999665021896,0.007000000079177565,0,-0.035000000395887826
0.11051634699106216,-0.043210551142692566,9.932977676391602,-0.004999999888241291,0.003000000026077032,0.11819999665021896,-0.05900000114378995,-0.0030000000934877653,0.035000000395887826
0.10249099135398865,-0.04329674690961838,9.936664581298828,-0.014699999243021011,0.0030999998562037945,0.11819999665021896,0,-0.019999999511567335,0.0030000000934877653
0.12859736382961273,-0.043421242386102676,9.945168495178223,0.014499999582767487,0.0030999998562037945,0.12799999117851257,-0.02600000053230619,-0.021000000237532696,-0.012000000373951061
0.11632947623729706,-0.04111323133111,9.939336776733398,0.004600000102072954,0.0030999998562037945,0.11819999665021896,-0.0269999995907449,0.017999999727163266,0
0.11807245016098022,-0.049914319068193436,9.938791275024414,0.004699999932199717,-0.0064999996684491634,0.11819999665021896,-0.0019999999928448997,0.024999999806340833,0.009999999755783667
0.11634862422943115,-0.04511633515357971,9.919273376464844,0.004699999932199717,0.0031999999191612005,0.09860000014305115,0.006000000186975531,-0.0019999999928448997,-0.007000000079177565
0.1193174347281456,-0.04403415694832802,9.944977760314941,0.004699999932199717,0.0031999999191612005,0.12799999117851257,-0.007999999971379599,-0.007000000079177565,0.010999999647985701
0.12097422033548355,-0.05222232639789581,9.942535400390625,0.004699999932199717,-0.0064999996684491634,0.12799999117851257,0.01700000066872456,-0.0030000000934877653,0.04600000004387353
0.11939404904842377,-0.05033569782972336,9.94117546081543,0.004600000102072954,-0.006399999838322401,0.12799999117851257,-0.03899999996469596,0.024999999806340833,0.0030000000934877653
0.11502702534198761,-0.04603571072220802,9.935266494750977,0.004699999932199717,0.0032999999821186066,0.11819999665021896,0.0009999999964224499,-0.007000000079177565,0.0019999999928448997
0.1249007135629654,-0.056273315101861954,9.940677642822266,0.014399999752640724,-0.006300000008195639,0.11819999665021896,0.024999999806340833,0.06800000267489824,0.046999999102312236
0.11047804355621338,-0.03869029879570007,9.938139915466309,-0.004799999762326479,0.0032999999821186066,0.11819999665021896,0.019999999511567335,0.017999999727163266,0.0659999978879142
0.11402146518230438,-0.04803726077079773,9.951384544372559,-0.004699999932199717,-0.006399999838322401,0.13779999315738678,0.015999999942759198,0.0539999991814898,0.02800000031671026
0.10686758160591125,-0.047002967447042465,9.943865776062012,0.014800000004470348,-0.006399999838322401,0.12799999117851257,0.021999999295971403,0,-0.010999999647985701
0.1102098897099495,-0.04805641621351242,9.94798469543457,-0.0044999998062849045,-0.006199999712407589,0.12799999117851257,-0.03100000082707969,-0.01400000015835513,-0.0749999994190225
0.11779472231864929,-0.05384080857038498,9.952524185180664,0.005200000014156103,-0.006099999882280827,0.13779999315738678,0.021999999295971403,0,0.007000000079177565
0.11252748221158981,-0.04729027301073074,9.93261432647705,-0.0044999998062849045,0.003499999875202775,0.11819999665021896,0.006000000186975531,-0.0019999999928448997,-0.012000000373951061
0.11843637377023697,-0.035108573734760284,9.944507598876953,0.005200000014156103,0.013199999928474426,0.12799999117851257,0.008999999863581633,0.004999999877891834,0.0539999991814898
0.11455776542425156,-0.04175487905740738,9.94274616241455,-0.004399999976158142,0.0032999999821186066,0.12799999117851257,0.012000000373951061,0.01700000066872456,0.03400000133744912
0.11210609972476959,-0.04209006577730179,9.933753967285156,-0.004299999680370092,0.0032999999821186066,0.11819999665021896,0.012000000373951061,0,-0.004999999877891834
0.113983154296875,-0.06182786449790001,9.939796447753906,-0.00419999985024333,-0.016099998727440834,0.11819999665021896,0.01400000015835513,-0.014999999216793838,0.03100000082707969
0.11501745134592056,-0.03137362003326416,9.929500579833984,0.005399999674409628,0.012999999336898327,0.10839999467134476,-0.007000000079177565,-0.0039999999856897995,0.0009999999964224499
0.11695196479558945,-0.052308518439531326,9.94225788116455,0.005399999674409628,-0.006399999838322401,0.12799999117851257,-0.010999999647985701,0,0.01400000015835513
0.1110239177942276,-0.04018428176641464,9.926694869995117,-0.00419999985024333,0.0032999999821186066,0.10839999467134476,-0.004999999877891834,-0.03100000082707969,-0.08899999957737763
0.11124418675899506,-0.03230256959795952,9.939528465270996,-0.00419999985024333,0.012999999336898327,0.11819999665021896,0.04500000098543482,-0.0009999999964224499,0.019000000453128628
0.11264239996671677,-0.04675397276878357,9.938111305236816,-0.00419999985024333,0.003000000026077032,0.11819999665021896,0.010999999647985701,0,-0.05300000012305109
0.11727757006883621,-0.04071100801229477,9.930564880371094,0.005499999970197678,0.003000000026077032,0.10839999467134476,0.035000000395887826,-0.0009999999964224499,0.024000000747902123
0.11743079870939255,-0.047692496329545975,9.934998512268066,0.005499999970197678,0.00279999990016222,0.11819999665021896,0.007000000079177565,-0.004999999877891834,0.029999998433587676
0.11471099406480789,-0.049445051699876785,9.939949989318848,-0.00419999985024333,-0.006799999624490738,0.11819999665021896,0.017999999727163266,-0.021000000237532696,-0.03999999902313467
0.12438356876373291,-0.03867114707827568,9.94051456451416,0.005499999970197678,0.00279999990016222,0.11819999665021896,-0.006000000186975531,0.024000000747902123,0.009999999755783667
0.11486422270536423,-0.05678088590502739,9.941999435424805,-0.004100000020116568,-0.006799999624490738,0.12799999117851257,-0.01400000015835513,0,-0.07399999702553048
0.11818736791610718,-0.046409204602241516,9.952044486999512,0.00559999980032444,0.002899999963119626,0.13779999315738678,0.0009999999964224499,0.02800000031671026,0.019999999511567335
0.12043792009353638,-0.03787627071142197,9.936702728271484,0.00559999980032444,0.012600000016391277,0.11819999665021896,-0.0019999999928448997,0.01700000066872456,-0.02600000053230619
0.12533167004585266,-0.04153461009263992,9.94540786743164,0.015399999916553497,0.00279999990016222,0.12799999117851257,-0.013000000266153095,-0.019999999511567335,-0.014999999216793838
0.10428185015916824,-0.04847779497504234,9.935640335083008,-0.013799999840557575,-0.006899999920278788,0.11819999665021896,-0.024999999806340833,0.007999999971379599,0.0039999999856897995
0.11856086552143097,-0.05135083943605423,9.939701080322266,0.005699999630451202,-0.0066999997943639755,0.11819999665021896,0.009999999755783667,-0.007999999971379599,-0.0019999999928448997
0.12378022819757462,-0.055938128381967545,9.931761741638184,0.005699999630451202,-0.0066999997943639755,0.11819999665021896,0,-0.01400000015835513,-0.04900000055424296
0.1156495213508606,-0.044752418994903564,9.932259559631348,0.00559999980032444,0.003000000026077032,0.11819999665021896,0.019999999511567335,-0.0019999999928448997,-0.012000000373951061
0.10801680386066437,-0.035127729177474976,9.946165084838867,0.01529999915510416,-0.0066999997943639755,0.11819999665021896,-0.0429999995335041,0.0009999999964224499,0.024999999806340833
0.1130446270108223,-0.041927263140678406,9.93251895904541,-0.004100000020116568,0.01269999984651804,0.12799999117851257,-0.024999999806340833,-0.01700000066872456,0.0030000000934877653
0.12430695444345474,-0.04167826473712921,9.938791275024414,-0.004100000020116568,0.003000000026077032,0.11819999665021896,0.05099999867112037,0.012000000373951061,-0.013000000266153095
0.11187625676393509,-0.045652639120817184,9.951154708862305,-0.003999999724328518,0.00279999990016222,0.13779999315738678,0.014999999216793838,-0.023000000021936765,0
0.11091858148574829,-0.0345914252102375,9.92487621307373,-0.003999999724328518,0.00279999990016222,0.13779999315738678,0.0019999999928448997,0.010999999647985701,-0.038000000906257256
0.1085243746638298,-0.04732858017086983,9.945466041564941,-0.0038999998942017555,0.0026000000070780516,0.12799999117851257,0.04500000098543482,0.014999999216793838,0.03100000082707969
0.10588116943836212,-0.038163572549819946,9.939547538757324,-0.0037999998312443495,0.012199999764561653,0.11819999665021896,0,-0.019000000453128628,-0.03599999945432653
0.12225751578807831,-0.05180094763636589,9.944307327270508,0.005799999926239252,-0.0072999997064471245,0.12799999117851257,0.008999999863581633,0.012000000373951061,0.0009999999964224499
0.1262797713279724,-0.047998953610658646,9.942028045654297,0.01549999974668026,-0.007199999876320362,0.12799999117851257,-0.02800000031671026,0,-0.0269999995907449
0.11676043272018433,-0.04813303053379059,9.94825267791748,0.005699999630451202,-0.0071000000461936,0.12799999117851257,-0.004999999877891834,0.031999999885518396,-0.049999999612681666
0.1163581982254982,-0.05632119998335838,9.942726135253906,0.005799999926239252,-0.00699999975040555,0.12799999117851257,-0.03899999996469596,0,-0.03699999851276524
0.11842679232358932,-0.04051946848630905,9.935678482055664,0.005799999926239252,0.00279999990016222,0.11819999665021896,-0.010999999647985701,0.007000000079177565,0.0269999995907449
0.11357135325670242,-0.027763161808252335,9.934798240661621,-0.0038999998942017555,0.022199999541044235,0.11819999665021896,0,0,-0.023000000021936765
0.1150653287768364,-0.0527203232049942,9.931349754333496,0.005799999926239252,-0.0071000000461936,0.11819999665021896,-0.04500000098543482,0.010999999647985701,0
0.11189541220664978,-0.03360501304268837,9.932652473449707,-0.0037999998312443495,0.01249999925494194,0.11819999665021896,0.014999999216793838,-0.019999999511567335,0.0019999999928448997
0.12087845802307129,-0.04382346570491791,9.935927391052246,0.0058999997563660145,0.0026000000070780516,0.11819999665021896,-0.019000000453128628,0.024000000747902123,0.029999998433587676
0.11088027060031891,-0.044091615825891495,9.933820724487305,-0.003700000001117587,0.0026000000070780516,0.11819999665021896,0.008999999863581633,-0.01700000066872456,0.024999999806340833
0.11451945453882217,-0.058638785034418106,9.932977676391602,-0.003700000001117587,-0.016699999570846558,0.11819999665021896,-0.007999999971379599,-0.017999999727163266,-0.05099999867112037
0.11337023973464966,-0.050747498869895935,9.948368072509766,-0.003700000001117587,-0.006899999920278788,0.12799999117851257,0.010999999647985701,-0.015999999942759198,0.01700000066872456
0.11632947623729706,-0.05091987922787666,9.938101768493652,0.0058999997563660145,-0.006799999624490738,0.11819999665021896,0.046999999102312236,-0.021000000237532696,0.006000000186975531
0.11580274999141693,-0.049847278743982315,9.937488555908203,0.0058999997563660145,-0.006899999920278788,0.11819999665021896,0.017999999727163266,-0.0019999999928448997,-0.02800000031671026
0.11453860998153687,-0.04277002066373825,9.933112144470215,-0.0037999998312443495,0.002699999837204814,0.11819999665021896,-0.007000000079177565,-0.024999999806340833,-0.0659999978879142
0.11328405141830444,-0.03940856084227562,9.930669784545898,-0.0037999998312443495,0.002699999837204814,0.10839999467134476,-0.007999999971379599,0.038000000906257256,0.0539999991814898
0.1228608563542366,-0.04471411183476448,9.96428394317627,0.006000000052154064,0.002699999837204814,0.147599995136261,-0.004999999877891834,-0.0009999999964224499,-0.08200000283325337
0.11929827928543091,-0.042099643498659134,9.93944263458252,0.006000000052154064,-0.006899999920278788,0.13779999315738678,-0.017999999727163266,-0.010999999647985701,-0.023000000021936765
0.12635639309883118,-0.047022122889757156,9.940936088562012,0.006000000052154064,0.002699999837204814,0.11819999665021896,0.008999999863581633,0,-0.02600000053230619
0.12589670717716217,-0.054492030292749405,9.923975944519043,0.015699999406933784,0.002699999837204814,0.12799999117851257,-0.03400000133744912,0,0.017999999727163266
0.11993992328643799,-0.04369897022843361,9.950454711914062,0.005699999630451202,0.00279999990016222,0.13779999315738678,-0.0039999999856897995,-0.01400000015835513,0.01400000015835513
0.11903012543916702,-0.047146622091531754,9.94548511505127,0.005699999630451202,0.00279999990016222,0.13779999315738678,0.012000000373951061,0,-0.021000000237532696
0.1142321527004242,-0.05321831628680229,9.944977760314941,-0.003999999724328518,-0.006899999920278788,0.12799999117851257,-0.049999999612681666,-0.0009999999964224499,0
0.11203905940055847,-0.059586890041828156,9.944364547729492,-0.0038999998942017555,-0.01640000008046627,0.12799999117851257,-0.021999999295971403,-0.017999999727163266,-0.02800000031671026
0.10570879280567169,-0.04783615097403526,9.92966365814209,-0.0038999998942017555,0.0030999998562037945,0.10839999467134476,0.0009999999964224499,0.024000000747902123,0.03400000133744912
0.11344685405492783,-0.04133350029587746,9.941482543945312,-0.0037999998312443495,0.0030999998562037945,0.12799999117851257,-0.03899999996469596,0.007000000079177565,-0.01700000066872456
0.11638693511486053,-0.034514810889959335,9.940150260925293,0.0058999997563660145,0.012899999506771564,0.11819999665021896,0.013000000266153095,-0.043999998591942806,-0.043999998591942806
0.11305420845746994,-0.057001154869794846,9.948396682739258,-0.0037999998312443495,-0.006599999964237213,0.12799999117851257,0.0009999999964224499,0.0019999999928448997,-0.0009999999964224499
0.1168178841471672,-0.04343082010746002,9.942831993103027,0.0058999997563660145,0.0030999998562037945,0.12799999117851257,-0.07699999753589991,0,-0.03899999996469596
0.11440453678369522,-0.035798102617263794,9.945858001708984,0.015599999576807022,0.0032999999821186066,0.11819999665021896,-0.004999999877891834,0.019000000453128628,-0.009999999755783667
0.12221920490264893,-0.050910305231809616,9.938455581665039,-0.0038999998942017555,0.012999999336898327,0.12799999117851257,-0.004999999877891834,0.019000000453128628,-0.009999999755783667
0.12221920490264893,-0.050910305231809616,9.938455581665039,0.0058999997563660145,-0.006399999838322401,0.11819999665021896,0.013000000266153095,-0.007000000079177565,-0.07000000079177565
0.10729854553937912,-0.0486980639398098,9.935678482055664,0.005799999926239252,-0.006399999838322401,0.11819999665021896,-0.024999999806340833,0.021000000237532696,-0.11699999322398127
0.10729854553937912,-0.0486980639398098,9.935678482055664,-0.0037999998312443495,-0.006399999838322401,0.11819999665021896,-0.024999999806340833,0.021000000237532696,-0.11699999322398127
0.13309846818447113,-0.04966532066464424,9.943790435791016,0.015699999406933784,-0.01599999889731407,0.11819999665021896,-0.05099999867112037,-0.01700000066872456,-0.06500000216452881
0.11572613567113876,-0.05922297388315201,9.946260452270508,0.01549999974668026,-0.0058999997563660145,0.12799999117851257,-0.05099999867112037,-0.01700000066872456,-0.06500000216452881
0.12314815819263458,-0.03907337039709091,9.936444282531738,0.005699999630451202,-0.01549999974668026,0.12799999117851257,-0.019999999511567335,-0.03999999902313467,-0.03100000082707969
0.12962208688259125,-0.04900452122092247,9.945226669311523,0.005499999970197678,0.003999999724328518,0.11819999665021896,0.0009999999964224499,0,-0.019000000453128628
0.10032662749290466,-0.04861186817288399,9.93904972076416,0.01529999915510416,-0.00559999980032444,0.12799999117851257,0.014999999216793838,0,0.024000000747902123
0.10670477896928787,-0.0562828928232193,9.93718147277832,-0.013799999840557575,-0.005499999970197678,0.11819999665021896,0.01400000015835513,0.008999999863581633,-0.0009999999964224499
0.10670477896928787,-0.0562828928232193,9.93718147277832,-0.003999999724328518,-0.005499999970197678,0.11819999665021896,0.01400000015835513,0.008999999863581633,-0.0009999999964224499
0.11218271404504776,-0.036171600222587585,9.945494651794434,0.005699999630451202,0.004100000020116568,0.11819999665021896,-0.05499999823992851,-0.0039999999856897995,-0.0269999995907449
0.10686758160591125,-0.03595133125782013,9.941424369812012,-0.0038999998942017555,0.013899999670684338,0.12799999117851257,-0.007000000079177565,0.004999999877891834,0.0030000000934877653
0.12198936194181442,-0.04006936028599739,9.9329195022583,-0.0038999998942017555,0.013899999670684338,0.12799999117851257,-0.007000000079177565,0.004999999877891834,0.0030000000934877653
