Accelerometer_Gx,Accelerometer_Gy,Accelerometer_Gz,Accelerometer_X,Accelerometer_Y,Accelerometer_Z,Gyroscope_Z,Gyroscope_X,Gyroscope_Y
0.11505575478076935,-0.038920141756534576,9.941798210144043,0.011299999430775642,0.007499999832361937,0.12799999117851257,0.031999999885518396,0.004999999877891834,-0.0019999999928448997
0.12577220797538757,-0.05377376824617386,9.945819854736328,0.0210999995470047,-0.002300000051036477,0.12799999117851257,1.9179999349832668,-0.1070000026395942,0.07600000181251451
0.12508267164230347,-0.05750872567296028,9.92455005645752,0.020899999886751175,-0.016699999570846558,0.10839999467134476,0.5870000109275301,-0.3259999932058162,-0.21800000151294321
0.11116757243871689,-0.04995262622833252,9.928735733032227,0.00039999998989515007,-0.008499999530613422,0.10839999467134476,-0.9099999769425504,0.23000000355442093,-0.057000003026912535
0.11463437974452972,-0.060918066650629044,9.94340705871582,0.0010999999940395355,-0.01549999974668026,0.12799999117851257,-0.5309999836136831,0.5039999790203582,0.1719999981340164
0.11441411077976227,-0.056407392024993896,9.933245658874512,0.002300000051036477,-0.0044999998062849045,0.11819999665021896,1.6079999533928964,0.38699998579637696,-0.16500000138989213
0.11666465550661087,-0.059280432760715485,9.931655883789062,0.003399999812245369,-0.008899999782443047,0.12789998948574066,-0.6450000030077214,0.23000000355442093,-0.08499999667351618
0.11725842207670212,-0.05846640467643738,9.932642936706543,0.01269999984651804,-0.01809999905526638,0.11809999495744705,0.40599999792219216,-0.08499999667351618,-0.06299999737754478
0.11099519580602646,-0.0491769015789032,9.934069633483887,0.013299999758601189,-0.016599999740719795,0.11809999495744705,0.1180000022875799,-0.06299999737754478,0.01700000066872456
0.11660720407962799,-0.047242388129234314,9.934002876281738,0.0031999999191612005,-0.007999999448657036,0.11809999495744705,-0.8549999853727285,0.5480000042927274,0.0019999999928448997
0.11336066573858261,-0.05012500658631325,9.927978515625,0.004399999976158142,-0.006300000008195639,0.10830000042915344,-1.1349999618594047,0.43799999447265725,-0.10400000212922476
0.09827718883752823,-0.05085284262895584,9.921955108642578,0.004399999976158142,-0.006300000008195639,0.10830000042915344,0.7639999876784734,-0.4679999728959251,0.05600000063342052
0.1158985123038292,-0.05227978900074959,9.931905746459961,0.014399999752640724,-0.004600000102072954,0.11809999495744705,0.2810000122307012,-0.048000001495804245,-0.048000001495804245
0.11153149604797363,-0.05253836140036583,9.944250106811523,0.0044999998062849045,-0.005499999970197678,0.12789998948574066,1.1690000032174934,-0.642000002497352,0.07900000232288394
0.10863929986953735,-0.037636853754520416,9.950542449951172,0.002699999837204814,0.010799999348819256,0.13779999315738678,-0.5960000124586383,0.5140000162954916,0.10100000161885533
0.11583147943019867,-0.045939940959215164,9.946634292602539,0.013799999840557575,0.0024999999441206455,0.12789998948574066,-1.2479999988702708,0.7009999769607155,-0.05799999875029794
0.11680831015110016,-0.04527914524078369,9.934510231018066,0.015699999406933784,0.0058999997563660145,0.11809999495744705,0.24599998848944027,0.2920000052085803,-0.09999999922536333
0.10906067490577698,-0.039705440402030945,9.950292587280273,0.006799999624490738,0.0050999997183680534,0.12789998948574066,-0.8620000221374924,0.44800000506736415,0.05999999686717535
0.11651142686605453,-0.05503791198134422,9.96008014678955,0.017799999564886093,-0.002199999988079071,0.14749999344348907,0.0659999978879142,0.07600000181251451,-0.04600000004387353
0.11382992565631866,-0.055440135300159454,9.931321144104004,0.008200000040233135,-0.0023999998811632395,0.11809999495744705,0.11200000126684104,-0.16899999762364695,0.014999999216793838
0.11158894747495651,-0.045039720833301544,9.926054000854492,0.007699999958276749,0.00699999975040555,0.10830000042915344,0.3379999952472939,0.18199999538851008,0.04200000047506539
0.1167125478386879,-0.039111677557229996,9.949344635009766,0.008200000040233135,0.006199999712407589,0.10830000042915344,0.7249999810436709,-0.5240000002097721,-0.1830000044521087
0.11534306406974792,-0.04851610213518143,9.957168579101562,0.017999999225139618,0.008200000040233135,0.12789998948574066,-0.4519999879609058,0.6219999813079381,0.14300000209392072
0.1293826550245285,-0.050536807626485825,9.937440872192383,0.016499999910593033,-0.003499999875202775,0.13769999146461487,-0.24599998848944027,-0.14600000260429016,0.06800000267489824
0.1293826550245285,-0.050536807626485825,9.937440872192383,0.027799999341368675,-0.0023999998811632395,0.11809999495744705,-0.24599998848944027,-0.14600000260429016,0.06800000267489824
0.11495999246835709,-0.03976290300488472,9.939748764038086,0.01759999990463257,0.007999999448657036,0.11809999495744705,0.7789999902303206,-0.2770000026567332,-0.257999990530918
0.12306196242570877,-0.06344634294509888,9.937498092651367,0.016899999231100082,-0.013299999758601189,0.11809999495744705,0.8359999999273398,-0.2159999967259592,0.06500000216452881
0.11217314004898071,-0.043660663068294525,9.946691513061523,0.0064999996684491634,0.003599999938160181,0.12789998948574066,-0.4179999999636699,0.515999981061836,0.14300000209392072
0.11617624759674072,-0.05247132480144501,9.949468612670898,0.007899999618530273,0.004799999762326479,0.11809999495744705,0.049999999612681666,0.9130000308137727,-0.024999999806340833
0.11721053719520569,-0.04668693244457245,9.960396766662598,0.019700000062584877,-0.002899999963119626,0.12789998948574066,-0.19200000598321698,0.02899999937514897,-0.013000000266153095
0.10178229957818985,-0.03918829187750816,9.945418357849121,0.022199999541044235,0.0066999997943639755,0.14749999344348907,-1.1289999608386658,0.6249999818183075,0.10900000075647161
0.11722969263792038,-0.04937801882624626,9.941156387329102,0.002699999837204814,0.007199999876320362,0.12789998948574066,-0.1849999958988795,0.407999989368963,0.01400000015835513
0.12363657355308533,-0.04068227484822273,9.948817253112793,0.023799998685717583,0.00009999999747378752,0.12789998948574066,0.035000000395887826,0.31999999218507735,0.257999990530918
0.12067734450101852,-0.04649539664387703,9.946145057678223,0.02579999901354313,0.010400000028312206,0.12789998948574066,-0.8279999807794036,0.7579999866577346,0.18600000496247812
0.12499648332595825,-0.05297889560461044,9.944527626037598,0.037699997425079346,0.002899999963119626,0.12789998948574066,0.2039999946844815,0.5930000119482689,-0.024000000747902123
0.11535263806581497,-0.05427176132798195,9.932652473449707,0.037699997425079346,0.002899999963119626,0.12789998948574066,1.5060000427620417,-0.8239999978858621,-0.19099999691961836
0.11679873615503311,-0.05811206251382828,9.932584762573242,0.027799999341368675,-0.010999999940395355,0.11800000071525574,-0.3029999981864594,-0.4709999734062945,-0.23399998644796255
0.11917378008365631,-0.0488225594162941,9.94041919708252,0.02630000002682209,-0.00029999998514540493,0.11800000071525574,-0.03999999902313467,0.4070000069857908,-0.043999998591942806
0.12078268080949783,-0.046955082565546036,9.923563003540039,0.027400000020861626,0.009499999694526196,0.10819999873638153,1.6580000330468574,-0.3049999896332302,-0.02899999937514897
0.10916602611541748,-0.06135860085487366,9.929970741271973,0.016899999231100082,-0.0139999995008111,0.10819999873638153,-0.07000000079177565,-0.25299999857377775,-0.06700000028140622
0.12334927171468735,-0.05793968215584755,9.930956840515137,0.025999998673796654,-0.013799999840557575,0.10819999873638153,-0.14600000260429016,-0.0539999991814898,-0.057000003026912535
0.11359050869941711,-0.04308605194091797,9.952590942382812,0.01599999889731407,0.006199999712407589,0.13769999146461487,0.5069999795307276,-0.21800000151294321,-0.149999998838045
0.09969455748796463,-0.056129664182662964,9.943110466003418,0.00559999980032444,-0.004900000058114529,0.12780000269412994,0.4709999734062945,0.019000000453128628,0.0009999999964224499
0.11368627101182938,-0.048832137137651443,9.944613456726074,0.01549999974668026,-0.006199999712407589,0.12780000269412994,-0.5300000012305109,0.008999999863581633,-0.17599999436777122
0.11167514324188232,-0.04717535153031349,9.934021949768066,0.01549999974668026,0.004999999888241291,0.11800000071525574,0.6889999749192377,-0.07300000130214508,0.04500000098543482
0.09823888540267944,-0.060918066650629044,9.93828296661377,0.005499999970197678,-0.016200000420212746,0.11800000071525574,-1.4770000200415196,0.031999999885518396,-0.128999995265459
0.10932882875204086,-0.05220317468047142,9.941452980041504,0.015399999916553497,-0.0018999999156221747,0.12789998948574066,0.14799999405106096,-0.11400000605382507,-0.07600000181251451
0.1310681700706482,-0.04768292233347893,9.934270858764648,0.034699998795986176,0.007400000002235174,0.11809999495744705,0.7870000093782568,-0.1199999937343507,0.041000001416626686
0.11489295214414597,-0.04389050602912903,9.94296646118164,0.016300000250339508,0.004999999888241291,0.12780000269412994,-1.9439999038325666,0.42899999294154895,-0.10499999785261017
0.11497914046049118,-0.04429273307323456,9.931771278381348,0.02709999866783619,0.00969999935477972,0.11800000071525574,0.5709999726316578,-0.2399999874687014,-0.0269999995907449
0.12574347853660583,-0.04344997555017471,9.941108703613281,0.03629999980330467,0.008100000210106373,0.12780000269412994,0.18799999640924894,-0.29899998861249133,0.05099999867112037
0.12317688763141632,-0.045959096401929855,9.928707122802734,0.025599999353289604,0.007499999832361937,0.10819999873638153,0.8919999738803338,-0.6799999733881295,-0.1509999945614304
0.12034215778112411,-0.05715438351035118,9.92923355102539,0.023899998515844345,-0.004299999680370092,0.10819999873638153,-0.0009999999964224499,-0.22800001210765014,-0.14499999354069154
0.10715489089488983,-0.050441041588783264,9.93238353729248,0.013399999588727951,-0.004299999680370092,0.11809999495744705,-0.04600000004387353,-0.08799999718388561,-0.043999998591942806
0.11122503876686096,-0.04273171350359917,9.927155494689941,0.013100000098347664,0.005499999970197678,0.10830000042915344,-0.6849999920256962,-0.5260000183369693,-0.1610000051561373
0.11793837696313858,-0.06104256957769394,9.939748764038086,0.021699998527765274,-0.012399999424815178,0.11809999495744705,0.8209999973754926,-0.5939999943314411,-0.12700000381868817
0.11205822229385376,-0.050057969987392426,9.93655014038086,0.010099999606609344,-0.0050999997183680534,0.11809999495744705,-1.1500000177721048,0.24099999653230003,0.013000000266153095
0.12203724682331085,-0.05266286060214043,9.922712326049805,0.020399998873472214,-0.002300000051036477,0.10830000042915344,-0.8339999818001425,0.5309999836136831,-0.02800000031671026
0.11236467957496643,-0.06556282192468643,9.926475524902344,0.01209999993443489,-0.00989999994635582,0.10830000042915344,-0.0269999995907449,0.257999990530918,0.06200000165415938
0.10920432955026627,-0.07162494212388992,9.940485954284668,0.012899999506771564,-0.019600000232458115,0.11809999495744705,0.03899999996469596,-1.5810000021604245,-0.24599998848944027
0.13024456799030304,-0.06051584333181381,9.942075729370117,0.028699999675154686,-0.00989999994635582,0.12789998948574066,-1.1250000313059771,0.019999999511567335,-0.02899999937514897
0.11133037507534027,-0.03979163244366646,9.931915283203125,0.009200000204145908,0.013100000098347664,0.11809999495744705,0.5089999976579249,0.3029999981864594,0.01400000015835513
0.117526575922966,-0.05864836648106575,9.94345474243164,0.01979999989271164,-0.007799999788403511,0.12789998948574066,-0.023000000021936765,-0.5059999971475555,0.021999999295971403
0.127946138381958,-0.05772899091243744,9.93606185913086,0.0284000001847744,-0.007699999958276749,0.11809999495744705,0.09600000299160849,0.2929999875917525,0.10199999734224074
0.12123279273509979,-0.05827486887574196,9.952600479125977,0.019500000402331352,-0.007999999448657036,0.13769999146461487,0.6050000139897467,-0.6819999915153268,-0.22700000304405152
0.11326489597558975,-0.052787356078624725,9.945906639099121,0.007799999788403511,0,0.12789998948574066,-0.6399999843701547,0.5639999892277469,-0.007000000079177565
0.11684662103652954,-0.06200982257723808,9.941194534301758,0.019199999049305916,-0.007899999618530273,0.12789998948574066,0.8669999874142063,-0.3310000118433829,-0.02899999937514897
0.11567824333906174,-0.04616020992398262,9.92709732055664,0.018299998715519905,0.009200000204145908,0.10830000042915344,0.4270000014947782,0.3139999911643385,-0.021000000237532696
0.11460564285516739,-0.06380068510770798,9.941040992736816,0.009200000204145908,-0.011299999430775642,0.12789998948574066,-1.5310000292281694,0.3579999897562813,-0.10400000212922476
0.1162337064743042,-0.0562828928232193,9.934174537658691,0.019999999552965164,0.0026000000070780516,0.11809999495744705,1.0379999631444108,-0.5420000032719886,-0.16800000190026157
0.11855129152536392,-0.047778692096471786,9.931397438049316,0.018299998715519905,0.009200000204145908,0.11809999495744705,1.391000040984831,-0.3240000017590454,-0.05900000114378995
0.11260409653186798,-0.05993165448307991,9.927107810974121,0.007599999662488699,-0.014099999330937862,0.10830000042915344,-1.0079999580407164,0.5759999912692245,-0.012000000373951061
0.11402146518230438,-0.05786306783556938,9.938034057617188,0.008999999612569809,-0.011699999682605267,0.11809999495744705,-1.173000039471888,0.10199999734224074,-0.019000000453128628
0.08557834476232529,-0.042530596256256104,9.968842506408691,-0.019999999552965164,0.011399999260902405,0.14749999344348907,-1.1089999930101049,0.15900000036915327,-0.07300000130214508
0.11522813886404037,-0.03857537731528282,9.990782737731934,0.019500000402331352,0.014099999330937862,0.1770000010728836,-1.0569999485897996,-0.33600000380052314,-0.07000000079177565
0.13380713760852814,-0.04916732758283615,9.955838203430176,0.0284000001847744,0.0071000000461936,0.13779999315738678,-0.2609999910412874,-0.3019999891228608,-0.03699999851276524
0.12587754428386688,-0.0855591893196106,9.961813926696777,0.027400000020861626,-0.021399999037384987,0.147599995136261,-0.18700000068586353,-0.46199997187518627,-0.1319999957758284
0.12302365899085999,-0.059845466166734695,9.929740905761719,-0.003000000026077032,-0.0013000000035390258,0.1671999990940094,-0.551000004803097,-0.18900000547284757,-0.05300000012305109
0.12357911467552185,-0.049205634742975235,9.945762634277344,0.013899999670684338,0.008200000040233135,0.12799999117851257,-1.5670000353526023,0.11099999887334903,-0.09200000008774706
0.1166933923959732,-0.05297889560461044,9.942765235900879,0.0142000000923872,0.01249999925494194,0.12799999117851257,-1.1339999794762325,0.5759999912692245,0.0969999987149939
0.11932700872421265,-0.05204036831855774,9.946682929992676,0.01599999889731407,0.01599999889731407,0.12799999117851257,1.4419999963002585,0.5039999790203582,0.10100000161885533
0.11594640463590622,-0.047644615173339844,9.956833839416504,0.01719999872148037,0.022299999371170998,0.13779999315738678,1.3579999820099147,-0.4780000101710585,-0.03699999851276524
0.13761872053146362,-0.05227021127939224,9.926407814025879,0.035499997437000275,0.008799999952316284,0.10839999467134476,-1.1010000272230216,-0.642000002497352,-0.06700000028140622
0.11893436312675476,-0.03773261979222298,9.917856216430664,0.013899999670684338,0.03179999813437462,0.09860000014305115,-0.25100000712700693,0.6059999963729188,0.09200000008774706
0.1063983216881752,-0.05096776410937309,9.952207565307617,0.00559999980032444,0.012799999676644802,0.13779999315738678,1.2569999470405262,-0.6099999792664604,-0.1529999993484144
0.1292773187160492,-0.06717172265052795,9.930956840515137,0.02329999953508377,-0.010599999688565731,0.10839999467134476,-1.4679999651495583,0.2379999960219306,-0.0009999999964224499
0.1154005229473114,-0.059299588203430176,9.926398277282715,0.014099999330937862,0.0030999998562037945,0.10839999467134476,1.5690000001189468,-0.3349999947369245,0.021999999295971403
0.10946290194988251,-0.054616525769233704,9.929290771484375,0.003499999875202775,0.009200000204145908,0.10839999467134476,-1.7380000110828069,0.43600000302588643,0.05099999867112037
0.11791922152042389,-0.0437181256711483,9.936578750610352,0.014699999243021011,0.024299999698996544,0.11819999665021896,1.7860000192487178,-0.2710000016359943,0.023000000021936765
0.11393526941537857,-0.03916914016008377,9.947582244873047,0.00419999985024333,0.020099999383091927,0.12799999117851257,-1.6470000133885518,0.7059999955982822,0.08100000043976135
0.1206294521689415,-0.058236561715602875,9.941950798034668,0.016200000420212746,0.005499999970197678,0.12799999117851257,1.1550000364096713,-0.7630000052953013,-0.10600000024610218
0.11984416097402573,-0.05453033745288849,9.921341896057129,0.014099999330937862,0.012199999764561653,0.09860000014305115,0.7390000012123459,0.06200000165415938,-0.007999999971379599
0.11644439399242401,-0.048257529735565186,9.939155578613281,0.0142000000923872,0.010400000028312206,0.11819999665021896,-1.180000022875799,0.5810000099067912,0.02800000031671026
0.12196063250303268,-0.050536807626485825,9.946356773376465,0.015799999237060547,0.013599999248981476,0.12799999117851257,-0.9459999830669835,-0.5230000178265999,-0.049999999612681666
0.12444102764129639,-0.05331408232450485,9.928792953491211,0.0142000000923872,0.016499999910593033,0.10839999467134476,0.4590000247256697,-0.6330000009662436,-0.11500000177721047
0.11994951218366623,-0.0508241131901741,9.9351806640625,0.01249999925494194,0.01529999915510416,0.11819999665021896,1.5380000126320803,-0.2699999925723957,0.007000000079177565
0.13737928867340088,-0.053926996886730194,9.931024551391602,0.03139999881386757,0.011599999852478504,0.10839999467134476,1.1550000364096713,0.25299999857377775,0.0659999978879142
0.12007400393486023,-0.07488104701042175,9.918660163879395,0.012600000016391277,-0.011500000022351742,0.09860000014305115,0.3089999992071983,0.46900000863995017,0.11099999887334903
0.11876197904348373,-0.047194503247737885,9.925537109375,0.013700000010430813,0.017099998891353607,0.10839999467134476,0.12499999903170415,0.6600000055595685,0.05900000114378995
0.11734461039304733,-0.04351700842380524,9.920297622680664,0.015799999237060547,0.016699999570846558,0.09860000014305115,-0.2250000115972807,0.5260000183369693,0.04500000098543482
0.10827537626028061,-0.05795883387327194,9.932757377624512,0.007400000002235174,-0.002199999988079071,0.11819999665021896,-0.1719999981340164,0.4679999728959251,0.06299999737754478
0.10589075833559036,-0.04923436418175697,9.941932678222656,0.008499999530613422,0.007999999448657036,0.12799999117851257,0.31800000073830653,0.35199998873554245,0.057000003026912535
0.11195287108421326,-0.047596730291843414,9.946624755859375,0.01939999870955944,-0.002699999837204814,0.11809999495744705,0.7840000088678873,-0.2899999870813831,-0.049999999612681666
0.12497732788324356,-0.05250963196158409,9.938368797302246,0.008899999782443047,0.01489999983459711,0.12789998948574066,0.32700000226941484,-0.4879999940853389,-0.07199999890865307
0.12053368985652924,-0.058638785034418106,9.935649871826172,0.02719999849796295,0.00419999985024333,0.11809999495744705,0,0.4240000009844087,0.09800000110848592
0.11767023056745529,-0.04822879657149315,9.948932647705078,0.016499999910593033,-0.00419999985024333,0.11819999665021896,1.1279999784554937,-0.16400000566650674,-0.06500000216452881
0.11016201227903366,-0.058993130922317505,9.939336776733398,0.017500000074505806,0.005499999970197678,0.12799999117851257,-0.9430000359174671,-0.24299998797907083,-0.09399999820462447
0.11626243591308594,-0.04575798287987709,9.936837196350098,0.016300000250339508,0.015099999494850636,0.11819999665021896,-0.0269999995907449,0.38699998579637696,0.015999999942759198
0.10358273983001709,-0.0441969633102417,9.949516296386719,-0.002300000051036477,0.015199999324977398,0.12799999117851257,0.13100000005244303,-0.5600000063342052,-0.021999999295971403
0.12333011627197266,-0.04081634804606438,9.935917854309082,0.01549999974668026,0.014800000004470348,0.11819999665021896,-0.8069999772068176,0.5029999966371861,0.0429999995335041
0.12433568388223648,-0.04172614589333534,9.94123363494873,0.016899999231100082,0.016999999061226845,0.12799999117851257,0.5290000188473387,-0.3860000034132048,-0.12400000330831876
0.11120587587356567,-0.0511784553527832,9.936989784240723,0.006099999882280827,0.0058999997563660145,0.11819999665021896,-0.7380000188291737,0.5609999887173774,0.043999998591942806
0.11130165308713913,-0.05462610721588135,9.932317733764648,0.007899999618530273,0.008200000040233135,0.11819999665021896,-0.043999998591942806,-0.29800000622931916,-0.04200000047506539
0.12533167004585266,-0.05168602615594864,9.9342041015625,0.026799999177455902,0.008299999870359898,0.11819999665021896,0.8480000019688174,-0.023000000021936765,-0.006000000186975531
0.11857043951749802,-0.05636908486485481,9.942947387695312,0.016899999231100082,0.005699999630451202,0.12799999117851257,-1.1579999835591879,0.3759999928184979,0.021999999295971403
0.1301296502351761,-0.04689761996269226,9.93118667602539,0.027699999511241913,0.018699999898672104,0.11819999665021896,-0.566000007354944,-0.019999999511567335,0.014999999216793838
0.11187625676393509,-0.052787356078624725,9.928955078125,0.007999999448657036,0.010199999436736107,0.10839999467134476,0.5549999876966385,-0.4810000106814279,-0.08100000043976135
0.1199016198515892,-0.05895482376217842,9.940945625305176,0.016499999910593033,-0.0009999999310821295,0.12799999117851257,0.6919999754296072,0.2050000037480801,-0.07699999753589991
0.1138586550951004,-0.05933789536356926,9.937995910644531,0.0072999997064471245,-0.0031999999191612005,0.11819999665021896,0.6050000139897467,-0.004999999877891834,-0.03899999996469596
0.11201991140842438,-0.047903187572956085,9.93722915649414,0.0072999997064471245,0.004900000058114529,0.11809999495744705,0.642000002497352,0.3819999938392367,0.08100000043976135
0.10874464362859726,-0.05620627850294113,9.94361686706543,0.008200000040233135,0.003399999812245369,0.12789998948574066,-0.02600000053230619,0.3059999986968288,0.09500000059811649
0.1167125478386879,-0.050747498869895935,9.9331693649292,0.01899999938905239,0.003399999812245369,0.11809999495744705,-0.2050000037480801,0.23199999500119176,0.05200000106461238
0.11428003758192062,-0.04945463314652443,9.949201583862305,0.00969999935477972,0.0038999998942017555,0.12789998948574066,-0.627999982328677,0.3890000039235742,-0.0429999995335041
0.12035173177719116,-0.048401180654764175,9.957715034484863,0.02070000022649765,0.0058999997563660145,0.13769999146461487,0.15599999985878385,0.1849999958988795,0.06099999926066736
0.12186487019062042,-0.05981673300266266,9.937019348144531,0.021199999377131462,-0.004299999680370092,0.11809999495744705,0.37200000992495624,0.007999999971379599,0.0030000000934877653
0.12918154895305634,-0.059471968561410904,9.937756538391113,0.03099999949336052,-0.005200000014156103,0.11809999495744705,0.3450000053316314,-0.0039999999856897995,-0.009999999755783667
0.1300051510334015,-0.05199248343706131,9.936186790466309,0.021199999377131462,0.013299999758601189,0.12789998948574066,-0.44800000506736415,0.0969999987149939,-0.08299999855663877
0.12672030925750732,-0.0626801997423172,9.937507629394531,0.031199999153614044,0.0038999998942017555,0.11809999495744705,-0.44800000506736415,0.0969999987149939,-0.08299999855663877
0.11960473656654358,-0.044398076832294464,9.934864044189453,0.03150000050663948,-0.004600000102072954,0.11809999495744705,0.35899999881987993,-0.14099999730693671,-0.05200000106461238
0.1223820149898529,-0.055986013263463974,9.934969902038574,0.02279999852180481,0.013700000010430813,0.11809999495744705,-0.29999999767609,0.07199999890865307,0.007000000079177565
0.1232343539595604,-0.05057511478662491,9.935198783874512,0.022599998861551285,0.0038999998942017555,0.11809999495744705,0.9990000098704611,-0.1199999937343507,0.02899999937514897
0.11240298300981522,-0.055555056780576706,9.949488639831543,0.022599998861551285,0.0038999998942017555,0.11809999495744705,-0.07699999753589991,-0.0009999999964224499,0.012000000373951061
0.11057381331920624,-0.05588066950440407,9.935237884521484,0.012399999424815178,0.0009999999310821295,0.11809999495744705,0.5639999892277469,-0.3280000113330135,-0.0659999978879142
0.11419384926557541,-0.05218401923775673,9.947171211242676,0.011399999260902405,-0.000699999975040555,0.12789998948574066,-0.47899999255423065,0.23900000508552924,0.023000000021936765
0.11248917132616043,-0.05246174708008766,9.944316864013672,0.012000000104308128,0.00039999998989515007,0.12789998948574066,0.24800000661663751,-0.08299999855663877,-0.0749999994190225
0.11225932836532593,-0.05813121795654297,9.939845085144043,0.011699999682605267,-0.009999999776482582,0.11809999495744705,-0.12100000279794933,-0.007000000079177565,0.017999999727163266
0.11805330216884613,-0.05028781294822693,9.938628196716309,0.02149999886751175,0.00009999999747378752,0.11809999495744705,-0.1199999937343507,0.16899999762364695,0.009999999755783667
0.12188401818275452,-0.05723099783062935,9.938962936401367,0.021800000220537186,0.00039999998989515007,0.11809999495744705,0.08200000283325337,0.11200000126684104,0.012000000373951061
0.11478760838508606,-0.05421430245041847,9.937785148620605,0.012299999594688416,0.00009999999747378752,0.11809999495744705,0.4390000035362559,0.0969999987149939,0.12599999475508955
0.12220005691051483,-0.047778692096471786,9.936348915100098,0.02239999920129776,0.008700000122189522,0.11809999495744705,-0.2909999961449817,0.1830000044521087,0
0.12349291890859604,-0.05037400498986244,9.937326431274414,0.02279999852180481,0.009399999864399433,0.11809999495744705,-0.5620000244614024,0.257999990530918,-0.017999999727163266
0.12349291890859604,-0.05037400498986244,9.937326431274414,0.02199999988079071,-0.0009999999310821295,0.11809999495744705,-0.5620000244614024,0.257999990530918,-0.017999999727163266
0.11263282597064972,-0.04074931517243385,9.94323444366455,0.012999999336898327,0.010499999858438969,0.12789998948574066,0.1800000039417393,-0.1529999993484144,0.019999999511567335
0.12347377091646194,-0.04558560252189636,9.936837196350098,0.02239999920129776,0.009999999776482582,0.11809999495744705,-0.44699999600376555,0.029999998433587676,0.007000000079177565
0.12638512253761292,-0.06568731367588043,9.940132141113281,0.03229999914765358,-0.008299999870359898,0.11809999495744705,-0.3770000018820965,-0.05099999867112037,-0.07399999702553048
0.115984708070755,-0.04981854930520058,9.929740905761719,0.022299999371170998,0.0023999998811632395,0.10830000042915344,0.28699998657101367,-0.25599999908414717,-0.03699999851276524
0.12101252377033234,-0.048065993934869766,9.927327156066895,0.021699998527765274,-0.007999999448657036,0.12789998948574066,-0.07300000130214508,0.5029999966371861,0.009999999755783667
0.1136288121342659,-0.0489279069006443,9.932757377624512,0.02159999869763851,0.00029999998514540493,0.10830000042915344,-0.07300000130214508,0.5029999966371861,0.009999999755783667
0.11805330216884613,-0.04850652813911438,9.922586441040039,0.013100000098347664,0.0004999999655410647,0.11809999495744705,-0.3439999962680328,0.019999999511567335,0.029999998433587676
0.11805330216884613,-0.04850652813911438,9.922586441040039,0.02319999970495701,0.00139999995008111,0.10830000042915344,-0.3439999962680328,0.019999999511567335,0.029999998433587676
0.12219047546386719,-0.06060203164815903,9.934845924377441,0.02319999970495701,0.0023999998811632395,0.11809999495744705,0.4679999728959251,-0.22100000202331266,0.03100000082707969
0.12528377771377563,-0.05338112264871597,9.955971717834473,0.02319999970495701,-0.008499999530613422,0.11809999495744705,0.4679999728959251,-0.22100000202331266,0.03100000082707969
0.11652100831270218,-0.05022077634930611,9.9331693649292,0.03240000084042549,0,0.13769999146461487,0.6029999958625494,-0.14499999354069154,0.09200000008774706
0.1195472776889801,-0.04372769966721535,9.957772254943848,0.021299999207258224,-0.002300000051036477,0.11809999495744705,0.6380000196038104,-0.36199999933024934,0.06700000028140622
0.11511322110891342,-0.03402639552950859,9.961947441101074,0.020899999886751175,0.006000000052154064,0.13769999146461487,0.1719999981340164,-0.37200000992495624,-0.08299999855663877
0.11689449846744537,-0.06948930770158768,9.940132141113281,0.01979999989271164,0.013799999840557575,0.14749999344348907,-0.18199999538851008,0.0269999995907449,-0.02899999937514897
0.1118379533290863,-0.04842991381883621,9.939547538757324,0.008999999612569809,-0.005699999630451202,0.11809999495744705,-0.25400000763737635,0.4649999723855557,0.05099999867112037
0.11632947623729706,-0.05808333307504654,9.941864967346191,0.02019999921321869,-0.014699999243021011,0.12789998948574066,-0.03699999851276524,-0.05099999867112037,0.007999999971379599
0.11915463209152222,-0.0451354905962944,9.92335319519043,0.020099999383091927,0.004799999762326479,0.10830000042915344,0.7859999736342317,-0.44399999549339614,0.024000000747902123
0.12515929341316223,-0.04996220022439957,9.935477256774902,0.028599999845027924,-0.00699999975040555,0.11809999495744705,-0.4579999889816446,0.390999995370345,-0.03999999902313467
0.11723926663398743,-0.04287536069750786,9.932029724121094,0.019999999552965164,0.004100000020116568,0.11809999495744705,-0.4199999914104407,0.14699999832767557,0.0329999989439571
0.12635639309883118,-0.05402276664972305,9.942248344421387,0.03019999898970127,-0.004600000102072954,0.12789998948574066,0.19099999691961836,-0.5230000178265999,-0.021999999295971403
0.13187263906002045,-0.04269340634346008,9.927030563354492,0.02850000001490116,0.0044999998062849045,0.10830000042915344,-0.642000002497352,-0.014999999216793838,-0.006000000186975531
0.11580274999141693,-0.05046019330620766,9.94046688079834,0.018699999898672104,-0.003399999812245369,0.11809999495744705,0.6799999733881295,-0.407999989368963,0.03899999996469596
0.11934617161750793,-0.0507187694311142,9.928773880004883,0.01769999973475933,-0.0050999997183680534,0.10830000042915344,-0.7919999746549705,0.515999981061836,-0.024000000747902123
0.11372458189725876,-0.05517198517918587,9.927653312683105,0.009499999694526196,-0.0026000000070780516,0.10830000042915344,0.46099998949201404,-0.4649999723855557,0.013000000266153095
0.11220186948776245,-0.031335312873125076,9.929625511169434,0.008200000040233135,0.015599999576807022,0.10830000042915344,0.2959999881021219,0.12100000279794933,0.021999999295971403
0.12577220797538757,-0.054492030292749405,9.943666458129883,0.028099998831748962,-0.004699999932199717,0.10830000042915344,-0.2250000115972807,-0.28699998657101367,-0.12700000381868817
0.11894393712282181,-0.04386177286505699,9.936942100524902,0.019199999049305916,0.00699999975040555,0.11809999495744705,0.4390000035362559,-0.3660000089042174,0.03100000082707969
0.11411723494529724,-0.049914319068193436,9.933533668518066,0.019199999049305916,0.00699999975040555,0.11809999495744705,0.4390000035362559,-0.3660000089042174,0.03100000082707969
0.10752838850021362,-0.048190489411354065,9.947352409362793,0.00839999970048666,-0.0038999998942017555,0.11809999495744705,-0.7500000208706514,0.3690000094145868,0
0.11551544070243835,-0.05366842821240425,9.942813873291016,0.018699999898672104,-0.003599999938160181,0.12789998948574066,-0.5549999876966385,0.3529999977991411,-0.029999998433587676
0.10886914283037186,-0.05774814635515213,9.95158576965332,0.00969999935477972,-0.01209999993443489,0.13769999146461487,-0.475000009660689,0.5080000152747527,-0.046999999102312236
0.12141475826501846,-0.05316085368394852,9.937804222106934,0.00969999935477972,-0.01209999993443489,0.13769999146461487,0.16999999334703236,-0.4649999723855557,0.043999998591942806
0.12153925001621246,-0.061530981212854385,9.935295104980469,0.019899999722838402,-0.011099999770522118,0.11809999495744705,-0.5179999991890332,0.3660000089042174,0.010999999647985701
0.1177755743265152,-0.06639600545167923,9.935505867004395,0.020899999886751175,-0.009599999524652958,0.11809999495744705,-0.11400000605382507,0.23699998695833197,-0.08799999718388561
0.12934434413909912,-0.050345271825790405,9.940917015075684,0.020899999886751175,-0.009599999524652958,0.11809999495744705,-0.6440000206245492,0.5080000152747527,0.02899999937514897
0.11674126982688904,-0.05040273442864418,9.924751281738281,0.02279999852180481,0.001999999862164259,0.10830000042915344,-0.7630000052953013,0.6300000004558742,-0.024000000747902123
0.11936531960964203,-0.057997141033411026,9.925354957580566,0.024699999019503593,-0.005399999674409628,0.10830000042915344,0.551000004803097,0.02600000053230619,0.01700000066872456
0.10747092217206955,-0.055842362344264984,9.932557106018066,0.014999999664723873,0.003000000026077032,0.11809999495744705,0.9589999674916334,-0.7639999876784734,0.03599999945432653
0.11686577647924423,-0.04637089744210243,9.933648109436035,0.022699998691678047,0.010199999436736107,0.11809999495744705,-0.6859999744088683,0.4639999900023835,0.017999999727163266
0.10774865001440048,-0.042339060455560684,9.946816444396973,0.014299999922513962,0.012299999594688416,0.12789998948574066,-0.9910000440833778,0.7390000012123459,-0.08899999957737763
0.11592724919319153,-0.036573827266693115,9.93722915649414,0.02579999901354313,0.02449999935925007,0.11809999495744705,0.6679999713466518,-0.4500000231945614,-0.009999999755783667
0.11703815311193466,-0.05720226839184761,9.932700157165527,0.02459999918937683,0.003000000026077032,0.11809999495744705,-0.1079999983629796,0.8780000070725118,-0.014999999216793838
0.11738292127847672,-0.04269340634346008,9.926043510437012,0.027300000190734863,0.013199999928474426,0.10819999873638153,-0.838000018054537,1.2359999968287931,0.07099999651516105
0.11210609972476959,-0.053735461086034775,9.94166374206543,0.020399998873472214,0.005399999674409628,0.12780000269412994,-0.44699999600376555,-0.4390000035362559,0.05499999823992851
0.11945150792598724,-0.05359181389212608,9.941530227661133,0.02889999933540821,0.0066999997943639755,0.12789998948574066,-0.15999999609253868,0.8410000185649065,0.014999999216793838
0.1152760237455368,-0.054204728454351425,9.935286521911621,0.031199999153614044,0.007199999876320362,0.11800000071525574,0.13700000107318186,-1.3140000100983982,-0.05200000106461238
0.10602482408285141,-0.049301404505968094,9.94971752166748,0.018199998885393143,0.006799999624490738,0.12789998948574066,-0.14699999832767557,-0.6320000185830715,-0.049999999612681666
0.11959516257047653,-0.04845863953232765,9.948281288146973,0.025999998673796654,0.0072999997064471245,0.12789998948574066,-0.7029999950879127,0.8110000134612122,-0.009999999755783667
0.1261744350194931,-0.04722323641180992,9.9314546585083,0.03799999877810478,0.01899999938905239,0.11809999495744705,0.3540000068627397,-1.5810000021604245,-0.035000000395887826
0.10861056298017502,-0.06407841295003891,9.92956829071045,0.014099999330937862,-0.001500000013038516,0.10830000042915344,0.5189999815722054,-1.0379999631444108,-0.01400000015835513
0.11899182200431824,-0.058763287961483,9.928265571594238,0.020999999716877937,-0.002899999963119626,0.10830000042915344,-0.8029999943132761,1.0689999506312773,-0.03999999902313467
0.1100662350654602,-0.047242388129234314,9.932096481323242,0.013799999840557575,0.01860000006854534,0.11809999495744705,-0.7200000157669572,0.44099999498302667,-0.019999999511567335
0.12676818668842316,-0.04891832917928696,9.936166763305664,0.03460000082850456,0.010699999518692493,0.11809999495744705,-0.28499999512424284,0.9949999736160666,-0.024999999806340833
0.10506714880466461,-0.040251318365335464,9.941213607788086,0.027799999341368675,0.011599999852478504,0.11809999495744705,-0.6579999874323713,-1.5089999899115583,0.03899999996469596
0.12145306169986725,-0.057451263070106506,9.933236122131348,0.021399999037384987,0.012799999676644802,0.11809999495744705,-0.0269999995907449,-0.39599998732748526,-0.006000000186975531
0.12254482507705688,-0.05870582535862923,9.944517135620117,0.02019999921321869,0.0030999998562037945,0.12799999117851257,0.05600000063342052,-0.6339999833494159,-0.03400000133744912
0.11836933344602585,-0.0543866828083992,9.942985534667969,0.018699999898672104,0.01269999984651804,0.12799999117851257,0.559000023951033,-1.132000014709888,-0.021000000237532696
0.12289915978908539,-0.05191586911678314,9.9386568069458,0.015199999324977398,0.010999999940395355,0.11819999665021896,-0.7410000193395431,-0.6200000165415938,-0.007999999971379599
0.11404062062501907,-0.05499960482120514,9.946250915527344,0.003599999938160181,0.012999999336898327,0.12799999117851257,-1.1899999534292265,-0.6519999864116324,0.007999999971379599
0.09811438620090485,-0.052308518439531326,9.947352409362793,-0.007699999958276749,0.01589999906718731,0.12809999287128448,1.3359999426933036,0.7600000047849319,0.02800000031671026
0.12456552684307098,-0.054683566093444824,9.96505069732666,0.024000000208616257,0.011799999512732029,0.147599995136261,1.611999989647291,0.5059999971475555,0.019999999511567335
0.11971008032560349,-0.0469263531267643,9.9473237991333,0.015399999916553497,0.01769999973475933,0.12799999117851257,-0.5969999948418105,-0.2289999944908223,-0.024999999806340833
0.12081141769886017,-0.04908113554120064,9.946232795715332,0.014699999243021011,0.009599999524652958,0.12799999117851257,0.733000000191607,0.40599999792219216,-0.021999999295971403
0.11539094895124435,-0.056838348507881165,9.940629959106445,0.01599999889731407,0.0072999997064471245,0.11819999665021896,0.5679999721212884,0.739999983595518,-0.04500000098543482
0.10554599016904831,-0.04360320419073105,9.932211875915527,0.007899999618530273,0.015699999406933784,0.11809999495744705,-1.904999950558617,-0.390999995370345,-0.04600000004387353
0.12188401818275452,-0.05298847332596779,9.937775611877441,0.016599999740719795,0.011099999770522118,0.11819999665021896,0.2159999967259592,0.0329999989439571,0.023000000021936765
0.12909534573554993,-0.050345271825790405,9.935017585754395,0.026499999687075615,0.010400000028312206,0.11819999665021896,0.3860000034132048,-0.07000000079177565,-0.004999999877891834
0.11816821992397308,-0.06251739710569382,9.945427894592285,0.016499999910593033,-0.00019999999494757503,0.12799999117851257,-0.8769999713284867,0.23199999500119176,-0.017999999727163266
0.12040919810533524,-0.049828123301267624,9.937019348144531,0.01719999872148037,0.012199999764561653,0.11819999665021896,-0.06099999926066736,0.06500000216452881,0.03899999996469596
0.11582189798355103,-0.04527914524078369,9.917396545410156,0.01730000041425228,0.022099999710917473,0.09860000014305115,1.5479999431855078,0.09099999769425504,-0.04200000047506539
0.12064861506223679,-0.052145712077617645,9.933112144470215,0.017500000074505806,0.008599999360740185,0.11819999665021896,1.2270000486585377,0.2570000081477458,-0.02899999937514897
0.12182655930519104,-0.059136781841516495,9.914599418640137,0.018299998715519905,-0.004900000058114529,0.09849999845027924,1.2660000019324873,-0.36399999077702017,-0.019999999511567335
0.11322658509016037,-0.046294283121824265,9.943387985229492,0.007599999662488699,0.011599999852478504,0.12789998948574066,2.1379999012625546,-0.10499999785261017,0.024999999806340833
0.11758402734994888,-0.048382025212049484,9.937767028808594,0.016999999061226845,-0.004699999932199717,0.11809999495744705,2.2919999630354204,-0.10600000024610218,-0.043999998591942806
0.12353122979402542,-0.049464207142591476,9.926054000854492,0.016699999570846558,-0.010999999940395355,0.10830000042915344,-1.6249999740719407,0.2710000016359943,-0.08299999855663877
0.1056704893708229,-0.04684973880648613,9.958930969238281,0.007499999832361937,0.0026000000070780516,0.13769999146461487,-1.9659999431491777,0.31600000929153577,-0.16699999283666295
0.12112744897603989,-0.03232172504067421,9.94313907623291,0.018199998885393143,0.017799999564886093,0.12789998948574066,-0.24800000661663751,0.42599999243117953,0
0.10999920964241028,-0.05282566323876381,9.941692352294922,0.00969999935477972,-0.0009999999310821295,0.12789998948574066,-0.8299999989066009,-0.041000001416626686,0.009999999755783667
0.11365754157304764,-0.07114609330892563,9.933034896850586,0.009599999524652958,-0.018299998715519905,0.11809999495744705,0.9910000440833778,0.18700000068586353,0.006000000186975531
0.12403880059719086,-0.050747498869895935,9.94592571258545,0.01979999989271164,-0.0010999999940395355,0.12789998948574066,-0.22800001210765014,0.07999999804626934,0.014999999216793838
0.11573570966720581,-0.06248866394162178,9.952773094177246,0.019999999552965164,-0.010199999436736107,0.13769999146461487,-1.5579999804606413,0.17100000241063099,0.03699999851276524
0.12486240267753601,-0.054041918367147446,9.927001953125,0.03019999898970127,0.0032999999821186066,0.10830000042915344,0.815999978737926,-0.10400000212922476,0.06099999926066736
0.11698069423437119,-0.05085284262895584,9.935870170593262,0.020099999383091927,0.0007999999797903001,0.11809999495744705,-0.9510000017045502,0.11699999322398127,-0.08400000095013078
0.12905704975128174,-0.058495137840509415,9.92198371887207,0.020399998873472214,-0.006399999838322401,0.10830000042915344,-0.885999972859595,0.08200000283325337,-0.007999999971379599
0.11232636868953705,-0.05073792114853859,9.929147720336914,0.02969999983906746,-0.009200000204145908,0.10830000042915344,-0.8329999994169703,-0.014999999216793838,0.024999999806340833
0.12190317362546921,-0.037052664905786514,9.928466796875,0.020099999383091927,0.024799998849630356,0.10830000042915344,0.7840000088678873,-0.02899999937514897,0.0429999995335041
0.11989204585552216,-0.05152321979403496,9.941434860229492,0.019999999552965164,0.003000000026077032,0.12789998948574066,0.2469999975530389,0.19000000119623298,0.019999999511567335
0.11715307831764221,-0.04990473762154579,9.938628196716309,0.020600000396370888,0.002300000051036477,0.11809999495744705,-0.9089999945593782,0.17700000343136985,-0.03699999851276524
0.1037934347987175,-0.046150632202625275,9.933945655822754,0.0013000000035390258,0.014299999922513962,0.11809999495744705,0.6330000009662436,-0.06899999839828364,-0.06700000028140622
0.1138586550951004,-0.04148672893643379,9.933457374572754,0.010900000110268593,0.01249999925494194,0.11809999495744705,0.01700000066872456,-0.05300000012305109,-0.021000000237532696
0.10499053448438644,-0.053112972527742386,9.935381889343262,0.0009999999310821295,0.002699999837204814,0.11809999495744705,0.5069999795307276,-0.08499999667351618,0.0539999991814898
0.11010454595088959,-0.033729515969753265,9.952945709228516,0.010599999688565731,0.0210999995470047,0.13769999146461487,-0.038000000906257256,-0.03400000133744912,0.024999999806340833
0.131489560008049,-0.0483437180519104,9.940831184387207,0.029999999329447746,0.0015999999595806003,0.12789998948574066,0.44699999600376555,-0.029999998433587676,0.16599999711327754
0.10743261873722076,-0.050603847950696945,9.935850143432617,0.010199999436736107,0.00029999998514540493,0.11809999495744705,0.4999999961268166,-0.03699999851276524,0.07699999753589991
0.12954546511173248,-0.05317043140530586,9.929452896118164,0.02969999983906746,-0.0007999999797903001,0.10830000042915344,0.49099999459570837,-0.04600000004387353,0.021000000237532696
0.12074437737464905,-0.057527877390384674,9.935247421264648,0.019700000062584877,-0.01209999993443489,0.11809999495744705,-0.551000004803097,-0.004999999877891834,-0.06399999977103679
0.11609005182981491,-0.04929182305932045,9.94118595123291,0.019600000232458115,-0.0008999999845400453,0.12789998948574066,-0.4590000247256697,0.11400000605382507,-0.03599999945432653
0.11828314512968063,-0.054013192653656006,9.92825698852539,0.019899999722838402,0.00039999998989515007,0.10830000042915344,0.012000000373951061,0.07099999651516105,0.09399999820462447
0.11930786073207855,-0.0610138364136219,9.927203178405762,0.019999999552965164,-0.00930000003427267,0.10830000042915344,0.4100000074961602,-0.03100000082707969,0.01700000066872456
0.1088787168264389,-0.061416059732437134,9.937335014343262,0.010099999606609344,-0.010400000028312206,0.11809999495744705,0.31800000073830653,-0.049999999612681666,-0.049999999612681666
0.11243171244859695,-0.04968447610735893,9.919857025146484,0.00989999994635582,-0.001500000013038516,0.09849999845027924,0.019000000453128628,0.03400000133744912,0.07199999890865307
0.12555193901062012,-0.05081453546881676,9.939720153808594,0.019700000062584877,-0.001500000013038516,0.09849999845027924,-0.2729999930827651,0.031999999885518396,-0.09899999683187131
0.12555193901062012,-0.05081453546881676,9.939720153808594,0.029199998825788498,-0.0026000000070780516,0.11809999495744705,-0.2729999930827651,0.031999999885518396,-0.09899999683187131
0.12464214116334915,-0.048449065536260605,9.943291664123535,0.00969999935477972,0.007899999618530273,0.11809999495744705,-0.32299999269544677,0.01700000066872456,0.010999999647985701
0.12464214116334915,-0.048449065536260605,9.943291664123535,0.029199998825788498,-0.001999999862164259,0.12789998948574066,-0.32299999269544677,0.01700000066872456,0.010999999647985701
0.11853213608264923,-0.04559517651796341,9.931550979614258,0.009599999524652958,0.028199998661875725,0.13769999146461487,-0.029999998433587676,-0.03599999945432653,-0.05600000063342052
0.11853213608264923,-0.04559517651796341,9.931550979614258,0.019299998879432678,0.008700000122189522,0.11809999495744705,-0.33300000329015367,0.021000000237532696,-0.0749999994190225
0.11817779392004013,-0.04386177286505699,9.93921184539795,0.009499999694526196,-0.009800000116229057,0.12789998948574066,-0.20599999947146552,0.049999999612681666,0.023000000021936765
0.10796891897916794,-0.06522762775421143,9.929779052734375,0.019099999219179153,0.009200000204145908,0.11809999495744705,-0.11599999750059588,0.021000000237532696,-0.11500000177721047
0.11898224800825119,-0.04959828034043312,9.930038452148438,0.019199999049305916,0.00039999998989515007,0.10830000042915344,0.02800000031671026,0.03699999851276524,-0.08400000095013078
0.12790782749652863,-0.05113057419657707,9.926934242248535,0.028999999165534973,0.00029999998514540493,0.10830000042915344,-0.06299999737754478,0.05300000012305109,-0.015999999942759198
0.11801499128341675,-0.050153736025094986,9.939422607421875,0.028999999165534973,0.00029999998514540493,0.10830000042915344,0.07699999753589991,0.006000000186975531,0.05799999875029794
0.10585244745016098,-0.06613742560148239,9.93757438659668,0.009399999864399433,-0.009399999864399433,0.11809999495744705,0.20899999998183494,0.009999999755783667,0.17700000343136985
0.10661859065294266,-0.04713704437017441,9.940878868103027,0.009399999864399433,0.009599999524652958,0.12789998948574066,0.02899999937514897,-0.046999999102312236,-0.11699999322398127
0.12157756090164185,-0.04403415694832802,9.929444313049316,0.01899999938905239,0.009499999694526196,0.10830000042915344,0.10400000212922476,0.0039999999856897995,-0.0429999995335041
0.1205049604177475,-0.039657559245824814,9.939920425415039,0.01889999955892563,0.009200000204145908,0.11809999495744705,-0.0859999990670082,-0.0039999999856897995,-0.16999999334703236
0.11349473893642426,-0.04329674690961838,9.92203140258789,0.008999999612569809,0.009399999864399433,0.10830000042915344,0.14300000209392072,-0.008999999863581633,0.16999999334703236
0.12009315192699432,-0.04713704437017441,9.924722671508789,0.018699999898672104,0.009099999442696571,0.10830000042915344,0.1610000051561373,-0.007000000079177565,0.05200000106461238
0.11657846719026566,-0.05262455344200134,9.944421768188477,0.01860000006854534,-0.0010999999940395355,0.12789998948574066,0.0659999978879142,-0.03999999902313467,0.30100000673968863
0.11371500045061111,-0.050297390669584274,9.933245658874512,0.008700000122189522,-0.0013000000035390258,0.11809999495744705,-0.14300000209392072,0.021000000237532696,-0.06899999839828364
0.10731769353151321,-0.05277778208255768,9.936952590942383,0.008700000122189522,-0.0008999999845400453,0.11809999495744705,-0.10199999734224074,0.0539999991814898,-0.046999999102312236
0.12401964515447617,-0.04937801882624626,9.948989868164062,0.008799999952316284,-0.0005999999702908099,0.10830000042915344,-0.07699999753589991,0.029999998433587676,0.48199999306460006
0.12401964515447617,-0.04937801882624626,9.948989868164062,0.01850000023841858,-0.0008999999845400453,0.12789998948574066,-0.07699999753589991,0.029999998433587676,0.48199999306460006
0.12956462800502777,-0.05352477356791496,9.933762550354004,0.0284000001847744,-0.000699999975040555,0.11809999495744705,-0.02899999937514897,0.08200000283325337,-0.0019999999928448997
0.12916240096092224,-0.05602432042360306,9.938417434692383,0.02850000001490116,-0.0005999999702908099,0.11809999495744705,0.18700000068586353,-0.006000000186975531,-0.37100000086135765
0.11250832676887512,-0.06523720920085907,9.944345474243164,0.008799999952316284,-0.010900000110268593,0.12789998948574066,-0.08400000095013078,0.05600000063342052,0.048000001495804245
0.11879070848226547,-0.05457821860909462,9.937125205993652,0.018699999898672104,-0.0008999999845400453,0.11809999495744705,0.09399999820462447,0.0019999999928448997,-0.0659999978879142
0.12412498891353607,-0.06526593863964081,9.934366226196289,0.008899999782443047,-0.0010999999940395355,0.11809999495744705,-0.10900000075647161,0.03699999851276524,0.06099999926066736
0.12216175347566605,-0.061971515417099,9.936501502990723,0.01860000006854534,-0.010900000110268593,0.11809999495744705,-0.043999998591942806,-0.013000000266153095,0.01400000015835513
0.11622412502765656,-0.05542098358273506,9.946260452270508,0.01860000006854534,-0.010900000110268593,0.11809999495744705,-0.043999998591942806,-0.013000000266153095,0.01400000015835513
0.11073661595582962,-0.050297390669584274,9.930315017700195,0.01850000023841858,-0.0009999999310821295,0.12789998948574066,0.07799999992939192,-0.02600000053230619,-0.046999999102312236
0.11744996160268784,-0.04717535153031349,9.943110466003418,0.008599999360740185,-0.0007999999797903001,0.10830000042915344,-0.04200000047506539,0.0329999989439571,0.04600000004387353
0.10976935923099518,-0.05002924054861069,9.93659782409668,0.018299998715519905,0.008700000122189522,0.12789998948574066,-0.015999999942759198,0.019999999511567335,0.03699999851276524
0.13070425391197205,-0.05978800728917122,9.94602108001709,0.028099998831748962,-0.010599999688565731,0.12789998948574066,0.0009999999964224499,0.09000000197086964,0.1199999937343507
0.12603077292442322,-0.04163995757699013,9.927911758422852,0.028199998661875725,0.008899999782443047,0.10830000042915344,0.03699999851276524,0.0659999978879142,0.06800000267489824
0.12421118468046188,-0.04727111756801605,9.939623832702637,0.018199998885393143,0.008599999360740185,0.11809999495744705,0.05900000114378995,0.012000000373951061,-0.03599999945432653
0.12148179858922958,-0.05602432042360306,9.933399200439453,0.017799999564886093,-0.0011999999405816197,0.11809999495744705,0.04200000047506539,0.0019999999928448997,-0.03599999945432653
0.11467268317937851,-0.04723281040787697,9.95283031463623,0.007899999618530273,0.008200000040233135,0.13769999146461487,0.05900000114378995,0.06099999926066736,0.0269999995907449
0.11058338731527328,-0.04663905128836632,9.942889213562012,0.007899999618530273,0.007899999618530273,0.12789998948574066,0.02899999937514897,0.03400000133744912,0.014999999216793838
0.11131122708320618,-0.048496946692466736,9.940381050109863,0.007799999788403511,-0.0018999999156221747,0.11809999495744705,0.07699999753589991,-0.023000000021936765,-0.0039999999856897995
0.11222102493047714,-0.05077622830867767,9.952964782714844,0.007599999662488699,-0.002099999925121665,0.13769999146461487,0.017999999727163266,-0.021000000237532696,0.029999998433587676
0.11984416097402573,-0.04068227484822273,9.953558921813965,0.017099998891353607,0.007400000002235174,0.13769999146461487,-0.06700000028140622,0.09099999769425504,0.05099999867112037
0.1123167872428894,-0.047807417809963226,9.940322875976562,0.0072999997064471245,0.007499999832361937,0.11809999495744705,0.008999999863581633,-0.0019999999928448997,-0.006000000186975531
0.11891520768404007,-0.05546886473894119,9.92215633392334,0.01679999940097332,-0.002199999988079071,0.10830000042915344,0.029999998433587676,-0.0009999999964224499,0.015999999942759198
0.11789049208164215,-0.05566997826099396,9.934375762939453,0.006799999624490738,-0.002199999988079071,0.11809999495744705,-0.0539999991814898,0.0019999999928448997,0.04200000047506539
0.11971966922283173,-0.057288460433483124,9.944604873657227,0.01640000008046627,-0.002300000051036477,0.11809999495744705,0.009999999755783667,-0.015999999942759198,-0.007999999971379599
0.1210891455411911,-0.0530746653676033,9.929817199707031,0.016099998727440834,-0.002099999925121665,0.12789998948574066,-0.03699999851276524,-0.006000000186975531,-0.02899999937514897
0.12797486782073975,-0.05207867547869682,9.936272621154785,0.015699999406933784,-0.002099999925121665,0.10830000042915344,-0.048000001495804245,0.007000000079177565,0.048000001495804245
0.12716084718704224,-0.0633888840675354,9.931628227233887,0.02499999850988388,-0.001999999862164259,0.11809999495744705,-0.021000000237532696,0.0019999999928448997,-0.0039999999856897995
0.11524729430675507,-0.05559336394071579,9.940715789794922,0.014599999412894249,-0.001500000013038516,0.11809999495744705,-0.007999999971379599,0.008999999863581633,0.0019999999928448997
0.10598652064800262,-0.04903325065970421,9.933600425720215,0.014599999412894249,-0.001500000013038516,0.11809999495744705,-0.0030000000934877653,0.05499999823992851,0.01400000015835513
0.10112150758504868,-0.05641696974635124,9.93576431274414,-0.004799999762326479,-0.001500000013038516,0.11809999495744705,-0.031999999885518396,-0.024999999806340833,-0.041000001416626686
0.12003570050001144,-0.049464207142591476,9.930899620056152,-0.004799999762326479,-0.001500000013038516,0.11809999495744705,-0.05600000063342052,0.0429999995335041,0.049999999612681666
0.10878295451402664,-0.05718311294913292,9.939356803894043,0.004600000102072954,-0.0011999999405816197,0.11809999495744705,0.007000000079177565,0.043999998591942806,0.008999999863581633
0.11753614991903305,-0.05689580738544464,9.934366226196289,0.004600000102072954,-0.0011999999405816197,0.11809999495744705,-0.02800000031671026,0.006000000186975531,-0.01400000015835513
0.11615709215402603,-0.059969961643218994,9.946796417236328,0.014099999330937862,-0.010799999348819256,0.12799999117851257,0.0019999999928448997,0.015999999942759198,0.07399999702553048
0.10739430785179138,-0.05257666856050491,9.929041862487793,0.00419999985024333,-0.0009999999310821295,0.10830000042915344,0.06099999926066736,0.02600000053230619,0
0.11830229312181473,-0.05173391103744507,9.94210433959961,0.013899999670684338,-0.0010999999940395355,0.12799999117851257,0.010999999647985701,0.04900000055424296,0.038000000906257256
0.11180921643972397,-0.04927267134189606,9.957111358642578,0.004100000020116568,-0.0010999999940395355,0.13779999315738678,0.029999998433587676,-0.02600000053230619,-0.04200000047506539
0.12119448930025101,-0.05300762504339218,9.944039344787598,0.004100000020116568,-0.0010999999940395355,0.13779999315738678,-0.02899999937514897,0.024999999806340833,0.0659999978879142
0.12043792009353638,-0.052030790597200394,9.929779052734375,0.013499999418854713,-0.0010999999940395355,0.10839999467134476,-0.05099999867112037,0,0.038000000906257256
0.12102211266756058,-0.050086699426174164,9.945255279541016,0.013299999758601189,-0.0008999999845400453,0.12799999117851257,0.0039999999856897995,0.006000000186975531,0.04600000004387353
0.11227848380804062,-0.05312254652380943,9.947831153869629,0.003399999812245369,-0.0008999999845400453,0.12799999117851257,0.019999999511567335,-0.007999999971379599,0.008999999863581633
0.11194329708814621,-0.0510731115937233,9.937191009521484,0.0032999999821186066,-0.0009999999310821295,0.11819999665021896,-0.03400000133744912,-0.007000000079177565,-0.004999999877891834
0.12197021394968033,-0.050086699426174164,9.941520690917969,0.012899999506771564,-0.0007999999797903001,0.12799999117851257,0.0030000000934877653,0.006000000186975531,0.031999999885518396
0.12103168666362762,-0.055181559175252914,9.942622184753418,0.012799999676644802,-0.0007999999797903001,0.12799999117851257,0.01700000066872456,-0.012000000373951061,0.0039999999856897995
0.11606132239103317,-0.05504748597741127,9.943838119506836,0.01249999925494194,-0.0008999999845400453,0.12799999117851257,0.007999999971379599,0.0030000000934877653,0.0019999999928448997
0.11829271912574768,-0.04344039410352707,9.941798210144043,0.012399999424815178,0.008700000122189522,0.12799999117851257,0.010999999647985701,0.014999999216793838,0.0659999978879142
0.12744814157485962,-0.062287550419569016,9.938762664794922,0.021900000050663948,-0.010699999518692493,0.11819999665021896,0.0030000000934877653,0.019999999511567335,-0.0019999999928448997
0.12055283784866333,-0.05151364579796791,9.938054084777832,0.012000000104308128,-0.0008999999845400453,0.11819999665021896,0.0539999991814898,0.038000000906257256,-0.013000000266153095
0.11483548581600189,-0.045413218438625336,9.934749603271484,0.002199999988079071,0.008499999530613422,0.11819999665021896,0.03100000082707969,0.05300000012305109,0.0749999994190225
0.12006442993879318,-0.05414726585149765,9.933178901672363,0.012000000104308128,-0.0011999999405816197,0.11819999665021896,-0.01400000015835513,0.015999999942759198,-0.013000000266153095
0.10631213337182999,-0.05779602751135826,9.94482421875,0.002199999988079071,-0.0011999999405816197,0.12799999117851257,-0.0039999999856897995,0.010999999647985701,0.02800000031671026
0.1116272583603859,-0.04945463314652443,9.941701889038086,0.002099999925121665,-0.0008999999845400453,0.12799999117851257,0.05200000106461238,0.03599999945432653,0.04900000055424296
0.1117326021194458,-0.05321831628680229,9.95344352722168,0.002199999988079071,-0.0009999999310821295,0.13779999315738678,0.06700000028140622,0,0.14499999354069154
0.10571836680173874,-0.05507621914148331,9.93300724029541,0.002099999925121665,-0.0011999999405816197,0.11819999665021896,-0.05200000106461238,0.0269999995907449,0.02899999937514897
0.11941319704055786,-0.045250412076711655,9.956613540649414,0.011899999342858791,0.008599999360740185,0.13779999315738678,0.0009999999964224499,0.021000000237532696,-0.06200000165415938
0.11570698022842407,-0.04666777700185776,9.937220573425293,0.011799999512732029,0.00839999970048666,0.11819999665021896,-0.0009999999964224499,0.0009999999964224499,-0.013000000266153095
0.10741347074508667,-0.060774415731430054,9.936837196350098,0.0018999999156221747,-0.010900000110268593,0.11819999665021896,-0.013000000266153095,-0.0030000000934877653,-0.0019999999928448997
0.11980585753917694,-0.06102341413497925,9.937814712524414,0.011500000022351742,-0.010699999518692493,0.11819999665021896,-0.0009999999964224499,0.048000001495804245,0.021000000237532696
0.11455776542425156,-0.04438849911093712,9.934864044189453,0.0017999999690800905,0.008700000122189522,0.11819999665021896,0.012000000373951061,0.024000000747902123,-0.05200000106461238
0.1209838017821312,-0.044943954795598984,9.931129455566406,0.011500000022351742,0.008499999530613422,0.10839999467134476,-0.024000000747902123,0.007000000079177565,0.03699999851276524
0.11096645891666412,-0.04435976967215538,9.93628215789795,0.0016999999061226845,0.008499999530613422,0.11819999665021896,0.10600000024610218,0,0.023000000021936765
0.11769896000623703,-0.04890875145792961,9.93554401397705,0.011399999260902405,-0.001500000013038516,0.11819999665021896,0.015999999942759198,0.0009999999964224499,-0.06299999737754478
0.12251608818769455,-0.05122634023427963,9.946481704711914,0.01119999960064888,-0.0015999999595806003,0.12799999117851257,0.019999999511567335,-0.02600000053230619,-0.004999999877891834
0.1102098897099495,-0.041955988854169846,9.932403564453125,0.0013000000035390258,0.007999999448657036,0.11819999665021896,0.03999999902313467,0.04200000047506539,0
0.1193174347281456,-0.053112972527742386,9.940878868103027,0.011099999770522118,-0.0017999999690800905,0.12799999117851257,0.05300000012305109,-0.031999999885518396,0.02600000053230619
0.11447156965732574,-0.05427176132798195,9.935286521911621,0.0010999999940395355,-0.0018999999156221747,0.11819999665021896,0.009999999755783667,-0.004999999877891834,0.046999999102312236
0.11692323535680771,-0.051504068076610565,9.936051368713379,0.010799999348819256,-0.0018999999156221747,0.11819999665021896,-0.06399999977103679,-0.008999999863581633,-0.0009999999964224499
0.10998962074518204,-0.04990473762154579,9.931838035583496,0.0008999999845400453,-0.0016999999061226845,0.11819999665021896,0.004999999877891834,-0.006000000186975531,-0.006000000186975531
0.12019850313663483,-0.05277778208255768,9.94123363494873,0.010599999688565731,-0.0016999999061226845,0.12799999117851257,-0.015999999942759198,-0.017999999727163266,-0.02600000053230619
0.12350250035524368,-0.056531891226768494,9.946816444396973,0.010400000028312206,-0.0016999999061226845,0.12799999117851257,0.024000000747902123,0.0039999999856897995,-0.014999999216793838
0.12102211266756058,-0.07326257228851318,9.947525024414062,0.010300000198185444,-0.0210999995470047,0.12799999117851257,0.0019999999928448997,0.009999999755783667,0.06800000267489824
0.10511502623558044,-0.04996220022439957,9.939020156860352,-0.009099999442696571,-0.001500000013038516,0.11819999665021896,-0.03999999902313467,-0.009999999755783667,0.024000000747902123
0.12426864355802536,-0.05516240745782852,9.947534561157227,0.010199999436736107,-0.0013000000035390258,0.12799999117851257,-0.017999999727163266,-0.0039999999856897995,-0.004999999877891834
0.11486422270536423,-0.06614699959754944,9.942075729370117,0.00039999998989515007,-0.010999999940395355,0.12799999117851257,0.007000000079177565,0.01700000066872456,0.0009999999964224499
0.11560162901878357,-0.05658935010433197,9.934941291809082,0.010099999606609344,-0.0011999999405816197,0.11819999665021896,0.009999999755783667,0.01700000066872456,-0.0659999978879142
0.1249869093298912,-0.06246950849890709,9.93833065032959,0.019700000062584877,-0.010900000110268593,0.11819999665021896,-0.029999998433587676,-0.019999999511567335,0
0.11567824333906174,-0.05274904891848564,9.940170288085938,0.00969999935477972,-0.0009999999310821295,0.11819999665021896,0.012000000373951061,-0.019999999511567335,0.03699999851276524
0.11258494108915329,-0.0530746653676033,9.942535400390625,-0.00009999999747378752,-0.0009999999310821295,0.12799999117851257,-0.0039999999856897995,0.021999999295971403,-0.015999999942759198
0.10611101984977722,-0.06461471319198608,9.952256202697754,0,-0.010699999518692493,0.13779999315738678,-0.0039999999856897995,0.0009999999964224499,-0.023000000021936765
0.12734279036521912,-0.05139872431755066,9.9403715133667,0.019299998879432678,-0.0008999999845400453,0.11819999665021896,0.019999999511567335,0.007000000079177565,0.031999999885518396
0.12183613330125809,-0.06914454698562622,9.941261291503906,0.00930000003427267,-0.020499998703598976,0.12799999117851257,0.013000000266153095,-0.004999999877891834,-0.03400000133744912
0.11531433463096619,-0.04331589862704277,9.939231872558594,0.009099999442696571,0.008700000122189522,0.11819999665021896,-0.05900000114378995,-0.014999999216793838,-0.049999999612681666
0.11322658509016037,-0.0588877871632576,9.930219650268555,-0.0005999999702908099,-0.010499999858438969,0.10839999467134476,-0.06399999977103679,0.015999999942759198,0.05900000114378995
0.12459425628185272,-0.03819230571389198,9.944479942321777,0.018699999898672104,0.018699999898672104,0.12799999117851257,0.008999999863581633,-0.008999999863581633,0.0269999995907449
0.12016976624727249,-0.04817133769392967,9.947065353393555,0.008799999952316284,-0.0007999999797903001,0.12799999117851257,0.008999999863581633,-0.023000000021936765,0.0019999999928448997
0.12850159406661987,-0.04081634804606438,9.940811157226562,0.018299998715519905,0.008799999952316284,0.12799999117851257,-0.043999998591942806,0,-0.006000000186975531
0.11254663020372391,-0.059376202523708344,9.936166763305664,-0.0011999999405816197,-0.010499999858438969,0.11819999665021896,-0.014999999216793838,0.01700000066872456,0.0269999995907449
0.11818736791610718,-0.04585375264286995,9.938714027404785,0.00839999970048666,0.008999999612569809,0.11819999665021896,-0.01700000066872456,0.024000000747902123,0.007000000079177565
0.11175175756216049,-0.0392170213162899,9.953126907348633,-0.0011999999405816197,0.008899999782443047,0.13779999315738678,-0.04600000004387353,-0.012000000373951061,0.06899999839828364
0.11299674212932587,-0.05162856727838516,9.941988945007324,-0.0013000000035390258,-0.000699999975040555,0.12799999117851257,0.03899999996469596,-0.048000001495804245,0.006000000186975531
0.11145488172769547,-0.05512410029768944,9.949143409729004,-0.00139999995008111,-0.0007999999797903001,0.12799999117851257,0.007999999971379599,-0.015999999942759198,0.019000000453128628
0.11365754157304764,-0.061291564255952835,9.944747924804688,-0.00139999995008111,-0.010499999858438969,0.12799999117851257,0.007999999971379599,-0.007000000079177565,0.0329999989439571
0.11626243591308594,-0.04048116132616997,9.954429626464844,0.008200000040233135,0.008899999782443047,0.13779999315738678,-0.008999999863581633,0.024000000747902123,-0.010999999647985701
0.11194329708814621,-0.05962519720196724,9.936884880065918,-0.001500000013038516,-0.010400000028312206,0.11819999665021896,0.046999999102312236,-0.01700000066872456,-0.008999999863581633
0.12129983305931091,-0.06157886981964111,9.948463439941406,0.008100000210106373,-0.010499999858438969,0.12799999117851257,0.010999999647985701,-0.02600000053230619,-0.0539999991814898
0.12232455611228943,-0.06266104429960251,9.947218894958496,0.007899999618530273,-0.010400000028312206,0.12799999117851257,-0.01400000015835513,0.0030000000934877653,0.009999999755783667
0.11601343750953674,-0.04204218462109566,9.935898780822754,0.007799999788403511,0.009099999442696571,0.11819999665021896,-0.024000000747902123,-0.007000000079177565,0.03400000133744912
0.11276689916849136,-0.06261315941810608,9.94455623626709,-0.0018999999156221747,-0.010300000198185444,0.12799999117851257,0.014999999216793838,0.010999999647985701,0.0019999999928448997
0.11830229312181473,-0.04590163379907608,9.941875457763672,0.007699999958276749,0.009099999442696571,0.12799999117851257,-0.012000000373951061,-0.017999999727163266,-0.004999999877891834
0.11029607802629471,-0.05622543394565582,9.940648078918457,-0.001999999862164259,-0.0005999999702908099,0.11819999665021896,0.007000000079177565,-0.019999999511567335,-0.008999999863581633
0.10438719391822815,-0.04392881318926811,9.934979438781738,-0.011799999512732029,0.008999999612569809,0.11819999665021896,-0.021000000237532696,-0.017999999727163266,0.0269999995907449
0.11528559774160385,-0.05533478781580925,9.936406135559082,0.007599999662488699,-0.0005999999702908099,0.11819999665021896,0.012000000373951061,0.010999999647985701,0.05200000106461238
0.1157548651099205,-0.056627657264471054,9.954439163208008,0.007499999832361937,-0.0005999999702908099,0.13779999315738678,-0.019999999511567335,0.02899999937514897,0.03400000133744912
0.11202948540449142,-0.04826710373163223,9.926934242248535,0.007499999832361937,-0.019999999552965164,0.12799999117851257,-0.009999999755783667,0.07199999890865307,-0.007999999971379599
0.11923124641180038,-0.05239471048116684,9.94553279876709,-0.002199999988079071,-0.0004999999655410647,0.10839999467134476,0.024999999806340833,0.03999999902313467,-0.021999999295971403
0.11046846956014633,-0.05446329712867737,9.936176300048828,0.007599999662488699,-0.00039999998989515007,0.12799999117851257,-0.043999998591942806,-0.0019999999928448997,-0.017999999727163266
0.11667423695325851,-0.05678088590502739,9.943598747253418,-0.001999999862164259,-0.0004999999655410647,0.11819999665021896,0.04200000047506539,0.024000000747902123,0.019999999511567335
0.12742899358272552,-0.05692454054951668,9.927193641662598,0.007599999662488699,-0.00039999998989515007,0.12799999117851257,0,0.010999999647985701,0.017999999727163266
0.10768161714076996,-0.04685931280255318,9.939834594726562,0.01730000041425228,-0.0004999999655410647,0.10839999467134476,-0.06899999839828364,-0.024999999806340833,-0.0039999999856897995
0.12070606648921967,-0.048851292580366135,9.935161590576172,0.007400000002235174,-0.00039999998989515007,0.11819999665021896,-0.03400000133744912,0.01400000015835513,-0.006000000186975531
0.11428961157798767,-0.049847278743982315,9.935094833374023,-0.002300000051036477,-0.00029999998514540493,0.11819999665021896,-0.007999999971379599,-0.023000000021936765,0.03999999902313467
0.09685982763767242,-0.05767153203487396,9.943015098571777,-0.01209999993443489,-0.009999999776482582,0.12799999117851257,-0.0030000000934877653,0.06800000267489824,0.0030000000934877653
0.10530656576156616,-0.056675542145967484,9.938063621520996,-0.011799999512732029,-0.00019999999494757503,0.11819999665021896,0.009999999755783667,0.007999999971379599,-0.03599999945432653
0.1136288121342659,-0.038661569356918335,9.932068824768066,-0.001999999862164259,0.009399999864399433,0.11819999665021896,-0.019000000453128628,-0.02600000053230619,-0.05099999867112037
0.09687897562980652,-0.05359181389212608,9.94428825378418,-0.011799999512732029,-0.00019999999494757503,0.12799999117851257,-0.04600000004387353,-0.023000000021936765,-0.01700000066872456
0.12115617841482162,-0.049157749861478806,9.938810348510742,0.007599999662488699,-0.00009999999747378752,0.11819999665021896,0.004999999877891834,-0.015999999942759198,-0.08299999855663877
0.10999920964241028,-0.05443457141518593,9.93588924407959,-0.002199999988079071,-0.00009999999747378752,0.11819999665021896,0.017999999727163266,0.029999998433587676,0.01700000066872456
0.12312900274991989,-0.062143899500370026,9.92923355102539,0.007499999832361937,0.019099999219179153,0.10839999467134476,-0.04200000047506539,0.014999999216793838,0.05300000012305109
0.12312900274991989,-0.062143899500370026,9.92923355102539,0.007499999832361937,-0.010099999606609344,0.10839999467134476,-0.04200000047506539,0.014999999216793838,0.05300000012305109
0.12023680657148361,-0.043756432831287384,9.944182395935059,0.007400000002235174,0.009399999864399433,0.12799999117851257,-0.008999999863581633,0.04900000055424296,-0.03599999945432653
0.11248917132616043,-0.062172628939151764,9.945647239685059,-0.002199999988079071,-0.009999999776482582,0.12799999117851257,-0.0329999989439571,-0.023000000021936765,-0.048000001495804245
0.12246821075677872,-0.04992389306426048,9.936616897583008,0.007400000002235174,-0.00009999999747378752,0.11819999665021896,0.008999999863581633,-0.012000000373951061,0.035000000395887826
0.1171722337603569,-0.04880340397357941,9.932670593261719,0.0072999997064471245,-0.00009999999747378752,0.11819999665021896,0,0,-0.0030000000934877653
0.11141657084226608,-0.050651729106903076,9.93015193939209,-0.0023999998811632395,-0.00009999999747378752,0.10839999467134476,0.010999999647985701,-0.006000000186975531,-0.019000000453128628
0.12730449438095093,-0.05227021127939224,9.937967300415039,0.016899999231100082,-0.00009999999747378752,0.11819999665021896,-0.024000000747902123,-0.009999999755783667,0.021999999295971403
0.10479899495840073,-0.05073792114853859,9.93224048614502,-0.012399999424815178,-0.00009999999747378752,0.11819999665021896,-0.017999999727163266,0,-0.0009999999964224499
0.11445241421461105,-0.06675992161035538,9.932690620422363,-0.0024999999441206455,-0.00969999935477972,0.11819999665021896,-0.035000000395887826,-0.024000000747902123,-0.029999998433587676
0.11644439399242401,-0.06423164159059525,9.948636054992676,0.00699999975040555,0.00009999999747378752,0.09860000014305115,-0.017999999727163266,0.03599999945432653,0.007999999971379599
0.12743857502937317,-0.046648625284433365,9.927231788635254,0.00699999975040555,-0.009499999694526196,0.12799999117851257,-0.007000000079177565,0.038000000906257256,0.0039999999856897995
0.11342769861221313,-0.05957731604576111,9.938024520874023,0.016699999570846558,0.00989999994635582,0.10839999467134476,0.014999999216793838,0,0.05999999686717535
0.1154005229473114,-0.057001154869794846,9.93620491027832,0.006899999920278788,0.00019999999494757503,0.11819999665021896,0.006000000186975531,-0.021000000237532696,-0.038000000906257256
0.11295843869447708,-0.04748180881142616,9.940381050109863,-0.002899999963119626,0.00989999994635582,0.11819999665021896,0.004999999877891834,0.004999999877891834,0.007000000079177565
0.10640789568424225,-0.05465483292937279,9.9401216506958,-0.00279999990016222,0,0.11819999665021896,-0.007000000079177565,0.024999999806340833,0.03599999945432653
0.11925996840000153,-0.06289089471101761,9.957542419433594,0.006899999920278788,-0.009599999524652958,0.13779999315738678,-0.01700000066872456,-0.009999999755783667,-0.07099999651516105
0.1221521645784378,-0.0399257093667984,9.94161605834961,0.006799999624490738,0.00989999994635582,0.12799999117851257,0.02600000053230619,-0.007000000079177565,0.035000000395887826
0.11679873615503311,-0.060745686292648315,9.926081657409668,0.0066999997943639755,-0.009599999524652958,0.10839999467134476,0.006000000186975531,0.015999999942759198,-0.03999999902313467
0.11842679232358932,-0.05331408232450485,9.940984725952148,0.006599999964237213,0.00009999999747378752,0.12799999117851257,0.0269999995907449,-0.017999999727163266,0.09399999820462447
0.12297577410936356,-0.034160468727350235,9.930276870727539,0.0064999996684491634,0.01939999870955944,0.10839999467134476,0.007999999971379599,-0.010999999647985701,0.014999999216793838
0.12499648332595825,-0.06474879384040833,9.938063621520996,0.016099998727440834,-0.009800000116229057,0.11819999665021896,0.015999999942759198,-0.01700000066872456,0.06399999977103679
0.11826398223638535,-0.03651636466383934,9.93233585357666,0.006199999712407589,0.019299998879432678,0.11819999665021896,0.007000000079177565,0.007000000079177565,0.043999998591942806
0.1253412514925003,-0.06085103377699852,9.928485870361328,0.015799999237060547,-0.009999999776482582,0.10839999467134476,-0.03699999851276524,0.03100000082707969,0
0.1005852073431015,-0.04935886338353157,9.928170204162598,-0.013299999758601189,-0.00009999999747378752,0.10839999467134476,-0.0039999999856897995,0,0
0.12483368068933487,-0.059251703321933746,9.94597339630127,0.006099999882280827,0,0.12799999117851257,-0.019999999511567335,-0.006000000186975531,0.05799999875029794
0.10086292773485184,-0.06273765861988068,9.941875457763672,0.015699999406933784,-0.00969999935477972,0.12799999117851257,-0.009999999755783667,-0.024000000747902123,0
0.11073661595582962,-0.05698200315237045,9.932106018066406,-0.013499999418854713,-0.009599999524652958,0.12799999117851257,-0.012000000373951061,0.019000000453128628,0
0.11785218864679337,-0.06066907197237015,9.939576148986816,-0.003700000001117587,0.00019999999494757503,0.11819999665021896,0.008999999863581633,-0.0019999999928448997,0.013000000266153095
0.10903194546699524,-0.05611051246523857,9.936884880065918,0.006000000052154064,-0.009399999864399433,0.11819999665021896,0.004999999877891834,-0.0009999999964224499,0
0.10809342563152313,-0.04649539664387703,9.939796447753906,-0.003700000001117587,0.00029999998514540493,0.11819999665021896,0.012000000373951061,-0.021999999295971403,-0.05099999867112037
0.12014104425907135,-0.06531382352113724,9.930295944213867,-0.003700000001117587,0.009999999776482582,0.11819999665021896,0.06099999926066736,0.019999999511567335,0.007000000079177565
0.11104307323694229,-0.05457821860909462,9.937775611877441,0.005799999926239252,-0.009499999694526196,0.10839999467134476,0.01400000015835513,0.05999999686717535,0.04600000004387353
0.12129983305931091,-0.05069003626704216,9.930890083312988,-0.0037999998312443495,0,0.11819999665021896,0.05600000063342052,0.009999999755783667,-0.035000000395887826
0.11578359454870224,-0.05875370651483536,9.9356689453125,0.006000000052154064,0,0.10839999467134476,-0.03599999945432653,0.041000001416626686,0.0019999999928448997
0.10715489089488983,-0.06860824674367905,9.93953800201416,0.006000000052154064,-0.009800000116229057,0.11819999665021896,-0.05900000114378995,-0.009999999755783667,-0.019999999511567335
0.11819694936275482,-0.051101841032505035,9.936138153076172,-0.003599999938160181,-0.019299998879432678,0.11819999665021896,0.0269999995907449,0.043999998591942806,-0.0039999999856897995
0.11200075596570969,-0.05885905399918556,9.930986404418945,-0.003599999938160181,-0.00930000003427267,0.10839999467134476,-0.007999999971379599,-0.0539999991814898,-0.006000000186975531
0.11365754157304764,-0.04357447102665901,9.950934410095215,-0.003700000001117587,0.010199999436736107,0.1378999948501587,0.048000001495804245,0.03599999945432653,0.041000001416626686
0.12605950236320496,-0.05099649727344513,9.926513671875,0.015699999406933784,0.00019999999494757503,0.10839999467134476,-0.0039999999856897995,0,0.041000001416626686
0.12680649757385254,-0.058523863554000854,9.940896987915039,0.015599999576807022,-0.009399999864399433,0.12799999117851257,0.02600000053230619,-0.009999999755783667,0.023000000021936765
0.1216733306646347,-0.061128757894039154,9.937919616699219,0.005699999630451202,-0.009399999864399433,0.11819999665021896,0.008999999863581633,0.038000000906257256,0.05799999875029794
0.1054597944021225,-0.056886233389377594,9.93725872039795,-0.0038999998942017555,0.00029999998514540493,0.11819999665021896,-0.009999999755783667,-0.008999999863581633,0.038000000906257256
0.11530475318431854,-0.04820007085800171,9.94215202331543,0.005699999630451202,0.00029999998514540493,0.12799999117851257,0.024999999806340833,-0.02600000053230619,-0.05200000106461238
0.11998781561851501,-0.048544835299253464,9.944747924804688,0.00559999980032444,0.00029999998514540493,0.12799999117851257,-0.04200000047506539,-0.015999999942759198,-0.048000001495804245
0.10711658746004105,-0.0528448186814785,9.935142517089844,-0.00419999985024333,0.00039999998989515007,0.11819999665021896,0.015999999942759198,0.013000000266153095,0
0.1091277152299881,-0.05207867547869682,9.931273460388184,-0.004100000020116568,0.00029999998514540493,0.11819999665021896,0.0329999989439571,0.0429999995335041,0.009999999755783667
0.10666647553443909,-0.03585556522011757,9.934998512268066,-0.003999999724328518,0.019700000062584877,0.11819999665021896,0.03699999851276524,-0.0019999999928448997,-0.03699999851276524
0.11414595693349838,-0.05935704708099365,9.931771278381348,-0.003999999724328518,-0.009599999524652958,0.11819999665021896,-0.021000000237532696,-0.019000000453128628,0.013000000266153095
0.09938810020685196,-0.050584692507982254,9.945178985595703,-0.013700000010430813,0.00009999999747378752,0.12799999117851257,-0.019000000453128628,0.019000000453128628,0.02800000031671026
0.11009497195482254,-0.05786306783556938,9.936932563781738,-0.0037999998312443495,-0.009399999864399433,0.11819999665021896,0.008999999863581633,0.03899999996469596,0.01700000066872456
0.11817779392004013,-0.05583278089761734,9.937976837158203,0.005699999630451202,0.00009999999747378752,0.11819999665021896,-0.014999999216793838,0.02800000031671026,-0.017999999727163266
0.10907024890184402,-0.04907156154513359,9.92856216430664,-0.0038999998942017555,0.00009999999747378752,0.10839999467134476,-0.029999998433587676,0.03599999945432653,-0.035000000395887826
0.12284170091152191,-0.056292470544576645,9.924100875854492,0.005799999926239252,0.00019999999494757503,0.10839999467134476,0.04900000055424296,-0.0019999999928448997,0.04500000098543482
0.10845733433961868,-0.05630204826593399,9.928236961364746,-0.0038999998942017555,0.00009999999747378752,0.10839999467134476,0.008999999863581633,0.0019999999928448997,0.043999998591942806
0.12226708978414536,-0.0507187694311142,9.933945655822754,0.005799999926239252,0.00009999999747378752,0.11819999665021896,0.007000000079177565,0.0019999999928448997,0.01400000015835513
0.11366712301969528,-0.04450342059135437,9.942622184753418,-0.0038999998942017555,0.009800000116229057,0.12799999117851257,0.0019999999928448997,-0.014999999216793838,0.008999999863581633
0.13237062096595764,-0.04303817078471184,9.947314262390137,0.015399999916553497,0.00969999935477972,0.12799999117851257,-0.031999999885518396,0.006000000186975531,0.01700000066872456
0.11885774880647659,-0.05952943116426468,9.947237014770508,0.00559999980032444,-0.00969999935477972,0.12799999117851257,-0.015999999942759198,0.02600000053230619,-0.019000000453128628
0.1126711368560791,-0.054492030292749405,9.949660301208496,-0.003999999724328518,0.00009999999747378752,0.12799999117851257,0.043999998591942806,-0.013000000266153095,0.04200000047506539
0.11920251697301865,-0.06421248614788055,9.93779468536377,0.00559999980032444,-0.009599999524652958,0.11819999665021896,0.017999999727163266,0.019000000453128628,0.019000000453128628
0.11238382756710052,-0.05623500794172287,9.947410583496094,-0.004100000020116568,0,0.12799999117851257,-0.015999999942759198,0.013000000266153095,0.035000000395887826
0.1065228208899498,-0.031574733555316925,9.932451248168945,-0.003999999724328518,0.019500000402331352,0.11819999665021896,0.010999999647985701,-0.012000000373951061,0.02600000053230619
0.11550586670637131,-0.03778050094842911,9.927518844604492,0.00559999980032444,0.019299998879432678,0.10839999467134476,-0.0039999999856897995,-0.008999999863581633,-0.007999999971379599
0.12744814157485962,-0.05393657833337784,9.93686580657959,0.015199999324977398,-0.00019999999494757503,0.11819999665021896,0.07300000130214508,0.05300000012305109,0.021999999295971403
0.12304281443357468,-0.061885327100753784,9.930669784545898,0.005499999970197678,-0.010099999606609344,0.10839999467134476,-0.017999999727163266,0.04500000098543482,0.03699999851276524
0.1183597594499588,-0.05903143808245659,9.937067031860352,0.005499999970197678,-0.009999999776482582,0.11819999665021896,-0.024999999806340833,0.024999999806340833,-0.006000000186975531
0.11264239996671677,-0.055181559175252914,9.943435668945312,-0.004100000020116568,-0.00009999999747378752,0.12799999117851257,0.008999999863581633,0.019999999511567335,0
0.11974839121103287,-0.06023811176419258,9.936195373535156,0.00559999980032444,-0.009800000116229057,0.11819999665021896,-0.010999999647985701,0.009999999755783667,0.03599999945432653
0.12030384689569473,-0.04867890849709511,9.952150344848633,0.005499999970197678,0,0.1378999948501587,-0.017999999727163266,-0.010999999647985701,-0.029999998433587676
0.11282436549663544,-0.045259989798069,9.931225776672363,-0.00419999985024333,0.00969999935477972,0.11819999665021896,-0.0019999999928448997,0.012000000373951061,0.006000000186975531
0.12260227650403976,-0.04398627579212189,9.944537162780762,0.005499999970197678,0.009599999524652958,0.12799999117851257,-0.010999999647985701,-0.012000000373951061,0.019999999511567335
0.12190317362546921,-0.058801595121622086,9.940159797668457,0.005399999674409628,-0.009800000116229057,0.11819999665021896,0.008999999863581633,0.0030000000934877653,-0.0019999999928448997
0.11697111278772354,-0.048257529735565186,9.930353164672852,0.0052999998442828655,0,0.10839999467134476,-0.017999999727163266,0.01700000066872456,-0.024000000747902123
0.12042834609746933,-0.05824613943696022,9.943387985229492,0.0052999998442828655,-0.00969999935477972,0.12809999287128448,0.08799999718388561,0.015999999942759198,0.021999999295971403
0.120399609208107,-0.047788266092538834,9.928821563720703,0.0052999998442828655,0.009499999694526196,0.10839999467134476,0,-0.007999999971379599,0.0269999995907449
0.11075577139854431,-0.05014416202902794,9.933197975158691,-0.004399999976158142,-0.00019999999494757503,0.11819999665021896,-0.0030000000934877653,-0.0019999999928448997,-0.06200000165415938
0.11501745134592056,-0.04320097714662552,9.92967414855957,0.005200000014156103,0.009499999694526196,0.10839999467134476,-0.01400000015835513,0,-0.019999999511567335
0.10367850959300995,-0.05033569782972336,9.92264461517334,0.01489999983459711,-0.00019999999494757503,0.10839999467134476,0.013000000266153095,0.03400000133744912,0.06399999977103679
0.11261367052793503,-0.05726930499076843,9.932250022888184,-0.004299999680370092,-0.00009999999747378752,0.11819999665021896,-0.0030000000934877653,0.03100000082707969,0.024000000747902123
0.11242213100194931,-0.04783615097403526,9.954909324645996,-0.00419999985024333,0.009499999694526196,0.1378999948501587,0.007999999971379599,-0.007000000079177565,-0.010999999647985701
0.11025777459144592,-0.049751508980989456,9.957590103149414,-0.00419999985024333,-0.00019999999494757503,0.1378999948501587,0.0039999999856897995,0.0039999999856897995,-0.0009999999964224499
0.11440453678369522,-0.05536352097988129,9.930841445922852,-0.00419999985024333,-0.00019999999494757503,0.10839999467134476,0.02600000053230619,0.015999999942759198,0.007999999971379599
0.10155245661735535,-0.05215528979897499,9.938368797302246,-0.013899999670684338,-0.00029999998514540493,0.11819999665021896,0.02899999937514897,-0.0019999999928448997,0
0.12639470398426056,-0.05266286060214043,9.942477226257324,0.01529999915510416,-0.00029999998514540493,0.12799999117851257,-0.014999999216793838,0.006000000186975531,0.03999999902313467
0.12212344259023666,-0.049109868705272675,9.94323444366455,0.005499999970197678,-0.00029999998514540493,0.12799999117851257,0.02899999937514897,0.0009999999964224499,-0.010999999647985701
0.12343546003103256,-0.03943729028105736,9.94984245300293,0.005399999674409628,0.00930000003427267,0.12799999117851257,-0.01700000066872456,0.0429999995335041,0.048000001495804245
0.12325350195169449,-0.058188680559396744,9.94139575958252,0.005499999970197678,-0.010099999606609344,0.12799999117851257,0.008999999863581633,-0.021000000237532696,-0.008999999863581633
0.12720872461795807,-0.03203441947698593,9.934538841247559,0.014999999664723873,0.01899999938905239,0.11819999665021896,-0.024000000747902123,-0.004999999877891834,0.01400000015835513
0.11816821992397308,-0.05221274867653847,9.941635131835938,0.005200000014156103,-0.0004999999655410647,0.12809999287128448,-0.04200000047506539,0.015999999942759198,-0.0030000000934877653
0.11532390862703323,-0.043181825429201126,9.944412231445312,0.0050999997183680534,0.00930000003427267,0.12809999287128448,-0.019999999511567335,0.021999999295971403,0.017999999727163266
0.11893436312675476,-0.051791369915008545,9.956077575683594,0.0050999997183680534,-0.00039999998989515007,0.1378999948501587,-0.023000000021936765,0.024999999806340833,-0.03999999902313467
0.10653240233659744,-0.05906974524259567,9.94646167755127,-0.0044999998062849045,-0.009999999776482582,0.12809999287128448,-0.0269999995907449,0,0.024000000747902123
0.11785218864679337,-0.05851428955793381,9.925718307495117,0.005200000014156103,-0.009800000116229057,0.10839999467134476,0.010999999647985701,0.031999999885518396,0.0030000000934877653
0.120275117456913,-0.06597462296485901,9.942363739013672,0.005200000014156103,-0.009800000116229057,0.12809999287128448,0.017999999727163266,-0.01400000015835513,-0.07600000181251451
0.12340673059225082,-0.056081779301166534,9.936501502990723,0.0050999997183680534,0,0.11819999665021896,0.007999999971379599,0.006000000186975531,-0.03599999945432653
0.11351389437913895,-0.06312073767185211,9.939701080322266,-0.004600000102072954,-0.009800000116229057,0.11819999665021896,-0.008999999863581633,0.04900000055424296,0.007999999971379599
0.11548671126365662,-0.04762545973062515,9.942622184753418,0.005200000014156103,0.00969999935477972,0.12809999287128448,0.0039999999856897995,-0.01700000066872456,-0.0019999999928448997
0.11783303320407867,-0.04183149337768555,9.938886642456055,0.0050999997183680534,0.009599999524652958,0.11819999665021896,0.024000000747902123,0.01700000066872456,0.01400000015835513
0.11205822229385376,-0.041410114616155624,9.94603157043457,-0.004600000102072954,0.009499999694526196,0.12809999287128448,0.035000000395887826,0.04600000004387353,0.06299999737754478
0.11707646399736404,-0.05511452630162239,9.93718147277832,0.005200000014156103,-0.00029999998514540493,0.11819999665021896,0.029999998433587676,-0.021999999295971403,0.012000000373951061
0.12244904786348343,-0.06532340496778488,9.943923950195312,0.0050999997183680534,-0.010099999606609344,0.12809999287128448,0.010999999647985701,0.007000000079177565,-0.0030000000934877653
0.12533167004585266,-0.04305732250213623,9.948348999023438,0.014800000004470348,0.00930000003427267,0.12809999287128448,0,0.0019999999928448997,0.014999999216793838
0.12422076612710953,-0.04682100564241409,9.937239646911621,0.004900000058114529,0.009200000204145908,0.11819999665021896,0.0039999999856897995,0.015999999942759198,-0.024999999806340833
0.10670477896928787,-0.06062118709087372,9.935583114624023,-0.004799999762326479,-0.010199999436736107,0.11819999665021896,0.013000000266153095,0.06299999737754478,0.05499999823992851
0.11993034929037094,-0.05797798931598663,9.951327323913574,0.0050999997183680534,-0.010199999436736107,0.1378999948501587,0.0019999999928448997,0.04600000004387353,0.03899999996469596
0.11851298809051514,-0.050469771027565,9.940840721130371,-0.0142000000923872,-0.00039999998989515007,0.11819999665021896,0.01400000015835513,0.008999999863581633,0.014999999216793838
0.10840945690870285,-0.05396530404686928,9.945868492126465,0.005200000014156103,-0.00039999998989515007,0.12809999287128448,0.0269999995907449,0.019000000453128628,0.035000000395887826
0.11817779392004013,-0.049301404505968094,9.939422607421875,-0.0044999998062849045,-0.00039999998989515007,0.12799999117851257,0.0019999999928448997,0.02800000031671026,0.0749999994190225
0.11626243591308594,-0.0522606335580349,9.945168495178223,0.005200000014156103,-0.0004999999655410647,0.12799999117851257,-0.004999999877891834,0.05099999867112037,0.0329999989439571
0.12099337577819824,-0.04575798287987709,9.940150260925293,0.0052999998442828655,0.009200000204145908,0.11819999665021896,0.007000000079177565,0.021000000237532696,0.0019999999928448997
0.1289038211107254,-0.04773080348968506,9.947975158691406,0.014999999664723873,0.009099999442696571,0.12799999117851257,0.0019999999928448997,0.08200000283325337,-0.0539999991814898
0.1213381439447403,-0.05318000912666321,9.941625595092773,0.005399999674409628,-0.0005999999702908099,0.12799999117851257,0.038000000906257256,-0.0039999999856897995,-0.007000000079177565
0.11392569541931152,-0.05867709219455719,9.923343658447266,-0.004299999680370092,-0.010400000028312206,0.10839999467134476,-0.009999999755783667,-0.0039999999856897995,0.05200000106461238
0.11847467720508575,-0.05240428447723389,9.937583923339844,0.005399999674409628,-0.0005999999702908099,0.11819999665021896,0.043999998591942806,0.012000000373951061,0.03100000082707969
0.11838848888874054,-0.05085284262895584,9.943818092346191,0.0052999998442828655,-0.000699999975040555,0.12799999117851257,0.019000000453128628,-0.007999999971379599,0.06099999926066736
0.1235886886715889,-0.04810430109500885,9.931081771850586,0.005200000014156103,-0.000699999975040555,0.10839999467134476,0.021999999295971403,0.08700000146050021,0.03599999945432653
0.1295071542263031,-0.05882074683904648,9.938101768493652,0.015199999324977398,-0.010499999858438969,0.11819999665021896,-0.019999999511567335,-0.019000000453128628,0.0269999995907449
0.12362699955701828,-0.048573561012744904,9.933150291442871,0.005200000014156103,-0.000699999975040555,0.11819999665021896,0.008999999863581633,0.0269999995907449,-0.007999999971379599
0.11852256208658218,-0.05872498080134392,9.942381858825684,0.005200000014156103,-0.010400000028312206,0.12799999117851257,-0.05099999867112037,0.006000000186975531,0.02800000031671026
0.11367669701576233,-0.05132210999727249,9.936367988586426,-0.004399999976158142,-0.0004999999655410647,0.11819999665021896,0.008999999863581633,0.0009999999964224499,0.017999999727163266
0.11250832676887512,-0.05253836140036583,9.927902221679688,-0.004399999976158142,-0.0004999999655410647,0.10839999467134476,-0.0019999999928448997,0,-0.0329999989439571
0.13214077055454254,-0.07286034524440765,9.93588924407959,0.014999999664723873,-0.019899999722838402,0.11819999665021896,-0.006000000186975531,0.04900000055424296,0.0019999999928448997
0.12362699955701828,-0.05051765590906143,9.945878028869629,0.005200000014156103,-0.00029999998514540493,0.12809999287128448,0.0009999999964224499,0.06099999926066736,0.04600000004387353
0.12251608818769455,-0.07652826607227325,9.959209442138672,0.0052999998442828655,-0.019700000062584877,0.1378999948501587,0.012000000373951061,-0.038000000906257256,0.008999999863581633
0.12632766366004944,-0.052174441516399384,9.95959186553955,0.01489999983459711,-0.00009999999747378752,0.1378999948501587,-0.0030000000934877653,0.0039999999856897995,-0.038000000906257256
0.11929827928543091,-0.05054638534784317,9.959246635437012,0.004999999888241291,-0.00009999999747378752,0.1378999948501587,0.004999999877891834,0.009999999755783667,-0.0429999995335041
0.11389696598052979,-0.04836287349462509,9.953041076660156,-0.004600000102072954,-0.00009999999747378752,0.1378999948501587,0.004999999877891834,-0.010999999647985701,0.03400000133744912
0.1078156903386116,-0.053802501410245895,9.930813789367676,0.004999999888241291,-0.00989999994635582,0.11819999665021896,0.007999999971379599,0.02899999937514897,0.04200000047506539
0.1078156903386116,-0.053802501410245895,9.930813789367676,-0.004699999932199717,0,0.10839999467134476,0.007999999971379599,0.02899999937514897,0.04200000047506539
0.1202559694647789,-0.06451894342899323,9.939030647277832,-0.004600000102072954,0,0.1378999948501587,-0.006000000186975531,0.01400000015835513,-0.05499999823992851
0.11569740623235703,-0.0444268062710762,9.944316864013672,0.0050999997183680534,-0.009599999524652958,0.11819999665021896,-0.015999999942759198,-0.013000000266153095,-0.012000000373951061
0.1133989691734314,-0.038661569356918335,9.943110466003418,0.0050999997183680534,0.00989999994635582,0.12809999287128448,-0.0030000000934877653,0.03699999851276524,-0.019999999511567335
0.11847467720508575,-0.04199429601430893,9.953031539916992,0.0050999997183680534,0.009800000116229057,0.1378999948501587,-0.007999999971379599,0.02899999937514897,-0.007000000079177565
0.11293928325176239,-0.058945246040821075,9.945380210876465,-0.0044999998062849045,-0.00969999935477972,0.12809999287128448,0.0030000000934877653,-0.0329999989439571,0.0030000000934877653
0.11982500553131104,-0.05199248343706131,9.928534507751465,0.004999999888241291,0,0.10839999467134476,0,0.008999999863581633,-0.010999999647985701
0.11443326622247696,-0.050469771027565,9.943857192993164,-0.004600000102072954,0,0.12809999287128448,-0.0030000000934877653,0.038000000906257256,0.008999999863581633
0.11108138412237167,-0.06632896512746811,9.940878868103027,-0.0044999998062849045,-0.009599999524652958,0.12809999287128448,0.006000000186975531,0.023000000021936765,-0.0329999989439571
0.11168472468852997,-0.055344369262456894,9.933505058288574,-0.004399999976158142,0.00009999999747378752,0.11819999665021896,0.02800000031671026,0.0030000000934877653,0.013000000266153095
0.10880210250616074,-0.05334281548857689,9.934232711791992,-0.004399999976158142,0,0.11819999665021896,0.0039999999856897995,0.010999999647985701,0.013000000266153095
0.12826217710971832,-0.05850471183657646,9.943340301513672,0.014999999664723873,-0.009599999524652958,0.12809999287128448,0.007999999971379599,0,0.03599999945432653
0.11637736111879349,-0.05599559098482132,9.948894500732422,0.0050999997183680534,0.00009999999747378752,0.12809999287128448,-0.03999999902313467,-0.009999999755783667,0.06099999926066736
0.11187625676393509,-0.038115691393613815,9.939164161682129,-0.004600000102072954,0.019600000232458115,0.11819999665021896,-0.007000000079177565,0.035000000395887826,0.02600000053230619
0.1247570663690567,-0.07105033099651337,9.931924819946289,0.01489999983459711,-0.019299998879432678,0.11819999665021896,0.007999999971379599,0.007999999971379599,0.006000000186975531
0.11794795095920563,-0.04848737269639969,9.928265571594238,0.004999999888241291,0.019600000232458115,0.10839999467134476,0.02800000031671026,-0.01400000015835513,0.01700000066872456
0.11794795095920563,-0.04848737269639969,9.928265571594238,0.005200000014156103,0.00009999999747378752,0.10839999467134476,0.02800000031671026,-0.01400000015835513,0.01700000066872456
0.12434525787830353,-0.06512228399515152,9.9413480758667,0.014699999243021011,0,0.09860000014305115,-0.010999999647985701,-0.0030000000934877653,0.019999999511567335
0.12434525787830353,-0.06512228399515152,9.9413480758667,0.0050999997183680534,-0.009599999524652958,0.12809999287128448,-0.010999999647985701,-0.0030000000934877653,0.019999999511567335
0.10910855978727341,-0.04817133769392967,9.933150291442871,-0.004600000102072954,0.00009999999747378752,0.11819999665021896,-0.035000000395887826,-0.019000000453128628,-0.017999999727163266
0.11951854825019836,-0.042951975017786026,9.947198867797852,0.004999999888241291,0.00989999994635582,0.12809999287128448,0.021999999295971403,0.029999998433587676,-0.0269999995907449
0.11453860998153687,-0.04678269848227501,9.926169395446777,-0.004600000102072954,0.009800000116229057,0.10839999467134476,0.007999999971379599,-0.019999999511567335,0
0.12148179858922958,-0.03620990738272667,9.927786827087402,0.004999999888241291,0.01939999870955944,0.10839999467134476,-0.013000000266153095,-0.010999999647985701,-0.06200000165415938
0.1161283552646637,-0.05729803442955017,9.935563087463379,-0.004699999932199717,-0.00009999999747378752,0.10839999467134476,0.007999999971379599,-0.0429999995335041,-0.11699999322398127
0.10968316346406937,-0.055631671100854874,9.934107780456543,0.004900000058114529,-0.00009999999747378752,0.11819999665021896,0.007999999971379599,-0.0429999995335041,-0.11699999322398127
0.12122321873903275,-0.0529693178832531,9.948923110961914,0.004799999762326479,-0.00019999999494757503,0.12809999287128448,-0.03400000133744912,0.0039999999856897995,0.041000001416626686
0.11337023973464966,-0.05586151406168938,9.944096565246582,0.004799999762326479,-0.00019999999494757503,0.12809999287128448,0.035000000395887826,0.02600000053230619,0.035000000395887826
0.1161092072725296,-0.051906291395425797,9.934212684631348,-0.004900000058114529,0,0.12809999287128448,0.019000000453128628,-0.007000000079177565,-0.01700000066872456
0.10696335881948471,-0.04684973880648613,9.936080932617188,-0.004900000058114529,0.009399999864399433,0.11819999665021896,0.0030000000934877653,0.006000000186975531,0.021000000237532696
0.11631989479064941,-0.054185573011636734,9.936789512634277,-0.004900000058114529,0.009399999864399433,0.11819999665021896,0.010999999647985701,0.0329999989439571,0.0429999995335041
0.12046664953231812,-0.049445051699876785,9.92628288269043,0.004799999762326479,-0.00029999998514540493,0.10839999467134476,0.004999999877891834,0.0429999995335041,0.10600000024610218
0.10794977098703384,-0.05772899091243744,9.94510269165039,-0.004799999762326479,-0.009999999776482582,0.12809999287128448,0.007999999971379599,-0.0019999999928448997,0.015999999942759198
0.1111292615532875,-0.04636131972074509,9.948243141174316,-0.004799999762326479,0.009399999864399433,0.12809999287128448,0.041000001416626686,0.029999998433587676,-0.05200000106461238
0.11044930666685104,-0.05348646640777588,9.93126392364502,-0.004600000102072954,-0.00039999998989515007,0.11819999665021896,0.008999999863581633,0.02600000053230619,-0.04900000055424296
0.11383949965238571,-0.061224523931741714,9.947629928588867,-0.004600000102072954,-0.010199999436736107,0.12809999287128448,0.021999999295971403,0.04600000004387353,-0.05799999875029794
0.1127956286072731,-0.04267425090074539,9.934749603271484,-0.004399999976158142,0.009200000204145908,0.11819999665021896,0.004999999877891834,0.048000001495804245,0.04200000047506539
0.12734279036521912,-0.04319139942526817,9.955492973327637,0.015099999494850636,0.009099999442696571,0.1378999948501587,0.06299999737754478,-0.06299999737754478,0.007999999971379599
0.10892659425735474,-0.07215166836977005,9.95322322845459,-0.0044999998062849045,-0.02019999921321869,0.1378999948501587,0,0.007000000079177565,-0.05600000063342052
0.11997823417186737,-0.06380068510770798,9.927155494689941,0.0050999997183680534,-0.010300000198185444,0.10839999467134476,0.017999999727163266,0.007000000079177565,-0.08899999957737763
0.11207737028598785,-0.054990023374557495,9.944939613342285,-0.0044999998062849045,-0.0004999999655410647,0.12809999287128448,0.02600000053230619,-0.05200000106461238,-0.013000000266153095
0.11507491022348404,-0.04251144453883171,9.943148612976074,0.004999999888241291,0.008999999612569809,0.12809999287128448,-0.04600000004387353,-0.013000000266153095,-0.015999999942759198
0.11179964244365692,-0.041218578815460205,9.940735816955566,-0.004799999762326479,0.009099999442696571,0.12809999287128448,-0.0039999999856897995,0.009999999755783667,0
0.12080184370279312,-0.06548620760440826,9.929003715515137,0.004999999888241291,-0.010400000028312206,0.10839999467134476,-0.004999999877891834,0.007999999971379599,0.019000000453128628
0.12200852483510971,-0.06641515344381332,9.938810348510742,0.004999999888241291,-0.010400000028312206,0.10839999467134476,0.0019999999928448997,0.012000000373951061,0.10100000161885533
0.1066281646490097,-0.05478890985250473,9.930669784545898,0.004999999888241291,-0.010300000198185444,0.11819999665021896,0.013000000266153095,0.0009999999964224499,0.019999999511567335
0.1200261265039444,-0.05028781294822693,9.927864074707031,-0.004699999932199717,-0.0004999999655410647,0.10839999467134476,-0.007000000079177565,0.041000001416626686,0.007000000079177565
0.1278216391801834,-0.061387334018945694,9.942554473876953,0.014699999243021011,-0.010199999436736107,0.12809999287128448,-0.0030000000934877653,-0.0019999999928448997,-0.07399999702553048
0.12693099677562714,-0.05317043140530586,9.934453010559082,0.014599999412894249,-0.00039999998989515007,0.11819999665021896,0.019000000453128628,-0.0019999999928448997,-0.046999999102312236
0.11179964244365692,-0.04566221684217453,9.93677043914795,-0.004900000058114529,0.009200000204145908,0.11819999665021896,0.0019999999928448997,-0.004999999877891834,-0.0039999999856897995
0.11466310918331146,-0.05244259163737297,9.930516242980957,-0.004900000058114529,-0.0004999999655410647,0.10839999467134476,0.019000000453128628,-0.02600000053230619,-0.012000000373951061
0.10525868088006973,-0.05318000912666321,9.940869331359863,-0.014699999243021011,-0.0005999999702908099,0.12809999287128448,0.04600000004387353,0.01700000066872456,0.0019999999928448997
0.11227848380804062,-0.061224523931741714,9.945063591003418,-0.004799999762326479,-0.010400000028312206,0.12809999287128448,-0.009999999755783667,-0.021000000237532696,0.05900000114378995
0.11422257125377655,-0.052854396402835846,9.928534507751465,-0.004799999762326479,-0.0005999999702908099,0.10839999467134476,-0.021000000237532696,0.031999999885518396,0.017999999727163266
0.10665690153837204,-0.057786453515291214,9.937891006469727,-0.004699999932199717,-0.010199999436736107,0.11819999665021896,-0.014999999216793838,0.015999999942759198,0.03699999851276524
0.11519940942525864,-0.040701426565647125,9.943329811096191,0.004999999888241291,0.009200000204145908,0.12809999287128448,0.02899999937514897,0.02600000053230619,0.02600000053230619
0.11609005182981491,-0.045796290040016174,9.94128131866455,0.004999999888241291,0.009099999442696571,0.12809999287128448,-0.012000000373951061,0.012000000373951061,-0.0019999999928448997
0.10351569950580597,-0.045863326638936996,9.93021011352539,-0.014399999752640724,0.008999999612569809,0.10839999467134476,-0.015999999942759198,0.05099999867112037,-0.004999999877891834
0.1156495213508606,-0.04459919035434723,9.933945655822754,0.005200000014156103,0.008999999612569809,0.11819999665021896,0.03599999945432653,-0.0030000000934877653,0.04200000047506539
0.11688492447137833,-0.05192544683814049,9.948607444763184,0.0050999997183680534,-0.0007999999797903001,0.12799999117851257,0.03100000082707969,0,0.021999999295971403
0.11900140345096588,-0.050393156707286835,9.936980247497559,0.0050999997183680534,-0.0008999999845400453,0.11819999665021896,0.009999999755783667,0.021000000237532696,0.023000000021936765
0.10299855470657349,-0.06642472743988037,9.93250846862793,-0.014299999922513962,-0.010599999688565731,0.11819999665021896,-0.013000000266153095,-0.013000000266153095,-0.007000000079177565
0.1086297258734703,-0.05077622830867767,9.935840606689453,-0.0044999998062849045,-0.0007999999797903001,0.11819999665021896,0.008999999863581633,-0.019000000453128628,0.012000000373951061
0.11854171752929688,-0.04748180881142616,9.946624755859375,0.0050999997183680534,0.008799999952316284,0.12799999117851257,0.046999999102312236,0.01400000015835513,-0.021000000237532696
0.12195105850696564,-0.05756618455052376,9.923630714416504,0.0050999997183680534,-0.010699999518692493,0.10839999467134476,0.008999999863581633,0.0009999999964224499,0.02800000031671026
0.11676043272018433,-0.04727111756801605,9.937718391418457,0.004999999888241291,0.008700000122189522,0.11819999665021896,0.008999999863581633,-0.024000000747902123,-0.07999999804626934
0.12074437737464905,-0.04641878232359886,9.938542366027832,0.004900000058114529,0.008599999360740185,0.11819999665021896,-0.007000000079177565,0.03100000082707969,-0.006000000186975531
0.1127956286072731,-0.06521805375814438,9.93354320526123,-0.004699999932199717,-0.010799999348819256,0.11819999665021896,0.019999999511567335,0.017999999727163266,0.05799999875029794
0.11560162901878357,-0.04032793268561363,9.944575309753418,0.004999999888241291,0.008599999360740185,0.12799999117851257,0.0030000000934877653,-0.0039999999856897995,0.04200000047506539
0.11382992565631866,-0.04369897022843361,9.933274269104004,-0.004699999932199717,0.008499999530613422,0.11819999665021896,0,-0.0009999999964224499,-0.02800000031671026
0.13559800386428833,-0.04966532066464424,9.924080848693848,0.024399999529123306,-0.0011999999405816197,0.10839999467134476,-0.15399999507179982,0.02899999937514897,0.007000000079177565
0.12234370410442352,-0.06336972862482071,9.939193725585938,0.004799999762326479,-0.010400000028312206,0.11819999665021896,-0.012000000373951061,0.012000000373951061,0.019999999511567335
0.10183018445968628,-0.04890875145792961,9.929769515991211,-0.014599999412894249,-0.0005999999702908099,0.10839999467134476,0.007000000079177565,-0.006000000186975531,-0.06800000267489824
0.10086292773485184,-0.03765600547194481,9.95011043548584,-0.014599999412894249,0.01889999955892563,0.12809999287128448,-0.021000000237532696,-0.029999998433587676,-0.006000000186975531
0.11697111278772354,-0.06534255295991898,9.94117546081543,0.004799999762326479,-0.010300000198185444,0.12809999287128448,-0.012000000373951061,0,-0.019999999511567335
0.11313082277774811,-0.057211846113204956,9.940753936767578,-0.004900000058114529,-0.00039999998989515007,0.12809999287128448,0.021000000237532696,-0.0329999989439571,-0.04200000047506539
0.11689449846744537,-0.059539008885622025,9.95180606842041,0.004699999932199717,-0.010199999436736107,0.1378999948501587,0.007000000079177565,-0.012000000373951061,-0.038000000906257256
0.11245086789131165,-0.04500141367316246,9.948463439941406,-0.004999999888241291,0.009200000204145908,0.12809999287128448,-0.010999999647985701,0.04200000047506539,-0.0429999995335041
0.10802638530731201,-0.05652231350541115,9.938398361206055,-0.004900000058114529,-0.00039999998989515007,0.11819999665021896,-0.009999999755783667,0.021000000237532696,-0.019000000453128628
0.11009497195482254,-0.045125916600227356,9.957322120666504,-0.004799999762326479,0.009200000204145908,0.1378999948501587,-0.007999999971379599,-0.014999999216793838,-0.017999999727163266
0.12543700635433197,-0.07784028351306915,9.945178985595703,0.014499999582767487,-0.029600000008940697,0.12809999287128448,0.0030000000934877653,0.007000000079177565,0.009999999755783667
0.11535263806581497,-0.05061342194676399,9.966323852539062,0.004699999932199717,-0.00019999999494757503,0.1476999968290329,0.0009999999964224499,-0.013000000266153095,0.0429999995335041
0.11897267401218414,-0.05118803307414055,9.941165924072266,0.004600000102072954,-0.00019999999494757503,0.12809999287128448,0,-0.015999999942759198,0.03899999996469596
0.10666647553443909,-0.057049039751291275,9.942439079284668,-0.0050999997183680534,-0.00019999999494757503,0.12809999287128448,-0.02800000031671026,-0.007999999971379599,-0.057000003026912535
0.12093590945005417,-0.04986643046140671,9.934806823730469,0.0044999998062849045,-0.00009999999747378752,0.11829999834299088,-0.0329999989439571,-0.0030000000934877653,-0.0429999995335041
0.1085243746638298,-0.05172433331608772,9.939059257507324,-0.005200000014156103,0,0.11829999834299088,0.024000000747902123,-0.0329999989439571,0.0039999999856897995
0.11034397035837173,-0.055219866335392,9.94375228881836,-0.005200000014156103,-0.00009999999747378752,0.12809999287128448,0.06700000028140622,0.04600000004387353,0.05300000012305109
0.11241255700588226,-0.05917508900165558,9.938217163085938,-0.0050999997183680534,-0.009999999776482582,0.11829999834299088,0.049999999612681666,-0.010999999647985701,-0.01400000015835513
0.12057200074195862,-0.05581362918019295,9.95442008972168,0.0044999998062849045,-0.00029999998514540493,0.1378999948501587,0.02600000053230619,0.004999999877891834,0.024000000747902123
0.11767980456352234,-0.0577002614736557,9.934270858764648,0.0044999998062849045,-0.010099999606609344,0.11829999834299088,0.007000000079177565,-0.0329999989439571,-0.06299999737754478
0.11688492447137833,-0.05234682559967041,9.943483352661133,0.004299999680370092,-0.00029999998514540493,0.12809999287128448,0.0030000000934877653,0.01400000015835513,0
0.11818736791610718,-0.0581790991127491,9.946356773376465,0.004299999680370092,-0.009999999776482582,0.12809999287128448,0.046999999102312236,0.031999999885518396,0.07799999992939192
0.1106695756316185,-0.05068046227097511,9.926475524902344,-0.0052999998442828655,-0.00039999998989515007,0.10839999467134476,0.01700000066872456,-0.03100000082707969,-0.019000000453128628
0.1107940748333931,-0.04952166602015495,9.930956840515137,-0.0052999998442828655,-0.00039999998989515007,0.10839999467134476,-0.007999999971379599,-0.0269999995907449,-0.029999998433587676
0.1189631000161171,-0.052787356078624725,9.928955078125,0.00419999985024333,-0.00039999998989515007,0.10839999467134476,-0.009999999755783667,-0.0329999989439571,-0.024000000747902123
0.11308293044567108,-0.05660850554704666,9.937661170959473,-0.005499999970197678,-0.00029999998514540493,0.11829999834299088,-0.0329999989439571,0.0009999999964224499,-0.035000000395887826
0.11071746051311493,-0.043995849788188934,9.955636978149414,-0.005499999970197678,0.009399999864399433,0.1378999948501587,0.0329999989439571,0.05600000063342052,-0.024000000747902123
0.11875240504741669,-0.049138594418764114,9.943158149719238,0.004299999680370092,-0.00039999998989515007,0.12809999287128448,0.0329999989439571,0.017999999727163266,0.006000000186975531
0.11485464125871658,-0.057029884308576584,9.943224906921387,-0.0052999998442828655,-0.0004999999655410647,0.12809999287128448,0.004999999877891834,-0.008999999863581633,0.01400000015835513
0.12079226970672607,-0.05013458430767059,9.948320388793945,0.00419999985024333,-0.0004999999655410647,0.12809999287128448,0.024000000747902123,0.009999999755783667,-0.01400000015835513
0.1273811012506485,-0.045317452400922775,9.942132949829102,0.013899999670684338,0.009099999442696571,0.12809999287128448,-0.017999999727163266,-0.008999999863581633,-0.02899999937514897
0.1252167522907257,-0.05658935010433197,9.939135551452637,0.013799999840557575,-0.0004999999655410647,0.11829999834299088,0.006000000186975531,-0.021999999295971403,-0.008999999863581633
0.11929827928543091,-0.06336015462875366,9.926944732666016,0.0037999998312443495,-0.010300000198185444,0.10849999636411667,-0.046999999102312236,0.010999999647985701,-0.0039999999856897995
0.10743261873722076,-0.03998316824436188,9.949344635009766,-0.005799999926239252,0.00930000003427267,0.12809999287128448,0.02899999937514897,0.019000000453128628,0.004999999877891834
0.10896490514278412,-0.06760267913341522,9.9520263671875,-0.005699999630451202,-0.019999999552965164,0.1378999948501587,0.03100000082707969,-0.013000000266153095,0.02600000053230619
0.105689637362957,-0.053735461086034775,9.935047149658203,-0.005699999630451202,-0.00039999998989515007,0.11829999834299088,0.024000000747902123,-0.05999999686717535,-0.07999999804626934
0.11345642805099487,-0.0516572967171669,9.933112144470215,-0.0058999997563660145,-0.0004999999655410647,0.11829999834299088,-0.06500000216452881,-0.012000000373951061,-0.0539999991814898
0.11916420608758926,-0.04697423428297043,9.94090747833252,0.0037999998312443495,0.00930000003427267,0.12809999287128448,-0.07099999651516105,-0.029999998433587676,-0.04500000098543482
0.12136687338352203,-0.05776729807257652,9.935563087463379,0.003599999938160181,-0.00989999994635582,0.11829999834299088,0.008999999863581633,-0.05499999823992851,-0.05300000012305109
0.10791146010160446,-0.06734410673379898,9.94002628326416,-0.006199999712407589,-0.019600000232458115,0.11829999834299088,-0.007000000079177565,-0.03100000082707969,0.0009999999964224499
0.12136687338352203,-0.04879382997751236,9.942363739013672,0.003399999812245369,0,0.12809999287128448,0.007000000079177565,-0.0269999995907449,0.03999999902313467
0.11767023056745529,-0.051360417157411575,9.942449569702148,0.0032999999821186066,0,0.12809999287128448,-0.010999999647985701,-0.006000000186975531,-0.03699999851276524
0.12120406329631805,-0.061416059732437134,9.939221382141113,0.0031999999191612005,-0.009599999524652958,0.11829999834299088,0.014999999216793838,-0.01700000066872456,-0.0539999991814898
0.11879070848226547,-0.0492822490632534,9.937019348144531,0.0030999998562037945,0,0.11829999834299088,0,-0.019000000453128628,0.024000000747902123
0.10734643042087555,-0.05402276664972305,9.933064460754395,-0.006599999964237213,0,0.11829999834299088,-0.048000001495804245,-0.03100000082707969,-0.0039999999856897995
0.11828314512968063,-0.04564306139945984,9.930094718933105,0.003000000026077032,0.00989999994635582,0.10849999636411667,-0.043999998591942806,-0.017999999727163266,-0.07300000130214508
0.11247959733009338,-0.059155937284231186,9.932795524597168,-0.006799999624490738,0.00989999994635582,0.11829999834299088,0.012000000373951061,-0.049999999612681666,-0.07799999992939192
0.11247959733009338,-0.059155937284231186,9.932795524597168,-0.006799999624490738,-0.009599999524652958,0.11829999834299088,0.012000000373951061,-0.049999999612681666,-0.07799999992939192
0.11132080107927322,-0.048161763697862625,9.935094833374023,-0.006799999624490738,0,0.11829999834299088,0.048000001495804245,-0.0009999999964224499,-0.0039999999856897995
0.12469002604484558,-0.04003105312585831,9.943483352661133,0.01249999925494194,0.009599999524652958,0.12809999287128448,0.007999999971379599,-0.01700000066872456,-0.009999999755783667
0.12432610243558884,-0.057211846113204956,9.941089630126953,0.002699999837204814,-0.00009999999747378752,0.12809999287128448,0.015999999942759198,0.021000000237532696,0.041000001416626686
0.11604216694831848,-0.04901409521698952,9.934969902038574,0.002699999837204814,-0.00009999999747378752,0.11829999834299088,-0.01700000066872456,0.009999999755783667,-0.035000000395887826
0.12451764196157455,-0.06291962414979935,9.938312530517578,0.012399999424815178,-0.009800000116229057,0.11829999834299088,-0.019000000453128628,0.01700000066872456,0
0.11932700872421265,-0.04675397276878357,9.930276870727539,0.0026000000070780516,0,0.1378999948501587,0.014999999216793838,0.019000000453128628,-0.05099999867112037
0.12113703042268753,-0.05476018041372299,9.931330680847168,0.0024999999441206455,0.00969999935477972,0.10849999636411667,-0.007000000079177565,-0.019999999511567335,-0.007000000079177565
0.1129009798169136,-0.036985624581575394,9.946145057678223,-0.007199999876320362,0.01939999870955944,0.12809999287128448,0,-0.006000000186975531,-0.05300000012305109
0.11903012543916702,-0.053994037210941315,9.931723594665527,-0.007199999876320362,0.01939999870955944,0.12809999287128448,-0.012000000373951061,0.0329999989439571,-0.009999999755783667
0.11741165071725845,-0.05542098358273506,9.931330680847168,0.0024999999441206455,-0.00009999999747378752,0.11829999834299088,0.049999999612681666,0.012000000373951061,-0.0269999995907449
0.11651142686605453,-0.053352389484643936,9.944652557373047,0.0024999999441206455,-0.00009999999747378752,0.11829999834299088,-0.006000000186975531,0.07000000079177565,0.004999999877891834
0.11614751070737839,-0.05176264047622681,9.947189331054688,0.0026000000070780516,-0.00029999998514540493,0.12809999287128448,-0.03400000133744912,0.019000000453128628,0.007999999971379599
0.11983458697795868,-0.05702031031250954,9.947994232177734,0.002699999837204814,-0.00019999999494757503,0.12809999287128448,-0.07000000079177565,0.01400000015835513,0.02800000031671026
0.11113884299993515,-0.054606951773166656,9.948904037475586,-0.00699999975040555,0,0.12809999287128448,-0.029999998433587676,0.0009999999964224499,0.0019999999928448997
0.12225751578807831,-0.04238694906234741,9.940801620483398,0.002699999837204814,0.00969999935477972,0.12809999287128448,-0.009999999755783667,0.010999999647985701,-0.0009999999964224499
0.12017935514450073,-0.047165773808956146,9.952227592468262,0.002699999837204814,0.00969999935477972,0.1378999948501587,-0.008999999863581633,-0.019000000453128628,-0.015999999942759198
0.11191456764936447,-0.053639695048332214,9.942937850952148,-0.00699999975040555,0,0.12809999287128448,0.03100000082707969,-0.012000000373951061,-0.023000000021936765
0.11528559774160385,-0.059232551604509354,9.939010620117188,0.0026000000070780516,-0.009800000116229057,0.11829999834299088,-0.04200000047506539,-0.021000000237532696,-0.038000000906257256
0.1199016198515892,-0.06370491534471512,9.92788314819336,0.0024999999441206455,-0.009599999524652958,0.10849999636411667,-0.024000000747902123,-0.03699999851276524,-0.010999999647985701
0.11216355860233307,-0.04379473999142647,9.948166847229004,-0.0072999997064471245,0.00989999994635582,0.12809999287128448,-0.017999999727163266,-0.021999999295971403,-0.04200000047506539
0.1029602512717247,-0.04351700842380524,9.930497169494629,-0.016999999061226845,0.00989999994635582,0.10849999636411667,-0.021000000237532696,0.0030000000934877653,-0.07399999702553048
0.10048943012952805,-0.04923436418175697,9.938924789428711,-0.01679999940097332,0.00009999999747378752,0.11829999834299088,-0.0659999978879142,-0.019000000453128628,-0.07199999890865307
0.11579317599534988,-0.04866933077573776,9.929779052734375,0.0026000000070780516,0.00029999998514540493,0.10849999636411667,0.019999999511567335,0.009999999755783667,-0.021000000237532696
0.11685619503259659,-0.05125506967306137,9.941511154174805,0.0026000000070780516,0.00019999999494757503,0.12809999287128448,0.023000000021936765,-0.007999999971379599,-0.05300000012305109
0.1201506182551384,-0.05172433331608772,9.955531120300293,0.0024999999441206455,0.00019999999494757503,0.1378999948501587,-0.05099999867112037,-0.03699999851276524,0.0009999999964224499
0.11827356368303299,-0.0497610904276371,9.935304641723633,0.002300000051036477,0.00029999998514540493,0.11829999834299088,0.0019999999928448997,-0.01700000066872456,0.01700000066872456
0.11319785565137863,-0.0555742122232914,9.941405296325684,-0.007400000002235174,0.00029999998514540493,0.12809999287128448,0.01700000066872456,-0.015999999942759198,-0.019999999511567335
0.11569740623235703,-0.04620809108018875,9.947956085205078,0.002300000051036477,0.00029999998514540493,0.12809999287128448,0.05900000114378995,-0.024000000747902123,-0.07600000181251451
0.10901279747486115,-0.05125506967306137,9.944700241088867,0.002300000051036477,0.010199999436736107,0.12809999287128448,0.05900000114378995,-0.024000000747902123,-0.07600000181251451
0.11499829590320587,-0.0579492561519146,9.952964782714844,-0.007400000002235174,0.00019999999494757503,0.12809999287128448,-0.008999999863581633,0.006000000186975531,0.03999999902313467
