Accelerometer_Gx,Accelerometer_Gy,Accelerometer_Gz,Accelerometer_X,Accelerometer_Y,Accelerometer_Z,Gyroscope_Z,Gyroscope_X,Gyroscope_Y
0.11949940025806427,-0.04403415694832802,9.929855346679688,0.013700000010430813,0.004999999888241291,0.10830000042915344,-0.023000000021936765,0.019999999511567335,-0.006000000186975531
0.11668381839990616,-0.03634398430585861,9.934491157531738,0.013700000010430813,0.014800000004470348,0.11809999495744705,0.008999999863581633,0.05999999686717535,0.049999999612681666
0.1318630576133728,-0.053045932203531265,9.946452140808105,0.02369999885559082,-0.004699999932199717,0.12789998948574066,-1.2609999832949206,-0.19099999691961836,-0.13499999628619785
0.11541967839002609,-0.04845863953232765,9.949995994567871,0.013299999758601189,-0.0011999999405816197,0.12799999117851257,-0.06399999977103679,0.40599999792219216,0.17799999915475526
0.10844776034355164,-0.04810430109500885,9.94019889831543,0.004699999932199717,-0.0010999999940395355,0.11809999495744705,0.19499999315337319,0.1509999945614304,0.12199999852133472
0.12463255971670151,-0.05327577516436577,9.937498092651367,0.024699999019503593,-0.0016999999061226845,0.11809999495744705,-0.5949999767146132,0.29899998861249133,-0.07900000232288394
0.1269022673368454,-0.04391923546791077,9.939269065856934,0.0058999997563660145,0.009499999694526196,0.12789998948574066,-2.1540000462801325,0.09300000248123906,-0.0039999999856897995
0.12114660441875458,-0.051245495676994324,9.942793846130371,0.02539999969303608,0.004900000058114529,0.11809999495744705,2.427999915024364,0.017999999727163266,0.15599999985878385
0.12308112531900406,-0.05099649727344513,9.944154739379883,0.01589999906718731,-0.003999999724328518,0.12789998948574066,-1.5589999628438134,0.09600000299160849,-0.03699999851276524
0.11382992565631866,-0.04845863953232765,9.938255310058594,0.01589999906718731,-0.003999999724328518,0.12789998948574066,0.24399999704266945,0.05200000106461238,0.02899999937514897
0.12162545323371887,-0.05379292368888855,9.941511154174805,0.01640000008046627,0.00009999999747378752,0.12789998948574066,2.2030000368292155,-0.27500001120996237,-0.02800000031671026
0.11835017800331116,-0.055181559175252914,9.925881385803223,0.015599999576807022,-0.005799999926239252,0.10830000042915344,-1.5719999472684634,0.20999999570522035,-0.03400000133744912
0.12788867950439453,-0.05450160428881645,9.931589126586914,0.015599999576807022,-0.005799999926239252,0.10830000042915344,-0.8209999973754926,0.16500000138989213,-0.023000000021936765
0.11558248102664948,-0.046955082565546036,9.918506622314453,0.016699999570846558,0.010699999518692493,0.09849999845027924,-1.3939999881343477,0.23300000406479038,0.14099999730693671
0.11722969263792038,-0.04886086657643318,9.938465118408203,0.017400000244379044,0.005200000014156103,0.11809999495744705,-1.6580000330468574,0.26200000010488605,-0.015999999942759198
0.1173158809542656,-0.05445372313261032,9.927193641662598,0.018199998885393143,0.00969999935477972,0.10839999467134476,1.2150000466170598,0.12299999424472013,-0.06899999839828364
0.1123167872428894,-0.05435795709490776,9.940322875976562,0.008599999360740185,0.006799999624490738,0.11809999495744705,0.6089999968832882,-0.03899999996469596,0.10900000075647161
0.1165880411863327,-0.032216377556324005,9.924071311950684,0.018400000408291817,0.024699999019503593,0.10830000042915344,0.7080000137254794,0.29999999767609,0.07699999753589991
0.12039003521203995,-0.047568000853061676,9.94068717956543,0.019299998879432678,0.01269999984651804,0.11809999495744705,0.34200000482126197,-0.2039999946844815,-0.03400000133744912
0.12325350195169449,-0.05943366140127182,9.931090354919434,0.018699999898672104,-0.007699999958276749,0.10830000042915344,-0.37800001094569513,0.5300000012305109,-0.007000000079177565
0.12419202923774719,-0.05112099274992943,9.945150375366211,0.02019999921321869,0.003000000026077032,0.12789998948574066,0.3540000068627397,0.41499999945330046,-0.18600000496247812
0.11147402971982956,-0.06252697110176086,9.929165840148926,0.011500000022351742,-0.007699999958276749,0.10830000042915344,-1.2859999697610482,0.7720000068264096,0.10400000212922476
0.12843455374240875,-0.040768466889858246,9.938522338867188,0.032999999821186066,0.01489999983459711,0.11809999495744705,-0.6390000019869825,-0.4870000117021667,0.048000001495804245
0.1145864948630333,-0.061502255499362946,9.939135551452637,0.011899999342858791,-0.0026000000070780516,0.11809999495744705,1.6780000008754183,-0.30799999014359963,-0.006000000186975531
0.11035354435443878,-0.052145712077617645,9.940141677856445,0.011099999770522118,0.0024999999441206455,0.11809999495744705,-2.2730000843117373,0.10100000161885533,-0.010999999647985701
0.12863565981388092,-0.045346178114414215,9.93233585357666,0.030899999663233757,0.017799999564886093,0.11809999495744705,0.7069999779814543,-0.16800000190026157,-0.048000001495804245
0.11868536472320557,-0.051149725914001465,9.929252624511719,0.020600000396370888,0.005799999926239252,0.10830000042915344,0.9990000098704611,-0.024000000747902123,-0.0030000000934877653
0.12181698530912399,-0.05935704708099365,9.93588924407959,0.020600000396370888,-0.006300000008195639,0.11809999495744705,0.4100000074961602,0.2050000037480801,0.05600000063342052
0.10939586907625198,-0.051666874438524246,9.932413101196289,0.011299999430775642,0.002300000051036477,0.11809999495744705,-1.7109999531286293,0.669999989473849,0.128999995265459
0.10407116264104843,-0.05326620116829872,9.93294906616211,0.003599999938160181,0.007499999832361937,0.11809999495744705,-1.621000044539252,0.6480000035180908,0.08400000095013078
0.10774865001440048,-0.04936843737959862,9.948243141174316,0.014999999664723873,0.011399999260902405,0.12789998948574066,-0.8329999994169703,0.5380000203784471,-0.0030000000934877653
0.11484506726264954,-0.05647442862391472,9.932221412658691,0.016499999910593033,0.013700000010430813,0.11809999495744705,-0.06500000216452881,0.10499999785261017,0.05799999875029794
0.11518983542919159,-0.06201940029859543,9.936214447021484,0.026599999517202377,0.004100000020116568,0.11809999495744705,-0.8489999843519896,0.09099999769425504,0
0.1127956286072731,-0.043162669986486435,9.933935165405273,0.016999999061226845,0.025699999183416367,0.11809999495744705,-0.1729999938574018,0.6870000101528934,0.08200000283325337
0.11296801269054413,-0.040864236652851105,9.934635162353516,0.019099999219179153,0.02630000002682209,0.11809999495744705,0.11299999699022645,0.19799999366374263,0.10900000075647161
0.1258200854063034,-0.04639962688088417,9.947965621948242,0.04039999842643738,0.02630000002682209,0.12789998948574066,0.6690000070906769,-0.1610000051561373,-0.008999999863581633
0.11953770369291306,-0.04103661701083183,9.942564010620117,0.03009999915957451,0.02419999986886978,0.12789998948574066,0.2379999960219306,-0.009999999755783667,0.03100000082707969
0.11932700872421265,-0.06040092185139656,9.936263084411621,0.03009999915957451,0.004100000020116568,0.11809999495744705,-1.4340000305131753,0.13000000432905762,-0.08200000283325337
0.09943598508834839,-0.0548655241727829,9.927241325378418,0.03009999915957451,0.004100000020116568,0.11809999495744705,-0.9759999881706778,0.4489999874505363,0.031999999885518396
0.11831187456846237,-0.05903143808245659,9.948664665222168,0.031700000166893005,0.011099999770522118,0.12789998948574066,0.7200000157669572,-0.6759999904945878,-0.12499999903170415
0.1200261265039444,-0.05310339480638504,9.925651550292969,0.03009999915957451,0.019199999049305916,0.10830000042915344,-1.1819999876421434,0.45300002370493087,0.04500000098543482
0.11613793671131134,-0.05810248479247093,9.933034896850586,0.031300000846385956,0.01269999984651804,0.11809999495744705,1.0580000376946774,0.1199999937343507,0.01700000066872456
0.10934797674417496,-0.05382165685296059,9.932489395141602,0.021900000050663948,0.019199999049305916,0.11809999495744705,-0.8840000080932506,0.2699999925723957,0.08899999957737763
0.11138784140348434,-0.05793968215584755,9.934922218322754,0.022699998691678047,0.011799999512732029,0.11809999495744705,0.5979999772249827,-0.03100000082707969,0.031999999885518396
0.11895351111888885,-0.0456143319606781,9.91877555847168,0.03240000084042549,0.02979999966919422,0.09849999845027924,-0.29999999767609,0.14900000311465958,-0.01400000015835513
0.1084190309047699,-0.059366628527641296,9.92628288269043,0.023000000044703484,0.010999999940395355,0.10830000042915344,1.060999984844194,-0.3819999938392367,0.013000000266153095
0.12289915978908539,-0.04213795065879822,9.929051399230957,0.03189999982714653,0.028099998831748962,0.10830000042915344,-0.7489999851266264,0.49799997799961937,0.14900000311465958
0.11741165071725845,-0.04228160157799721,9.948482513427734,0.033399999141693115,0.030399998649954796,0.12789998948574066,-0.9740000234043334,0.37800001094569513,0.0969999987149939
0.10964486002922058,-0.047951072454452515,9.935630798339844,0.024699999019503593,0.02319999970495701,0.11809999495744705,0.7530000213810208,-0.3139999911643385,-0.07600000181251451
0.12016976624727249,-0.041716571897268295,9.927001953125,0.03370000049471855,0.031199999153614044,0.10830000042915344,0.6829999738984989,-0.07000000079177565,-0.09000000197086964
0.12507309019565582,-0.043756432831287384,9.939183235168457,0.043299999088048935,0.029099998995661736,0.11809999495744705,0.8039999766964482,0.13300000483942703,0.11599999750059588
0.12269805371761322,-0.0554497092962265,9.93692398071289,0.033799998462200165,0.017400000244379044,0.11809999495744705,-1.3759999850721312,0.6039999782457216,0.14399999781730613
0.11281478404998779,-0.047022122889757156,9.95344352722168,0.025699999183416367,0.03099999949336052,0.13769999146461487,-0.9089999945593782,0.39599998732748526,0.13000000432905762
0.11684662103652954,-0.05002924054861069,9.946318626403809,0.03669999912381172,0.024000000208616257,0.12789998948574066,-1.4559999631080807,0.5309999836136831,0.10999999647985702
0.11542925238609314,-0.06391561031341553,9.95753288269043,0.03799999877810478,0.01759999990463257,0.13769999146461487,-1.0489999828027163,0.3049999896332302,0.09399999820462447
0.12584881484508514,-0.054635681211948395,9.939116477966309,0.0486999973654747,0.030299998819828033,0.11809999495744705,-0.3980000054546825,0.5339999841240525,0.0969999987149939
0.11855129152536392,-0.04890875145792961,9.94345474243164,0.04050000011920929,0.03150000050663948,0.12789998948574066,-0.9610000389796836,0.5129999805514666,0.09200000008774706
0.12780249118804932,-0.047903187572956085,9.926312446594238,0.051500000059604645,0.033799998462200165,0.10830000042915344,0.5059999971475555,0.11099999887334903,0.06899999839828364
0.11393526941537857,-0.05435795709490776,9.919867515563965,0.03229999914765358,0.022499999031424522,0.12789998948574066,1.5190000271866915,-0.5260000183369693,-0.09099999769425504
0.12370361387729645,-0.053256623446941376,9.932557106018066,0.03199999779462814,0.03059999831020832,0.09849999845027924,0.3819999938392367,-0.43400001157911566,-0.029999998433587676
0.12370361387729645,-0.053256623446941376,9.932557106018066,0.040300000458955765,0.026399999856948853,0.11809999495744705,0.3819999938392367,-0.43400001157911566,-0.029999998433587676
0.11558248102664948,-0.04081634804606438,9.945762634277344,0.029199998825788498,0.025299999862909317,0.10830000042915344,0.838000018054537,-0.1729999938574018,-0.006000000186975531
0.12171164155006409,-0.05189671739935875,9.933505058288574,0.04039999842643738,0.03680000081658363,0.12789998948574066,-0.7549999861473652,-0.37400000137172706,0.035000000395887826
0.11347558349370956,-0.06031472608447075,9.937095642089844,0.029099998995661736,0.016699999570846558,0.11809999495744705,-0.20999999570522035,0.30700000776042746,0.05999999686717535
0.11898224800825119,-0.043162669986486435,9.928994178771973,0.03959999978542328,0.03680000081658363,0.10830000042915344,1.3479999447347812,-0.49600001323327503,-0.031999999885518396
0.12193191051483154,-0.05192544683814049,9.933696746826172,0.03830000013113022,0.02329999953508377,0.11809999495744705,-0.20999999570522035,0.3690000094145868,0.02899999937514897
0.11522813886404037,-0.04028962552547455,9.940706253051758,0.039400000125169754,0.03370000049471855,0.11809999495744705,-0.06200000165415938,-0.24399999704266945,-0.08700000146050021
0.10913728922605515,-0.05844724923372269,9.927960395812988,0.02889999933540821,0.014299999922513962,0.10830000042915344,0.8829999723492256,0.2150000010025738,0.0329999989439571
0.10782526433467865,-0.05477933585643768,9.945561408996582,0.029500000178813934,0.02159999869763851,0.12789998948574066,-1.1920000249172766,0.3310000118433829,0.11699999322398127
0.11793837696313858,-0.046715665608644485,9.960663795471191,0.04019999876618385,0.034699998795986176,0.14749999344348907,1.4619999641288195,-0.536999984634422,-0.04200000047506539
0.12158713489770889,-0.05588066950440407,9.92477035522461,0.039000000804662704,0.021399999037384987,0.10830000042915344,-0.4310000110687462,0.3660000089042174,0.12199999852133472
0.11428961157798767,-0.05447287857532501,9.959515571594238,0.030299998819828033,0.022699998691678047,0.13769999146461487,-1.8799999640924894,0.566000007354944,0.1180000022875799
0.12092633545398712,-0.057997141033411026,9.928955078125,0.041600000113248825,0.01809999905526638,0.10830000042915344,-0.6870000101528934,0.17899999487814064,-0.02800000031671026
0.10963528603315353,-0.04742434620857239,9.93637752532959,0.03229999914765358,0.03929999843239784,0.11809999495744705,0.44399999549339614,-0.6029999958625494,-0.038000000906257256
0.11240298300981522,-0.05883990228176117,9.937478065490723,0.030399998649954796,0.018299998715519905,0.11809999495744705,1.0129999766782831,-0.6309999828390465,-0.1199999937343507
0.10817961394786835,-0.04663905128836632,9.920403480529785,0.02889999933540821,0.025699999183416367,0.12789998948574066,1.2770000215907928,-0.43400001157911566,-0.0659999978879142
0.10817961394786835,-0.04663905128836632,9.920403480529785,0.027699999511241913,0.03199999779462814,0.09849999845027924,1.3939999881343477,-0.3989999878378547,-0.012000000373951061
0.12036130577325821,-0.05957731604576111,9.929108619689941,0.03629999980330467,0.008100000210106373,0.10830000042915344,1.339999978947698,-0.5480000042927274,-0.019000000453128628
0.1099608987569809,-0.05092945694923401,9.937919616699219,0.025100000202655792,0.014699999243021011,0.11809999495744705,1.6780000008754183,-0.36199999933024934,-0.09300000248123906
0.12079226970672607,-0.05087199807167053,9.945819854736328,0.033799998462200165,0.009499999694526196,0.12780000269412994,1.534999958760858,-0.5840000104171607,-0.08499999667351618
0.11772768199443817,-0.0559285506606102,9.928247451782227,0.03219999745488167,0.0052999998442828655,0.10819999873638153,0.012000000373951061,-0.2519999895101791,0.019000000453128628
0.1084190309047699,-0.04476199299097061,9.934806823730469,0.021800000220537186,0.015099999494850636,0.11800000071525574,-0.6470000211349186,0.03999999902313467,-0.02800000031671026
0.10946290194988251,-0.04061523824930191,9.919474601745605,0.031700000166893005,0.007199999876320362,0.10819999873638153,-1.0470000180363719,0.5639999892277469,0.13000000432905762
0.11472056806087494,-0.04853525385260582,9.948923110961914,0.02329999953508377,0.019600000232458115,0.09839999675750732,1.200999973087532,-0.5459999861655302,-0.019999999511567335
0.12484325468540192,-0.054539911448955536,9.943071365356445,0.02279999852180481,0.0066999997943639755,0.12780000269412994,-1.562999999098208,0.6429999848805241,0.13300000483942703
0.12184570729732513,-0.05241386592388153,9.93757438659668,0.03240000084042549,0.0066999997943639755,0.11800000071525574,1.3419999437140424,-0.35899999881987993,-0.007999999971379599
0.10704954713582993,-0.0561583936214447,9.936531066894531,0.03240000084042549,0.0066999997943639755,0.11800000071525574,-1.2439999626158762,-0.15699999558216926,0.10100000161885533
0.10528741776943207,-0.0522606335580349,9.936808586120605,0.02149999886751175,0.0026000000070780516,0.11800000071525574,1.5959999513514187,-0.26500000061525547,0.05600000063342052
0.10428185015916824,-0.05253836140036583,9.950398445129395,0.010599999688565731,0.002099999925121665,0.13759998977184296,-1.702999987341546,0.0429999995335041,0.07699999753589991
0.10594820976257324,-0.05337154492735863,9.93415641784668,0.020499998703598976,0.006799999624490738,0.11800000071525574,1.5560000156942968,-0.45300002370493087,0.013000000266153095
0.11182837933301926,-0.06241204962134361,9.93508529663086,0.019099999219179153,-0.007699999958276749,0.11800000071525574,-1.7500000131242845,0.6470000211349186,0.12100000279794933
0.12272677570581436,-0.058073755353689194,9.937152862548828,0.030700000002980232,-0.002899999963119626,0.11800000071525574,1.530000046844997,-0.5270000007201415,-0.03699999851276524
0.10848607122898102,-0.04566221684217453,9.934041023254395,0.019500000402331352,0.012399999424815178,0.11800000071525574,0.4930000127229056,0.06299999737754478,0.03100000082707969
0.1085435226559639,-0.054702721536159515,9.927816390991211,0.019600000232458115,0.00139999995008111,0.10819999873638153,-1.4869999505949472,0.6579999874323713,0.06899999839828364
0.11664550751447678,-0.0400502048432827,9.933389663696289,0.031199999153614044,0.01529999915510416,0.11800000071525574,-0.09999999922536333,-0.11400000605382507,0.012000000373951061
0.11447156965732574,-0.046485818922519684,9.944479942321777,0.020999999716877937,0.01549999974668026,0.12780000269412994,0.46999999102312234,-0.38999998630674637,0.041000001416626686
0.11602301895618439,-0.04907156154513359,9.924177169799805,0.02979999966919422,0.014299999922513962,0.12780000269412994,1.2689999490820039,0.038000000906257256,0.05900000114378995
0.11943235993385315,-0.045863326638936996,9.93659782409668,0.02850000001490116,0.000699999975040555,0.10819999873638153,1.1599999483255323,-0.22299999347008345,0.06299999737754478
0.10585244745016098,-0.046006981283426285,9.937727928161621,0.028599999845027924,0.0071000000461936,0.11800000071525574,1.1200000126684104,0.023000000021936765,0.04900000055424296
0.09794200211763382,-0.049828123301267624,9.942219734191895,0.018199998885393143,0.0038999998942017555,0.11800000071525574,0.9440000183006392,-0.05099999867112037,-0.09800000110848592
0.09794200211763382,-0.049828123301267624,9.942219734191895,0.00839999970048666,-0.008899999782443047,0.12780000269412994,0.9440000183006392,-0.05099999867112037,-0.09800000110848592
0.11759361624717712,-0.040366239845752716,9.936272621154785,0.027899999171495438,-0.001999999862164259,0.11800000071525574,1.0710000221193274,-0.2710000016359943,0.03999999902313467
0.11901097744703293,-0.05277778208255768,9.945427894592285,0.017400000244379044,-0.014399999752640724,0.12780000269412994,1.0580000376946774,-0.44699999600376555,-0.007000000079177565
0.11894393712282181,-0.04368939250707626,9.926054000854492,0.025699999183416367,-0.01850000023841858,0.12780000269412994,-0.6829999738984989,0.16699999283666295,0.06399999977103679
0.09967540949583054,-0.048544835299253464,9.94379997253418,0.005399999674409628,-0.019099999219179153,0.12780000269412994,-1.264000037166143,0.559000023951033,0.1079999983629796
0.11293928325176239,-0.0505942702293396,9.93261432647705,0.016899999231100082,-0.01529999915510416,0.11800000071525574,0.8110000134612122,-0.08499999667351618,0.05799999875029794
0.104023277759552,-0.05846640467643738,9.931445121765137,0.006899999920278788,-0.026999998837709427,0.11800000071525574,0.34299998720443414,-0.1830000044521087,0.008999999863581633
0.11804372072219849,-0.06459555774927139,9.92415714263916,0.006899999920278788,-0.026999998837709427,0.11800000071525574,-1.0129999766782831,0.4549999884712752,0.19099999691961836
0.11716265231370926,-0.04638047516345978,9.932670593261719,0.025999998673796654,-0.027899999171495438,0.10819999873638153,0.9229999613672003,-0.33600000380052314,-0.11400000605382507
0.11776599287986755,-0.06478710472583771,9.930861473083496,0.026599999517202377,-0.026999998837709427,0.10819999873638153,-0.9140000131969449,0.23300000406479038,0.03400000133744912
0.11799583584070206,-0.04833414405584335,9.93725872039795,0.026599999517202377,-0.026999998837709427,0.10819999873638153,1.4210000460885255,-0.34299998720443414,0.01400000015835513
0.11511322110891342,-0.05152321979403496,9.937565803527832,0.026399999856948853,-0.018299998715519905,0.11800000071525574,-0.7840000088678873,0.24399999704266945,0.0659999978879142
0.12574347853660583,-0.05886863172054291,9.935171127319336,0.03669999912381172,-0.026200000196695328,0.11800000071525574,0.6179999984143966,-0.2839999860606442,-0.09000000197086964
0.11734461039304733,-0.04434061422944069,9.933993339538574,0.025999998673796654,-0.008499999530613422,0.11800000071525574,-0.7939999927821677,0.3150000002279371,0.029999998433587676
0.11152191460132599,-0.041457995772361755,9.931062698364258,0.017099998891353607,-0.006399999838322401,0.10819999873638153,-0.08400000095013078,0.07699999753589991,0.03400000133744912
0.11132080107927322,-0.04907156154513359,9.9361572265625,0.01730000041425228,-0.01589999906718731,0.11800000071525574,0.7709999710823845,-0.1749999986443858,0.04200000047506539
0.11374373733997345,-0.03942771628499031,9.940446853637695,0.01679999940097332,-0.008200000040233135,0.11800000071525574,-0.15900000036915327,0.1419999930303221,-0.007999999971379599
0.11720095574855804,-0.05546886473894119,9.941845893859863,0.026899999007582664,-0.01759999990463257,0.12780000269412994,-0.8039999766964482,0.23900000508552924,0.0659999978879142
0.1126711368560791,-0.04817133769392967,9.928055763244629,0.01769999973475933,-0.015399999916553497,0.10819999873638153,-0.6609999879427407,-0.06899999839828364,0.14499999354069154
0.11139741539955139,-0.0637432262301445,9.935352325439453,0.017500000074505806,-0.02319999970495701,0.11800000071525574,-0.40499998885859356,0.09399999820462447,0.05200000106461238
0.11708603799343109,-0.05997954308986664,9.942899703979492,0.027499999850988388,-0.022099999710917473,0.12780000269412994,0.6450000030077214,-0.27500001120996237,0.05900000114378995
0.11271901428699493,-0.05172433331608772,9.92525863647461,0.017099998891353607,-0.013799999840557575,0.10819999873638153,0.048000001495804245,-0.08200000283325337,-0.02899999937514897
0.12011231482028961,-0.06663542240858078,9.93620491027832,0.026599999517202377,-0.02369999885559082,0.11800000071525574,0.29999999767609,-0.1079999983629796,0.024999999806340833
0.1239238828420639,-0.05028781294822693,9.923831939697266,0.02630000002682209,-0.014599999412894249,0.10819999873638153,-0.38100001145606455,-0.2289999944908223,-0.009999999755783667
0.12306196242570877,-0.061837442219257355,9.916084289550781,0.025599999353289604,-0.02329999953508377,0.09839999675750732,-0.30799999014359963,0.12400000330831876,0.04200000047506539
0.11758402734994888,-0.055507171899080276,9.933993339538574,0.02589999884366989,-0.012600000016391277,0.11800000071525574,-0.21299999621558977,0.14499999354069154,0.029999998433587676
0.1250060647726059,-0.05208825320005417,9.927433013916016,0.035999998450279236,-0.01209999993443489,0.10819999873638153,-0.6849999920256962,0.21800000151294321,0.048000001495804245
0.12199893593788147,-0.0497610904276371,9.935774803161621,0.026899999007582664,-0.009999999776482582,0.11800000071525574,-0.10499999785261017,-0.009999999755783667,0.06700000028140622
0.11468225717544556,-0.051293376833200455,9.930325508117676,0.016699999570846558,-0.011399999260902405,0.10819999873638153,0.47399997391666393,-0.12499999903170415,0.03699999851276524
0.12211386114358902,-0.058715399354696274,9.945236206054688,0.026099998503923416,-0.022699998691678047,0.12780000269412994,0.11699999322398127,-0.03100000082707969,0.0269999995907449
0.11101434379816055,-0.06756436824798584,9.931608200073242,0.016200000420212746,-0.03269999846816063,0.11800000071525574,0.559000023951033,-0.08200000283325337,0.03899999996469596
0.12143390625715256,-0.054185573011636734,9.946643829345703,0.02579999901354313,-0.014599999412894249,0.12780000269412994,-0.46600000812958076,0.1079999983629796,0.05999999686717535
0.11478760838508606,-0.059280432760715485,9.944833755493164,0.016300000250339508,-0.023000000044703484,0.12780000269412994,0.2899999870813831,-0.035000000395887826,0.03599999945432653
0.12870271503925323,-0.04797980189323425,9.94990062713623,0.03579999879002571,-0.013799999840557575,0.12780000269412994,0.06800000267489824,0.14499999354069154,0.08499999667351618
0.10636001825332642,-0.04179318621754646,9.940878868103027,0.016599999740719795,-0.00419999985024333,0.12780000269412994,0.475000009660689,-0.1620000008795227,0.03599999945432653
0.11322658509016037,-0.06689399480819702,9.94225788116455,0.016200000420212746,-0.025200000032782555,0.12780000269412994,-0.15599999985878385,0.07099999651516105,0.03699999851276524
0.1111484244465828,-0.0541568398475647,9.940361022949219,0.016300000250339508,-0.01489999983459711,0.11800000071525574,0.3049999896332302,-0.10199999734224074,0.007000000079177565
0.11884817481040955,-0.06152140721678734,9.930755615234375,0.02579999901354313,-0.025699999183416367,0.10819999873638153,0.363000008393848,-0.07099999651516105,0.0659999978879142
0.1118571013212204,-0.04064396768808365,9.933140754699707,0.015799999237060547,-0.006899999920278788,0.11800000071525574,-0.363000008393848,0.02600000053230619,0.05799999875029794
0.12412498891353607,-0.05097734183073044,9.94570541381836,0.025699999183416367,-0.015599999576807022,0.12780000269412994,0.3369999861836953,-0.08700000146050021,0.019000000453128628
0.11928870528936386,-0.036554671823978424,9.93447208404541,0.02539999969303608,0.003000000026077032,0.11800000071525574,-0.128999995265459,-0.017999999727163266,0.024000000747902123
0.11996866017580032,-0.05250963196158409,9.942237854003906,0.025299999862909317,-0.016200000420212746,0.12780000269412994,0.41300000800652964,-0.149999998838045,0.06500000216452881
0.11253705620765686,-0.05819825455546379,9.925421714782715,0.015099999494850636,-0.02719999849796295,0.10819999873638153,-0.13700000107318186,0.0859999990670082,0.05600000063342052
0.11132080107927322,-0.05069003626704216,9.933552742004395,0.01529999915510416,-0.016899999231100082,0.11800000071525574,0.27200001069959295,-0.07099999651516105,0.0859999990670082
0.12336842715740204,-0.045815445482730865,9.935784339904785,0.024899998679757118,-0.007799999788403511,0.11800000071525574,-0.07699999753589991,-0.0009999999964224499,0.02800000031671026
0.11343728005886078,-0.04429273307323456,9.934998512268066,0.015099999494850636,-0.007599999662488699,0.11800000071525574,0.5780000093964218,0.015999999942759198,0.004999999877891834
0.1220468282699585,-0.04936843737959862,9.930506706237793,0.024899998679757118,-0.019199999049305916,0.10819999873638153,0.37100000086135765,-0.1400000015835513,0.07699999753589991
0.12106999009847641,-0.05798756331205368,9.924903869628906,0.02449999935925007,-0.029899999499320984,0.10819999873638153,-0.5949999767146132,0.30700000776042746,0.06500000216452881
0.11301589757204056,-0.06298665702342987,9.93228816986084,0.015699999406933784,-0.028099998831748962,0.11800000071525574,-0.7480000027434541,0.32299999269544677,0.021000000237532696
0.11547713726758957,-0.05453033745288849,9.936290740966797,0.02630000002682209,-0.016200000420212746,0.11800000071525574,-0.2890000046982109,0.10199999734224074,0.035000000395887826
0.11338938772678375,-0.030799010768532753,9.938943862915039,0.01679999940097332,0.003999999724328518,0.11800000071525574,-0.2839999860606442,0.17899999487814064,0.05799999875029794
0.12213301658630371,-0.05187756195664406,9.9230375289917,0.02709999866783619,-0.014699999243021011,0.10819999873638153,0.47899999255423065,-0.035000000395887826,0.057000003026912535
0.10970232635736465,-0.04622724652290344,9.92961597442627,0.01719999872148037,-0.006000000052154064,0.10819999873638153,0.5320000193577081,-0.1830000044521087,-0.03599999945432653
0.11691366136074066,-0.04132392257452011,9.939030647277832,0.026499999687075615,-0.007499999832361937,0.11800000071525574,0.8269999983962315,0.07099999651516105,-0.02600000053230619
0.11831187456846237,-0.05933789536356926,9.93091869354248,0.02630000002682209,-0.031099999323487282,0.10819999873638153,0.08299999855663877,0.01400000015835513,-0.03899999996469596
0.1356363147497177,-0.052672434598207474,9.932116508483887,0.04580000042915344,-0.021399999037384987,0.11800000071525574,0.1610000051561373,0.18900000547284757,0.04200000047506539
0.12660539150238037,-0.060467954725027084,9.937938690185547,0.03659999743103981,-0.031700000166893005,0.11800000071525574,-0.5540000053134664,0.283000003677472,0.08100000043976135
0.11120587587356567,-0.05115929991006851,9.939671516418457,0.01759999990463257,-0.020600000396370888,0.11800000071525574,-0.711999996619021,-0.13600000534979648,0.048000001495804245
0.12128067761659622,-0.05647442862391472,9.935017585754395,0.026999998837709427,-0.018400000408291817,0.11800000071525574,0.7990000114197344,-0.31099999065396905,0.046999999102312236
0.11603259295225143,-0.05613924190402031,9.933772087097168,0.026099998503923416,-0.020600000396370888,0.11800000071525574,-0.08700000146050021,-0.03599999945432653,0.05999999686717535
0.12197978794574738,-0.05120718851685524,9.93834114074707,0.02589999884366989,-0.020399998873472214,0.11800000071525574,-0.03100000082707969,-0.013000000266153095,0.09800000110848592
0.12559981644153595,-0.03937982767820358,9.926025390625,0.035599999129772186,-0.010400000028312206,0.10819999873638153,0.28199999461387343,-0.3579999897562813,0.031999999885518396
0.11863747984170914,-0.05951027572154999,9.936914443969727,0.024899998679757118,-0.030700000002980232,0.11800000071525574,-0.5330000017408804,0.1729999938574018,0.05300000012305109
0.11184752732515335,-0.05521029233932495,9.946423530578613,0.015599999576807022,-0.019299998879432678,0.12780000269412994,0.3100000082707969,-0.2570000081477458,0.02600000053230619
0.10803595930337906,-0.0499909333884716,9.92176342010498,0.01489999983459711,-0.020099999383091927,0.10819999873638153,0.1620000008795227,0.10100000161885533,-0.007999999971379599
0.11330319941043854,-0.03869029879570007,9.944833755493164,0.015099999494850636,-0.010699999518692493,0.12780000269412994,0.5919999762042438,-0.30100000673968863,0.04200000047506539
0.11335108429193497,-0.050010085105895996,9.930851936340332,0.014299999922513962,-0.022099999710917473,0.10819999873638153,-0.642000002497352,0.42899999294154895,0.09500000059811649
0.11814906448125839,-0.057882219552993774,9.939557075500488,0.02539999969303608,-0.029899999499320984,0.11800000071525574,0.8110000134612122,-0.2810000122307012,0.04500000098543482
0.11135910451412201,-0.05326620116829872,9.93005657196045,0.014800000004470348,-0.022299999371170998,0.10819999873638153,-0.24399999704266945,-0.4179999999636699,0.041000001416626686
0.11654973775148392,-0.0312778502702713,9.930488586425781,0.023399999365210533,-0.002099999925121665,0.10819999873638153,-0.7149999971293904,0.3759999928184979,0.02800000031671026
0.10776780545711517,-0.05252878740429878,9.933140754699707,0.014599999412894249,-0.019700000062584877,0.11800000071525574,-0.31600000929153577,0.23300000406479038,0.06399999977103679
0.11378204077482224,-0.05869624763727188,9.942889213562012,0.015099999494850636,-0.02879999950528145,0.12780000269412994,-0.1620000008795227,0.0969999987149939,0.0039999999856897995
0.12480494379997253,-0.04524083808064461,9.934548377990723,0.03500000014901161,-0.008599999360740185,0.11800000071525574,0.3989999878378547,-0.20899999998183494,-0.006000000186975531
0.12276508659124374,-0.05242343991994858,9.932795524597168,0.02459999918937683,-0.019500000402331352,0.11800000071525574,0.42899999294154895,-0.33300000329015367,0.0269999995907449
0.11585063487291336,-0.061032988131046295,9.942459106445312,0.02369999885559082,-0.030399998649954796,0.12780000269412994,0.6110000150104855,-0.23099998593759313,0.015999999942759198
0.10856268554925919,-0.03983951732516289,9.929482460021973,0.013199999928474426,-0.012600000016391277,0.10819999873638153,-0.5020000142540139,0.019999999511567335,0.09099999769425504
0.1193174347281456,-0.05222232639789581,9.924732208251953,0.023000000044703484,-0.021199999377131462,0.10819999873638153,0.5110000157851222,-0.3220000103122746,0.04600000004387353
0.117066890001297,-0.058025870472192764,9.931379318237305,0.022099999710917473,-0.03240000084042549,0.11800000071525574,-0.03999999902313467,-0.33000000277978425,0
0.11776599287986755,-0.04447469115257263,9.931062698364258,0.0210999995470047,-0.022499999031424522,0.10819999873638153,0.42500001004800736,-0.18900000547284757,0.021000000237532696
0.10477984696626663,-0.021078553050756454,9.944028854370117,0.020600000396370888,-0.013700000010430813,0.10819999873638153,0.836999982310512,0.03100000082707969,0.04500000098543482
0.14486835896968842,-0.05133168399333954,9.909859657287598,0.0009999999310821295,0.003499999875202775,0.12780000269412994,-0.9049999583049837,0.5819999922899634,0.057000003026912535
0.12473791092634201,-0.061952363699674606,9.916390419006348,0.031599998474121094,-0.03359999880194664,0.09839999675750732,0.760999987168104,-0.4560000242153003,0.07999999804626934
0.11487379670143127,-0.06204812973737717,9.927748680114746,0.031599998474121094,-0.03359999880194664,0.09839999675750732,0.6840000096425239,-0.09999999922536333,-0.008999999863581633
0.09639056026935577,-0.05568913370370865,9.927117347717285,0.0004999999655410647,-0.027699999511241913,0.10819999873638153,-0.6540000045388297,0.5500000224199247,0.015999999942759198
0.11726799607276917,-0.050393156707286835,9.934222221374512,0.02149999886751175,-0.025999998673796654,0.11800000071525574,0.46099998949201404,-0.24500000610626807,0.06399999977103679
0.12487198412418365,-0.05768110603094101,9.945322036743164,0.03059999831020832,-0.03720000013709068,0.12780000269412994,0.19200000598321698,0.32899999371618566,0.031999999885518396
0.11204864084720612,-0.05472187325358391,9.932029724121094,0.011699999682605267,-0.027799999341368675,0.11800000071525574,0.7099999784918237,-0.4420000040466253,0.019999999511567335
0.11280520260334015,-0.04582501947879791,9.943282127380371,0.010300000198185444,-0.02019999921321869,0.12780000269412994,-0.4100000074961602,0.4519999879609058,0.031999999885518396
0.10628340393304825,-0.06534255295991898,9.932116508483887,0.011500000022351742,-0.03869999945163727,0.11800000071525574,0.5560000234406636,-0.42599999243117953,-0.02800000031671026
0.12100294977426529,-0.05789179727435112,9.931253433227539,0.02029999904334545,-0.03999999910593033,0.11800000071525574,-0.08700000146050021,0.2770000026567332,0.004999999877891834
0.12405795603990555,-0.04116111248731613,9.925862312316895,0.020999999716877937,-0.02019999921321869,0.10819999873638153,0.08299999855663877,-0.1749999986443858,0.03599999945432653
0.1171722337603569,-0.055009178817272186,9.926599502563477,0.020399998873472214,-0.03019999898970127,0.10819999873638153,0.8780000070725118,-0.5339999841240525,0
0.1187140941619873,-0.04393838718533516,9.933341979980469,0.01899999938905239,-0.022699998691678047,0.11800000071525574,-0.7089999961086516,0.6789999910049573,0.0269999995907449
0.11946108937263489,-0.05781518295407295,9.924071311950684,0.020600000396370888,-0.040699999779462814,0.10819999873638153,-0.7620000229121291,0.6099999792664604,0.05099999867112037
0.11404062062501907,-0.05251920595765114,9.92837142944336,0.012399999424815178,-0.02879999950528145,0.10819999873638153,-0.29800000622931916,-0.26699999206202624,0.038000000906257256
0.12884636223316193,-0.050230350345373154,9.932086944580078,0.031300000846385956,-0.027899999171495438,0.11800000071525574,-0.8189999792482954,0.22299999347008345,0.06800000267489824
0.12068691849708557,-0.042923249304294586,9.941980361938477,0.022099999710917473,-0.015599999576807022,0.12780000269412994,0.9959999559992387,-0.59999999535218,0.0659999978879142
0.12931562960147858,-0.04755842313170433,9.938321113586426,0.03019999898970127,-0.018299998715519905,0.11800000071525574,0.5200000173162305,-0.6369999838597853,0.007999999971379599
0.12272677570581436,-0.056953269988298416,9.938694953918457,0.028699999675154686,-0.03920000046491623,0.11800000071525574,0.6660000065803073,-0.43400001157911566,0.024000000747902123
0.12272677570581436,-0.056953269988298416,9.938694953918457,0.017500000074505806,-0.03139999881386757,0.11800000071525574,0.9599999498748056,-0.128999995265459,0.07999999804626934
0.12018892914056778,-0.062028978019952774,9.927623748779297,0.01719999872148037,-0.04349999874830246,0.10819999873638153,-0.43699998540905866,-0.5270000007201415,0.06200000165415938
0.11973881721496582,-0.04966532066464424,9.942544937133789,0.015699999406933784,-0.032499998807907104,0.12789998948574066,-0.16699999283666295,-0.28799999563461226,0.11599999750059588
0.11728715151548386,-0.0744117870926857,9.936779975891113,0.014800000004470348,-0.03199999779462814,0.11809999495744705,-1.090000007564716,-0.11500000177721047,0.0969999987149939
0.11636777967214584,-0.05846640467643738,9.932929992675781,0.014499999582767487,-0.04899999871850014,0.11809999495744705,0.6930000111736323,0.0429999995335041,-0.019000000453128628
0.11673169583082199,-0.052547939121723175,9.939988136291504,0.01529999915510416,-0.03709999844431877,0.11809999495744705,0.559000023951033,-0.29999999767609,0.0009999999964224499
0.11878113448619843,-0.04459919035434723,9.923583030700684,0.015399999916553497,-0.029199998825788498,0.11809999495744705,0.3750000104353257,0.18799999640924894,0.0019999999928448997
0.11739249527454376,-0.06132029369473457,9.925134658813477,0.014699999243021011,-0.020800000056624413,0.10830000042915344,1.3389999965645258,-0.0039999999856897995,0.04900000055424296
0.127486452460289,-0.045604754239320755,9.929203987121582,0.02499999850988388,-0.025100000202655792,0.10830000042915344,-1.570999964885291,-0.038000000906257256,0.041000001416626686
0.11734461039304733,-0.0501154288649559,9.933112144470215,0.015099999494850636,-0.03059999831020832,0.11809999495744705,-0.41300000800652964,-0.1719999981340164,0.03899999996469596
0.11404062062501907,-0.053802501410245895,9.942660331726074,0.004699999932199717,-0.02929999865591526,0.12789998948574066,0.05799999875029794,-0.09899999683187131,0.041000001416626686
0.11311166733503342,-0.04789361357688904,9.935515403747559,0.0044999998062849045,-0.029399998486042023,0.11809999495744705,1.7539999426569735,-0.18700000068586353,0.11599999750059588
0.11253705620765686,-0.05970181152224541,9.938407897949219,0.0037999998312443495,-0.044599998742341995,0.11809999495744705,0.029999998433587676,0.010999999647985701,0.010999999647985701
0.1106695756316185,-0.06267062574625015,9.942085266113281,0.0038999998942017555,-0.044599998742341995,0.12789998948574066,1.864000032518323,-0.27599999359313454,0.07000000079177565
0.11579317599534988,-0.056053049862384796,9.931877136230469,0.012999999336898327,-0.03920000046491623,0.11809999495744705,-0.7669999881888429,-0.07699999753589991,0.024999999806340833
0.11414595693349838,-0.054635681211948395,9.9495267868042,0.002899999963119626,-0.03689999878406525,0.12789998948574066,-0.901000028772295,-0.0039999999856897995,0.008999999863581633
0.12220005691051483,-0.06638642400503159,9.933034896850586,0.01269999984651804,-0.044199999421834946,0.11809999495744705,-0.06299999737754478,-0.05999999686717535,0.031999999885518396
0.12382811307907104,-0.0643274113535881,9.931387901306152,0.01249999925494194,-0.04389999806880951,0.11809999495744705,0.1070000026395942,-0.08299999855663877,0.06399999977103679
0.11981543153524399,-0.045461103320121765,9.927404403686523,0.012199999764561653,-0.034299999475479126,0.10830000042915344,-0.049999999612681666,-0.0429999995335041,-0.02899999937514897
0.11981543153524399,-0.045461103320121765,9.927404403686523,0.01209999993443489,-0.024299999698996544,0.10830000042915344,1.0419999993988052,-0.029999998433587676,0.017999999727163266
0.11470141261816025,-0.05437710881233215,9.948702812194824,0.0017999999690800905,-0.034299999475479126,0.12789998948574066,-1.6069999710097242,0.3529999977991411,-0.10199999734224074
0.11891520768404007,-0.04414907842874527,9.937623023986816,0.01249999925494194,-0.020099999383091927,0.11809999495744705,-0.35499998924591186,0.03100000082707969,0.06800000267489824
0.10549809783697128,-0.06794743984937668,9.939078330993652,0.01249999925494194,-0.020099999383091927,0.11809999495744705,0.4280000105583768,0.03100000082707969,0.09300000248123906
0.10549809783697128,-0.06794743984937668,9.939078330993652,0.00279999990016222,-0.0486999973654747,0.11809999495744705,0.4280000105583768,0.03100000082707969,0.09300000248123906
0.10981724411249161,-0.056388236582279205,9.932882308959961,0.00279999990016222,-0.030299998819828033,0.11809999495744705,-0.67699997287776,-0.04900000055424296,-0.0329999989439571
0.11951854825019836,-0.04137180745601654,9.940715789794922,0.01249999925494194,-0.018699999898672104,0.11809999495744705,-1.129999943221838,-0.19900000272734125,0
0.11594640463590622,-0.052452173084020615,9.940783500671387,0.011899999342858791,-0.02539999969303608,0.12789998948574066,-0.2159999967259592,0.013000000266153095,0.0429999995335041
0.11915463209152222,-0.05611051246523857,9.920307159423828,0.011899999342858791,-0.024699999019503593,0.09849999845027924,-0.5200000173162305,0.03400000133744912,0.013000000266153095
0.11811075359582901,-0.04929182305932045,9.927078247070312,0.012000000104308128,-0.023399999365210533,0.11809999495744705,-0.5209999996994026,0.09300000248123906,0.08700000146050021
0.1018972247838974,-0.054424989968538284,9.949823379516602,-0.007400000002235174,-0.021199999377131462,0.12789998948574066,-0.24599998848944027,0.10199999734224074,0.029999998433587676
0.11445241421461105,-0.05253836140036583,9.939107894897461,0.0024999999441206455,-0.020499998703598976,0.11809999495744705,0.433000002515517,-0.09899999683187131,0.10400000212922476
0.11250832676887512,-0.05447287857532501,9.922118186950684,0.0024999999441206455,-0.020499998703598976,0.11809999495744705,0.9039999759218116,-0.16699999283666295,0.18600000496247812
0.11070788651704788,-0.059845466166734695,9.942784309387207,0.0017999999690800905,-0.033799998462200165,0.12789998948574066,-0.6320000185830715,0.024000000747902123,-0.0269999995907449
0.1097119003534317,-0.05601474270224571,9.934050559997559,0.0017999999690800905,-0.022299999371170998,0.11809999495744705,-0.2609999910412874,0.024999999806340833,0.10900000075647161
0.10625466704368591,-0.05251920595765114,9.932269096374512,0.0018999999156221747,-0.02149999886751175,0.11809999495744705,-0.475000009660689,0.0030000000934877653,-0.010999999647985701
0.12031342089176178,-0.05158068239688873,9.927298545837402,0.011599999852478504,-0.02029999904334545,0.10830000042915344,-0.4639999900023835,0.0269999995907449,0.038000000906257256
0.11520898342132568,-0.05943366140127182,9.925354957580566,0.011699999682605267,-0.028699999675154686,0.10830000042915344,0.017999999727163266,-0.01400000015835513,0.0539999991814898
0.12031342089176178,-0.06166505813598633,9.936483383178711,0.011599999852478504,-0.028699999675154686,0.11809999495744705,-0.4849999935749695,-0.023000000021936765,-0.0019999999928448997
0.11164641380310059,-0.052883125841617584,9.91010856628418,0.0016999999061226845,-0.01769999973475933,0.08869999647140503,0.24099999653230003,-0.05499999823992851,0.07799999992939192
0.11359050869941711,-0.05251920595765114,9.935295104980469,0.001500000013038516,-0.018400000408291817,0.11809999495744705,0.048000001495804245,-0.06099999926066736,0.12799999954207358
0.11262324452400208,-0.056694693863391876,9.926131248474121,0.00139999995008111,-0.01850000023841858,0.10830000042915344,0.559000023951033,-0.004999999877891834,0.08899999957737763
0.11606132239103317,-0.05768110603094101,9.925296783447266,0.01119999960064888,-0.029999999329447746,0.10830000042915344,0.5219999820825748,-0.04200000047506539,-0.021999999295971403
0.11712434142827988,-0.05716396123170853,9.940773010253906,0.010999999940395355,-0.02159999869763851,0.12789998948574066,-0.12700000381868817,-0.03699999851276524,-0.010999999647985701
0.11565909534692764,-0.03916914016008377,9.929588317871094,0.010900000110268593,-0.011500000022351742,0.10830000042915344,0.08799999718388561,-0.019000000453128628,0.1419999930303221
0.11326489597558975,-0.05350561812520027,9.953347206115723,0.0010999999940395355,-0.02149999886751175,0.13769999146461487,0.0019999999928448997,-0.11599999750059588,0.04600000004387353
0.12012188881635666,-0.06035303324460983,9.946011543273926,0.010400000028312206,-0.03099999949336052,0.12789998948574066,0.27899999410350396,-0.06700000028140622,0.05900000114378995
0.12471875548362732,-0.059941235929727554,9.945734024047852,0.020099999383091927,-0.031700000166893005,0.12789998948574066,-0.02899999937514897,-0.049999999612681666,0.0659999978879142
0.11872366815805435,-0.042664673179388046,9.930994987487793,0.020099999383091927,-0.031700000166893005,0.12789998948574066,0.18600000496247812,-0.03599999945432653,0.09899999683187131
0.11268071085214615,-0.045154642313718796,9.937344551086426,0.010099999606609344,-0.012000000104308128,0.10830000042915344,0.05200000106461238,0.02800000031671026,0.041000001416626686
0.12199893593788147,-0.05516240745782852,9.944364547729492,0.00019999999494757503,-0.01249999925494194,0.11809999495744705,0.17400000292100043,-0.0539999991814898,0.06800000267489824
0.11798626184463501,-0.05581362918019295,9.932767868041992,0.010099999606609344,-0.02239999920129776,0.12789998948574066,0.3409999957576634,-0.024999999806340833,0.2140000052791884
0.12486240267753601,-0.048353299498558044,9.931838035583496,0.019600000232458115,-0.023599999025464058,0.11809999495744705,-0.1610000051561373,-0.006000000186975531,-0.03100000082707969
0.11220186948776245,-0.053802501410245895,9.930094718933105,0.019600000232458115,-0.023599999025464058,0.11809999495744705,-0.17599999436777122,-0.021999999295971403,-0.06899999839828364
0.11880987137556076,-0.05498044937849045,9.922558784484863,0,-0.023000000044703484,0.10830000042915344,0.2140000052791884,-0.02600000053230619,0.05200000106461238
0.11158894747495651,-0.0400502048432827,9.930564880371094,0,-0.013299999758601189,0.10830000042915344,0.2250000115972807,-0.08899999957737763,0.12299999424472013
0.11498871445655823,-0.0445513054728508,9.924100875854492,0,-0.013299999758601189,0.10830000042915344,0.20200000323771067,0.008999999863581633,0.12299999424472013
0.11554417759180069,-0.05347689241170883,9.921409606933594,0.009399999864399433,-0.02419999986886978,0.09849999845027924,-0.046999999102312236,-0.024000000747902123,0.10600000024610218
0.12022723257541656,-0.06066907197237015,9.92585277557373,0.00930000003427267,-0.033799998462200165,0.10830000042915344,0.05499999823992851,-0.041000001416626686,0.11599999750059588
0.11539094895124435,-0.057786453515291214,9.940485954284668,0.009099999442696571,-0.033900000154972076,0.11809999495744705,-0.049999999612681666,-0.08700000146050021,0.05499999823992851
0.11489295214414597,-0.06727706640958786,9.942726135253906,-0.0007999999797903001,-0.04349999874830246,0.12789998948574066,0.15699999558216926,0.0009999999964224499,0.2360000045751598
0.12637554109096527,-0.04447469115257263,9.931530952453613,0.018699999898672104,-0.014499999582767487,0.11809999495744705,0.0859999990670082,-0.04900000055424296,0.21299999621558977
0.1280514895915985,-0.0407588891685009,9.927452087402344,0.01860000006854534,-0.014699999243021011,0.10830000042915344,0.10999999647985702,-0.004999999877891834,0.28600000418784144
0.1086297258734703,-0.04762545973062515,9.944001197814941,-0.0009999999310821295,-0.014999999664723873,0.12789998948574066,0.12199999852133472,-0.013000000266153095,0.14699999832767557
0.11246044188737869,-0.058945246040821075,9.93625259399414,-0.0009999999310821295,-0.0348999984562397,0.11809999495744705,-0.1070000026395942,-0.0039999999856897995,-0.2839999860606442
0.11679873615503311,-0.05891651660203934,9.943042755126953,0.008599999360740185,-0.03460000082850456,0.12789998948574066,-0.08799999718388561,-0.023000000021936765,-0.2549999900205486
0.10839029401540756,-0.06059245765209198,9.927165031433105,-0.0011999999405816197,-0.03439999744296074,0.10830000042915344,-0.021999999295971403,-0.0329999989439571,-0.13300000483942703
0.10522037744522095,-0.04962701350450516,9.920221328735352,-0.010999999940395355,-0.024399999529123306,0.09849999845027924,-0.0539999991814898,-0.013000000266153095,0.4429999864297975
0.11888648569583893,-0.05602432042360306,9.931282997131348,0.00839999970048666,-0.024299999698996544,0.11809999495744705,-0.07199999890865307,-0.010999999647985701,-0.3999999969014533
0.11177091300487518,-0.06250781565904617,9.921993255615234,-0.0013000000035390258,-0.033900000154972076,0.10830000042915344,0.1319999957758284,-0.031999999885518396,-0.10299999973573276
0.12434525787830353,-0.058207832276821136,9.92210865020752,0.008299999870359898,-0.034199997782707214,0.10830000042915344,-0.06399999977103679,-0.03100000082707969,0.14099999730693671
0.10933840274810791,-0.06114790961146355,9.92819881439209,-0.001500000013038516,-0.033900000154972076,0.10830000042915344,0.11299999699022645,-0.015999999942759198,0.06700000028140622
0.1172967329621315,-0.046600744128227234,9.930841445922852,0.008100000210106373,-0.014599999412894249,0.10830000042915344,-0.128999995265459,0,0.0429999995335041
0.12295661866664886,-0.03746446967124939,9.93033504486084,0.008100000210106373,-0.004399999976158142,0.10830000042915344,0.01400000015835513,-0.024999999806340833,0.019000000453128628
0.1168178841471672,-0.05287355184555054,9.932785987854004,0.007999999448657036,-0.024000000208616257,0.11809999495744705,-0.01700000066872456,-0.006000000186975531,0.07600000181251451
0.12333011627197266,-0.05300762504339218,9.941424369812012,0.007899999618530273,-0.02369999885559082,0.12799999117851257,0.05900000114378995,-0.021999999295971403,-0.0019999999928448997
0.12333011627197266,-0.05300762504339218,9.941424369812012,0.007899999618530273,-0.02369999885559082,0.12799999117851257,0.05900000114378995,-0.021999999295971403,-0.0019999999928448997
0.11677958071231842,-0.055181559175252914,9.932747840881348,0.007699999958276749,-0.02369999885559082,0.11819999665021896,0.038000000906257256,-0.009999999755783667,0.05499999823992851
0.11786176264286041,-0.04685931280255318,9.931015014648438,0.007699999958276749,-0.013899999670684338,0.10830000042915344,-0.06899999839828364,-0.029999998433587676,0.05900000114378995
0.11533348262310028,-0.04995262622833252,9.934730529785156,0.007499999832361937,-0.023000000044703484,0.11819999665021896,-0.10299999973573276,0.0009999999964224499,0.09899999683187131
0.12087845802307129,-0.04661031812429428,9.937613487243652,0.0072999997064471245,-0.01269999984651804,0.11819999665021896,-0.031999999885518396,0.0019999999928448997,0.06200000165415938
0.12090718746185303,-0.06038176640868187,9.935611724853516,0.007199999876320362,-0.03150000050663948,0.11819999665021896,-0.021999999295971403,-0.0429999995335041,0.04500000098543482
0.11050677299499512,-0.05926128104329109,9.9307279586792,-0.0024999999441206455,-0.030799999833106995,0.10839999467134476,-0.05600000063342052,0.0019999999928448997,0.0749999994190225
0.13416148722171783,-0.0579492561519146,9.938436508178711,0.02630000002682209,-0.029999999329447746,0.11819999665021896,-0.02800000031671026,-0.041000001416626686,0.07199999890865307
0.11381077766418457,-0.059443242847919464,9.928313255310059,-0.003000000026077032,-0.02929999865591526,0.10839999467134476,-0.03100000082707969,-0.014999999216793838,0.05200000106461238
0.12189359962940216,-0.05408022552728653,9.922778129577637,0.0064999996684491634,-0.01899999938905239,0.10839999467134476,0.05799999875029794,0.007000000079177565,0.09500000059811649
0.12269805371761322,-0.04412992298603058,9.933619499206543,0.006399999838322401,-0.009200000204145908,0.11819999665021896,-0.07999999804626934,-0.009999999755783667,0.05900000114378995
0.10891702026128769,-0.032858025282621384,9.938791275024414,-0.0031999999191612005,0.000699999975040555,0.11819999665021896,0.046999999102312236,-0.043999998591942806,0.048000001495804245
0.11358092725276947,-0.06382941454648972,9.928850173950195,-0.0031999999191612005,-0.028199998661875725,0.10839999467134476,-0.02600000053230619,-0.03699999851276524,0.0019999999928448997
0.11712434142827988,-0.04358404874801636,9.923985481262207,0.006300000008195639,-0.008299999870359898,0.10839999467134476,-0.010999999647985701,-0.03400000133744912,0.06399999977103679
0.10762415081262589,-0.04210921749472618,9.933150291442871,-0.003399999812245369,-0.008200000040233135,0.11819999665021896,0.05999999686717535,-0.038000000906257256,0.09000000197086964
0.1204858124256134,-0.05872498080134392,9.948616981506348,0.006099999882280827,-0.027499999850988388,0.12799999117851257,0.04500000098543482,0.007999999971379599,0.07399999702553048
0.09972328692674637,-0.04969405010342598,9.937870979309082,-0.013199999928474426,-0.017500000074505806,0.11819999665021896,0.029999998433587676,-0.08499999667351618,0.03899999996469596
0.12628935277462006,-0.056148819625377655,9.94749641418457,0.015699999406933784,-0.01730000041425228,0.12799999117851257,-0.02899999937514897,-0.024999999806340833,0.09200000008774706
0.12480494379997253,-0.0636378824710846,9.958414077758789,0.015399999916553497,-0.026599999517202377,0.13779999315738678,0.021000000237532696,-0.06200000165415938,0.021999999295971403
0.11653058975934982,-0.047386039048433304,9.929281234741211,0.005399999674409628,-0.006899999920278788,0.10839999467134476,-0.008999999863581633,-0.07399999702553048,0.09099999769425504
0.12951673567295074,-0.05706819146871567,9.929100036621094,0.014699999243021011,-0.01640000008046627,0.10839999467134476,0.07099999651516105,0.02899999937514897,0.0429999995335041
0.12817597389221191,-0.06453809887170792,9.935592651367188,0.014599999412894249,-0.025999998673796654,0.11819999665021896,-0.0749999994190225,-0.05900000114378995,0.038000000906257256
0.09414958953857422,-0.05636908486485481,10.02238655090332,-0.024399999529123306,-0.015799999237060547,0.20649999380111694,-0.0009999999964224499,-0.14600000260429016,0.07000000079177565
0.09763554483652115,-0.04051946848630905,10.076265335083008,-0.01489999983459711,-0.006000000052154064,0.2653000056743622,-0.0030000000934877653,-0.049999999612681666,0.043999998591942806
0.14295299351215363,-0.06511270999908447,9.996808052062988,0.023799998685717583,-0.025299999862909317,0.1770000010728836,0.015999999942759198,-0.004999999877891834,0.035000000395887826
0.10468407720327377,-0.061435215175151825,9.995467185974121,0.04309999942779541,-0.0640999972820282,0.20649999380111694,-0.02600000053230619,-0.0329999989439571,0.041000001416626686
0.09836337715387344,-0.023252487182617188,9.95523452758789,-0.01549999974668026,-0.024699999019503593,0.1770000010728836,0.03400000133744912,0.004999999877891834,-0.021999999295971403
0.1335294246673584,-0.04932055622339249,9.959246635437012,0.013799999840557575,-0.01489999983459711,0.13779999315738678,-0.01700000066872456,-0.05900000114378995,-0.043999998591942806
0.12886551022529602,-0.06555324792861938,9.947745323181152,0.013799999840557575,-0.01489999983459711,0.13779999315738678,0.03400000133744912,-0.024999999806340833,0.05799999875029794
0.11384908109903336,-0.06327396631240845,9.948041915893555,-0.006000000052154064,-0.02410000003874302,0.12799999117851257,0.0329999989439571,0.0019999999928448997,0.01400000015835513
0.10102573037147522,-0.051743488758802414,9.9473237991333,-0.006000000052154064,-0.02410000003874302,0.12799999117851257,-0.029999998433587676,-0.021000000237532696,0.02899999937514897
0.12812809646129608,-0.06452852487564087,9.934700965881348,0.013499999418854713,-0.023599999025464058,0.11819999665021896,-0.08400000095013078,-0.013000000266153095,0.021999999295971403
0.10602482408285141,-0.045556869357824326,9.946097373962402,-0.006000000052154064,-0.0037999998312443495,0.12799999117851257,0.012000000373951061,-0.023000000021936765,0.06200000165415938
0.1138778105378151,-0.04443638399243355,9.93588924407959,-0.0058999997563660145,-0.0037999998312443495,0.11819999665021896,0.0039999999856897995,-0.029999998433587676,0.06399999977103679
0.12611696124076843,-0.039561789482831955,9.950934410095215,0.013399999588727951,-0.0037999998312443495,0.13779999315738678,0.07199999890865307,-0.024999999806340833,0.023000000021936765
0.11651142686605453,-0.06269935518503189,9.922807693481445,0.003499999875202775,-0.02319999970495701,0.10839999467134476,0.021999999295971403,0.0269999995907449,0.07999999804626934
0.10962571203708649,-0.0454898327589035,9.924684524536133,-0.006000000052154064,-0.003700000001117587,0.10839999467134476,0.01400000015835513,-0.015999999942759198,0.0429999995335041
0.12008357793092728,-0.05554547905921936,9.924541473388672,0.003599999938160181,-0.013299999758601189,0.10839999467134476,0.04600000004387353,-0.021999999295971403,0.023000000021936765
0.11764149367809296,-0.05112099274992943,9.918851852416992,0.003499999875202775,-0.013299999758601189,0.09860000014305115,0.038000000906257256,-0.009999999755783667,0.02600000053230619
0.1304648369550705,-0.058973975479602814,9.93718147277832,0.013100000098347664,-0.02290000021457672,0.11819999665021896,0.0269999995907449,-0.02800000031671026,-0.006000000186975531
0.10874464362859726,-0.05671384930610657,9.929701805114746,-0.006300000008195639,-0.012999999336898327,0.10839999467134476,0.0030000000934877653,-0.0329999989439571,0.035000000395887826
0.10496179759502411,-0.05424303561449051,9.934615135192871,-0.01599999889731407,-0.012799999676644802,0.11819999665021896,-0.0429999995335041,-0.04900000055424296,0.0539999991814898
0.11578359454870224,-0.04711788892745972,9.934854507446289,0.0032999999821186066,-0.002899999963119626,0.11819999665021896,0.029999998433587676,-0.007000000079177565,-0.038000000906257256
0.1099417433142662,-0.0501154288649559,9.93936538696289,-0.006300000008195639,-0.012600000016391277,0.11819999665021896,0.019000000453128628,-0.023000000021936765,0.035000000395887826
0.11687535047531128,-0.05091987922787666,9.927107810974121,0.0032999999821186066,-0.01249999925494194,0.10839999467134476,0.029999998433587676,-0.048000001495804245,0.05499999823992851
0.10602482408285141,-0.039609674364328384,9.937344551086426,-0.006399999838322401,-0.002699999837204814,0.11819999665021896,-0.0749999994190225,-0.015999999942759198,0.048000001495804245
0.12187444418668747,-0.04723281040787697,9.943015098571777,0.0031999999191612005,-0.0024999999441206455,0.12799999117851257,0.09099999769425504,-0.019000000453128628,0.043999998591942806
0.11383949965238571,-0.044043734669685364,9.942831993103027,-0.0064999996684491634,-0.00279999990016222,0.12799999117851257,0.0030000000934877653,-0.0329999989439571,0.10100000161885533
0.11872366815805435,-0.057527877390384674,9.934491157531738,-0.0064999996684491634,-0.01249999925494194,0.12799999117851257,-0.021000000237532696,-0.03699999851276524,0.02899999937514897
0.13394121825695038,-0.0558040551841259,9.93784236907959,0.0030999998562037945,-0.02199999988079071,0.11819999665021896,0.019999999511567335,-0.03599999945432653,0.09000000197086964
0.11095688492059708,-0.03533841669559479,9.955483436584473,0.01269999984651804,-0.01209999993443489,0.11819999665021896,-0.009999999755783667,-0.03400000133744912,0.05499999823992851
0.11778514832258224,-0.05774814635515213,9.945380210876465,-0.006799999624490738,0.0072999997064471245,0.13779999315738678,0.008999999863581633,-0.0329999989439571,-0.05600000063342052
0.11583147943019867,-0.06106172129511833,9.929683685302734,0.00279999990016222,-0.021800000220537186,0.12799999117851257,0.015999999942759198,0.01700000066872456,0.05099999867112037
0.1237993836402893,-0.057001154869794846,9.93189525604248,0.002699999837204814,-0.011699999682605267,0.11819999665021896,0.021000000237532696,-0.0039999999856897995,0.06399999977103679
0.11441411077976227,-0.05204036831855774,9.91549015045166,-0.006899999920278788,-0.011500000022351742,0.09860000014305115,0.015999999942759198,-0.038000000906257256,0.035000000395887826
0.11721053719520569,-0.057882219552993774,9.92874526977539,0.002699999837204814,-0.0210999995470047,0.10839999467134476,0.015999999942759198,-0.03400000133744912,0.049999999612681666
0.11738292127847672,-0.04291366785764694,9.926791191101074,0.0026000000070780516,-0.00139999995008111,0.10839999467134476,0.06099999926066736,-0.07300000130214508,0.09899999683187131
0.12009315192699432,-0.04473326355218887,9.944039344787598,0.002300000051036477,-0.0015999999595806003,0.12799999117851257,-0.007000000079177565,-0.04900000055424296,0.02899999937514897
0.12092633545398712,-0.052030790597200394,9.935583114624023,0.002199999988079071,-0.01119999960064888,0.11819999665021896,0.03400000133744912,0.0009999999964224499,0.0749999994190225
0.11572613567113876,-0.05837063491344452,9.939250946044922,0.002199999988079071,-0.020800000056624413,0.11819999665021896,0,-0.023000000021936765,0.0269999995907449
0.11790964752435684,-0.04355531558394432,9.926676750183105,0.002099999925121665,-0.0010999999940395355,0.10839999467134476,0.01400000015835513,-0.024000000747902123,0.048000001495804245
0.13063722848892212,-0.0491769015789032,9.940783500671387,-0.007499999832361937,-0.020499998703598976,0.11819999665021896,0.021000000237532696,-0.01700000066872456,0.009999999755783667
0.13063722848892212,-0.0491769015789032,9.940783500671387,0.011799999512732029,-0.010699999518692493,0.12799999117851257,0.021000000237532696,-0.01700000066872456,0.009999999755783667
0.12491986900568008,-0.05652231350541115,9.9314546585083,0.011699999682605267,-0.010599999688565731,0.11819999665021896,0.0030000000934877653,-0.038000000906257256,0.048000001495804245
0.10946290194988251,-0.05929001420736313,9.940668106079102,-0.017500000074505806,-0.0007999999797903001,0.11819999665021896,-0.024999999806340833,-0.006000000186975531,0.04200000047506539
0.11909716576337814,-0.059969961643218994,9.942813873291016,-0.007699999958276749,-0.020099999383091927,0.11819999665021896,0.019000000453128628,-0.013000000266153095,0.03100000082707969
0.11429918557405472,-0.04923436418175697,9.942708015441895,0.001999999862164259,-0.019700000062584877,0.12809999287128448,-0.05999999686717535,0.0019999999928448997,-0.0039999999856897995
0.1168178841471672,-0.0469263531267643,9.9366455078125,-0.007599999662488699,-0.009800000116229057,0.12809999287128448,0.014999999216793838,-0.023000000021936765,0.029999998433587676
0.12099337577819824,-0.04791276529431343,9.94259262084961,0.001999999862164259,-0.009499999694526196,0.12809999287128448,0.01400000015835513,-0.024999999806340833,0.03400000133744912
0.10635044425725937,-0.04186980053782463,9.93674087524414,-0.007599999662488699,0.00019999999494757503,0.11819999665021896,-0.0030000000934877653,0.013000000266153095,0.09200000008774706
0.12519758939743042,-0.05956773832440376,9.937718391418457,-0.007599999662488699,0.00019999999494757503,0.11819999665021896,0.004999999877891834,-0.02800000031671026,0.08499999667351618
0.1068771630525589,-0.04781699925661087,9.940007209777832,0.011799999512732029,-0.019099999219179153,0.11819999665021896,0.009999999755783667,-0.046999999102312236,0.07699999753589991
0.12046664953231812,-0.041314344853162766,9.940237045288086,-0.007699999958276749,0.0004999999655410647,0.11819999665021896,0.0539999991814898,-0.02600000053230619,0.046999999102312236
0.11698069423437119,-0.05268201604485512,9.930813789367676,0.0018999999156221747,0.0004999999655410647,0.11819999665021896,-0.009999999755783667,-0.03699999851276524,0.048000001495804245
0.11218271404504776,-0.04967489466071129,9.929462432861328,0.0018999999156221747,-0.009200000204145908,0.10839999467134476,-0.14900000311465958,-0.01400000015835513,0.07999999804626934
0.11886732280254364,-0.05357265844941139,9.940878868103027,-0.007799999788403511,-0.008999999612569809,0.10839999467134476,-0.03699999851276524,-0.029999998433587676,0.05300000012305109
0.09797073155641556,-0.025148695334792137,9.924023628234863,0.0017999999690800905,-0.00839999970048666,0.12809999287128448,0.024999999806340833,-0.009999999755783667,0.048000001495804245
0.1209646463394165,-0.0400502048432827,9.943215370178223,0.001999999862164259,0.0011999999405816197,0.12809999287128448,0.03100000082707969,0.0019999999928448997,-0.023000000021936765
0.11284351348876953,-0.06237374246120453,9.946308135986328,-0.007599999662488699,-0.018199998885393143,0.12809999287128448,-0.015999999942759198,-0.0429999995335041,0.014999999216793838
0.11394484341144562,-0.059366628527641296,9.93620491027832,-0.007599999662488699,-0.017899999395012856,0.11829999834299088,0.04500000098543482,-0.048000001495804245,0.05300000012305109
0.11708603799343109,-0.05678088590502739,9.945839881896973,0.001999999862164259,-0.008100000210106373,0.12809999287128448,0.029999998433587676,-0.029999998433587676,0.038000000906257256
0.11708603799343109,-0.05678088590502739,9.945839881896973,0.001999999862164259,-0.008100000210106373,0.12809999287128448,0.029999998433587676,-0.029999998433587676,0.038000000906257256
0.11159852892160416,-0.05707776919007301,9.94362735748291,-0.007699999958276749,-0.007899999618530273,0.12809999287128448,-0.03699999851276524,0.004999999877891834,0.04900000055424296
0.12466129660606384,-0.05338112264871597,9.944019317626953,0.011699999682605267,-0.007699999958276749,0.12809999287128448,0.03599999945432653,-0.046999999102312236,0.03899999996469596
0.10993216931819916,-0.05366842821240425,9.935792922973633,-0.007799999788403511,-0.007699999958276749,0.11829999834299088,-0.024000000747902123,-0.019999999511567335,0.02600000053230619
0.12526462972164154,-0.04567179083824158,9.937870979309082,0.011500000022351742,0.002099999925121665,0.11829999834299088,0.012000000373951061,-0.019999999511567335,0.09600000299160849
0.11520898342132568,-0.051810525357723236,9.935524940490723,0.0015999999595806003,-0.007499999832361937,0.11829999834299088,0.03100000082707969,-0.029999998433587676,0.03999999902313467
0.127486452460289,-0.0502399280667305,9.928112983703613,0.011299999430775642,-0.007400000002235174,0.10849999636411667,0.0039999999856897995,-0.006000000186975531,0.05499999823992851
0.1133989691734314,-0.057144805788993835,9.945475578308105,-0.008200000040233135,-0.0072999997064471245,0.12809999287128448,-0.041000001416626686,-0.0329999989439571,0.019999999511567335
0.11363838613033295,-0.041601650416851044,9.932394027709961,-0.008200000040233135,0.0026000000070780516,0.11829999834299088,-0.06700000028140622,-0.035000000395887826,-0.004999999877891834
0.11672212183475494,-0.04208049178123474,9.942142486572266,-0.008200000040233135,0.0026000000070780516,0.11829999834299088,0.0030000000934877653,-0.041000001416626686,0.05999999686717535
0.11099519580602646,-0.04567179083824158,9.946471214294434,-0.008299999870359898,0.002899999963119626,0.12809999287128448,0.035000000395887826,-0.007000000079177565,0.038000000906257256
0.11099519580602646,-0.04567179083824158,9.946471214294434,-0.008299999870359898,0.002899999963119626,0.12809999287128448,0.035000000395887826,-0.007000000079177565,0.038000000906257256
0.11242213100194931,-0.04858314245939255,9.932709693908691,-0.008299999870359898,-0.0064999996684491634,0.11829999834299088,0.008999999863581633,0.006000000186975531,0.0030000000934877653
0.11242213100194931,-0.04858314245939255,9.932709693908691,-0.008299999870359898,-0.0064999996684491634,0.11829999834299088,0.008999999863581633,0.006000000186975531,0.0030000000934877653
0.10970232635736465,-0.049512092024087906,9.943349838256836,-0.008100000210106373,-0.006399999838322401,0.12809999287128448,-0.0030000000934877653,0.006000000186975531,0.02600000053230619
0.11829271912574768,-0.05708734691143036,9.940715789794922,0.0015999999595806003,0.0032999999821186066,0.12809999287128448,-0.007999999971379599,-0.023000000021936765,0.08700000146050021
0.11741165071725845,-0.05819825455546379,9.9480619430542,0.001500000013038516,-0.006300000008195639,0.11829999834299088,-0.024000000747902123,-0.041000001416626686,0.04600000004387353
0.10825622826814651,-0.05862921103835106,9.937995910644531,0.001500000013038516,-0.01589999906718731,0.12809999287128448,0.03999999902313467,-0.024000000747902123,0.07300000130214508
0.1087733656167984,-0.05056554079055786,9.951566696166992,-0.008200000040233135,-0.015599999576807022,0.11829999834299088,0.0039999999856897995,0.0030000000934877653,0.04500000098543482
0.10689631849527359,-0.05156152695417404,9.931589126586914,-0.008100000210106373,-0.005699999630451202,0.11829999834299088,-0.0009999999964224499,-0.03400000133744912,0.08799999718388561
0.11246044188737869,-0.04684973880648613,9.933733940124512,-0.007999999448657036,0.003999999724328518,0.11829999834299088,0.029999998433587676,-0.048000001495804245,0.019000000453128628
0.1177564188838005,-0.050441041588783264,9.92825698852539,0.001500000013038516,-0.005699999630451202,0.10849999636411667,0,-0.041000001416626686,0.0749999994190225
0.11757445335388184,-0.04514506831765175,9.934941291809082,0.00139999995008111,0.003999999724328518,0.11829999834299088,0.014999999216793838,-0.024000000747902123,0.08100000043976135
0.12942096590995789,-0.050728343427181244,9.925756454467773,0.011099999770522118,-0.00559999980032444,0.10849999636411667,0.0009999999964224499,-0.06899999839828364,0.03100000082707969
0.11582189798355103,-0.047146622091531754,9.942612648010254,0.0010999999940395355,0.004100000020116568,0.12809999287128448,0.013000000266153095,-0.010999999647985701,0.0659999978879142
0.11631989479064941,-0.04571967571973801,9.929817199707031,0.0009999999310821295,0.004100000020116568,0.10849999636411667,0.017999999727163266,-0.021999999295971403,0.1180000022875799
0.11328405141830444,-0.03999274596571922,9.952869415283203,-0.008599999360740185,0.003999999724328518,0.1378999948501587,-0.07300000130214508,-0.021999999295971403,0.057000003026912535
0.12517844140529633,-0.05004839226603508,9.93549633026123,0.010699999518692493,-0.0052999998442828655,0.11829999834299088,0.008999999863581633,-0.009999999755783667,0.04900000055424296
0.11934617161750793,-0.06082230061292648,9.947074890136719,0.0008999999845400453,-0.014999999664723873,0.12809999287128448,-0.041000001416626686,-0.009999999755783667,0.0429999995335041
0.1221713274717331,-0.05477933585643768,9.953041076660156,0.0008999999845400453,-0.004999999888241291,0.1378999948501587,0.007999999971379599,-0.06099999926066736,0.08799999718388561
0.10585244745016098,-0.04028962552547455,9.952926635742188,-0.008899999782443047,0.004699999932199717,0.1378999948501587,0.02899999937514897,-0.03699999851276524,0.0429999995335041
0.12803232669830322,-0.05829402059316635,9.943243980407715,0.010499999858438969,-0.014699999243021011,0.12809999287128448,0.012000000373951061,-0.023000000021936765,0.05200000106461238
0.12600204348564148,-0.05472187325358391,9.937699317932129,0.010300000198185444,-0.004799999762326479,0.11829999834299088,0.023000000021936765,-0.03699999851276524,0.06200000165415938
0.12505394220352173,-0.05684792250394821,9.942190170288086,0.010099999606609344,-0.004799999762326479,0.12809999287128448,0.024999999806340833,-0.03599999945432653,0.031999999885518396
0.10341036319732666,-0.044493842869997025,9.939126014709473,-0.019099999219179153,0.004900000058114529,0.11829999834299088,0.02899999937514897,-0.049999999612681666,0.09999999922536333
0.10658028721809387,-0.05900270864367485,9.937095642089844,-0.00930000003427267,-0.014499999582767487,0.11829999834299088,0.02800000031671026,-0.024999999806340833,0.012000000373951061
0.12333011627197266,-0.043028589338064194,9.936234474182129,0.00039999998989515007,0.004900000058114529,0.11829999834299088,-0.0030000000934877653,-0.031999999885518396,0.09800000110848592
0.11712434142827988,-0.03797203674912453,9.924196243286133,-0.00930000003427267,-0.004699999932199717,0.11829999834299088,0.009999999755783667,-0.021999999295971403,0.04900000055424296
0.10127473622560501,-0.04528871923685074,9.926033973693848,-0.019099999219179153,0.004699999932199717,0.10849999636411667,0.049999999612681666,-0.029999998433587676,0.05200000106461238
0.10127473622560501,-0.04528871923685074,9.926033973693848,-0.019099999219179153,0.004699999932199717,0.10849999636411667,0.049999999612681666,-0.029999998433587676,0.05200000106461238
0.10722193121910095,-0.046246398240327835,9.92646598815918,-0.009200000204145908,0.0044999998062849045,0.10849999636411667,0.01400000015835513,-0.021000000237532696,0.024999999806340833
0.10975977778434753,-0.048640601336956024,9.940428733825684,-0.009099999442696571,-0.0050999997183680534,0.11829999834299088,0.02899999937514897,-0.019999999511567335,0.048000001495804245
0.110899418592453,-0.05941450968384743,9.91772174835205,-0.009099999442696571,-0.014800000004470348,0.09869999438524246,0.0030000000934877653,-0.03999999902313467,0.05900000114378995
0.120399609208107,-0.055957283824682236,9.931119918823242,0.0004999999655410647,-0.004900000058114529,0.10849999636411667,-0.013000000266153095,-0.024999999806340833,-0.03899999996469596
0.1144619956612587,-0.04985685646533966,9.9317045211792,-0.009099999442696571,-0.004799999762326479,0.11829999834299088,-0.0269999995907449,-0.023000000021936765,0.029999998433587676
0.10542148351669312,-0.04341166839003563,9.940150260925293,-0.009099999442696571,0.004999999888241291,0.11829999834299088,0.024000000747902123,-0.04200000047506539,0.07699999753589991
0.11360008269548416,-0.04383304715156555,9.944250106811523,-0.009099999442696571,0.004999999888241291,0.12809999287128448,0.03699999851276524,-0.0009999999964224499,0.15999999609253868
0.10596737265586853,-0.049722783267498016,9.935678482055664,-0.008999999612569809,-0.004699999932199717,0.11829999834299088,0.03899999996469596,-0.023000000021936765,0.049999999612681666
0.11798626184463501,-0.056053049862384796,9.939528465270996,0.000699999975040555,-0.004799999762326479,0.11829999834299088,0.015999999942759198,-0.049999999612681666,0.024000000747902123
0.11179006099700928,-0.05424303561449051,9.940840721130371,-0.008999999612569809,-0.004699999932199717,0.12809999287128448,-0.0659999978879142,-0.023000000021936765,0.12100000279794933
0.12420160323381424,-0.03397851064801216,9.946643829345703,0.0005999999702908099,0.01489999983459711,0.12809999287128448,-0.0009999999964224499,-0.024000000747902123,0.046999999102312236
0.12372276932001114,-0.053429003804922104,9.931417465209961,0.0005999999702908099,-0.0044999998062849045,0.11829999834299088,-0.0039999999856897995,0.009999999755783667,0.06099999926066736
0.12496775388717651,-0.05204036831855774,9.92885971069336,0.010300000198185444,-0.004399999976158142,0.10849999636411667,0.008999999863581633,-0.021000000237532696,0.019000000453128628
0.11116757243871689,-0.04004063084721565,9.931387901306152,-0.009200000204145908,0.005200000014156103,0.11829999834299088,-0.015999999942759198,-0.023000000021936765,0.01700000066872456
0.12187444418668747,-0.04535575956106186,9.946308135986328,0.0004999999655410647,0.0052999998442828655,0.12809999287128448,0.009999999755783667,-0.024000000747902123,-0.024000000747902123
0.11958558857440948,-0.056761734187603,9.927452087402344,0.0004999999655410647,-0.004399999976158142,0.10849999636411667,0.014999999216793838,-0.023000000021936765,0.041000001416626686
0.11045889556407928,-0.043679818511009216,9.94269847869873,-0.009200000204145908,0.0052999998442828655,0.12809999287128448,-0.024999999806340833,-0.019999999511567335,0.02600000053230619
0.11353304237127304,-0.054894257336854935,9.933552742004395,-0.009200000204145908,-0.004299999680370092,0.11829999834299088,0.010999999647985701,-0.023000000021936765,0.05200000106461238
0.1123167872428894,-0.05578489974141121,9.931034088134766,-0.009099999442696571,-0.00419999985024333,0.10849999636411667,0.0030000000934877653,-0.048000001495804245,-0.013000000266153095
0.11546756327152252,-0.05322789400815964,9.944786071777344,0.0004999999655410647,-0.004100000020116568,0.12809999287128448,0.0329999989439571,-0.09300000248123906,0.043999998591942806
0.11496956646442413,-0.060037001967430115,9.952303886413574,0.00029999998514540493,-0.013899999670684338,0.1378999948501587,0.06700000028140622,-0.008999999863581633,0.07699999753589991
0.11559205502271652,-0.06575435400009155,9.934538841247559,0.00029999998514540493,-0.013899999670684338,0.11829999834299088,0.021000000237532696,0.019000000453128628,0.007999999971379599
0.11998781561851501,-0.05983588844537735,9.935956001281738,0.00029999998514540493,-0.013700000010430813,0.11829999834299088,-0.014999999216793838,-0.024999999806340833,0.024000000747902123
0.11826398223638535,-0.04918648302555084,9.934700965881348,-0.009399999864399433,-0.0037999998312443495,0.12809999287128448,0.01700000066872456,-0.024000000747902123,0.021000000237532696
0.11962389200925827,-0.060132771730422974,9.949009895324707,0.00019999999494757503,-0.003700000001117587,0.11829999834299088,-0.017999999727163266,-0.0269999995907449,0.021999999295971403
0.11038228124380112,-0.0481138750910759,9.941740036010742,0.00019999999494757503,-0.013399999588727951,0.12809999287128448,0.006000000186975531,-0.015999999942759198,0.024000000747902123
0.11934617161750793,-0.04848737269639969,9.937507629394531,0.00019999999494757503,-0.003399999812245369,0.11829999834299088,0.024999999806340833,-0.04200000047506539,0
0.11003751307725906,-0.05322789400815964,9.94754409790039,-0.009599999524652958,-0.003399999812245369,0.12809999287128448,-0.0019999999928448997,-0.023000000021936765,0.021000000237532696
0.11880987137556076,-0.040960002690553665,9.938493728637695,0.00009999999747378752,0.006300000008195639,0.11829999834299088,0.021000000237532696,-0.0009999999964224499,0.04500000098543482
0.10729854553937912,-0.045461103320121765,9.940159797668457,-0.009499999694526196,0.006199999712407589,0.11829999834299088,0.007000000079177565,-0.06299999737754478,0.009999999755783667
0.12625104188919067,-0.04381389170885086,9.92819881439209,0.009800000116229057,0.006199999712407589,0.10849999636411667,-0.006000000186975531,-0.02899999937514897,0.06099999926066736
0.11621455103158951,-0.053429003804922104,9.930737495422363,0,-0.003399999812245369,0.10849999636411667,-0.023000000021936765,0.0019999999928448997,0.04900000055424296
0.12437399476766586,-0.04331589862704277,9.947284698486328,0,0.006300000008195639,0.12809999287128448,0.019000000453128628,-0.04200000047506539,0.031999999885518396
0.10435846447944641,-0.06406883895397186,9.949373245239258,-0.019500000402331352,-0.013100000098347664,0.12809999287128448,0.015999999942759198,-0.06399999977103679,0.05499999823992851
0.11672212183475494,-0.049138594418764114,9.925354957580566,0,-0.0031999999191612005,0.10849999636411667,0.03400000133744912,-0.01700000066872456,-0.019999999511567335
0.11673169583082199,-0.061674635857343674,9.91731071472168,-0.00009999999747378752,-0.012899999506771564,0.09869999438524246,-0.03999999902313467,-0.07600000181251451,0.043999998591942806
0.11146445572376251,-0.058543018996715546,9.928850173950195,-0.00989999994635582,-0.012600000016391277,0.10849999636411667,0.015999999942759198,-0.024000000747902123,0.08799999718388561
0.12824302911758423,-0.04881298542022705,9.940054893493652,0.009399999864399433,-0.00279999990016222,0.11829999834299088,0.09999999922536333,-0.023000000021936765,0.09899999683187131
0.1227555051445961,-0.04104619100689888,9.953280448913574,-0.00029999998514540493,0.006599999964237213,0.1378999948501587,-0.008999999863581633,0.0019999999928448997,0.03699999851276524
0.1126902848482132,-0.05341942980885506,9.923487663269043,-0.009999999776482582,-0.003000000026077032,0.10849999636411667,0.03400000133744912,-0.024999999806340833,0.031999999885518396
0.12230540066957474,-0.050555963069200516,9.933016777038574,-0.00019999999494757503,-0.003000000026077032,0.11829999834299088,-0.0019999999928448997,-0.02800000031671026,0.009999999755783667
0.110774926841259,-0.03703351318836212,9.939107894897461,-0.009999999776482582,0.01640000008046627,0.11829999834299088,0.014999999216793838,-0.04900000055424296,0.04600000004387353
0.10493307560682297,-0.06316861510276794,9.92841911315918,-0.019700000062584877,-0.012799999676644802,0.10849999636411667,0.014999999216793838,-0.07999999804626934,0.0329999989439571
0.10820834338665009,-0.0468018539249897,9.935429573059082,-0.009999999776482582,0.0066999997943639755,0.11829999834299088,0.0019999999928448997,-0.024000000747902123,0.05900000114378995
0.12399092316627502,-0.04658158868551254,9.938599586486816,-0.00019999999494757503,0.0066999997943639755,0.11829999834299088,-0.010999999647985701,-0.04200000047506539,0.021999999295971403
0.1265287697315216,-0.059845466166734695,9.93944263458252,0.00930000003427267,-0.012600000016391277,0.11829999834299088,0.04200000047506539,-0.049999999612681666,0.01700000066872456
0.11604216694831848,-0.05600516498088837,9.943914413452148,-0.0004999999655410647,-0.002899999963119626,0.12809999287128448,-0.05300000012305109,-0.04900000055424296,0.046999999102312236
0.12112744897603989,-0.06903920322656631,9.94559097290039,-0.010400000028312206,-0.0026000000070780516,0.11829999834299088,-0.0009999999964224499,-0.03400000133744912,0.12100000279794933
0.09615113586187363,-0.056196700781583786,9.927125930786133,-0.0005999999702908099,-0.02199999988079071,0.12809999287128448,0.010999999647985701,-0.041000001416626686,0.0019999999928448997
0.12207555025815964,-0.056053049862384796,9.941165924072266,-0.020099999383091927,-0.0023999998811632395,0.10849999636411667,0.01700000066872456,-0.007999999971379599,0.09399999820462447
0.11741165071725845,-0.056627657264471054,9.931991577148438,-0.0004999999655410647,-0.002300000051036477,0.11829999834299088,-0.03400000133744912,-0.024999999806340833,0.06500000216452881
0.10729854553937912,-0.04234864190220833,9.93895435333252,-0.0004999999655410647,-0.002300000051036477,0.11829999834299088,0.019000000453128628,-0.023000000021936765,0.03999999902313467
0.11483548581600189,-0.04267425090074539,9.93451976776123,-0.010300000198185444,0.007499999832361937,0.11829999834299088,0.015999999942759198,-0.024000000747902123,0.05999999686717535
0.11810117959976196,-0.0527203232049942,9.931684494018555,-0.0004999999655410647,-0.002199999988079071,0.11829999834299088,-0.029999998433587676,-0.03400000133744912,-0.06500000216452881
0.11966220289468765,-0.04093126952648163,9.918468475341797,-0.0005999999702908099,0.007499999832361937,0.09869999438524246,0.01400000015835513,-0.019999999511567335,0.046999999102312236
0.10928094387054443,-0.054606951773166656,9.92753791809082,-0.010300000198185444,-0.002199999988079071,0.10849999636411667,0.05300000012305109,-0.02600000053230619,0.05900000114378995
0.12407711148262024,-0.05227978900074959,9.926973342895508,-0.010300000198185444,-0.002199999988079071,0.10849999636411667,-0.023000000021936765,-0.041000001416626686,0.06700000028140622
0.117066890001297,-0.058207832276821136,9.934825897216797,-0.0005999999702908099,-0.011799999512732029,0.11829999834299088,0.021000000237532696,0.015999999942759198,0.0329999989439571
0.11466310918331146,-0.06146394833922386,9.927241325378418,-0.010300000198185444,-0.011699999682605267,0.10849999636411667,0.04200000047506539,-0.023000000021936765,0.09600000299160849
0.12566685676574707,-0.06075526028871536,9.936138153076172,0.009099999442696571,-0.011699999682605267,0.11829999834299088,-0.02600000053230619,-0.01400000015835513,0.06399999977103679
0.11759361624717712,-0.05887820944190025,9.9371337890625,-0.0005999999702908099,-0.011500000022351742,0.11829999834299088,0.023000000021936765,-0.019999999511567335,0.06099999926066736
0.11143571883440018,-0.04218583181500435,9.933658599853516,-0.0005999999702908099,-0.0016999999061226845,0.11829999834299088,-0.041000001416626686,-0.08899999957737763,-0.04600000004387353
0.11143571883440018,-0.04218583181500435,9.933658599853516,-0.010499999858438969,0.007899999618530273,0.11829999834299088,-0.041000001416626686,-0.08899999957737763,-0.04600000004387353
0.11700942367315292,-0.056292470544576645,9.923238754272461,-0.0008999999845400453,-0.0015999999595806003,0.10849999636411667,-0.05300000012305109,-0.0429999995335041,0.04200000047506539
0.12516885995864868,-0.04808514937758446,9.933561325073242,0.008599999360740185,-0.00139999995008111,0.11829999834299088,0.012000000373951061,-0.031999999885518396,0.02800000031671026
0.1182544082403183,-0.04458961263298988,9.944661140441895,-0.0010999999940395355,0.008299999870359898,0.12809999287128448,0.015999999942759198,-0.0329999989439571,-0.09500000059811649
0.11938447505235672,-0.04686889424920082,9.932182312011719,-0.0011999999405816197,0.008200000040233135,0.11829999834299088,0.019000000453128628,-0.006000000186975531,0.06700000028140622
0.110439732670784,-0.052002061158418655,9.92579460144043,-0.010900000110268593,-0.001500000013038516,0.10849999636411667,0.04500000098543482,-0.024999999806340833,0.06200000165415938
0.11215398460626602,-0.05705861747264862,9.934941291809082,-0.010799999348819256,-0.0015999999595806003,0.11829999834299088,0.0039999999856897995,0.0019999999928448997,0.0030000000934877653
0.11511322110891342,-0.051484912633895874,9.931110382080078,-0.0009999999310821295,-0.001500000013038516,0.10849999636411667,0.04900000055424296,-0.023000000021936765,0.01700000066872456
0.1265479326248169,-0.050843264907598495,9.93069839477539,0.008599999360740185,-0.0015999999595806003,0.10849999636411667,0.015999999942759198,-0.023000000021936765,0.05799999875029794
0.11673169583082199,-0.06166505813598633,9.935103416442871,-0.020600000396370888,-0.011299999430775642,0.10849999636411667,0.03400000133744912,-0.023000000021936765,0.023000000021936765
0.10292194038629532,-0.049224790185689926,9.939949989318848,-0.0009999999310821295,-0.01119999960064888,0.11829999834299088,0.008999999863581633,-0.024999999806340833,0.0539999991814898
0.11835017800331116,-0.04589205980300903,9.928485870361328,-0.020499998703598976,-0.00139999995008111,0.11829999834299088,0.008999999863581633,-0.024999999806340833,0.0539999991814898
0.11572613567113876,-0.04817133769392967,9.938043594360352,-0.0008999999845400453,-0.001500000013038516,0.11829999834299088,0.007999999971379599,-0.023000000021936765,0.031999999885518396
0.11625286191701889,-0.058045025914907455,9.956498146057129,-0.0008999999845400453,-0.001500000013038516,0.11829999834299088,0.031999999885518396,-0.03999999902313467,0.04500000098543482
0.12024638056755066,-0.060037001967430115,9.940179824829102,-0.0009999999310821295,-0.011099999770522118,0.11829999834299088,0,0.021999999295971403,0.07799999992939192
0.11769896000623703,-0.053237468004226685,9.944853782653809,-0.0009999999310821295,-0.0011999999405816197,0.12809999287128448,0.02600000053230619,-0.02800000031671026,0.043999998591942806
0.11880987137556076,-0.05182010307908058,9.942180633544922,-0.0009999999310821295,-0.0011999999405816197,0.12809999287128448,0.014999999216793838,-0.03699999851276524,0.048000001495804245
0.1112729161977768,-0.049205634742975235,9.928333282470703,-0.010799999348819256,-0.0011999999405816197,0.10849999636411667,0.012000000373951061,-0.0269999995907449,0.0429999995335041
0.11360008269548416,-0.04776911064982414,9.935515403747559,-0.010799999348819256,0.00839999970048666,0.11829999834299088,0,-0.01400000015835513,0.021000000237532696
0.1311926692724228,-0.05483679473400116,9.943015098571777,0.008700000122189522,-0.0011999999405816197,0.12809999287128448,-0.006000000186975531,-0.0659999978879142,0.0659999978879142
0.12145306169986725,-0.06387729942798615,9.932853698730469,-0.0011999999405816197,-0.010900000110268593,0.11829999834299088,0.06299999737754478,-0.024000000747902123,0.046999999102312236
0.1141076534986496,-0.06917327642440796,9.932632446289062,-0.010900000110268593,-0.020600000396370888,0.11829999834299088,0.015999999942759198,-0.023000000021936765,0.029999998433587676
0.11859917640686035,-0.05274904891848564,9.926743507385254,-0.0011999999405816197,-0.0009999999310821295,0.10849999636411667,-0.035000000395887826,0.03400000133744912,-0.0019999999928448997
0.11026735603809357,-0.06350380927324295,9.933907508850098,-0.010699999518692493,-0.010599999688565731,0.11829999834299088,0.0039999999856897995,-0.009999999755783667,0.03699999851276524
0.11370542645454407,-0.05257666856050491,9.945551872253418,-0.010699999518692493,-0.000699999975040555,0.12809999287128448,-0.019000000453128628,-0.006000000186975531,0.05600000063342052
0.10927136242389679,-0.052567094564437866,9.946701049804688,-0.010599999688565731,-0.0005999999702908099,0.12809999287128448,0.021999999295971403,-0.019000000453128628,0.049999999612681666
0.10927136242389679,-0.04784572497010231,9.936884880065918,-0.010499999858438969,0.008999999612569809,0.11829999834299088,0.048000001495804245,-0.041000001416626686,0.043999998591942806
0.11628158390522003,-0.054616525769233704,9.939231872558594,-0.010499999858438969,-0.0007999999797903001,0.11829999834299088,0.008999999863581633,-0.035000000395887826,0.05900000114378995
0.11784260720014572,-0.05538267642259598,9.941137313842773,-0.0007999999797903001,-0.000699999975040555,0.12809999287128448,-0.019999999511567335,-0.024000000747902123,0.035000000395887826
0.1205049604177475,-0.04333505406975746,9.95305061340332,-0.0007999999797903001,0.008999999612569809,0.1378999948501587,-0.009999999755783667,-0.021999999295971403,0.038000000906257256
0.12706507742404938,-0.052691590040922165,9.950695037841797,0.008799999952316284,-0.0005999999702908099,0.1378999948501587,0.007000000079177565,-0.03100000082707969,0.023000000021936765
0.11024820059537888,-0.04082592949271202,9.935937881469727,0.008799999952316284,-0.0005999999702908099,0.1378999948501587,0.015999999942759198,-0.024000000747902123,0.048000001495804245
0.11535263806581497,-0.04113238677382469,9.939796447753906,-0.010699999518692493,0.009099999442696571,0.11829999834299088,-0.04600000004387353,-0.014999999216793838,0.03599999945432653
0.1234450414776802,-0.054233454167842865,9.94172191619873,-0.0009999999310821295,-0.0005999999702908099,0.12809999287128448,0.021999999295971403,0.007999999971379599,0.024999999806340833
0.11351389437913895,-0.058973975479602814,9.945858001708984,-0.0009999999310821295,-0.0005999999702908099,0.12809999287128448,0.06299999737754478,-0.023000000021936765,-0.03100000082707969
0.11534306406974792,-0.056627657264471054,9.950216293334961,-0.0008999999845400453,-0.0005999999702908099,0.12809999287128448,0.05300000012305109,-0.01700000066872456,0.07799999992939192
0.11591766774654388,-0.05559336394071579,9.928658485412598,-0.0008999999845400453,-0.000699999975040555,0.10849999636411667,-0.021999999295971403,-0.05099999867112037,0.07300000130214508
0.11750741302967072,-0.06987238675355911,9.936367988586426,-0.0009999999310821295,-0.019999999552965164,0.11829999834299088,-0.02800000031671026,-0.03699999851276524,0.07399999702553048
0.1136288121342659,-0.04497268423438072,9.930373191833496,-0.010799999348819256,0.00930000003427267,0.10849999636411667,-0.012000000373951061,0.0269999995907449,0.06299999737754478
0.12134771794080734,-0.042358215898275375,9.937315940856934,-0.0008999999845400453,0.00930000003427267,0.11829999834299088,0.023000000021936765,-0.09099999769425504,0.023000000021936765
0.11405976861715317,-0.05684792250394821,9.936799049377441,-0.010799999348819256,-0.00039999998989515007,0.11829999834299088,-0.007000000079177565,-0.007000000079177565,0.05999999686717535
0.11215398460626602,-0.046457089483737946,9.939786911010742,-0.010699999518692493,0.00930000003427267,0.11829999834299088,0.012000000373951061,0.019000000453128628,0
0.13251428306102753,-0.0632835403084755,9.935553550720215,0.008799999952316284,-0.010099999606609344,0.11829999834299088,0.007000000079177565,-0.0749999994190225,0.02899999937514897
0.1217978298664093,-0.05363012105226517,9.930200576782227,-0.0010999999940395355,-0.00029999998514540493,0.10849999636411667,0.03899999996469596,-0.009999999755783667,0.08799999718388561
0.10786356776952744,-0.03213976323604584,9.953213691711426,-0.010799999348819256,0.01899999938905239,0.1378999948501587,0.0269999995907449,-0.05099999867112037,0.09800000110848592
0.10582371801137924,-0.0514274537563324,9.946059226989746,-0.010799999348819256,-0.0004999999655410647,0.12809999287128448,0.01400000015835513,-0.024000000747902123,0.024999999806340833
0.10340078175067902,-0.050795383751392365,9.945131301879883,-0.020499998703598976,-0.0004999999655410647,0.12809999287128448,-0.0030000000934877653,-0.024999999806340833,0.03100000082707969
0.11961431801319122,-0.051264647394418716,9.947591781616211,-0.0008999999845400453,-0.0004999999655410647,0.12809999287128448,-0.007000000079177565,-0.023000000021936765,0.04600000004387353
0.11463437974452972,-0.04543237388134003,9.938924789428711,-0.010699999518692493,0.009200000204145908,0.11829999834299088,-0.017999999727163266,-0.03100000082707969,0.043999998591942806
0.10720277577638626,-0.06260358542203903,9.94287109375,-0.010599999688565731,-0.010099999606609344,0.12809999287128448,-0.007000000079177565,-0.023000000021936765,-0.007000000079177565
0.11834059655666351,-0.04333505406975746,9.943349838256836,-0.0008999999845400453,0.009399999864399433,0.12809999287128448,0.031999999885518396,-0.0269999995907449,-0.07399999702553048
0.12578178942203522,-0.054961297661066055,9.94210433959961,0.008700000122189522,-0.00039999998989515007,0.12809999287128448,-0.023000000021936765,-0.04600000004387353,0.0859999990670082
0.11336066573858261,-0.05205952003598213,9.930353164672852,-0.010799999348819256,-0.00019999999494757503,0.10849999636411667,0.0039999999856897995,-0.048000001495804245,0.05300000012305109
0.11450988054275513,-0.04516422376036644,9.934969902038574,-0.0010999999940395355,-0.00989999994635582,0.10849999636411667,0.03100000082707969,-0.031999999885518396,0.012000000373951061
0.10868717730045319,-0.037617698311805725,9.939815521240234,-0.010900000110268593,0.009499999694526196,0.11829999834299088,0,-0.04900000055424296,0.01400000015835513
0.11234551668167114,-0.0595964714884758,9.937565803527832,-0.010799999348819256,-0.010099999606609344,0.11829999834299088,-0.004999999877891834,-0.0269999995907449,-0.0009999999964224499
0.1195472776889801,-0.053831230849027634,9.937143325805664,-0.010799999348819256,-0.010099999606609344,0.11829999834299088,0.057000003026912535,-0.024999999806340833,0.0539999991814898
0.11463437974452972,-0.04414907842874527,9.955109596252441,-0.0010999999940395355,-0.00019999999494757503,0.11829999834299088,-0.0539999991814898,-0.021999999295971403,0.0019999999928448997
0.10539276152849197,-0.040701426565647125,9.919465065002441,-0.010799999348819256,0.009399999864399433,0.09869999438524246,-0.01400000015835513,-0.04600000004387353,0.05600000063342052
0.1291528195142746,-0.048851292580366135,9.949976921081543,0.008599999360740185,-0.00019999999494757503,0.12809999287128448,0.009999999755783667,-0.014999999216793838,0.0859999990670082
0.11306378245353699,-0.04843948781490326,9.934309005737305,-0.010900000110268593,-0.00019999999494757503,0.11829999834299088,-0.009999999755783667,-0.023000000021936765,0.0969999987149939
0.12206597626209259,-0.05252878740429878,9.947649002075195,-0.0010999999940395355,-0.00009999999747378752,0.12809999287128448,0.006000000186975531,-0.05099999867112037,0.07099999651516105
0.10548852384090424,-0.06958507746458054,9.947525024414062,-0.010900000110268593,-0.019500000402331352,0.12809999287128448,-0.0019999999928448997,-0.024000000747902123,0.0009999999964224499
0.10932882875204086,-0.04774995893239975,9.939221382141113,-0.010900000110268593,-0.019500000402331352,0.12809999287128448,0.024999999806340833,-0.023000000021936765,0.02600000053230619
0.1270076185464859,-0.05632119998335838,9.941644668579102,0.008499999530613422,0,0.12809999287128448,0.05600000063342052,-0.024999999806340833,0.06200000165415938
0.1078348457813263,-0.04718492925167084,9.927021026611328,-0.010900000110268593,0.009599999524652958,0.10849999636411667,0.012000000373951061,-0.0269999995907449,0.043999998591942806
0.11988247185945511,-0.0548655241727829,9.9314546585083,-0.0011999999405816197,-0.00009999999747378752,0.11829999834299088,0.008999999863581633,-0.04900000055424296,0.05999999686717535
0.11462479829788208,-0.06248866394162178,9.940600395202637,-0.010999999940395355,-0.009800000116229057,0.11829999834299088,0.06800000267489824,-0.05099999867112037,-0.013000000266153095
0.1173158809542656,-0.04697423428297043,9.942813873291016,-0.0013000000035390258,0.009499999694526196,0.12809999287128448,0.015999999942759198,-0.006000000186975531,0.02600000053230619
0.12029427289962769,-0.038307227194309235,9.9398832321167,-0.0013000000035390258,0.009399999864399433,0.11829999834299088,-0.019999999511567335,-0.05200000106461238,0.06200000165415938
0.10134176909923553,-0.056838348507881165,9.938197135925293,-0.020800000056624413,-0.00019999999494757503,0.11829999834299088,-0.0030000000934877653,-0.009999999755783667,0.03999999902313467
0.11336066573858261,-0.058495137840509415,9.926504135131836,-0.010900000110268593,-0.00989999994635582,0.10849999636411667,0.04200000047506539,-0.05099999867112037,0.004999999877891834
0.11641566455364227,-0.05255751311779022,9.924473762512207,-0.0011999999405816197,-0.00009999999747378752,0.10849999636411667,0.02600000053230619,-0.041000001416626686,0.038000000906257256
0.11242213100194931,-0.052739474922418594,9.929864883422852,-0.010999999940395355,-0.00019999999494757503,0.10849999636411667,-0.01700000066872456,-0.023000000021936765,0.06500000216452881
0.11948981136083603,-0.051982905715703964,9.928658485412598,-0.0011999999405816197,-0.00009999999747378752,0.10849999636411667,0.023000000021936765,-0.0659999978879142,0.06200000165415938
0.11938447505235672,-0.04479072615504265,9.938934326171875,-0.00139999995008111,0.009499999694526196,0.11829999834299088,-0.0019999999928448997,-0.0030000000934877653,0.06200000165415938
0.10526825487613678,-0.05154237523674965,9.947850227355957,-0.020800000056624413,-0.00009999999747378752,0.12809999287128448,0.015999999942759198,-0.0539999991814898,0.02600000053230619
0.11727757006883621,-0.05512410029768944,9.947266578674316,-0.0013000000035390258,-0.00009999999747378752,0.12809999287128448,0.0039999999856897995,-0.03400000133744912,0.021999999295971403
0.12255439907312393,-0.05322789400815964,9.95028305053711,-0.0013000000035390258,-0.00009999999747378752,0.12809999287128448,0.043999998591942806,0.004999999877891834,0.05200000106461238
0.11442369222640991,-0.053189586848020554,9.933696746826172,-0.010999999940395355,-0.00009999999747378752,0.11829999834299088,0.0429999995335041,-0.04900000055424296,0.05799999875029794
0.11765106767416,-0.04706043004989624,9.956000328063965,-0.0013000000035390258,0.009399999864399433,0.1378999948501587,-0.013000000266153095,-0.019999999511567335,0.0859999990670082
0.10788273066282272,-0.047692496329545975,9.924042701721191,-0.011099999770522118,0.009399999864399433,0.10849999636411667,0.004999999877891834,-0.02800000031671026,0.007000000079177565
0.12022723257541656,-0.057192690670490265,9.953070640563965,-0.0013000000035390258,-0.00019999999494757503,0.11829999834299088,0.01700000066872456,-0.02899999937514897,0.024999999806340833
0.12717999517917633,-0.04742434620857239,9.937201499938965,0.008200000040233135,0.009499999694526196,0.11829999834299088,0.0019999999928448997,-0.006000000186975531,0.014999999216793838
0.1155250146985054,-0.04516422376036644,9.941520690917969,-0.001500000013038516,0.009399999864399433,0.12809999287128448,-0.007999999971379599,0.006000000186975531,0.038000000906257256
0.12113703042268753,-0.06283342838287354,9.935524940490723,-0.001500000013038516,-0.00989999994635582,0.11829999834299088,0.05300000012305109,-0.03599999945432653,0.057000003026912535
0.1252167522907257,-0.0539078451693058,9.933561325073242,0.008100000210106373,-0.00019999999494757503,0.11829999834299088,0.021000000237532696,-0.009999999755783667,0.06899999839828364
0.13274411857128143,-0.04557602480053902,9.932929992675781,0.007999999448657036,0.009399999864399433,0.11829999834299088,-0.014999999216793838,-0.024999999806340833,0.0539999991814898
0.12056242674589157,-0.05940493568778038,9.940753936767578,-0.0016999999061226845,-0.00989999994635582,0.12809999287128448,-0.038000000906257256,-0.03400000133744912,0.024000000747902123
0.12357911467552185,-0.061693791300058365,9.935640335083008,-0.0017999999690800905,-0.00969999935477972,0.11829999834299088,0.0009999999964224499,-0.007999999971379599,0.06099999926066736
0.11324574053287506,-0.049512092024087906,9.92628288269043,-0.011500000022351742,0.00009999999747378752,0.10849999636411667,0.013000000266153095,-0.024000000747902123,0.038000000906257256
0.11546756327152252,-0.04350743442773819,9.925354957580566,-0.0016999999061226845,0.009800000116229057,0.10849999636411667,0.06800000267489824,0.03999999902313467,0.06099999926066736
0.10642705857753754,-0.04543237388134003,9.937421798706055,-0.011299999430775642,0.009599999524652958,0.11829999834299088,0.02899999937514897,-0.0539999991814898,-0.02899999937514897
0.11222102493047714,-0.054233454167842865,9.934318542480469,-0.011299999430775642,-0.00019999999494757503,0.11829999834299088,-0.0039999999856897995,-0.029999998433587676,-0.035000000395887826
0.11195287108421326,-0.048065993934869766,9.931771278381348,-0.011299999430775642,-0.00009999999747378752,0.11829999834299088,-0.03100000082707969,0.007999999971379599,0.08700000146050021
0.11192414164543152,-0.06866570562124252,9.936415672302246,-0.011099999770522118,-0.01939999870955944,0.11829999834299088,-0.0030000000934877653,-0.006000000186975531,0.06299999737754478
0.10822749137878418,-0.048880018293857574,9.92788314819336,-0.010999999940395355,0.00019999999494757503,0.10849999636411667,0.024999999806340833,0.007999999971379599,0.048000001495804245
0.10636001825332642,-0.06274724006652832,9.943971633911133,-0.010900000110268593,-0.009499999694526196,0.12809999287128448,0.015999999942759198,0.013000000266153095,-0.021999999295971403
0.1126711368560791,-0.06208643689751625,9.951910972595215,-0.010699999518692493,-0.009399999864399433,0.1378999948501587,0.02800000031671026,-0.021000000237532696,0.08499999667351618
0.10963528603315353,-0.052806511521339417,9.94694995880127,-0.010699999518692493,0.00029999998514540493,0.12809999287128448,0.014999999216793838,-0.02800000031671026,0.07999999804626934
0.10936713218688965,-0.04018428176641464,9.951297760009766,-0.010699999518692493,0.009999999776482582,0.1378999948501587,-0.03599999945432653,0.014999999216793838,0.05499999823992851
0.11571655422449112,-0.05681919306516647,9.938858032226562,-0.0007999999797903001,0.00029999998514540493,0.11829999834299088,-0.007000000079177565,-0.007000000079177565,0.03599999945432653
0.12125195562839508,-0.05087199807167053,9.939786911010742,-0.0007999999797903001,0.00039999998989515007,0.11829999834299088,0.017999999727163266,-0.06800000267489824,0.03100000082707969
0.11689449846744537,-0.04307647794485092,9.927001953125,-0.0009999999310821295,0.010099999606609344,0.10849999636411667,-0.006000000186975531,-0.04200000047506539,0.05999999686717535
0.11110053211450577,-0.05406107380986214,9.9371337890625,-0.010799999348819256,0.00029999998514540493,0.11829999834299088,0.03999999902313467,0.007000000079177565,0.05099999867112037
0.10853394865989685,-0.05411853268742561,9.929712295532227,-0.010599999688565731,0.00029999998514540493,0.11829999834299088,0.02899999937514897,-0.02600000053230619,0.015999999942759198
0.11432792246341705,-0.04383304715156555,9.933341979980469,-0.010599999688565731,0.00019999999494757503,0.10849999636411667,-0.024999999806340833,-0.05499999823992851,0.009999999755783667
0.11981543153524399,-0.05398445948958397,9.933868408203125,-0.010499999858438969,0.00989999994635582,0.11829999834299088,-0.007000000079177565,-0.008999999863581633,0.07399999702553048
0.12370361387729645,-0.051743488758802414,9.92481803894043,-0.0007999999797903001,0.00019999999494757503,0.11829999834299088,-0.0009999999964224499,-0.013000000266153095,0.08299999855663877
0.12838667631149292,-0.05421430245041847,9.949057579040527,-0.0007999999797903001,0.00029999998514540493,0.10849999636411667,-0.015999999942759198,-0.006000000186975531,0.10199999734224074
0.1215679869055748,-0.05656062066555023,9.941961288452148,-0.0008999999845400453,0.00039999998989515007,0.12809999287128448,0.0329999989439571,-0.023000000021936765,0.007999999971379599
0.12274593114852905,-0.05187756195664406,9.946250915527344,-0.0008999999845400453,0.00039999998989515007,0.12809999287128448,0.008999999863581633,-0.007999999971379599,0.057000003026912535
0.1255710870027542,-0.04865017533302307,9.941950798034668,0.008700000122189522,0.00039999998989515007,0.12809999287128448,-0.010999999647985701,-0.024000000747902123,-0.009999999755783667
0.11000878363847733,-0.03997359052300453,9.928878784179688,-0.010799999348819256,0.010199999436736107,0.10849999636411667,0.015999999942759198,0.021000000237532696,0.0429999995335041
0.11546756327152252,-0.06026684492826462,9.934979438781738,-0.0008999999845400453,-0.00930000003427267,0.11829999834299088,0.01400000015835513,-0.013000000266153095,0.035000000395887826
0.10766246169805527,-0.05654146522283554,9.964485168457031,-0.010599999688565731,0.0004999999655410647,0.1476999968290329,0.01700000066872456,-0.029999998433587676,0.06200000165415938
0.12407711148262024,-0.05357265844941139,9.927260398864746,-0.0007999999797903001,0.0004999999655410647,0.10849999636411667,0.0659999978879142,-0.0269999995907449,0.18199999538851008
0.12149137258529663,-0.05187756195664406,9.931053161621094,-0.0008999999845400453,0.00029999998514540493,0.10849999636411667,0.0030000000934877653,-0.023000000021936765,0.0329999989439571
0.10590033233165741,-0.05658935010433197,9.933120727539062,-0.010599999688565731,0.00039999998989515007,0.11829999834299088,-0.03100000082707969,-0.015999999942759198,0.07099999651516105
0.10908941179513931,-0.05636908486485481,9.94570541381836,-0.010599999688565731,0.0004999999655410647,0.12809999287128448,0.009999999755783667,-0.0039999999856897995,0.019000000453128628
0.11344685405492783,-0.059471968561410904,9.941549301147461,-0.010499999858438969,-0.009099999442696571,0.12809999287128448,0.0269999995907449,-0.024999999806340833,-0.03100000082707969
0.11520898342132568,-0.06045838072896004,9.933188438415527,-0.000699999975040555,-0.009099999442696571,0.11829999834299088,0.02600000053230619,-0.038000000906257256,0.06500000216452881
0.1127956286072731,-0.05536352097988129,9.927978515625,-0.010499999858438969,0.0005999999702908099,0.10849999636411667,-0.007999999971379599,-0.024000000747902123,0.07900000232288394
0.11328405141830444,-0.054424989968538284,9.9403715133667,-0.010499999858438969,0.000699999975040555,0.11829999834299088,-0.03400000133744912,-0.038000000906257256,0.0539999991814898
0.11050677299499512,-0.050488926470279694,9.940783500671387,-0.010499999858438969,0.0007999999797903001,0.12809999287128448,-0.03400000133744912,-0.01700000066872456,0.05499999823992851
0.11086111515760422,-0.05176264047622681,9.941731452941895,-0.010400000028312206,0.0008999999845400453,0.12809999287128448,0.014999999216793838,0.0019999999928448997,0.021999999295971403
0.11803413927555084,-0.04275086522102356,9.92574691772461,-0.0005999999702908099,0.010599999688565731,0.10849999636411667,-0.031999999885518396,0.0039999999856897995,-0.1079999983629796
0.11511322110891342,-0.0558040551841259,9.937870979309082,-0.0004999999655410647,0.0009999999310821295,0.11829999834299088,-0.0009999999964224499,0,-0.024000000747902123
0.11793837696313858,-0.05575616657733917,9.94411563873291,-0.0004999999655410647,0.0009999999310821295,0.12809999287128448,-0.01400000015835513,-0.007000000079177565,0.029999998433587676
0.12089760601520538,-0.05951027572154999,9.9329195022583,-0.0004999999655410647,-0.008499999530613422,0.10849999636411667,-0.009999999755783667,-0.0039999999856897995,0.013000000266153095
0.12181698530912399,-0.05121676251292229,9.939949989318848,-0.0004999999655410647,-0.00839999970048666,0.11829999834299088,0.0019999999928448997,-0.0009999999964224499,0.01700000066872456
0.10911813378334045,-0.04453215003013611,9.92690658569336,-0.0005999999702908099,0.00139999995008111,0.11829999834299088,0.013000000266153095,0.0039999999856897995,-0.05900000114378995
0.12010274082422256,-0.050795383751392365,9.936464309692383,-0.0004999999655410647,0.0013000000035390258,0.11829999834299088,0.021000000237532696,0.03100000082707969,-0.013000000266153095
0.11603259295225143,-0.047692496329545975,9.93655014038086,-0.0004999999655410647,0.0013000000035390258,0.11829999834299088,0.013000000266153095,-0.009999999755783667,-0.023000000021936765
0.11618582159280777,-0.0539078451693058,9.946394920349121,-0.00029999998514540493,0.0011999999405816197,0.12809999287128448,-0.0009999999964224499,0.009999999755783667,-0.01700000066872456
0.11761276423931122,-0.05357265844941139,9.931991577148438,-0.00029999998514540493,0.0011999999405816197,0.11829999834299088,0.008999999863581633,0.048000001495804245,0.0039999999856897995
0.11782345920801163,-0.052145712077617645,9.931714057922363,-0.00009999999747378752,0.0011999999405816197,0.11829999834299088,-0.04200000047506539,0.004999999877891834,0.03699999851276524
0.12533167004585266,-0.04793192073702812,9.943196296691895,0.009499999694526196,0.00139999995008111,0.12809999287128448,0,0.01400000015835513,-0.015999999942759198
0.11816821992397308,-0.05125506967306137,9.921590805053711,-0.00009999999747378752,0.00139999995008111,0.10849999636411667,0.004999999877891834,-0.029999998433587676,0.021999999295971403
0.12199893593788147,-0.05883990228176117,9.93686580657959,-0.00019999999494757503,-0.008200000040233135,0.11829999834299088,0.057000003026912535,-0.004999999877891834,0.024999999806340833
0.1185896024107933,-0.05043146386742592,9.93228816986084,-0.00019999999494757503,0.00139999995008111,0.11829999834299088,0.03100000082707969,0.0009999999964224499,-0.0030000000934877653
0.12244904786348343,-0.04428315535187721,9.937382698059082,-0.00009999999747378752,0.010999999940395355,0.11829999834299088,0.004999999877891834,-0.021999999295971403,0.013000000266153095
0.11688492447137833,-0.04729985073208809,9.93513298034668,-0.00019999999494757503,0.010999999940395355,0.11829999834299088,-0.006000000186975531,0.007000000079177565,0.0009999999964224499
0.11940362304449081,-0.049224790185689926,9.946155548095703,-0.00009999999747378752,0.0011999999405816197,0.12809999287128448,0.02800000031671026,0.038000000906257256,-0.008999999863581633
0.11764149367809296,-0.04964616894721985,9.95077133178711,0,0.0011999999405816197,0.1378999948501587,-0.006000000186975531,0.0019999999928448997,0.03699999851276524
0.11543882638216019,-0.050469771027565,9.951020240783691,0.009599999524652958,-0.01809999905526638,0.12809999287128448,0.013000000266153095,0.013000000266153095,-0.013000000266153095
0.11570698022842407,-0.05612008646130562,9.932498931884766,-0.00009999999747378752,0.00139999995008111,0.1378999948501587,0.023000000021936765,0.014999999216793838,-0.0019999999928448997
0.11015243828296661,-0.05040273442864418,9.933619499206543,0,0.00139999995008111,0.11829999834299088,0.023000000021936765,0.014999999216793838,-0.0019999999928448997
0.11878113448619843,-0.05549759790301323,9.951777458190918,-0.00969999935477972,0.00139999995008111,0.11829999834299088,0.007999999971379599,0.014999999216793838,0.004999999877891834
0.1216924786567688,-0.05514325201511383,9.943876266479492,0,0.00139999995008111,0.1378999948501587,0.012000000373951061,-0.0019999999928448997,0.02899999937514897
0.11847467720508575,-0.05999869480729103,9.941817283630371,0,0.00139999995008111,0.12809999287128448,-0.04200000047506539,0.0019999999928448997,0.03400000133744912
0.11614751070737839,-0.0517817959189415,9.949143409729004,0,0.0015999999595806003,0.12809999287128448,-0.013000000266153095,0.004999999877891834,0
0.12469002604484558,-0.05032612010836601,9.9389066696167,0,0.0015999999595806003,0.12809999287128448,0.021999999295971403,0.0009999999964224499,-0.0030000000934877653
0.12494859844446182,-0.05583278089761734,9.93828296661377,0.009800000116229057,0.0016999999061226845,0.11829999834299088,-0.009999999755783667,-0.009999999755783667,-0.0329999989439571
0.1061493307352066,-0.05705861747264862,9.93415641784668,0.00969999935477972,0.0016999999061226845,0.11829999834299088,-0.03999999902313467,0.0019999999928448997,-0.029999998433587676
0.12163502722978592,-0.04112280532717705,9.935860633850098,-0.00969999935477972,0.0016999999061226845,0.11829999834299088,0.004999999877891834,-0.01400000015835513,0.021999999295971403
0.11833102256059647,-0.0521361343562603,9.931503295898438,0,0.0017999999690800905,0.11829999834299088,-0.006000000186975531,-0.031999999885518396,-0.019999999511567335
0.12944012880325317,-0.046811431646347046,9.936607360839844,0,0.0017999999690800905,0.11829999834299088,-0.013000000266153095,0.0009999999964224499,0.015999999942759198
0.10057562589645386,-0.04997177794575691,9.941549301147461,-0.019500000402331352,0.0017999999690800905,0.12809999287128448,0.07699999753589991,-0.009999999755783667,-0.07300000130214508
0.11774684488773346,-0.05443457141518593,9.931379318237305,0,0.0015999999595806003,0.11829999834299088,0.0009999999964224499,0.024999999806340833,-0.021999999295971403
0.11503660678863525,-0.05352477356791496,9.932096481323242,0.00009999999747378752,0.0016999999061226845,0.11829999834299088,-0.041000001416626686,-0.019000000453128628,-0.015999999942759198
0.1229853481054306,-0.062076862901449203,9.938292503356934,0.00009999999747378752,-0.007799999788403511,0.11829999834299088,0.03999999902313467,-0.007999999971379599,-0.009999999755783667
0.11576443910598755,-0.05836106091737747,9.949373245239258,0.00009999999747378752,-0.007799999788403511,0.12809999287128448,0.004999999877891834,0.008999999863581633,-0.05799999875029794
0.11728715151548386,-0.04441722854971886,9.952897071838379,0.00009999999747378752,0.011599999852478504,0.1378999948501587,0.01700000066872456,0.008999999863581633,-0.012000000373951061
0.1149408370256424,-0.06463386863470078,9.95228385925293,0.00009999999747378752,-0.007799999788403511,0.1378999948501587,-0.046999999102312236,0,0
0.11301589757204056,-0.042645517736673355,9.932720184326172,-0.009499999694526196,0.011699999682605267,0.11829999834299088,0.043999998591942806,0.019000000453128628,-0.014999999216793838
0.11105264723300934,-0.055459290742874146,9.943243980407715,-0.00930000003427267,0.0017999999690800905,0.12809999287128448,0.04200000047506539,-0.01400000015835513,0.0030000000934877653
0.12160629034042358,-0.04992389306426048,9.944527626037598,0.00039999998989515007,0.0017999999690800905,0.12809999287128448,0.024000000747902123,0.0019999999928448997,0.08400000095013078
0.12117534130811691,-0.05681919306516647,9.948856353759766,0.00039999998989515007,0.0016999999061226845,0.12809999287128448,0.041000001416626686,0.015999999942759198,-0.0030000000934877653
0.12055283784866333,-0.04559517651796341,9.932527542114258,0.00039999998989515007,0.011399999260902405,0.11829999834299088,-0.04900000055424296,0.021999999295971403,-0.031999999885518396
0.11948981136083603,-0.043210551142692566,9.94287109375,0.0004999999655410647,0.011399999260902405,0.12809999287128448,0.014999999216793838,0.0019999999928448997,-0.0539999991814898
0.12201809883117676,-0.058045025914907455,9.932039260864258,0.0004999999655410647,-0.007999999448657036,0.11829999834299088,0.0039999999856897995,-0.0019999999928448997,-0.03699999851276524
0.11691366136074066,-0.0565127357840538,9.944690704345703,0.0005999999702908099,0.0017999999690800905,0.12809999287128448,0.02600000053230619,0.007999999971379599,0.012000000373951061
0.11451945453882217,-0.05382165685296059,9.937536239624023,-0.008899999782443047,0.0017999999690800905,0.11829999834299088,0.008999999863581633,0,-0.019999999511567335
0.11745953559875488,-0.057527877390384674,9.934884071350098,0.0007999999797903001,-0.007899999618530273,0.11829999834299088,-0.015999999942759198,0.029999998433587676,-0.009999999755783667
0.1189631000161171,-0.05289270356297493,9.943551063537598,0.0008999999845400453,0.0018999999156221747,0.12809999287128448,-0.019000000453128628,-0.023000000021936765,0.007000000079177565
0.11693280935287476,-0.046763546764850616,9.944374084472656,0.0007999999797903001,0.011699999682605267,0.12809999287128448,0.06700000028140622,0.0269999995907449,0.029999998433587676
0.11957601457834244,-0.060180652886629105,9.92492389678955,0.0008999999845400453,-0.007799999788403511,0.10849999636411667,0.007000000079177565,-0.024000000747902123,0.0019999999928448997
0.11546756327152252,-0.05229894071817398,9.940496444702148,0.0007999999797903001,0.0018999999156221747,0.11829999834299088,-0.010999999647985701,0.0019999999928448997,0.021000000237532696
0.10743261873722076,-0.05272989720106125,9.949315071105957,-0.008799999952316284,0.001999999862164259,0.12809999287128448,0.03100000082707969,-0.029999998433587676,0.0039999999856897995
0.11728715151548386,-0.053639695048332214,9.94762134552002,0.0008999999845400453,0.0018999999156221747,0.12809999287128448,0,0.019000000453128628,-0.07300000130214508
0.11580274999141693,-0.04585375264286995,9.941530227661133,0.0008999999845400453,0.011699999682605267,0.12809999287128448,-0.04200000047506539,0.0019999999928448997,-0.021000000237532696
0.12459425628185272,-0.06343676894903183,9.928160667419434,0.010599999688565731,-0.007599999662488699,0.10849999636411667,0,0.0019999999928448997,-0.03400000133744912
0.11973881721496582,-0.043756432831287384,9.961909294128418,0.0008999999845400453,0.011799999512732029,0.1476999968290329,-0.0969999987149939,-0.009999999755783667,-0.017999999727163266
0.12762053310871124,-0.05922297388315201,9.950178146362305,0.010599999688565731,-0.0072999997064471245,0.12809999287128448,-0.0019999999928448997,0.0019999999928448997,0.024000000747902123
0.10732726752758026,-0.057451263070106506,9.940629959106445,-0.008799999952316284,0.0023999998811632395,0.11829999834299088,-0.0030000000934877653,-0.012000000373951061,0.031999999885518396
0.11975797265768051,-0.05292143300175667,9.935524940490723,0.0007999999797903001,0.0024999999441206455,0.11829999834299088,-0.008999999863581633,0,0.03100000082707969
0.1132744699716568,-0.06120537221431732,9.948492050170898,-0.008799999952316284,-0.0071000000461936,0.12809999287128448,0.008999999863581633,0.06399999977103679,0.017999999727163266
0.1215679869055748,-0.048947058618068695,9.938982009887695,0.0010999999940395355,0.0026000000070780516,0.11829999834299088,-0.01400000015835513,-0.023000000021936765,0.0019999999928448997
0.11713392287492752,-0.05560293793678284,9.932144165039062,0.0010999999940395355,0.0026000000070780516,0.11829999834299088,0.019000000453128628,0.019000000453128628,0.009999999755783667
0.1220276728272438,-0.055909398943185806,9.932106018066406,0.0010999999940395355,0.0026000000070780516,0.11829999834299088,-0.017999999727163266,0.0030000000934877653,0
0.12885594367980957,-0.04993347078561783,9.941864967346191,0.010900000110268593,0.002699999837204814,0.12809999287128448,-0.015999999942759198,0.0019999999928448997,-0.038000000906257256
0.12866440415382385,-0.049224790185689926,9.937459945678711,0.010799999348819256,0.002699999837204814,0.11829999834299088,0,-0.0039999999856897995,-0.035000000395887826
0.11640609055757523,-0.043402086943387985,9.935198783874512,0.0009999999310821295,0.01249999925494194,0.11829999834299088,-0.023000000021936765,-0.024000000747902123,-0.06899999839828364
0.12767799198627472,-0.043804313987493515,9.94699764251709,0.010699999518692493,0.01249999925494194,0.12809999287128448,0.05300000012305109,-0.0019999999928448997,0.019000000453128628
0.12378980219364166,-0.06086060777306557,9.940428733825684,0.0008999999845400453,-0.0071000000461936,0.11829999834299088,0,-0.024000000747902123,0.009999999755783667
0.1209646463394165,-0.0597209669649601,9.935994148254395,0.0007999999797903001,-0.00699999975040555,0.11829999834299088,-0.009999999755783667,0.024999999806340833,0.010999999647985701
0.11404062062501907,-0.04807556793093681,9.942630767822266,-0.008799999952316284,0.00279999990016222,0.12809999287128448,0.05799999875029794,-0.0269999995907449,-0.0039999999856897995
