Accelerometer_Gx,Accelerometer_Gy,Accelerometer_Gz,Accelerometer_X,Accelerometer_Y,Accelerometer_Z,Gyroscope_Z,Gyroscope_X,Gyroscope_Y
0.11826398223638535,-0.027073632925748825,9.929203987121582,0.010799999348819256,0.021299999207258224,0.10839999467134476,0.014999999216793838,0.0030000000934877653,0.04500000098543482
0.12453679740428925,-0.03694731742143631,9.936635971069336,0.020600000396370888,0.011399999260902405,0.11819999665021896,-0.4300000020051476,0.26600000967885407,0.08100000043976135
0.12446018308401108,-0.05364927276968956,9.933696746826172,0.011399999260902405,-0.0071000000461936,0.11819999665021896,-0.4999999961268166,-0.12100000279794933,0.029999998433587676
0.10714531689882278,-0.05382165685296059,9.92966365814209,0.0013000000035390258,-0.005699999630451202,0.10839999467134476,-0.1610000051561373,0.3049999896332302,0.15200000362502902
0.12341630458831787,-0.05684792250394821,9.925249099731445,0.011899999342858791,-0.0052999998442828655,0.10839999467134476,1.820999936268273,0.08799999718388561,-0.14099999730693671
0.12110830098390579,-0.047500960528850555,9.925278663635254,0.012199999764561653,-0.0004999999655410647,0.10830000042915344,-0.3369999861836953,0.01400000015835513,-0.024000000747902123
0.12019850313663483,-0.03580768033862114,9.933868408203125,0.012199999764561653,0.0004999999655410647,0.11809999495744705,2.2050000015955598,-0.014999999216793838,-0.0269999995907449
0.10981724411249161,-0.044800300151109695,9.94559097290039,0.012399999424815178,0.007400000002235174,0.11809999495744705,0.02800000031671026,0.038000000906257256,0.04200000047506539
0.10981724411249161,-0.044800300151109695,9.94559097290039,0.0024999999441206455,-0.008299999870359898,0.12789998948574066,0.02800000031671026,0.038000000906257256,0.04200000047506539
0.11989204585552216,-0.050651729106903076,9.933619499206543,0.012399999424815178,-0.018199998885393143,0.11809999495744705,2.246999902019026,-0.19999999845072666,-0.0269999995907449
0.10287406295537949,-0.04583459720015526,9.942180633544922,-0.007599999662488699,-0.014499999582767487,0.12789998948574066,-1.670000035088335,-0.26600000967885407,0.03400000133744912
0.12739068269729614,-0.05571785941720009,9.939604759216309,0.020899999886751175,-0.019199999049305916,0.11809999495744705,0.6849999920256962,0.1849999958988795,0.029999998433587676
0.12101252377033234,-0.04608359560370445,9.941530227661133,0.0016999999061226845,-0.010999999940395355,0.11809999495744705,-0.28799999563461226,-0.3280000113330135,-0.024000000747902123
0.12101252377033234,-0.04608359560370445,9.941530227661133,0.012600000016391277,-0.011799999512732029,0.12789998948574066,-0.28799999563461226,-0.3280000113330135,-0.024000000747902123
0.1043967753648758,-0.04431188479065895,9.93620491027832,0.011599999852478504,-0.010900000110268593,0.10830000042915344,-0.8399999828208814,0.26500000061525547,-0.007999999971379599
0.11853213608264923,-0.04362235590815544,9.935171127319336,-0.007499999832361937,-0.007199999876320362,0.11809999495744705,-0.7789999902303206,0.07799999992939192,0.12499999903170415
0.11689449846744537,-0.05244259163737297,9.923917770385742,0.013100000098347664,-0.01249999925494194,0.10830000042915344,-0.6900000106632628,0.046999999102312236,0.10600000024610218
0.11258494108915329,-0.04218583181500435,9.944527626037598,0.003399999812245369,-0.0007999999797903001,0.12789998948574066,0.5570000058238358,-0.34200000482126197,-0.0009999999964224499
0.1336156129837036,-0.04636131972074509,9.93043041229248,0.003399999812245369,-0.0007999999797903001,0.12789998948574066,0.7380000188291737,-0.23300000406479038,0.0659999978879142
0.13762830197811127,-0.054702721536159515,9.932029724121094,0.031199999153614044,-0.014099999330937862,0.11809999495744705,1.6239999916887686,-0.6919999754296072,-0.019999999511567335
0.1217978298664093,-0.052614975720644,9.931042671203613,0.009499999694526196,-0.019099999219179153,0.10830000042915344,-0.0039999999856897995,0.433000002515517,-0.05600000063342052
0.12375149875879288,-0.03879564255475998,9.92003059387207,0.010499999858438969,-0.00930000003427267,0.09849999845027924,1.2449999449990485,-0.5530000229302942,-0.21299999621558977
0.11773726344108582,-0.053610965609550476,9.923248291015625,0.008999999612569809,-0.022499999031424522,0.10830000042915344,-1.847999887500745,0.1849999958988795,-0.019000000453128628
0.1308191865682602,-0.058523863554000854,9.935745239257812,0.019299998879432678,-0.027300000190734863,0.11809999495744705,0.07900000232288394,0.07000000079177565,-0.048000001495804245
0.11622412502765656,-0.03924575448036194,9.936186790466309,0.00969999935477972,-0.007899999618530273,0.11809999495744705,0.37299999230812847,-0.5919999762042438,-0.19699999794035722
0.12313857674598694,-0.05483679473400116,9.93785285949707,0.007999999448657036,-0.018799999728798866,0.11819999665021896,1.718000043254246,-0.08499999667351618,0.0030000000934877653
0.12302365899085999,-0.0559285506606102,9.939087867736816,0.007799999788403511,-0.02319999970495701,0.11819999665021896,-0.5679999721212884,-0.0269999995907449,0.07099999651516105
0.1096065491437912,-0.032379183918237686,9.947151184082031,-0.001999999862164259,-0.002099999925121665,0.12799999117851257,0.09999999922536333,-0.1629999966029081,0.057000003026912535
0.11209652572870255,-0.05882074683904648,9.944345474243164,-0.0023999998811632395,-0.031700000166893005,0.12799999117851257,1.1339999794762325,-0.43400001157911566,-0.02899999937514897
0.12366530299186707,-0.06206728518009186,9.93456745147705,0.006000000052154064,-0.03519999980926514,0.11819999665021896,0.40400000647542134,-0.321000001248676,-0.18400000017549412
0.11772768199443817,-0.047022122889757156,9.928994178771973,0.0050999997183680534,-0.026499999687075615,0.12799999117851257,1.912000040684234,-0.4240000009844087,-0.0039999999856897995
0.11772768199443817,-0.047022122889757156,9.928994178771973,0.003700000001117587,-0.019999999552965164,0.10839999467134476,1.912000040684234,-0.4240000009844087,-0.0039999999856897995
0.12458468228578568,-0.04269340634346008,9.942947387695312,0.0023999998811632395,-0.02589999884366989,0.12799999117851257,1.4960000054869083,-0.25299999857377775,-0.0859999990670082
0.12839625775814056,-0.04773080348968506,9.930986404418945,0.011099999770522118,-0.030799999833106995,0.12799999117851257,1.4960000054869083,-0.25299999857377775,-0.0859999990670082
0.12839625775814056,-0.04773080348968506,9.930986404418945,0.010400000028312206,-0.0348999984562397,0.10839999467134476,0.3240000017590454,0.24200000559589865,-0.03400000133744912
0.11971966922283173,-0.04276043921709061,9.93184757232666,0.0024999999441206455,-0.03099999949336052,0.11819999665021896,0.7149999971293904,0.46900000863995017,-0.008999999863581633
0.12211386114358902,-0.060343459248542786,9.928055763244629,0.0024999999441206455,-0.03099999949336052,0.11819999665021896,0.7149999971293904,0.46900000863995017,-0.008999999863581633
0.12370361387729645,-0.04386177286505699,9.925689697265625,0.0038999998942017555,-0.052799999713897705,0.10839999467134476,0.6140000155208549,-0.41300000800652964,-0.17400000292100043
0.1219223216176033,-0.05514325201511383,9.934309005737305,0.0032999999821186066,-0.036399997770786285,0.10839999467134476,-1.1920000249172766,0.38699998579637696,0.012000000373951061
0.1180245652794838,-0.06132987141609192,9.9371337890625,0.0023999998811632395,-0.04769999906420708,0.11819999665021896,2.0100000217823997,-0.26699999206202624,-0.03599999945432653
0.11297759413719177,-0.046629469841718674,9.937335014343262,-0.006799999624490738,-0.03909999877214432,0.11819999665021896,0.3860000034132048,-0.08100000043976135,-0.15900000036915327
0.13159491121768951,-0.033260248601436615,9.933706283569336,0.01249999925494194,-0.030299998819828033,0.11819999665021896,-1.362000018264309,0.4579999889816446,0.024000000747902123
0.11762233823537827,-0.04675397276878357,9.930257797241211,0.01249999925494194,-0.030299998819828033,0.11819999665021896,0.008999999863581633,0.09300000248123906,-0.06500000216452881
0.11361923068761826,-0.03879564255475998,9.940408706665039,-0.005399999674409628,-0.03590000048279762,0.11819999665021896,-0.49099999459570837,0.21299999621558977,-0.05099999867112037
0.1279653012752533,-0.04980897158384323,9.943953514099121,0.014800000004470348,-0.044199999421834946,0.12799999117851257,-0.046999999102312236,0.2929999875917525,0.04500000098543482
0.12242031842470169,-0.05143703147768974,9.943272590637207,0.005799999926239252,-0.044099997729063034,0.12799999117851257,1.355000034860398,-0.5320000193577081,-0.17799999915475526
0.1135043129324913,-0.0430094376206398,9.930669784545898,-0.005200000014156103,-0.03749999776482582,0.10839999467134476,0.23099998593759313,0.4720000091503196,0.041000001416626686
0.1254657506942749,-0.05350561812520027,9.94762134552002,0.015699999406933784,-0.0478999987244606,0.12799999117851257,-1.0030000461248556,0.28799999563461226,-0.03599999945432653
0.11250832676887512,-0.04125688597559929,9.933321952819824,-0.003000000026077032,-0.035099998116493225,0.11819999665021896,0.9020000111554672,-0.29399999665535115,-0.12400000330831876
0.11464395374059677,-0.04653370380401611,9.948875427246094,-0.0037999998312443495,-0.03749999776482582,0.12799999117851257,0.7200000157669572,-0.09300000248123906,-0.010999999647985701
0.11902055144309998,-0.04789361357688904,9.92744255065918,0.005699999630451202,-0.049300000071525574,0.10839999467134476,0.24899998899980968,0.031999999885518396,-0.024999999806340833
0.12506352365016937,-0.05337154492735863,9.929328918457031,0.015599999576807022,-0.04989999905228615,0.10839999467134476,-1.1370000333474548,0.40599999792219216,0
0.12109872698783875,-0.050086699426174164,9.922375679016113,0.006899999920278788,-0.03700000047683716,0.11819999665021896,-1.6100000248809465,0.6050000139897467,0.11099999887334903
0.1197771206498146,-0.04867890849709511,9.944048881530762,0.008200000040233135,-0.042500000447034836,0.10830000042915344,-2.1109999500300827,0.39699999639108385,0.0859999990670082
0.11911632865667343,-0.057144805788993835,9.912492752075195,0.009800000116229057,-0.038100000470876694,0.12789998948574066,-1.1740000218550601,0.3750000104353257,-0.0429999995335041
0.1114836037158966,-0.06550535559654236,9.927231788635254,0.010799999348819256,-0.032999999821186066,0.09849999845027924,-0.6900000106632628,0.2469999975530389,0.07699999753589991
0.1114836037158966,-0.06550535559654236,9.927231788635254,0.002099999925121665,-0.03920000046491623,0.10830000042915344,-0.6900000106632628,0.2469999975530389,0.07699999753589991
0.12312900274991989,-0.05274904891848564,9.92687702178955,0.012899999506771564,-0.030700000002980232,0.10830000042915344,0.7209999981501293,-0.18600000496247812,-0.06500000216452881
0.12554235756397247,-0.05456864461302757,9.943540573120117,0.012899999506771564,-0.030700000002980232,0.10830000042915344,0.7209999981501293,-0.18600000496247812,-0.06500000216452881
0.11538136750459671,-0.044685378670692444,9.9346923828125,0.022199999541044235,-0.032899998128414154,0.12789998948574066,-1.181000005258971,0.20599999947146552,-0.05499999823992851
0.11538136750459671,-0.044685378670692444,9.9346923828125,0.012000000104308128,-0.02419999986886978,0.11809999495744705,-1.181000005258971,0.20599999947146552,-0.05499999823992851
0.11826398223638535,-0.04841075837612152,9.93447208404541,0.012600000016391277,-0.030399998649954796,0.10830000042915344,1.1339999794762325,-0.3989999878378547,-0.1830000044521087
0.12182655930519104,-0.04792233929038048,9.924483299255371,0.01269999984651804,-0.030399998649954796,0.11809999495744705,-0.8789999894556839,0.2699999925723957,0.08499999667351618
0.1155250146985054,-0.04379473999142647,9.921964645385742,0.011599999852478504,-0.03350000083446503,0.10830000042915344,-0.8789999894556839,0.2699999925723957,0.08499999667351618
0.11926955729722977,-0.05642654374241829,9.927327156066895,0.010900000110268593,-0.03500000014901161,0.10830000042915344,-0.5630000068445746,0.29800000622931916,-0.05300000012305109
0.11771810799837112,-0.04019385948777199,9.93620491027832,0.011699999682605267,-0.023599999025464058,0.11809999495744705,1.2590000185285763,-0.12199999852133472,-0.04600000004387353
0.11286266893148422,-0.04069185256958008,9.933016777038574,0.001500000013038516,-0.027499999850988388,0.11809999495744705,-2.4100000186838533,0.5059999971475555,0.0969999987149939
0.10835199058055878,-0.058801595121622086,9.933658599853516,0.002699999837204814,-0.04129999876022339,0.11809999495744705,-0.18400000017549412,-0.4879999940853389,-0.14099999730693671
0.10527783632278442,-0.04102703928947449,9.94394302368164,-0.008499999530613422,-0.021199999377131462,0.12789998948574066,0.0039999999856897995,-0.09300000248123906,-0.08700000146050021
0.1163390502333641,-0.04675397276878357,9.928160667419434,0.010799999348819256,-0.0210999995470047,0.10830000042915344,-1.6979999687039793,0.6099999792664604,0.10600000024610218
0.13054145872592926,-0.04895663633942604,9.92410945892334,0.02199999988079071,-0.026899999007582664,0.10830000042915344,0.25100000712700693,-0.06399999977103679,-0.049999999612681666
0.11406934261322021,-0.0290273018181324,9.933523178100586,0.002199999988079071,-0.007999999448657036,0.11809999495744705,1.8449999403512285,-0.4240000009844087,-0.14900000311465958
0.11833102256059647,-0.05095818638801575,9.940333366394043,0.010999999940395355,-0.032099999487400055,0.11809999495744705,0.2570000081477458,0.05099999867112037,-0.0030000000934877653
0.1241728737950325,-0.04704127460718155,9.931924819946289,0.01119999960064888,-0.023099999874830246,0.11809999495744705,-1.1349999618594047,0.5620000244614024,0.09999999922536333
0.12222878634929657,-0.05111141875386238,9.933609962463379,0.012600000016391277,-0.03019999898970127,0.11809999495744705,-2.545999970672797,0.5769999736523967,0.07199999890865307
0.11715307831764221,-0.04363192990422249,9.951910972595215,0.013899999670684338,-0.014299999922513962,0.13769999146461487,-1.722999955170107,0.41499999945330046,0.05600000063342052
0.12236285954713821,-0.049109868705272675,9.932278633117676,0.015099999494850636,-0.01939999870955944,0.11809999495744705,-1.1250000313059771,0.16899999762364695,0.21800000151294321
0.11001835763454437,-0.0409887321293354,9.930305480957031,0.005799999926239252,-0.006099999882280827,0.10830000042915344,-1.5870000031811633,0.7009999769607155,0.13100000005244303
0.1201506182551384,-0.048592716455459595,9.937115669250488,0.017500000074505806,-0.011500000022351742,0.11809999495744705,-2.0450000455236608,0.5600000063342052,0.10299999973573276
0.12685438990592957,-0.04376600682735443,9.930094718933105,0.028699999675154686,0.0030999998562037945,0.10830000042915344,-1.0419999993988052,0.3980000054546825,0.12499999903170415
0.11401188373565674,-0.046409204602241516,9.932853698730469,0.010300000198185444,0.006300000008195639,0.11809999495744705,0.23499999551156117,-0.24099999653230003,-0.004999999877891834
0.11905886232852936,-0.055373094975948334,9.935505867004395,0.00969999935477972,0.005699999630451202,0.11809999495744705,0.5939999943314411,-0.3259999932058162,-0.03599999945432653
0.12669157981872559,-0.040557775646448135,9.92366886138916,0.017799999564886093,-0.008899999782443047,0.11809999495744705,-1.8900000013676228,0.6390000019869825,0.11299999699022645
0.11748826503753662,-0.04959828034043312,9.934433937072754,0.02669999934732914,-0.000699999975040555,0.10830000042915344,-0.585999975183505,0.06700000028140622,-0.09600000299160849
0.12270762771368027,-0.05040273442864418,9.927671432495117,0.018400000408291817,-0.006000000052154064,0.11809999495744705,-0.05099999867112037,-0.4590000247256697,-0.031999999885518396
0.11361923068761826,-0.047242388129234314,9.934126853942871,0.01860000006854534,-0.00419999985024333,0.10830000042915344,-1.7399999758491513,0.6099999792664604,0.08200000283325337
0.10680054873228073,-0.04817133769392967,9.934375762939453,0.007699999958276749,0.005699999630451202,0.11809999495744705,1.9980000197409222,-0.4210000004740393,-0.03899999996469596
0.11448115110397339,-0.04157291725277901,9.927921295166016,0.009399999864399433,0.0005999999702908099,0.11809999495744705,-1.6040000238602077,0.5219999820825748,0.06800000267489824
0.12574347853660583,-0.05731718987226486,9.921504974365234,0.028999999165534973,-0.0015999999595806003,0.09849999845027924,1.450999944470514,-0.6709999718570212,-0.04500000098543482
0.1174212247133255,-0.04903325065970421,9.936186790466309,0.01730000041425228,-0.005499999970197678,0.11809999495744705,-0.32700000226941484,0.5320000193577081,0.14900000311465958
0.10566090792417526,-0.03500322625041008,9.9473237991333,0.009200000204145908,0.014999999664723873,0.12789998948574066,-1.2299999958080543,0.07199999890865307,-0.0019999999928448997
0.12469002604484558,-0.03976290300488472,9.941329002380371,0.028999999165534973,0.008100000210106373,0.12789998948574066,2.461999956382453,-0.5519999871862691,-0.0539999991814898
0.1247762143611908,-0.05708734691143036,9.927279472351074,0.027300000190734863,-0.009099999442696571,0.10830000042915344,-0.920999996600856,0.4840000111917973,0.07300000130214508
0.10931925475597382,-0.05452075973153114,9.940677642822266,0.008999999612569809,-0.006599999964237213,0.11809999495744705,-1.7459999768698902,0.46199997187518627,-0.021999999295971403
0.12627018988132477,-0.037167586386203766,9.94762134552002,0.02969999983906746,0.017099998891353607,0.12789998948574066,1.7659999446984511,-0.4840000111917973,-0.16500000138989213
0.12626062333583832,-0.06203855574131012,9.94176959991455,0.028199998661875725,-0.01769999973475933,0.12789998948574066,0.9980000274872889,-0.5729999907588551,-0.1070000026395942
0.12568601965904236,-0.04604528844356537,9.940668106079102,0.026899999007582664,-0.00039999998989515007,0.11809999495744705,1.3870000047304367,-0.2839999860606442,-0.0009999999964224499
0.12151052057743073,-0.05121676251292229,9.92917537689209,0.016200000420212746,-0.014499999582767487,0.10830000042915344,0.3819999938392367,0.20099999417411205,-0.08200000283325337
0.11718180775642395,-0.052950166165828705,9.941414833068848,0.016699999570846558,-0.015599999576807022,0.12789998948574066,0.9779999529370222,-0.19000000119623298,0.031999999885518396
0.1043776199221611,-0.04762545973062515,9.930929183959961,-0.0031999999191612005,-0.008100000210106373,0.10830000042915344,-0.1849999958988795,0.13799999679656727,0.04600000004387353
0.11844594776630402,-0.04161122441291809,9.917301177978516,0.016699999570846558,-0.007599999662488699,0.09849999845027924,0.38400001196643396,-0.14799999405106096,-0.06500000216452881
0.11470141261816025,-0.05173391103744507,9.924703598022461,0.006399999838322401,-0.01860000006854534,0.10830000042915344,1.5939999865850745,-0.35199998873554245,-0.0539999991814898
0.12281297147274017,-0.05186798423528671,9.931445121765137,0.015199999324977398,-0.02290000021457672,0.11809999495744705,1.3730000379226146,-0.4500000231945614,-0.10600000024610218
0.11614751070737839,-0.05519114062190056,9.927366256713867,0.0139999995008111,-0.02669999934732914,0.10830000042915344,1.0179999953158498,-0.31699999167470794,-0.06099999926066736
0.11406934261322021,-0.055200714617967606,9.933332443237305,0.0032999999821186066,-0.029500000178813934,0.11809999495744705,-1.320000011119137,0.26600000967885407,0.07099999651516105
0.11772768199443817,-0.04360320419073105,9.927135467529297,0.013799999840557575,-0.016499999910593033,0.10830000042915344,-1.4499999620873418,0.4510000055777336,0.03400000133744912
0.11910673975944519,-0.04405330866575241,9.941434860229492,0.015199999324977398,-0.012000000104308128,0.12789998948574066,0.4889999764685111,-0.3600000078834786,-0.019999999511567335
0.11340854316949844,-0.042664673179388046,9.930325508117676,0.004399999976158142,-0.013399999588727951,0.10830000042915344,0.25599999908414717,0.035000000395887826,-0.02600000053230619
0.12326307594776154,-0.049636587500572205,9.942497253417969,0.015399999916553497,-0.022199999541044235,0.12789998948574066,0.7600000047849319,-0.24299998797907083,-0.05600000063342052
0.11013327538967133,-0.04024174064397812,9.94056224822998,0.015399999916553497,-0.022199999541044235,0.12789998948574066,-1.3779999498384754,0.3499999972887716,-0.09099999769425504
0.11581232398748398,-0.03848918527364731,9.93606185913086,0.015799999237060547,-0.010499999858438969,0.11809999495744705,0.4840000111917973,-0.32299999269544677,-0.128999995265459
0.11998781561851501,-0.045863326638936996,9.93054485321045,0.014800000004470348,-0.012000000104308128,0.10830000042915344,-0.59999999535218,0.17400000292100043,0.0859999990670082
0.11172302812337875,-0.04945463314652443,9.951623916625977,0.005399999674409628,-0.02029999904334545,0.13769999146461487,-0.3559999983095105,-0.17700000343136985,-0.07600000181251451
0.12744814157485962,-0.04842033237218857,9.934682846069336,0.024399999529123306,-0.019199999049305916,0.11809999495744705,0.5600000063342052,-0.18700000068586353,-0.09399999820462447
0.11442369222640991,-0.04447469115257263,9.946959495544434,0.004299999680370092,-0.010900000110268593,0.12789998948574066,-0.9630000037460279,0.2469999975530389,0.07699999753589991
0.12489113956689835,-0.04377558454871178,9.939901351928711,0.02449999935925007,-0.008599999360740185,0.11809999495744705,0.5119999981682943,-0.18099999966512467,-0.07600000181251451
0.13529154658317566,-0.05538267642259598,9.931589126586914,0.033799998462200165,-0.019999999552965164,0.11809999495744705,0.19999999845072666,-0.05300000012305109,-0.04500000098543482
0.12376108020544052,-0.04686889424920082,9.94090747833252,0.0139999995008111,-0.010699999518692493,0.12789998948574066,0.2469999975530389,-0.043999998591942806,-0.04900000055424296
0.11746910959482193,-0.04004063084721565,9.93620491027832,0.013899999670684338,-0.011299999430775642,0.11809999495744705,-0.8239999978858621,0.29800000622931916,0.024999999806340833
0.11880028247833252,-0.04863102361559868,9.937986373901367,0.014800000004470348,-0.01860000006854534,0.11809999495744705,-0.369999991797759,-0.0039999999856897995,0.012000000373951061
0.1144619956612587,-0.05723099783062935,9.921600341796875,0.004999999888241291,-0.01769999973475933,0.10830000042915344,-0.8279999807794036,0.24800000661663751,0.024999999806340833
0.12912409007549286,-0.04783615097403526,9.92766284942627,0.02539999969303608,-0.0052999998442828655,0.10830000042915344,-0.9229999613672003,0.16899999762364695,0.04900000055424296
0.11551544070243835,-0.045250412076711655,9.92541217803955,0.01599999889731407,-0.00279999990016222,0.10830000042915344,-0.5990000129690077,0.2379999960219306,0.07900000232288394
0.12568601965904236,-0.043756432831287384,9.931684494018555,0.026399999856948853,-0.0013000000035390258,0.11809999495744705,0.13400000056281244,0.19799999366374263,-0.09200000008774706
0.12116575986146927,-0.0438426211476326,9.92525863647461,0.01719999872148037,-0.0016999999061226845,0.10830000042915344,0.11299999699022645,-0.03899999996469596,0.015999999942759198
0.11241255700588226,-0.048994943499565125,9.937440872192383,0.0072999997064471245,-0.011799999512732029,0.11809999495744705,0.23399998644796255,-0.09099999769425504,-0.024999999806340833
0.11226890236139297,-0.05136999115347862,9.925785064697266,0.00699999975040555,-0.01249999925494194,0.10830000042915344,0.45300002370493087,-0.19200000598321698,-0.03999999902313467
0.11971966922283173,-0.038019925355911255,9.9396333694458,0.016300000250339508,0.005799999926239252,0.11809999495744705,0.07999999804626934,0.07199999890865307,0.01400000015835513
0.12141475826501846,-0.04625597596168518,9.926886558532715,0.01640000008046627,-0.004100000020116568,0.10830000042915344,-0.6799999733881295,0.09500000059811649,0.03699999851276524
0.11880028247833252,-0.04140053689479828,9.940831184387207,0.016699999570846558,-0.002199999988079071,0.12789998948574066,-0.3789999933288673,0.04900000055424296,-0.004999999877891834
0.12124237418174744,-0.05779602751135826,9.959458351135254,0.016899999231100082,-0.02070000022649765,0.13769999146461487,-0.04900000055424296,0.0269999995907449,0.008999999863581633
0.11854171752929688,-0.05353435128927231,9.917990684509277,0.016899999231100082,-0.010699999518692493,0.09849999845027924,-0.5669999897381163,0.1729999938574018,-0.0030000000934877653
0.10329543799161911,-0.037311241030693054,9.92459774017334,0.01730000041425228,-0.00930000003427267,0.12789998948574066,0.09200000008774706,-0.10400000212922476,-0.07300000130214508
0.1214626356959343,-0.051666874438524246,9.929328918457031,-0.0024999999441206455,0.00989999994635582,0.10830000042915344,-0.3510000063523703,-0.20599999947146552,0.017999999727163266
0.1167125478386879,-0.04779784381389618,9.940141677856445,0.017099998891353607,-0.00839999970048666,0.10830000042915344,0.39599998732748526,-0.2399999874687014,-0.09999999922536333
0.11614751070737839,-0.029305029660463333,9.90758991241455,0.016499999910593033,0.002300000051036477,0.11809999495744705,-0.0539999991814898,0.0749999994190225,-0.008999999863581633
0.11472056806087494,-0.049205634742975235,9.91331672668457,0.006099999882280827,-0.008499999530613422,0.09849999845027924,-0.008999999863581633,-0.09800000110848592,-0.09600000299160849
0.12237243354320526,-0.05553590506315231,9.928620338439941,0.015599999576807022,-0.008499999530613422,0.10830000042915344,0.283000003677472,-0.10900000075647161,-0.07399999702553048
0.11245086789131165,-0.05111141875386238,9.930841445922852,0.005499999970197678,-0.009200000204145908,0.10830000042915344,-0.006000000186975531,0.10100000161885533,-0.041000001416626686
0.11813949048519135,-0.04602613300085068,9.94428825378418,0.015599999576807022,0.0005999999702908099,0.12789998948574066,0.28600000418784144,-0.19200000598321698,-0.029999998433587676
0.11511322110891342,-0.045259989798069,9.942449569702148,0.014999999664723873,-0.00019999999494757503,0.12789998948574066,0.3510000063523703,0.0969999987149939,-0.05200000106461238
0.11513236910104752,-0.045250412076711655,9.936846733093262,0.015199999324977398,-0.0009999999310821295,0.11809999495744705,-0.3139999911643385,-0.05300000012305109,-0.008999999863581633
0.11374373733997345,-0.039466023445129395,9.933016777038574,0.0052999998442828655,-0.00019999999494757503,0.11809999495744705,0.46000000710884187,0.18900000547284757,-0.11299999699022645
0.10898406058549881,-0.041362229734659195,9.958758354187012,0.0058999997563660145,-0.0015999999595806003,0.13769999146461487,-0.007999999971379599,-0.0539999991814898,0.02800000031671026
0.10827537626028061,-0.041007883846759796,9.949163436889648,0.005699999630451202,-0.0015999999595806003,0.12789998948574066,0.34299998720443414,0.14900000311465958,0.007999999971379599
0.12476664036512375,-0.05111141875386238,9.94776439666748,0.02579999901354313,-0.012399999424815178,0.12789998948574066,0.934999963408678,-0.3019999891228608,-0.019999999511567335
0.1284249722957611,-0.05398445948958397,9.953865051269531,0.02499999850988388,-0.014999999664723873,0.13769999146461487,0.12799999954207358,-0.1070000026395942,-0.07000000079177565
0.11476845294237137,-0.04487691447138786,9.937891006469727,0.0050999997183680534,-0.005499999970197678,0.11809999495744705,-0.09899999683187131,-0.038000000906257256,-0.04500000098543482
0.12101252377033234,-0.06277596950531006,9.94922924041748,0.014800000004470348,-0.024699999019503593,0.12789998948574066,-0.6799999733881295,0.2800000031671026,-0.0039999999856897995
0.11284351348876953,-0.04158249497413635,9.937727928161621,0.00559999980032444,-0.003499999875202775,0.11809999495744705,0.12700000381868817,0.06800000267489824,-0.15900000036915327
0.12114660441875458,-0.05042188614606857,9.9342041015625,0.015599999576807022,-0.013599999248981476,0.11809999495744705,-0.0009999999964224499,0.128999995265459,-0.014999999216793838
0.0940825492143631,-0.0481138750910759,9.937670707702637,-0.013499999418854713,-0.014599999412894249,0.11809999495744705,0.6540000045388297,-0.24399999704266945,-0.07699999753589991
0.0940825492143631,-0.0481138750910759,9.937670707702637,-0.013499999418854713,-0.014599999412894249,0.11809999495744705,0.6540000045388297,-0.24399999704266945,-0.07699999753589991
0.11909716576337814,-0.04527914524078369,9.92357349395752,0.015199999324977398,-0.006599999964237213,0.10830000042915344,0.7170000152565876,-0.3240000017590454,0.014999999216793838
0.12174037098884583,-0.05533478781580925,9.928610801696777,0.0142000000923872,-0.01860000006854534,0.10830000042915344,0.5240000002097721,-0.13400000056281244,-0.010999999647985701
0.11335108429193497,-0.05510494485497475,9.93087100982666,0.003999999724328518,-0.019999999552965164,0.10830000042915344,-0.12100000279794933,0.07300000130214508,-0.08700000146050021
0.12289915978908539,-0.031239543110132217,9.941414833068848,0.0139999995008111,-0.00989999994635582,0.09849999845027924,-0.5879999933107023,0.22400000253368207,0.0269999995907449
0.10872548818588257,-0.04948335886001587,9.943090438842773,0.014800000004470348,-0.00029999998514540493,0.12789998948574066,-0.7230000162773266,0.23300000406479038,0.012000000373951061
0.09913910925388336,-0.05006754770874977,9.9473237991333,0.005499999970197678,-0.01850000023841858,0.12789998948574066,0.6849999920256962,-0.1800000039417393,0.0009999999964224499
0.1143374964594841,-0.05225105583667755,9.943578720092773,-0.003499999875202775,-0.016300000250339508,0.12789998948574066,-0.3459999877148036,0.26200000010488605,-0.004999999877891834
0.11715307831764221,-0.057499147951602936,9.93571662902832,0.016200000420212746,-0.02709999866783619,0.11809999495744705,0.2920000052085803,-0.2729999930827651,0.0269999995907449
0.1213189885020256,-0.051101841032505035,9.944939613342285,0.016200000420212746,-0.02709999866783619,0.11809999495744705,0.5279999831033136,0.07999999804626934,0.03699999851276524
0.12264058738946915,-0.04421611875295639,9.930315017700195,0.01549999974668026,-0.00969999935477972,0.10830000042915344,-0.5260000183369693,0.13300000483942703,0.021000000237532696
0.11673169583082199,-0.04614105448126793,9.929328918457031,0.01589999906718731,-0.008200000040233135,0.10830000042915344,0.754000003764193,0.12799999954207358,-0.0749999994190225
0.11354261636734009,-0.0468018539249897,9.941319465637207,0.006399999838322401,-0.010499999858438969,0.12789998948574066,-0.5949999767146132,0.38100001145606455,0.03699999851276524
0.12153925001621246,-0.04962701350450516,9.941864967346191,0.01719999872148037,-0.01889999955892563,0.12789998948574066,0.26000000865811523,0.024000000747902123,0.004999999877891834
0.11889605969190598,-0.04639005288481712,9.930363655090332,0.01719999872148037,-0.009800000116229057,0.10830000042915344,-0.2639999915516568,-0.22299999347008345,-0.013000000266153095
0.12496775388717651,-0.05359181389212608,9.921256065368652,0.02630000002682209,-0.018799999728798866,0.09849999845027924,-0.2909999961449817,0.3280000113330135,0.024999999806340833
0.11502702534198761,-0.0495312474668026,9.920231819152832,0.007499999832361937,-0.01809999905526638,0.10830000042915344,-0.07000000079177565,-0.3759999928184979,0.019999999511567335
0.11609963327646255,-0.05066130682826042,9.919282913208008,0.01549999974668026,-0.02070000022649765,0.09849999845027924,-0.5399999851447914,0.11699999322398127,0.02600000053230619
0.12326307594776154,-0.03697605058550835,9.919503211975098,0.01549999974668026,-0.02070000022649765,0.09849999845027924,-0.5039999790203582,0.05999999686717535,0.015999999942759198
0.12326307594776154,-0.03697605058550835,9.919503211975098,0.015799999237060547,0.00029999998514540493,0.09849999845027924,-0.5039999790203582,0.05999999686717535,0.015999999942759198
0.11549629271030426,-0.04358404874801636,9.934635162353516,0.01599999889731407,-0.007799999788403511,0.11809999495744705,0.03400000133744912,0.2839999860606442,-0.013000000266153095
0.11637736111879349,-0.051887139678001404,9.935601234436035,0.006799999624490738,0.0017999999690800905,0.10830000042915344,0.5399999851447914,0.29500000571894974,0.0019999999928448997
0.12222878634929657,-0.04485776275396347,9.948195457458496,0.01730000041425228,-0.018199998885393143,0.11809999495744705,0.566000007354944,-0.24800000661663751,-0.0030000000934877653
0.12222878634929657,-0.04485776275396347,9.948195457458496,0.01809999905526638,-0.00989999994635582,0.12789998948574066,0.566000007354944,-0.24800000661663751,-0.0030000000934877653
0.12343546003103256,-0.04897578805685043,9.930765151977539,0.017500000074505806,-0.020999999716877937,0.11809999495744705,-0.15200000362502902,0.17400000292100043,0.013000000266153095
0.11645397543907166,-0.055957283824682236,9.950761795043945,0.017999999225139618,-0.020600000396370888,0.10830000042915344,-0.5290000188473387,0.48599997595814165,0.07799999992939192
0.12367488443851471,-0.05066130682826042,9.93544864654541,0.018799999728798866,-0.02149999886751175,0.13769999146461487,-0.8080000129508427,-0.04900000055424296,0.038000000906257256
0.12367488443851471,-0.05066130682826042,9.93544864654541,0.02019999921321869,-0.019999999552965164,0.11800000071525574,-0.8080000129508427,-0.04900000055424296,0.038000000906257256
0.11930786073207855,-0.061530981212854385,9.927480697631836,0.019999999552965164,-0.01809999905526638,0.11800000071525574,1.054000001440283,-0.31800000073830653,0.014999999216793838
0.12552320957183838,-0.04469495639204979,9.932048797607422,0.01899999938905239,-0.02979999966919422,0.10819999873638153,-0.5440000213991859,0.3439999962680328,0.021000000237532696
0.10676224529743195,-0.03393062576651573,9.928141593933105,0.028099998831748962,-0.01269999984651804,0.11809999495744705,-0.8329999994169703,-0.36199999933024934,0.05499999823992851
0.12354081124067307,-0.03812526538968086,9.928869247436523,0.009499999694526196,-0.0011999999405816197,0.10819999873638153,0.6930000111736323,-0.18799999640924894,-0.04200000047506539
0.11049719899892807,-0.04839160665869713,9.926531791687012,0.008100000210106373,-0.02019999921321869,0.10830000042915344,-0.7159999795125626,-0.23099998593759313,-0.009999999755783667
0.11571655422449112,-0.04293282330036163,9.93135929107666,0.01719999872148037,-0.008200000040233135,0.11809999495744705,0.2740000021463637,-0.5819999922899634,0.017999999727163266
0.1130446270108223,-0.037004780024290085,9.942400932312012,0.0058999997563660145,0.0008999999845400453,0.12789998948574066,-0.815999978737926,0.3399999866940647,-0.05099999867112037
0.10322839766740799,-0.048851292580366135,9.926255226135254,-0.00279999990016222,-0.01640000008046627,0.10830000042915344,0.038000000906257256,-0.4459999869401669,0.03100000082707969
0.11119630187749863,-0.042712558060884476,9.933226585388184,0.005499999970197678,-0.0066999997943639755,0.11809999495744705,-0.9000000463891228,0.6669999889634796,0.041000001416626686
0.1260690838098526,-0.04582501947879791,9.93993091583252,0.02669999934732914,-0.0044999998062849045,0.11809999495744705,0.796000010909365,0.43799999447265725,0.0539999991814898
0.10767203569412231,-0.04299028217792511,9.944154739379883,0.00839999970048666,-0.006899999920278788,0.12789998948574066,0.648999985901263,-0.47399997391666393,-0.03899999996469596
0.11055465787649155,-0.04654328152537346,9.944421768188477,0.0071000000461936,-0.008700000122189522,0.12789998948574066,-0.851000002479187,0.5579999882070079,0.04500000098543482
0.10968316346406937,-0.05384080857038498,9.937211036682129,0.00839999970048666,-0.016499999910593033,0.11809999495744705,-0.7380000188291737,0.369999991797759,-0.07399999702553048
0.12322477251291275,-0.04720408096909523,9.950005531311035,0.019500000402331352,-0.004100000020116568,0.12789998948574066,0.7560000218913903,-0.7249999810436709,0.024999999806340833
0.11254663020372391,-0.051839254796504974,9.940725326538086,0.008200000040233135,-0.01549999974668026,0.12789998948574066,0.5119999981682943,-0.7530000213810208,0.009999999755783667
0.11139741539955139,-0.04983770474791527,9.93856143951416,0.006099999882280827,-0.016899999231100082,0.11809999495744705,0.3980000054546825,-0.5489999866758997,-0.0009999999964224499
0.1222958192229271,-0.03587471693754196,9.943865776062012,0.0142000000923872,0.00139999995008111,0.12789998948574066,-0.019000000453128628,-0.12700000381868817,0.04900000055424296
0.1219223216176033,-0.049588706344366074,9.948089599609375,0.013899999670684338,-0.017999999225139618,0.12789998948574066,0.9440000183006392,-0.41499999945330046,0.004999999877891834
0.12883678078651428,-0.042262446135282516,9.936444282531738,0.02239999920129776,-0.011099999770522118,0.11809999495744705,0.10400000212922476,0.07900000232288394,0.046999999102312236
0.12372276932001114,-0.032858025282621384,9.936837196350098,0.012399999424815178,-0.003499999875202775,0.11809999495744705,0.17799999915475526,-0.390999995370345,-0.006000000186975531
0.12921984493732452,-0.05211698263883591,9.938225746154785,0.012399999424815178,-0.003499999875202775,0.11809999495744705,0.3860000034132048,-0.2909999961449817,0.0969999987149939
0.12190317362546921,-0.047903187572956085,9.928773880004883,0.010400000028312206,-0.024699999019503593,0.10830000042915344,-0.5759999912692245,-0.08200000283325337,0.0269999995907449
0.12545616924762726,-0.044963106513023376,9.926934242248535,0.019999999552965164,-0.013299999758601189,0.10830000042915344,0.283000003677472,0.17700000343136985,0.02800000031671026
0.11903012543916702,-0.0482192225754261,9.934700965881348,0.019999999552965164,-0.013299999758601189,0.10830000042915344,0.1319999957758284,0.07000000079177565,-0.014999999216793838
0.11989204585552216,-0.04395754262804985,9.943531036376953,0.010799999348819256,-0.014299999922513962,0.12789998948574066,-0.12700000381868817,-0.20200000323771067,0.06800000267489824
0.124402716755867,-0.04767334461212158,9.944144248962402,0.010300000198185444,-0.0139999995008111,0.12789998948574066,0.3059999986968288,0.2050000037480801,-0.019999999511567335
0.12434525787830353,-0.04153461009263992,9.952457427978516,0.010900000110268593,-0.01489999983459711,0.13769999146461487,0.5219999820825748,-0.049999999612681666,0.008999999863581633
0.1033145934343338,-0.055957283824682236,9.948003768920898,0.010900000110268593,-0.01489999983459711,0.13769999146461487,-1.5490000322903859,0.2699999925723957,0.0329999989439571
0.1224011704325676,-0.029870059341192245,9.934586524963379,0.011399999260902405,-0.00279999990016222,0.11809999495744705,0.1629999966029081,0.08799999718388561,-0.031999999885518396
0.12182655930519104,-0.04540364071726799,9.954774856567383,0.011599999852478504,-0.013100000098347664,0.13769999146461487,-0.9289999623879391,-0.0019999999928448997,0.0039999999856897995
0.12514013051986694,-0.04733815789222717,9.933676719665527,0.021399999037384987,-0.010799999348819256,0.11809999495744705,-0.5889999756938744,-0.21800000151294321,-0.03899999996469596
0.11359050869941711,-0.05067088454961777,9.941817283630371,0.0011999999405816197,-0.01899999938905239,0.12789998948574066,0.25599999908414717,-0.007000000079177565,0.02800000031671026
0.11558248102664948,-0.043871354311704636,9.95234203338623,0.010999999940395355,-0.009999999776482582,0.13769999146461487,0.5960000124586383,-0.1729999938574018,0.015999999942759198
0.1169423907995224,-0.04246356338262558,9.930411338806152,0.010499999858438969,-0.011399999260902405,0.10830000042915344,2.1499999033040322,-0.2519999895101791,0.0039999999856897995
0.12336842715740204,-0.04206133633852005,9.925019264221191,0.009800000116229057,-0.01730000041425228,0.10830000042915344,-1.031999962123672,0.15900000036915327,0.04500000098543482
0.1275056004524231,-0.0537833496928215,9.925986289978027,0.020099999383091927,-0.02419999986886978,0.10830000042915344,-1.9940000902082335,0.14600000260429016,-0.07199999890865307
0.1258200854063034,-0.04955997318029404,9.93464469909668,0.020499998703598976,-0.018799999728798866,0.11809999495744705,-2.1009999127549492,0.15800000464576788,-0.017999999727163266
0.12333011627197266,-0.040366239845752716,9.931522369384766,0.011099999770522118,-0.0024999999441206455,0.11809999495744705,1.8160000243524121,-0.37100000086135765,0.05799999875029794
0.11732546240091324,-0.042003877460956573,9.945446968078613,0.010199999436736107,-0.006799999624490738,0.12789998948574066,2.2809999433771146,-0.27500001120996237,0.06099999926066736
0.11295843869447708,-0.04382346570491791,9.93655014038086,-0.00019999999494757503,-0.012999999336898327,0.11809999495744705,-1.131000032326716,0.128999995265459,-0.05300000012305109
0.1098363921046257,-0.04189852997660637,9.93985366821289,0.00009999999747378752,-0.009499999694526196,0.11809999495744705,0.6119999973936576,-0.07099999651516105,-0.008999999863581633
0.11693280935287476,-0.047970227897167206,9.940964698791504,0.00969999935477972,-0.020800000056624413,0.12789998948574066,-0.7990000114197344,-0.19900000272734125,-0.0539999991814898
0.11772768199443817,-0.03457227349281311,9.946346282958984,0.009099999442696571,0.0011999999405816197,0.12799999117851257,0.021000000237532696,0.013000000266153095,0.038000000906257256
0.10855311155319214,-0.04421611875295639,9.931646347045898,-0.0005999999702908099,-0.008499999530613422,0.11809999495744705,1.423999993238042,-0.1180000022875799,0.05600000063342052
0.11364796757698059,-0.06023811176419258,9.959237098693848,-0.0008999999845400453,-0.021699998527765274,0.12799999117851257,0.46600000812958076,-0.021000000237532696,-0.04600000004387353
0.11364796757698059,-0.06023811176419258,9.959237098693848,-0.000699999975040555,-0.02889999933540821,0.13779999315738678,0.46600000812958076,-0.021000000237532696,-0.04600000004387353
0.12888465821743011,-0.0537833496928215,9.936272621154785,0.018699999898672104,-0.010400000028312206,0.11809999495744705,1.038999945527583,-0.023000000021936765,-0.09000000197086964
0.12489113956689835,-0.04469495639204979,9.938197135925293,0.01850000023841858,-0.010199999436736107,0.11819999665021896,0.433000002515517,-0.03599999945432653,0.007999999971379599
0.12603077292442322,-0.05018246918916702,9.940505027770996,0.018400000408291817,-0.020999999716877937,0.11809999495744705,-0.41600000851689906,0.024999999806340833,-0.012000000373951061
0.1234641969203949,-0.03575022146105766,9.935247421264648,0.008700000122189522,-0.00029999998514540493,0.11819999665021896,-0.26600000967885407,0.021000000237532696,0
0.1163390502333641,-0.042501870542764664,9.93872356414795,0.008700000122189522,-0.00930000003427267,0.11819999665021896,-0.7080000137254794,0.03599999945432653,-0.046999999102312236
0.11721053719520569,-0.04466622695326805,9.937737464904785,0.008799999952316284,-0.007199999876320362,0.11819999665021896,-0.4769999744270334,0.014999999216793838,-0.017999999727163266
0.12742899358272552,-0.04554729536175728,9.929089546203613,0.018699999898672104,-0.006099999882280827,0.10830000042915344,0.02899999937514897,-0.015999999942759198,-0.0429999995335041
0.13107775151729584,-0.042741287499666214,9.946922302246094,0.01860000006854534,-0.006099999882280827,0.12799999117851257,0.43499999396228783,0.029999998433587676,0.0269999995907449
0.13218866288661957,-0.05517198517918587,9.920652389526367,0.01860000006854534,-0.016999999061226845,0.09849999845027924,0.08899999957737763,0.01700000066872456,-0.07399999702553048
0.11521855741739273,-0.0444268062710762,9.953568458557129,0.008899999782443047,-0.007499999832361937,0.13779999315738678,0.3660000089042174,-0.0030000000934877653,-0.05099999867112037
0.11224975436925888,-0.05156152695417404,9.938714027404785,-0.0008999999845400453,-0.018299998715519905,0.11819999665021896,0.09899999683187131,0.04900000055424296,0.0039999999856897995
0.12068691849708557,-0.050939034670591354,9.94428825378418,0.008999999612569809,-0.01850000023841858,0.12799999117851257,0.4709999734062945,0.07699999753589991,-0.09300000248123906
0.12574347853660583,-0.05031654238700867,9.95371150970459,0.01899999938905239,-0.019899999722838402,0.13779999315738678,-0.27200001069959295,0.006000000186975531,-0.06700000028140622
0.11393526941537857,-0.06033388152718544,9.946931838989258,-0.0004999999655410647,-0.029099998995661736,0.12799999117851257,-0.4109999898793324,-0.010999999647985701,-0.021999999295971403
0.10962571203708649,-0.04210921749472618,9.951786994934082,-0.0005999999702908099,-0.008299999870359898,0.13779999315738678,0.10900000075647161,-0.017999999727163266,0.024999999806340833
0.12327265739440918,-0.04800853505730629,9.951739311218262,0.009099999442696571,-0.018400000408291817,0.13779999315738678,-0.046999999102312236,0.008999999863581633,0.0039999999856897995
0.12918154895305634,-0.04620809108018875,9.937862396240234,0.01889999955892563,-0.008499999530613422,0.11819999665021896,-0.321000001248676,0.004999999877891834,0.006000000186975531
0.11620496958494186,-0.03616202250123024,9.939643859863281,0.008999999612569809,0.002099999925121665,0.11819999665021896,0.08299999855663877,-0.0539999991814898,-0.06399999977103679
0.10794977098703384,-0.04296155646443367,9.931178092956543,-0.0007999999797903001,-0.007799999788403511,0.11819999665021896,-0.4390000035362559,0.04200000047506539,-0.18099999966512467
0.11237425357103348,-0.037071820348501205,9.927490234375,-0.000699999975040555,0.003000000026077032,0.10830000042915344,0.31600000929153577,0.015999999942759198,0.12599999475508955
0.11939404904842377,-0.048707637935876846,9.934337615966797,0.008999999612569809,-0.017500000074505806,0.11819999665021896,-0.32700000226941484,0.019000000453128628,0.0009999999964224499
0.12150094658136368,-0.0491769015789032,9.935649871826172,0.008999999612569809,-0.016699999570846558,0.11819999665021896,0.28499999512424284,-0.02899999937514897,-0.007999999971379599
0.124402716755867,-0.033308133482933044,9.92597770690918,0.008999999612569809,0.001999999862164259,0.10830000042915344,0.043999998591942806,0.004999999877891834,-0.02800000031671026
0.1105450838804245,-0.029046455398201942,9.922979354858398,-0.000699999975040555,0.0018999999156221747,0.10830000042915344,-0.041000001416626686,0.010999999647985701,-0.06700000028140622
0.11538136750459671,-0.04514506831765175,9.936263084411621,0.008999999612569809,-0.007699999958276749,0.11819999665021896,-0.06700000028140622,-0.007000000079177565,-0.043999998591942806
0.12117534130811691,-0.039063792675733566,9.949430465698242,0.008899999782443047,-0.007499999832361937,0.12799999117851257,-0.17799999915475526,0.015999999942759198,-0.05200000106461238
0.1310490220785141,-0.0489279069006443,9.946002006530762,0.008999999612569809,-0.01679999940097332,0.11819999665021896,-0.1620000008795227,-0.021000000237532696,-0.09399999820462447
0.1137341558933258,-0.04527914524078369,9.933600425720215,0.018699999898672104,-0.016300000250339508,0.12799999117851257,0.10400000212922476,-0.02800000031671026,-0.05200000106461238
0.12359827011823654,-0.044560883194208145,9.940801620483398,-0.0008999999845400453,-0.006899999920278788,0.11819999665021896,0.19999999845072666,-0.038000000906257256,0.02800000031671026
0.1148163378238678,-0.055698707699775696,9.949430465698242,-0.0010999999940395355,-0.017500000074505806,0.12799999117851257,0.11299999699022645,-0.007999999971379599,0.05300000012305109
0.11703815311193466,-0.04800853505730629,9.944565773010254,0.008599999360740185,-0.017799999564886093,0.12799999117851257,-0.17799999915475526,-0.02600000053230619,0.029999998433587676
0.1165880411863327,-0.04369897022843361,9.938493728637695,0.008499999530613422,-0.007499999832361937,0.11819999665021896,-0.03100000082707969,0.0019999999928448997,-0.03699999851276524
0.12342588603496552,-0.05114014819264412,9.93588924407959,0.008299999870359898,-0.016899999231100082,0.11819999665021896,-0.12400000330831876,-0.01400000015835513,-0.12599999475508955
0.11894393712282181,-0.039207447320222855,9.942047119140625,0.008200000040233135,-0.006599999964237213,0.12799999117851257,0.09800000110848592,-0.021000000237532696,0.29899998861249133
0.11189541220664978,-0.03905421867966652,9.945878028869629,-0.0015999999595806003,-0.006799999624490738,0.12799999117851257,0.11200000126684104,0.015999999942759198,0.17400000292100043
0.11609005182981491,-0.04787445813417435,9.948406219482422,0.008100000210106373,-0.0071000000461936,0.12799999117851257,0.023000000021936765,0.004999999877891834,-0.1070000026395942
0.12565727531909943,-0.05597643554210663,9.921533584594727,0.017899999395012856,-0.016899999231100082,0.09849999845027924,-0.10499999785261017,-0.007000000079177565,-0.3579999897562813
0.1335102617740631,-0.050038814544677734,9.93985366821289,0.017899999395012856,-0.016599999740719795,0.11819999665021896,-0.057000003026912535,0.0039999999856897995,0.04500000098543482
0.11975797265768051,-0.045259989798069,9.947429656982422,0.008100000210106373,-0.0066999997943639755,0.12799999117851257,0.13300000483942703,-0.01400000015835513,0.2570000081477458
0.10319966822862625,-0.03952348232269287,9.938705444335938,-0.011500000022351742,-0.0071000000461936,0.11819999665021896,-0.09000000197086964,-0.004999999877891834,0.257999990530918
0.09961794316768646,-0.040557775646448135,9.937287330627441,-0.011500000022351742,-0.006799999624490738,0.11819999665021896,0.1180000022875799,0.05600000063342052,-0.3999999969014533
0.1178809106349945,-0.04791276529431343,9.938590049743652,0.008100000210106373,-0.016999999061226845,0.11819999665021896,0.08499999667351618,0.008999999863581633,0.09000000197086964
0.10669520497322083,-0.05365884676575661,9.9321928024292,-0.001500000013038516,-0.017099998891353607,0.11819999665021896,-0.05300000012305109,-0.006000000186975531,-0.06399999977103679
0.12004527449607849,-0.04438849911093712,9.92917537689209,0.008100000210106373,-0.007199999876320362,0.10839999467134476,0.0539999991814898,0.012000000373951061,0.03899999996469596
0.11513236910104752,-0.05187756195664406,9.9559907913208,0.008200000040233135,-0.017099998891353607,0.13779999315738678,0.0009999999964224499,-0.0030000000934877653,-0.14499999354069154
0.10689631849527359,-0.04801810905337334,9.950522422790527,-0.0015999999595806003,-0.017099998891353607,0.13779999315738678,-0.03400000133744912,-0.0030000000934877653,0.07000000079177565
0.128108948469162,-0.04493437707424164,9.9356689453125,0.017899999395012856,-0.007199999876320362,0.11819999665021896,-0.007999999971379599,0.007999999971379599,0.015999999942759198
0.12067734450101852,-0.05229894071817398,9.940361022949219,0.008100000210106373,-0.016899999231100082,0.11819999665021896,0.010999999647985701,-0.02600000053230619,-0.14300000209392072
0.12299492955207825,-0.04358404874801636,9.935965538024902,0.007999999448657036,-0.0071000000461936,0.11819999665021896,-0.019000000453128628,0.05499999823992851,-0.01700000066872456
0.10838072001934052,-0.04698381572961807,9.946298599243164,-0.001500000013038516,-0.00699999975040555,0.12799999117851257,-0.07399999702553048,0.004999999877891834,0.02899999937514897
0.10553640872240067,-0.05400361120700836,9.944977760314941,0.008200000040233135,-0.006799999624490738,0.10839999467134476,0.038000000906257256,0.04200000047506539,-0.035000000395887826
0.12968911230564117,-0.04839160665869713,9.925374031066895,-0.001500000013038516,-0.01679999940097332,0.12799999117851257,-0.021000000237532696,-0.046999999102312236,-0.03400000133744912
0.1255040466785431,-0.04269340634346008,9.942564010620117,0.017799999564886093,-0.016599999740719795,0.10839999467134476,0.041000001416626686,-0.023000000021936765,0.012000000373951061
0.1014183834195137,-0.04519294947385788,9.916888236999512,0.017400000244379044,-0.006599999964237213,0.12799999117851257,-0.015999999942759198,0.0019999999928448997,0.02899999937514897
0.11864705383777618,-0.04784572497010231,9.932116508483887,-0.011699999682605267,-0.006599999964237213,0.09860000014305115,-0.019000000453128628,-0.0039999999856897995,0.024999999806340833
0.11640609055757523,-0.05464525893330574,9.929500579833984,0.007499999832361937,-0.015799999237060547,0.10839999467134476,0.05099999867112037,0.019999999511567335,-0.03100000082707969
0.11630074679851532,-0.04038539528846741,9.932403564453125,0.007499999832361937,-0.006099999882280827,0.11819999665021896,0.048000001495804245,0.0019999999928448997,-0.0009999999964224499
0.12177868187427521,-0.04794149473309517,9.934749603271484,0.007400000002235174,-0.015699999406933784,0.11819999665021896,0.0009999999964224499,-0.009999999755783667,-0.0329999989439571
0.12708422541618347,-0.04480987787246704,9.933188438415527,0.016899999231100082,-0.005799999926239252,0.11819999665021896,0.006000000186975531,0.0039999999856897995,-0.007000000079177565
0.11452902853488922,-0.06157886981964111,9.94123363494873,-0.0026000000070780516,-0.02499999850988388,0.12799999117851257,-0.015999999942759198,0.017999999727163266,0.013000000266153095
0.1251305490732193,-0.039944861084222794,9.948501586914062,0.016699999570846558,-0.0052999998442828655,0.12799999117851257,0.07999999804626934,0.0019999999928448997,-0.09399999820462447
0.12120406329631805,-0.05476975813508034,9.952381134033203,0.006899999920278788,-0.015099999494850636,0.13779999315738678,0.02899999937514897,0.035000000395887826,0.035000000395887826
0.11518983542919159,-0.04082592949271202,9.9418363571167,0.006899999920278788,-0.0052999998442828655,0.12799999117851257,-0.0539999991814898,-0.012000000373951061,-0.04200000047506539
0.1202559694647789,-0.04796064645051956,9.934605598449707,0.0066999997943639755,-0.014699999243021011,0.11819999665021896,0.04500000098543482,-0.021999999295971403,-0.01700000066872456
0.1260882467031479,-0.04365108534693718,9.93949031829834,0.016200000420212746,-0.004900000058114529,0.11819999665021896,0.03699999851276524,-0.014999999216793838,-0.0039999999856897995
0.12331096827983856,-0.04826710373163223,9.93925952911377,0.006300000008195639,-0.014599999412894249,0.11819999665021896,0.05799999875029794,0.012000000373951061,0.02800000031671026
0.11341812461614609,-0.043277591466903687,9.9314546585083,-0.0032999999821186066,-0.004799999762326479,0.11819999665021896,-0.009999999755783667,0.0019999999928448997,0.015999999942759198
0.12029427289962769,-0.043804313987493515,9.935726165771484,0.006300000008195639,-0.004699999932199717,0.11819999665021896,0.021000000237532696,0,0.03699999851276524
0.11360008269548416,-0.04412992298603058,9.927433013916016,0.006199999712407589,-0.014299999922513962,0.10839999467134476,-0.021999999295971403,0.0030000000934877653,0.004999999877891834
0.11360008269548416,-0.04412992298603058,9.927433013916016,-0.0032999999821186066,-0.0044999998062849045,0.10839999467134476,-0.021999999295971403,0.0030000000934877653,0.004999999877891834
0.12223836779594421,-0.044867340475320816,9.934404373168945,0.006300000008195639,-0.004299999680370092,0.11819999665021896,0.007000000079177565,-0.0039999999856897995,0.02800000031671026
0.1197771206498146,-0.04112280532717705,9.936234474182129,-0.0032999999821186066,-0.0139999995008111,0.11819999665021896,0.08299999855663877,-0.008999999863581633,0.031999999885518396
0.1197771206498146,-0.04112280532717705,9.936234474182129,0.006300000008195639,-0.00419999985024333,0.11819999665021896,0.08299999855663877,-0.008999999863581633,0.031999999885518396
0.11627200990915298,-0.05022077634930611,9.942305564880371,0.006199999712407589,-0.014099999330937862,0.12799999117851257,-0.021000000237532696,-0.01400000015835513,-0.0749999994190225
0.12117534130811691,-0.049655742943286896,9.934328079223633,0.015699999406933784,-0.013899999670684338,0.12799999117851257,0,-0.004999999877891834,0.004999999877891834
0.12117534130811691,-0.049655742943286896,9.934328079223633,0.0058999997563660145,-0.013599999248981476,0.11819999665021896,0,-0.004999999877891834,0.004999999877891834
0.10848607122898102,-0.057853490114212036,9.945944786071777,0.025100000202655792,-0.013399999588727951,0.12799999117851257,0.017999999727163266,-0.021000000237532696,-0.006000000186975531
0.12120406329631805,-0.036966472864151,9.949057579040527,-0.004100000020116568,-0.02290000021457672,0.12799999117851257,0.012000000373951061,0.01700000066872456,0.02600000053230619
0.12074437737464905,-0.047261543571949005,9.93930721282959,0.005399999674409628,-0.003399999812245369,0.11819999665021896,0.06200000165415938,-0.010999999647985701,0.04200000047506539
0.12860693037509918,-0.050038814544677734,9.929923057556152,0.014999999664723873,-0.013199999928474426,0.10839999467134476,0.014999999216793838,0.029999998433587676,-0.004999999877891834
0.12289915978908539,-0.05464525893330574,9.924798965454102,0.005200000014156103,-0.013100000098347664,0.10839999467134476,0.007999999971379599,0.0030000000934877653,-0.019000000453128628
0.12325350195169449,-0.04260721057653427,9.916448593139648,0.0050999997183680534,-0.0031999999191612005,0.09860000014305115,0.03699999851276524,0.0030000000934877653,-0.012000000373951061
0.1219223216176033,-0.0355491079390049,9.944028854370117,0.0050999997183680534,0.006300000008195639,0.12799999117851257,-0.03599999945432653,0.0019999999928448997,-0.03100000082707969
0.11677958071231842,-0.04902367293834686,9.932939529418945,0.0050999997183680534,-0.012999999336898327,0.11819999665021896,0.03599999945432653,-0.023000000021936765,0.013000000266153095
0.12448891252279282,-0.044752418994903564,9.927777290344238,0.004900000058114529,-0.0031999999191612005,0.10839999467134476,0.0030000000934877653,0.0009999999964224499,0.04600000004387353
0.10837114602327347,-0.04542279615998268,9.937976837158203,-0.004699999932199717,-0.0031999999191612005,0.11819999665021896,0.024000000747902123,0.01700000066872456,-0.03100000082707969
0.11970050632953644,-0.050910305231809616,9.94215202331543,0.004999999888241291,-0.012899999506771564,0.12799999117851257,0.03100000082707969,0.0019999999928448997,-0.014999999216793838
0.12699803709983826,-0.059108052402734756,9.938590049743652,0.014699999243021011,-0.022499999031424522,0.11819999665021896,0.024999999806340833,-0.01400000015835513,0.004999999877891834
0.11767980456352234,-0.04805641621351242,9.934280395507812,0.004799999762326479,-0.012600000016391277,0.11819999665021896,-0.038000000906257256,-0.014999999216793838,0.0329999989439571
0.12588712573051453,-0.04983770474791527,9.929950714111328,0.014299999922513962,-0.012299999594688416,0.10839999467134476,0.0009999999964224499,0.0030000000934877653,-0.05799999875029794
0.11270944029092789,-0.044656649231910706,9.930305480957031,-0.0050999997183680534,-0.0024999999441206455,0.10839999467134476,-0.029999998433587676,-0.04200000047506539,-0.0030000000934877653
0.12426864355802536,-0.040653545409440994,9.9483003616333,0.0044999998062849045,-0.0023999998811632395,0.12799999117851257,0.0030000000934877653,0.019000000453128628,0.010999999647985701
0.13227485120296478,-0.06075526028871536,9.93228816986084,0.0142000000923872,-0.02159999869763851,0.11819999665021896,-0.017999999727163266,-0.012000000373951061,-0.0019999999928448997
0.11447156965732574,-0.04532702639698982,9.93054485321045,-0.0052999998442828655,-0.0018999999156221747,0.10839999467134476,0.15399999507179982,0.0030000000934877653,0.013000000266153095
0.12999556958675385,-0.04996220022439957,9.94504451751709,-0.0052999998442828655,-0.0018999999156221747,0.10839999467134476,-0.0019999999928448997,0.0039999999856897995,0.024999999806340833
0.12307154387235641,-0.055085793137550354,9.927720069885254,0.004299999680370092,-0.011899999342858791,0.10839999467134476,0.009999999755783667,0.029999998433587676,-0.04600000004387353
0.11394484341144562,-0.043114785104990005,9.956441879272461,-0.0052999998442828655,-0.002099999925121665,0.13779999315738678,-0.0030000000934877653,0.0019999999928448997,0.021999999295971403
0.09592129290103912,-0.038853105157613754,9.942037582397461,-0.01489999983459711,-0.002099999925121665,0.12799999117851257,-0.009999999755783667,0.029999998433587676,-0.007000000079177565
0.12615527212619781,-0.03897760435938835,9.944459915161133,0.014399999752640724,-0.001999999862164259,0.12799999117851257,0.012000000373951061,0.05300000012305109,-0.05799999875029794
0.11674126982688904,-0.040557775646448135,9.953787803649902,0.004699999932199717,-0.002099999925121665,0.13779999315738678,-0.05300000012305109,0.015999999942759198,-0.010999999647985701
0.13557885587215424,-0.04990473762154579,9.951576232910156,0.02410000003874302,-0.011599999852478504,0.13779999315738678,-0.0030000000934877653,0.04600000004387353,-0.024999999806340833
0.1349276304244995,-0.050345271825790405,9.944191932678223,0.024000000208616257,-0.011500000022351742,0.12799999117851257,0.021000000237532696,0.029999998433587676,0.007999999971379599
0.10572794079780579,-0.05000050738453865,9.93131160736084,-0.005200000014156103,-0.011399999260902405,0.11819999665021896,0.038000000906257256,0.0030000000934877653,0.04500000098543482
0.13480313122272491,-0.04294240102171898,9.93179988861084,0.023899998515844345,-0.0016999999061226845,0.11819999665021896,0,0.0039999999856897995,-0.08899999957737763
0.11743079870939255,-0.035769373178482056,9.928783416748047,0.00419999985024333,0.007899999618530273,0.10839999467134476,-0.007000000079177565,-0.01400000015835513,-0.015999999942759198
0.12626062333583832,-0.03928406164050102,9.943981170654297,0.013899999670684338,-0.0017999999690800905,0.12799999117851257,-0.0030000000934877653,0.02800000031671026,-0.035000000395887826
0.11793837696313858,-0.0396958664059639,9.922663688659668,0.004100000020116568,-0.0016999999061226845,0.10839999467134476,0.03899999996469596,0.0019999999928448997,0.014999999216793838
0.12516885995864868,-0.05338112264871597,9.929683685302734,0.013799999840557575,-0.011500000022351742,0.10839999467134476,-0.0019999999928448997,-0.007999999971379599,-0.0019999999928448997
0.11810117959976196,-0.036315251141786575,9.9351806640625,0.0038999998942017555,0.007899999618530273,0.11819999665021896,0,0.01400000015835513,-0.007999999971379599
0.12147221714258194,-0.05798756331205368,9.932795524597168,0.0038999998942017555,-0.021199999377131462,0.11819999665021896,-0.08499999667351618,-0.01700000066872456,-0.015999999942759198
0.1087542176246643,-0.05018246918916702,9.951939582824707,-0.005799999926239252,-0.010999999940395355,0.13779999315738678,0.0429999995335041,0.02800000031671026,0.06200000165415938
0.1100662350654602,-0.04364151135087013,9.939682006835938,-0.00559999980032444,-0.0013000000035390258,0.11819999665021896,0.006000000186975531,0.006000000186975531,-0.019000000453128628
0.11313082277774811,-0.036171600222587585,9.926810264587402,-0.005499999970197678,0.008299999870359898,0.10839999467134476,-0.004999999877891834,0,-0.0539999991814898
0.12935392558574677,-0.04548025503754616,9.928084373474121,0.013899999670684338,-0.00139999995008111,0.10839999467134476,0,0,0.021999999295971403
0.12123279273509979,-0.04727111756801605,9.928084373474121,0.003999999724328518,-0.00139999995008111,0.10839999467134476,0.0269999995907449,-0.015999999942759198,0.01700000066872456
0.12101252377033234,-0.053400274366140366,9.939614295959473,0.0038999998942017555,-0.01119999960064888,0.11819999665021896,0.009999999755783667,0.0030000000934877653,0.021000000237532696
0.12260227650403976,-0.043545741587877274,9.933226585388184,0.0038999998942017555,-0.00139999995008111,0.11819999665021896,0.024999999806340833,0.0030000000934877653,-0.019000000453128628
0.1202559694647789,-0.04651454836130142,9.93708610534668,0.0038999998942017555,-0.00139999995008111,0.11819999665021896,0.006000000186975531,-0.0039999999856897995,0.023000000021936765
0.1129201278090477,-0.0648062527179718,9.93359088897705,-0.005699999630451202,-0.00139999995008111,0.10839999467134476,0.007999999971379599,0.015999999942759198,0.019999999511567335
0.12689268589019775,-0.049109868705272675,9.944326400756836,0.013700000010430813,-0.010999999940395355,0.12799999117851257,-0.0019999999928448997,0.0030000000934877653,-0.012000000373951061
0.12956462800502777,-0.032264262437820435,9.94651985168457,0.013599999248981476,0.008499999530613422,0.12799999117851257,0.05900000114378995,-0.007999999971379599,-0.07000000079177565
0.11462479829788208,-0.050843264907598495,9.93033504486084,-0.005799999926239252,-0.011099999770522118,0.10839999467134476,-0.010999999647985701,0,0.024999999806340833
0.11287224292755127,-0.045604754239320755,9.931234359741211,-0.005699999630451202,-0.0011999999405816197,0.11819999665021896,0.02600000053230619,0.05600000063342052,-0.035000000395887826
0.11586020886898041,-0.04082592949271202,9.952552795410156,0.004100000020116568,-0.0013000000035390258,0.13779999315738678,0.02800000031671026,0.03100000082707969,-0.02899999937514897
0.11969093233346939,-0.031507693231105804,9.937967300415039,0.00419999985024333,0.008200000040233135,0.11819999665021896,-0.0019999999928448997,0.0030000000934877653,0.031999999885518396
0.11376288533210754,-0.045623909682035446,9.93059253692627,-0.005499999970197678,-0.00139999995008111,0.10839999467134476,0.009999999755783667,0.02899999937514897,-0.007999999971379599
0.11315954476594925,-0.03643975034356117,9.934433937072754,-0.0052999998442828655,0.008100000210106373,0.11819999665021896,-0.1830000044521087,-0.024000000747902123,-0.012000000373951061
0.11911632865667343,-0.05162856727838516,9.928754806518555,0.004299999680370092,-0.010799999348819256,0.10839999467134476,0.017999999727163266,0.024999999806340833,0.010999999647985701
0.11999738961458206,-0.04606444016098976,9.937430381774902,0.004299999680370092,-0.0010999999940395355,0.11819999665021896,-0.03100000082707969,-0.013000000266153095,0
0.11620496958494186,-0.05535394325852394,9.934816360473633,0.004299999680370092,-0.010699999518692493,0.11819999665021896,0.004999999877891834,0.0009999999964224499,0.04500000098543482
0.11559205502271652,-0.04628470540046692,9.936051368713379,0.004299999680370092,-0.0008999999845400453,0.11819999665021896,-0.009999999755783667,0.008999999863581633,0.03899999996469596
0.12246821075677872,-0.040864236652851105,9.92154312133789,0.00419999985024333,-0.0008999999845400453,0.09860000014305115,0.006000000186975531,0.0269999995907449,0.013000000266153095
0.12137644737958908,-0.05771941319108009,9.937555313110352,0.004299999680370092,-0.02029999904334545,0.11819999665021896,-0.01700000066872456,-0.035000000395887826,0.013000000266153095
0.11820653080940247,-0.047864880412817,9.93513298034668,0.00419999985024333,-0.0005999999702908099,0.11819999665021896,0.031999999885518396,-0.06200000165415938,0.01700000066872456
0.12207555025815964,-0.04142926633358002,9.922165870666504,0.003999999724328518,-0.000699999975040555,0.10839999467134476,-0.017999999727163266,-0.023000000021936765,-0.0030000000934877653
0.12728534638881683,-0.053926996886730194,9.927422523498535,0.013599999248981476,-0.010300000198185444,0.10839999467134476,0.015999999942759198,-0.0030000000934877653,0.048000001495804245
0.12930604815483093,-0.04847779497504234,9.940896987915039,0.013399999588727951,-0.010300000198185444,0.12799999117851257,-0.0039999999856897995,-0.041000001416626686,-0.06399999977103679
0.11537178605794907,-0.050910305231809616,9.928974151611328,0.003499999875202775,-0.010199999436736107,0.10839999467134476,-0.04600000004387353,-0.0009999999964224499,0.03699999851276524
0.11975797265768051,-0.04981854930520058,9.933140754699707,0.003499999875202775,-0.00989999994635582,0.11819999665021896,-0.021000000237532696,0.02800000031671026,-0.041000001416626686
0.11476845294237137,-0.04389050602912903,9.938694953918457,-0.006099999882280827,-0.00009999999747378752,0.11819999665021896,0.0030000000934877653,0.0030000000934877653,-0.03599999945432653
0.1251497119665146,-0.047242388129234314,9.931560516357422,0.013299999758601189,-0.00009999999747378752,0.11819999665021896,0.04600000004387353,-0.0329999989439571,-0.0039999999856897995
0.1233396902680397,-0.04845863953232765,9.922184944152832,0.003399999812245369,-0.00989999994635582,0.10839999467134476,0.0030000000934877653,-0.0009999999964224499,0.013000000266153095
0.11216355860233307,-0.04945463314652443,9.939892768859863,-0.006199999712407589,-0.009800000116229057,0.11819999665021896,0.03699999851276524,0.013000000266153095,0.038000000906257256
0.10329543799161911,-0.05144660547375679,9.934624671936035,-0.015799999237060547,-0.009800000116229057,0.11819999665021896,0.007000000079177565,-0.006000000186975531,-0.0269999995907449
0.11895351111888885,-0.046265553683042526,9.927260398864746,0.003700000001117587,0,0.10839999467134476,-0.0030000000934877653,0.0030000000934877653,0.02899999937514897
0.11716265231370926,-0.04823837801814079,9.928601264953613,0.003599999938160181,-0.00969999935477972,0.10839999467134476,0.015999999942759198,0.010999999647985701,-0.0039999999856897995
0.10798807442188263,-0.05459737405180931,9.93674087524414,-0.006000000052154064,-0.00969999935477972,0.11819999665021896,-0.0030000000934877653,0.0030000000934877653,-0.03100000082707969
0.12545616924762726,-0.05334281548857689,9.928428649902344,0.003700000001117587,0,0.11819999665021896,0.07300000130214508,0.0009999999964224499,0.0269999995907449
0.11827356368303299,-0.040251318365335464,9.928534507751465,0.013399999588727951,-0.009800000116229057,0.10839999467134476,-0.0009999999964224499,0.0429999995335041,-0.007999999971379599
0.11733503639698029,-0.048851292580366135,9.939596176147461,0.003599999938160181,-0.00969999935477972,0.11819999665021896,0.041000001416626686,0.013000000266153095,-0.038000000906257256
0.11513236910104752,-0.04907156154513359,9.921409606933594,0.003599999938160181,-0.00969999935477972,0.09860000014305115,-0.0019999999928448997,0.023000000021936765,-0.0269999995907449
0.10495222359895706,-0.05488467961549759,9.9326810836792,-0.015599999576807022,-0.009599999524652958,0.11819999665021896,-0.0019999999928448997,0.01700000066872456,0.021000000237532696
0.11213483661413193,-0.03680367022752762,9.933457374572754,-0.005699999630451202,0.009800000116229057,0.11819999665021896,0.006000000186975531,0,-0.06399999977103679
0.11513236910104752,-0.04847779497504234,9.923362731933594,0.003999999724328518,-0.009599999524652958,0.10839999467134476,-0.015999999942759198,0,-0.02899999937514897
0.10572794079780579,-0.038661569356918335,9.93655014038086,-0.005699999630451202,0.00009999999747378752,0.11819999665021896,-0.024000000747902123,-0.01700000066872456,-0.05200000106461238
0.11940362304449081,-0.0530746653676033,9.943416595458984,0.003999999724328518,-0.009499999694526196,0.12799999117851257,0.015999999942759198,0.04600000004387353,0.04500000098543482
0.10643663257360458,-0.03976290300488472,9.927902221679688,-0.00559999980032444,0.00019999999494757503,0.10839999467134476,-0.03100000082707969,0.009999999755783667,0.0039999999856897995
0.11966220289468765,-0.040251318365335464,9.945140838623047,0.00419999985024333,0.00029999998514540493,0.12799999117851257,0.013000000266153095,0.03400000133744912,0.041000001416626686
0.12280339002609253,-0.04794149473309517,9.928217887878418,0.00419999985024333,-0.009399999864399433,0.10839999467134476,0.0019999999928448997,-0.01400000015835513,0.0039999999856897995
0.1337784081697464,-0.04539406672120094,9.942927360534668,0.013899999670684338,0.00029999998514540493,0.12799999117851257,0.0030000000934877653,0.008999999863581633,0
0.12291831523180008,-0.05220317468047142,9.928466796875,0.004100000020116568,-0.00930000003427267,0.10839999467134476,-0.01400000015835513,0.0019999999928448997,0.019999999511567335
0.12974658608436584,-0.0490524061024189,9.926820755004883,-0.00559999980032444,-0.009200000204145908,0.10839999467134476,-0.004999999877891834,0.009999999755783667,-0.019000000453128628
0.12974658608436584,-0.0490524061024189,9.926820755004883,0.013799999840557575,-0.009099999442696571,0.10839999467134476,-0.004999999877891834,0.009999999755783667,-0.019000000453128628
0.1226501613855362,-0.05333323776721954,9.94112777709961,0.003999999724328518,-0.008999999612569809,0.12799999117851257,-0.02800000031671026,-0.021999999295971403,0.0019999999928448997
0.11129207164049149,-0.044321462512016296,9.919943809509277,-0.005699999630451202,0.000699999975040555,0.09860000014305115,-0.009999999755783667,0.006000000186975531,0.04600000004387353
0.1207156553864479,-0.05114014819264412,9.94117546081543,0.003999999724328518,-0.008899999782443047,0.12799999117851257,-0.023000000021936765,-0.014999999216793838,0.013000000266153095
0.10590033233165741,-0.045767560601234436,9.924521446228027,-0.005699999630451202,0.0008999999845400453,0.10839999467134476,0.0030000000934877653,0.013000000266153095,-0.007999999971379599
0.1082945317029953,-0.058284446597099304,9.948942184448242,-0.00559999980032444,-0.01850000023841858,0.12799999117851257,0.02899999937514897,0.01700000066872456,0.0269999995907449
0.11640609055757523,-0.0438426211476326,9.942841529846191,0.00419999985024333,0.0008999999845400453,0.12799999117851257,0.01700000066872456,0.0019999999928448997,0.03400000133744912
0.11155064404010773,-0.04848737269639969,9.939720153808594,-0.005499999970197678,-0.008700000122189522,0.11819999665021896,0.02800000031671026,0.0269999995907449,-0.013000000266153095
0.12468045204877853,-0.03978205472230911,9.935237884521484,0.004299999680370092,0.0008999999845400453,0.11819999665021896,-0.0030000000934877653,0.03400000133744912,-0.043999998591942806
0.12257354706525803,-0.05006754770874977,9.946884155273438,0.014099999330937862,0.0008999999845400453,0.11819999665021896,0.02899999937514897,0.0030000000934877653,-0.05300000012305109
0.11439495533704758,-0.05025908350944519,9.936387062072754,0.004299999680370092,-0.008799999952316284,0.12799999117851257,0.0039999999856897995,0.0009999999964224499,0.06200000165415938
0.12249693274497986,-0.044350191950798035,9.9215726852417,-0.005399999674409628,-0.008799999952316284,0.11819999665021896,0.029999998433587676,0.014999999216793838,0.019999999511567335
0.12464214116334915,-0.049751508980989456,9.933389663696289,0.004299999680370092,0.0008999999845400453,0.10839999467134476,0.03699999851276524,-0.007999999971379599,0.03599999945432653
0.12074437737464905,-0.052595820277929306,9.94118595123291,0.00419999985024333,-0.008799999952316284,0.12799999117851257,0.008999999863581633,0.0030000000934877653,0.006000000186975531
0.12074437737464905,-0.052595820277929306,9.94118595123291,0.00419999985024333,-0.008799999952316284,0.12799999117851257,0.008999999863581633,0.0030000000934877653,0.006000000186975531
0.12486240267753601,-0.058610059320926666,9.93882942199707,0.013799999840557575,-0.01850000023841858,0.11819999665021896,0.023000000021936765,0.03899999996469596,-0.01700000066872456
0.113523468375206,-0.052480898797512054,9.942047119140625,-0.005499999970197678,-0.008700000122189522,0.12799999117851257,-0.021999999295971403,0.019999999511567335,0.04900000055424296
0.1300051510334015,-0.043995849788188934,9.937891006469727,0.0139999995008111,0.0009999999310821295,0.11819999665021896,0.05600000063342052,0.013000000266153095,-0.0009999999964224499
0.12158713489770889,-0.04980897158384323,9.935956001281738,0.00419999985024333,-0.008700000122189522,0.11819999665021896,0.03599999945432653,0.0030000000934877653,0.0539999991814898
0.11442369222640991,-0.0396958664059639,9.946232795715332,-0.005499999970197678,0.0008999999845400453,0.12799999117851257,-0.024999999806340833,0.007000000079177565,-0.03899999996469596
0.11945150792598724,-0.04996220022439957,9.92634105682373,0.00419999985024333,-0.008700000122189522,0.10839999467134476,-0.013000000266153095,0.007999999971379599,0.0009999999964224499
0.11700942367315292,-0.05294058471918106,9.936616897583008,0.00419999985024333,-0.008599999360740185,0.11819999665021896,0.007999999971379599,0.0019999999928448997,0.03899999996469596
0.12648089230060577,-0.0499909333884716,9.928916931152344,0.013899999670684338,-0.008499999530613422,0.10839999467134476,-0.021999999295971403,0,0.007000000079177565
0.11765106767416,-0.05271074175834656,9.941032409667969,0.004100000020116568,-0.00839999970048666,0.12799999117851257,0.02800000031671026,0.0030000000934877653,0.048000001495804245
0.1168370470404625,-0.04902367293834686,9.926973342895508,0.004100000020116568,-0.00839999970048666,0.10839999467134476,0.019000000453128628,0.02899999937514897,0.02899999937514897
0.12896127998828888,-0.04636131972074509,9.929290771484375,0.013799999840557575,0.0013000000035390258,0.10839999467134476,0.015999999942759198,0.021000000237532696,0.04500000098543482
0.11813949048519135,-0.03035847656428814,9.93735408782959,0.003999999724328518,0.010900000110268593,0.11819999665021896,0.0019999999928448997,0.008999999863581633,0.02600000053230619
0.11400230973958969,-0.042521022260189056,9.933993339538574,-0.00559999980032444,0.0010999999940395355,0.11819999665021896,0.01700000066872456,-0.009999999755783667,0.01700000066872456
0.1193174347281456,-0.04956955462694168,9.940016746520996,0.004100000020116568,-0.008599999360740185,0.11819999665021896,0.0009999999964224499,0.029999998433587676,0.05999999686717535
0.10801680386066437,-0.04281790181994438,9.929950714111328,-0.005499999970197678,0.0010999999940395355,0.10839999467134476,0.0019999999928448997,-0.0030000000934877653,0.048000001495804245
0.12870271503925323,-0.06537128239870071,9.931962966918945,-0.005399999674409628,-0.008499999530613422,0.11819999665021896,0.015999999942759198,0.0030000000934877653,0.012000000373951061
0.11639650911092758,-0.043900080025196075,9.94776439666748,0.0139999995008111,-0.018199998885393143,0.11819999665021896,0.009999999755783667,0.0019999999928448997,-0.09500000059811649
0.12101252377033234,-0.04423527047038078,9.922405242919922,0.00419999985024333,0.0011999999405816197,0.12799999117851257,-0.03100000082707969,0.0030000000934877653,-0.041000001416626686
0.12101252377033234,-0.04423527047038078,9.922405242919922,0.004100000020116568,0.0013000000035390258,0.10839999467134476,-0.03100000082707969,0.0030000000934877653,-0.041000001416626686
0.12160629034042358,-0.05642654374241829,9.929472923278809,0.004100000020116568,0.0013000000035390258,0.11819999665021896,0.03599999945432653,-0.021000000237532696,-0.014999999216793838
0.1232151910662651,-0.05731718987226486,9.942526817321777,0.004100000020116568,-0.008299999870359898,0.10839999467134476,-0.046999999102312236,0.03599999945432653,0.009999999755783667
0.12370361387729645,-0.04246356338262558,9.938436508178711,0.003999999724328518,0.001500000013038516,0.11819999665021896,0,0.017999999727163266,-0.03899999996469596
0.11477802693843842,-0.03670790046453476,9.942334175109863,-0.005499999970197678,0.01119999960064888,0.12799999117851257,0.03400000133744912,0.02899999937514897,0.01400000015835513
0.11834059655666351,-0.04158249497413635,9.937929153442383,0.00419999985024333,0.0011999999405816197,0.11819999665021896,0.0019999999928448997,0.019999999511567335,0.048000001495804245
0.13643118739128113,-0.04929182305932045,9.938101768493652,0.02369999885559082,-0.00839999970048666,0.11819999665021896,0.10100000161885533,0.049999999612681666,0.07900000232288394
0.11367669701576233,-0.03818272799253464,9.945342063903809,-0.005399999674409628,0.010699999518692493,0.12799999117851257,0.03599999945432653,0.019999999511567335,-0.004999999877891834
0.10654197633266449,-0.04412992298603058,9.937995910644531,-0.0052999998442828655,0.0007999999797903001,0.11819999665021896,0.0539999991814898,-0.013000000266153095,0.04500000098543482
0.11470141261816025,-0.06114790961146355,9.95856761932373,-0.0052999998442828655,-0.018699999898672104,0.13779999315738678,0.04500000098543482,0.023000000021936765,0.05600000063342052
0.12292789667844772,-0.05604347214102745,9.943071365356445,0.004399999976158142,-0.008999999612569809,0.12799999117851257,0.019999999511567335,0.0030000000934877653,-0.0030000000934877653
0.11753614991903305,-0.04929182305932045,9.935112953186035,0.004399999976158142,-0.008899999782443047,0.11819999665021896,0.008999999863581633,-0.0019999999928448997,-0.09600000299160849
0.120399609208107,-0.0423007532954216,9.947908401489258,0.004399999976158142,0.000699999975040555,0.12799999117851257,0.02800000031671026,0.06700000028140622,0.04600000004387353
0.10762415081262589,-0.04193683713674545,9.936655044555664,-0.0050999997183680534,0.000699999975040555,0.11819999665021896,0.007000000079177565,0.03899999996469596,0
0.11514194309711456,-0.0420709103345871,9.948989868164062,0.004699999932199717,0.0005999999702908099,0.12799999117851257,0.03599999945432653,0.007000000079177565,0.05200000106461238
0.1129009798169136,-0.04592078924179077,9.936713218688965,-0.004999999888241291,-0.018799999728798866,0.12799999117851257,0.0030000000934877653,-0.023000000021936765,0.04900000055424296
0.10435846447944641,-0.050412312150001526,9.918450355529785,-0.004799999762326479,0.0005999999702908099,0.11819999665021896,0.004999999877891834,-0.01400000015835513,0.02600000053230619
0.11799583584070206,-0.03805823251605034,9.928811073303223,-0.014499999582767487,-0.008999999612569809,0.09860000014305115,-0.02600000053230619,0.0009999999964224499,-0.04600000004387353
0.11461522430181503,-0.04807556793093681,9.935898780822754,-0.004699999932199717,-0.008999999612569809,0.11819999665021896,0.012000000373951061,0.014999999216793838,0.02899999937514897
0.10199299454689026,-0.03664086014032364,9.940247535705566,-0.004699999932199717,-0.008999999612569809,0.11819999665021896,0.015999999942759198,-0.004999999877891834,-0.017999999727163266
0.1129201278090477,-0.051168881356716156,9.939949989318848,-0.0044999998062849045,-0.009099999442696571,0.11819999665021896,0.0269999995907449,0.010999999647985701,0.04600000004387353
0.12011231482028961,-0.047500960528850555,9.933733940124512,0.005200000014156103,0.0004999999655410647,0.11819999665021896,-0.0030000000934877653,0.0039999999856897995,0.03400000133744912
0.10989385843276978,-0.04343082010746002,9.939910888671875,0.005200000014156103,0.0004999999655410647,0.11819999665021896,0.009999999755783667,0.0039999999856897995,0.010999999647985701
0.1186087504029274,-0.043143514543771744,9.934557914733887,0.005200000014156103,0.0004999999655410647,0.11819999665021896,0.0039999999856897995,0.0030000000934877653,0.008999999863581633
0.11812033504247665,-0.055679552257061005,9.932278633117676,0.005200000014156103,-0.009099999442696571,0.11819999665021896,0.010999999647985701,0.004999999877891834,0.038000000906257256
0.11251790821552277,-0.050488926470279694,9.941826820373535,-0.004399999976158142,-0.009099999442696571,0.12799999117851257,0.03899999996469596,0.046999999102312236,0.04600000004387353
0.12506352365016937,-0.037761349231004715,9.948492050170898,0.015099999494850636,0.010199999436736107,0.12799999117851257,0.017999999727163266,0.0030000000934877653,-0.06399999977103679
0.11549629271030426,-0.038661569356918335,9.93925952911377,0.0052999998442828655,0.00029999998514540493,0.11819999665021896,0.006000000186975531,0.05200000106461238,0.01700000066872456
0.1228608563542366,-0.056455276906490326,9.940964698791504,0.005399999674409628,-0.00930000003427267,0.12799999117851257,-0.008999999863581633,0.02899999937514897,0.04500000098543482
0.11263282597064972,-0.03442861884832382,9.943828582763672,-0.00419999985024333,0.010099999606609344,0.12799999117851257,0.014999999216793838,0,0.03599999945432653
0.12016019225120544,-0.03708139434456825,9.92994213104248,0.005499999970197678,0.009999999776482582,0.10839999467134476,0.06800000267489824,-0.03400000133744912,-0.01400000015835513
0.11358092725276947,-0.05583278089761734,9.934806823730469,-0.004299999680370092,-0.009599999524652958,0.11819999665021896,-0.012000000373951061,0.013000000266153095,0.03599999945432653
0.11807245016098022,-0.03964798152446747,9.942343711853027,0.005399999674409628,0.00009999999747378752,0.12799999117851257,0.004999999877891834,0.0009999999964224499,-0.05200000106461238
0.12242031842470169,-0.030482977628707886,9.932422637939453,0.005399999674409628,0.009800000116229057,0.11819999665021896,0.007999999971379599,0.023000000021936765,0.07699999753589991
0.11335108429193497,-0.039322368800640106,9.938178062438965,-0.00419999985024333,0,0.11819999665021896,0.03100000082707969,0.015999999942759198,0.023000000021936765
0.12735237181186676,-0.04156334325671196,9.950512886047363,0.015199999324977398,0,0.13779999315738678,0.02899999937514897,0.0039999999856897995,0.0429999995335041
0.11450988054275513,-0.04685931280255318,9.928227424621582,-0.00419999985024333,-0.00009999999747378752,0.10839999467134476,0.07399999702553048,0.0009999999964224499,0.06800000267489824
0.12364615499973297,-0.047386039048433304,9.942094802856445,0.005499999970197678,-0.00029999998514540493,0.12799999117851257,0.08100000043976135,0,0.07000000079177565
0.11452902853488922,-0.054875101894140244,9.948310852050781,-0.00419999985024333,-0.010199999436736107,0.12799999117851257,-0.006000000186975531,0.0030000000934877653,0.0039999999856897995
0.11201032996177673,-0.05283524468541145,9.946290016174316,-0.004100000020116568,-0.010099999606609344,0.12799999117851257,0.010999999647985701,0.0030000000934877653,0.023000000021936765
0.11948981136083603,-0.0408833883702755,9.944297790527344,0.00559999980032444,-0.00039999998989515007,0.12799999117851257,0.03100000082707969,0.019999999511567335,0.05600000063342052
0.12269805371761322,-0.045939940959215164,9.949468612670898,0.00559999980032444,-0.0004999999655410647,0.12799999117851257,-0.006000000186975531,0.006000000186975531,0.06299999737754478
0.1163581982254982,-0.05038357898592949,9.93250846862793,0.00559999980032444,-0.010199999436736107,0.11819999665021896,0.05900000114378995,0.021000000237532696,-0.01400000015835513
0.1048756092786789,-0.0456143319606781,9.930200576782227,-0.013799999840557575,-0.0005999999702908099,0.10839999467134476,-0.008999999863581633,0.0009999999964224499,0.031999999885518396
0.1048756092786789,-0.0456143319606781,9.930200576782227,-0.013799999840557575,-0.0005999999702908099,0.10839999467134476,-0.008999999863581633,0.0009999999964224499,0.031999999885518396
0.10754753649234772,-0.05313212424516678,9.942066192626953,-0.0038999998942017555,-0.010300000198185444,0.12799999117851257,0.057000003026912535,0.006000000186975531,-0.031999999885518396
0.11768937855958939,-0.048382025212049484,9.934433937072754,0.005699999630451202,-0.010199999436736107,0.11819999665021896,-0.013000000266153095,0.013000000266153095,-0.007999999971379599
0.12284170091152191,-0.053610965609550476,9.951576232910156,0.005699999630451202,-0.010099999606609344,0.13779999315738678,-0.008999999863581633,0.015999999942759198,0.031999999885518396
0.13028287887573242,-0.05157110467553139,9.94922924041748,0.01549999974668026,-0.009999999776482582,0.12799999117851257,0.0009999999964224499,-0.01400000015835513,0.02899999937514897
0.12067734450101852,-0.05753745511174202,9.934050559997559,0.00559999980032444,-0.019600000232458115,0.11819999665021896,0.035000000395887826,-0.024999999806340833,-0.012000000373951061
0.12145306169986725,-0.04347870126366615,9.930832862854004,0.005499999970197678,-0.00009999999747378752,0.10839999467134476,0.03899999996469596,-0.021999999295971403,-0.09600000299160849
0.11716265231370926,-0.038422148674726486,9.950072288513184,0.005399999674409628,-0.00019999999494757503,0.12799999117851257,-0.0019999999928448997,0.006000000186975531,-0.0019999999928448997
0.12051453441381454,-0.05326620116829872,9.940170288085938,0.005399999674409628,-0.009999999776482582,0.11819999665021896,-0.007000000079177565,0.0019999999928448997,-0.043999998591942806
0.11657846719026566,-0.03376782312989235,9.93887710571289,0.0052999998442828655,0.009499999694526196,0.11819999665021896,0.02899999937514897,0.014999999216793838,0.019000000453128628
0.11495999246835709,-0.05602432042360306,9.950570106506348,0.005399999674409628,-0.009999999776482582,0.13779999315738678,0.029999998433587676,0.0030000000934877653,-0.0429999995335041
0.11714350432157516,-0.05510494485497475,9.939786911010742,0.0052999998442828655,-0.009999999776482582,0.11819999665021896,0,-0.021999999295971403,0.02600000053230619
0.11686577647924423,-0.041055772453546524,9.94597339630127,0.005200000014156103,-0.00019999999494757503,0.12799999117851257,0.013000000266153095,0.0019999999928448997,0.03100000082707969
0.11804372072219849,-0.04549941048026085,9.942180633544922,0.005200000014156103,-0.00029999998514540493,0.12799999117851257,0.024000000747902123,0.048000001495804245,0.09500000059811649
0.12658622860908508,-0.044848185032606125,9.940600395202637,0.014999999664723873,-0.00029999998514540493,0.11819999665021896,-0.03100000082707969,-0.0009999999964224499,-0.06800000267489824
0.1126902848482132,-0.051360417157411575,9.946691513061523,-0.004399999976158142,-0.009999999776482582,0.12799999117851257,0.021999999295971403,0.008999999863581633,0.03100000082707969
0.11843637377023697,-0.058332327753305435,9.944403648376465,0.0052999998442828655,-0.019700000062584877,0.12799999117851257,0.019999999511567335,0.024999999806340833,0.006000000186975531
0.11829271912574768,-0.05202121287584305,9.93228816986084,0.0052999998442828655,-0.00989999994635582,0.11819999665021896,-0.0030000000934877653,0.0030000000934877653,0.048000001495804245
0.11400230973958969,-0.04743392392992973,9.93429946899414,-0.004299999680370092,0,0.11819999665021896,0.01400000015835513,-0.0009999999964224499,0.019000000453128628
0.10992259532213211,-0.043421242386102676,9.93909740447998,-0.004299999680370092,-0.00009999999747378752,0.11819999665021896,0.004999999877891834,0.03899999996469596,0.04900000055424296
0.12719914317131042,-0.04752011597156525,9.95028305053711,0.015199999324977398,-0.00009999999747378752,0.12799999117851257,0.0030000000934877653,0.0039999999856897995,-0.01400000015835513
0.11035354435443878,-0.05132210999727249,9.930449485778809,-0.00419999985024333,-0.009800000116229057,0.10839999467134476,0.004999999877891834,0.02899999937514897,0.035000000395887826
0.10894575715065002,-0.039494749158620834,9.946117401123047,-0.004100000020116568,0,0.12799999117851257,0.0039999999856897995,0.004999999877891834,-0.024000000747902123
0.12269805371761322,-0.05658935010433197,9.947898864746094,0.00559999980032444,-0.009800000116229057,0.12799999117851257,-0.007000000079177565,-0.0329999989439571,-0.0269999995907449
0.11191456764936447,-0.04653370380401611,9.93838882446289,-0.00419999985024333,0,0.11819999665021896,0.007000000079177565,0.007000000079177565,-0.0030000000934877653
0.11700942367315292,-0.0482192225754261,9.964552879333496,0.005499999970197678,-0.00969999935477972,0.147599995136261,0.006000000186975531,0.019999999511567335,0.024999999806340833
0.11029607802629471,-0.05922297388315201,9.955521583557129,-0.004100000020116568,-0.01939999870955944,0.13779999315738678,0.05799999875029794,0.02899999937514897,0.04900000055424296
0.11060254275798798,-0.04083550348877907,9.930986404418945,-0.003999999724328518,0,0.10839999467134476,0.019999999511567335,-0.009999999755783667,0.019999999511567335
0.1104205846786499,-0.04426399990916252,9.952437400817871,-0.003999999724328518,0,0.13779999315738678,0.024999999806340833,0,0.03100000082707969
0.11868536472320557,-0.044704534113407135,9.945504188537598,0.005699999630451202,-0.00009999999747378752,0.12799999117851257,0.09500000059811649,0.007999999971379599,0.023000000021936765
0.11993992328643799,-0.045039720833301544,9.943243980407715,0.005699999630451202,-0.00039999998989515007,0.12799999117851257,0.05099999867112037,-0.03400000133744912,0.03999999902313467
0.10961613059043884,-0.06419333815574646,9.94962215423584,-0.003999999724328518,-0.019999999552965164,0.12799999117851257,0,0,-0.008999999863581633
0.10780611634254456,-0.0528448186814785,9.939356803894043,-0.003999999724328518,-0.010099999606609344,0.11819999665021896,0.0009999999964224499,0.0009999999964224499,0.019999999511567335
0.12225751578807831,-0.047903187572956085,9.93851375579834,0.005699999630451202,-0.009999999776482582,0.11819999665021896,0,0.03699999851276524,0.0539999991814898
0.12416329979896545,-0.04107492417097092,9.927720069885254,0.005699999630451202,-0.00019999999494757503,0.10839999467134476,0.0030000000934877653,0.0019999999928448997,-0.048000001495804245
0.10976935923099518,-0.040845081210136414,9.947046279907227,-0.0038999998942017555,-0.00019999999494757503,0.12799999117851257,0.021999999295971403,0.008999999863581633,-0.017999999727163266
0.1120869442820549,-0.0521361343562603,9.926743507385254,-0.0037999998312443495,-0.009999999776482582,0.10839999467134476,0.03400000133744912,0.03100000082707969,-0.007999999971379599
0.12378980219364166,-0.04998135194182396,9.93415641784668,0.0058999997563660145,-0.009999999776482582,0.11819999665021896,-0.012000000373951061,0.031999999885518396,-0.0019999999928448997
0.10832326859235764,-0.04848737269639969,9.929118156433105,-0.003700000001117587,-0.00989999994635582,0.10839999467134476,-0.046999999102312236,0.035000000395887826,0.0329999989439571
0.1129201278090477,-0.053898271173238754,9.936980247497559,-0.003499999875202775,-0.009599999524652958,0.11819999665021896,0.0019999999928448997,-0.049999999612681666,-0.05600000063342052
0.11277647316455841,-0.04620809108018875,9.93028736114502,-0.003599999938160181,0,0.10839999467134476,0.0039999999856897995,-0.0030000000934877653,0.012000000373951061
0.12397176027297974,-0.05258624628186226,9.933801651000977,0.006000000052154064,-0.009599999524652958,0.11819999665021896,0.04200000047506539,0.05799999875029794,0.008999999863581633
0.1163390502333641,-0.041697416454553604,9.932470321655273,0.006099999882280827,0,0.11819999665021896,-0.04500000098543482,0.0019999999928448997,0.02899999937514897
0.11929827928543091,-0.04947378486394882,9.94482421875,0.006099999882280827,-0.009499999694526196,0.12799999117851257,0.012000000373951061,0.009999999755783667,0.013000000266153095
0.1201506182551384,-0.04587290436029434,9.93921184539795,0.006099999882280827,0.00019999999494757503,0.11819999665021896,0.006000000186975531,-0.004999999877891834,0.04600000004387353
0.1222958192229271,-0.04606444016098976,9.945581436157227,0.006000000052154064,0.00009999999747378752,0.12799999117851257,0.006000000186975531,-0.0030000000934877653,0.019999999511567335
0.12476664036512375,-0.05382165685296059,9.956114768981934,0.015699999406933784,-0.009499999694526196,0.13779999315738678,-0.0019999999928448997,0.02800000031671026,0.01400000015835513
0.12148179858922958,-0.04732858017086983,9.945093154907227,0.006000000052154064,0.00019999999494757503,0.12799999117851257,0.0019999999928448997,0.03699999851276524,0.04900000055424296
0.11621455103158951,-0.0438426211476326,9.9413480758667,0.006000000052154064,0.00019999999494757503,0.12799999117851257,0.010999999647985701,-0.019000000453128628,-0.03400000133744912
0.10968316346406937,-0.04096957668662071,9.941644668579102,-0.003700000001117587,0.00009999999747378752,0.12799999117851257,-0.05999999686717535,0.023000000021936765,0.014999999216793838
0.11964304745197296,-0.043047744780778885,9.934185028076172,0.006099999882280827,0.00029999998514540493,0.11819999665021896,0.0030000000934877653,0.0019999999928448997,-0.014999999216793838
0.12554235756397247,-0.04656243696808815,9.942622184753418,0.006000000052154064,-0.00930000003427267,0.11819999665021896,0.0030000000934877653,0.0030000000934877653,-0.008999999863581633
0.12055283784866333,-0.03184288367629051,9.9391450881958,0.015699999406933784,0.00039999998989515007,0.12799999117851257,-0.02899999937514897,0,0.021000000237532696
0.12137644737958908,-0.055631671100854874,9.938791275024414,0.0058999997563660145,0.010099999606609344,0.11819999665021896,-0.006000000186975531,0.017999999727163266,0.0039999999856897995
0.12446975708007812,-0.04881298542022705,9.939786911010742,0.005799999926239252,-0.00930000003427267,0.11819999665021896,0.012000000373951061,-0.035000000395887826,-0.09600000299160849
0.12033258378505707,-0.043373361229896545,9.934816360473633,0.0058999997563660145,-0.009200000204145908,0.11819999665021896,0,-0.05300000012305109,-0.007000000079177565
0.11939404904842377,-0.05388868972659111,9.950943946838379,0.005499999970197678,-0.009099999442696571,0.13779999315738678,0.04500000098543482,0.0039999999856897995,-0.0019999999928448997
0.1210891455411911,-0.04865017533302307,9.939155578613281,0.005499999970197678,-0.009099999442696571,0.11819999665021896,0.02800000031671026,0.008999999863581633,0.021999999295971403
0.11402146518230438,-0.048640601336956024,9.931991577148438,-0.004100000020116568,-0.009099999442696571,0.11819999665021896,-0.03899999996469596,0.013000000266153095,0.0019999999928448997
0.12506352365016937,-0.060918066650629044,9.946337699890137,0.01529999915510416,-0.01860000006854534,0.12799999117851257,0.0039999999856897995,0.024999999806340833,0.007999999971379599
0.11959516257047653,-0.05125506967306137,9.952532768249512,0.005499999970197678,-0.008700000122189522,0.13779999315738678,0.015999999942759198,0,-0.05999999686717535
0.13217909634113312,-0.04206133633852005,9.948137283325195,0.015199999324977398,0.0009999999310821295,0.12799999117851257,-0.009999999755783667,0.0039999999856897995,0.017999999727163266
0.11190499365329742,-0.045959096401929855,9.951682090759277,-0.00419999985024333,0.0009999999310821295,0.13779999315738678,-0.007999999971379599,0.0030000000934877653,-0.04200000047506539
0.11835017800331116,-0.05338112264871597,9.924684524536133,0.005399999674409628,-0.00839999970048666,0.10839999467134476,0.07000000079177565,0.0429999995335041,0.021000000237532696
0.1214626356959343,-0.048286259174346924,9.94216251373291,0.005399999674409628,-0.00839999970048666,0.10839999467134476,-0.02800000031671026,0.05099999867112037,-0.023000000021936765
0.1214626356959343,-0.048286259174346924,9.94216251373291,0.005499999970197678,-0.008499999530613422,0.12799999117851257,-0.02800000031671026,0.05099999867112037,-0.023000000021936765
0.11179006099700928,-0.047098737210035324,9.953347206115723,-0.004100000020116568,0.0013000000035390258,0.13779999315738678,-0.02600000053230619,0.009999999755783667,-0.06700000028140622
0.11543882638216019,-0.05362053960561752,9.937517166137695,0.00559999980032444,-0.008200000040233135,0.11819999665021896,0.0030000000934877653,0.014999999216793838,-0.02800000031671026
0.11913547664880753,-0.05400361120700836,9.953194618225098,0.00559999980032444,-0.008100000210106373,0.13779999315738678,0.043999998591942806,-0.019000000453128628,0.024999999806340833
0.1206294521689415,-0.05031654238700867,9.938436508178711,0.005499999970197678,-0.008200000040233135,0.11819999665021896,0.0030000000934877653,0,0.029999998433587676
0.1206294521689415,-0.05031654238700867,9.938436508178711,0.005499999970197678,-0.008200000040233135,0.11819999665021896,0.0030000000934877653,0,0.029999998433587676
0.12163502722978592,-0.053189586848020554,9.939796447753906,0.005499999970197678,-0.008100000210106373,0.11819999665021896,0.0009999999964224499,-0.0030000000934877653,0
0.12068691849708557,-0.04752011597156525,9.947209358215332,0.005399999674409628,0.0015999999595806003,0.12799999117851257,0.06099999926066736,0.010999999647985701,0.024000000747902123
0.11763191968202591,-0.0414675734937191,9.941817283630371,0.005399999674409628,0.001500000013038516,0.12799999117851257,-0.01400000015835513,-0.01400000015835513,0.031999999885518396
0.10630255937576294,-0.04262636601924896,9.937344551086426,-0.004299999680370092,0.001500000013038516,0.11819999665021896,-0.009999999755783667,0.031999999885518396,0.06399999977103679
0.11541009694337845,-0.042339060455560684,9.933016777038574,0.005499999970197678,0.0015999999595806003,0.11819999665021896,-0.0030000000934877653,0.0269999995907449,0.01700000066872456
0.11291055381298065,-0.0409887321293354,9.94345474243164,0.005499999970197678,0.0015999999595806003,0.11819999665021896,0.023000000021936765,0.0039999999856897995,0.02600000053230619
0.12581050395965576,-0.058610059320926666,9.949966430664062,-0.004100000020116568,0.0015999999595806003,0.12799999117851257,0.021000000237532696,0.004999999877891834,-0.07999999804626934
0.11939404904842377,-0.050747498869895935,9.94172191619873,0.01529999915510416,-0.017799999564886093,0.12799999117851257,0.0030000000934877653,-0.008999999863581633,-0.05200000106461238
0.11541009694337845,-0.056694693863391876,9.943492889404297,0.005399999674409628,-0.007899999618530273,0.12799999117851257,-0.021999999295971403,-0.013000000266153095,0.0009999999964224499
0.11998781561851501,-0.0440724641084671,9.939614295959473,0.0052999998442828655,0.0018999999156221747,0.11819999665021896,0.023000000021936765,0.0019999999928448997,0.057000003026912535
0.11207737028598785,-0.0449056476354599,9.935802459716797,-0.004399999976158142,0.0017999999690800905,0.11819999665021896,0.012000000373951061,0.03699999851276524,0.023000000021936765
0.11761276423931122,-0.04284663498401642,9.923218727111816,0.005399999674409628,0.0017999999690800905,0.10839999467134476,0.009999999755783667,0.015999999942759198,0.0269999995907449
0.11746910959482193,-0.035577837377786636,9.934538841247559,0.005399999674409628,0.011500000022351742,0.11819999665021896,0.0539999991814898,0.007000000079177565,0.015999999942759198
0.11627200990915298,-0.04628470540046692,9.936827659606934,0.005399999674409628,0.001500000013038516,0.11819999665021896,-0.0429999995335041,0.0030000000934877653,-0.08299999855663877
0.10547894984483719,-0.026317063719034195,9.920584678649902,-0.004299999680370092,0.0210999995470047,0.09860000014305115,0.021999999295971403,0.004999999877891834,-0.04200000047506539
0.1285494863986969,-0.039140406996011734,9.943004608154297,0.015199999324977398,0.00139999995008111,0.12799999117851257,0.004999999877891834,0,0.013000000266153095
0.11701900511980057,-0.03229299187660217,9.934309005737305,0.0052999998442828655,0.011099999770522118,0.11819999665021896,0.009999999755783667,-0.015999999942759198,-0.0030000000934877653
0.11701900511980057,-0.055679552257061005,9.9403715133667,0.005200000014156103,-0.008299999870359898,0.11819999665021896,0.019999999511567335,0.0030000000934877653,-0.01400000015835513
0.120275117456913,-0.0462176688015461,9.928008079528809,0.005200000014156103,0.0013000000035390258,0.10839999467134476,0.010999999647985701,-0.004999999877891834,0.05300000012305109
0.11158894747495651,-0.06089891493320465,9.94624137878418,0.0050999997183680534,0.0013000000035390258,0.12799999117851257,-0.02800000031671026,-0.012000000373951061,0.03400000133744912
0.1283387839794159,-0.04836287349462509,9.942381858825684,-0.004600000102072954,-0.017999999225139618,0.12799999117851257,0.0019999999928448997,0.012000000373951061,0.024000000747902123
0.1283387839794159,-0.04836287349462509,9.942381858825684,0.01489999983459711,-0.008100000210106373,0.12799999117851257,0.0019999999928448997,0.012000000373951061,0.024000000747902123
0.11547713726758957,-0.057642798870801926,9.93930721282959,0.0050999997183680534,0.0015999999595806003,0.12799999117851257,0.02800000031671026,0.024000000747902123,0.057000003026912535
0.11547713726758957,-0.057642798870801926,9.93930721282959,0.0050999997183680534,-0.017799999564886093,0.11819999665021896,0.0019999999928448997,0.0039999999856897995,-0.010999999647985701
0.11292970180511475,-0.05139872431755066,9.93736457824707,0.004999999888241291,-0.007899999618530273,0.12799999117851257,0.004999999877891834,-0.0009999999964224499,-0.09000000197086964
0.11847467720508575,-0.05938578024506569,9.937459945678711,-0.004399999976158142,-0.007899999618530273,0.11819999665021896,0.007000000079177565,-0.009999999755783667,-0.019999999511567335
0.11668381839990616,-0.050364427268505096,9.94051456451416,0.0052999998442828655,-0.017500000074505806,0.11819999665021896,0.06399999977103679,-0.004999999877891834,0.015999999942759198
0.11331277340650558,-0.04618893936276436,9.939767837524414,0.005200000014156103,-0.007599999662488699,0.11819999665021896,0.0030000000934877653,0.007000000079177565,0.009999999755783667
0.11923124641180038,-0.05270116776227951,9.942008972167969,-0.0044999998062849045,0.0018999999156221747,0.11819999665021896,0.0019999999928448997,0.013000000266153095,-0.017999999727163266
0.10859141498804092,-0.050536807626485825,9.953807830810547,0.005200000014156103,-0.007699999958276749,0.12799999117851257,0.0019999999928448997,-0.009999999755783667,0.019000000453128628
0.11416511237621307,-0.04589205980300903,9.939346313476562,-0.004399999976158142,0.002099999925121665,0.11819999665021896,0.024000000747902123,-0.0019999999928448997,-0.009999999755783667
0.11567824333906174,-0.05499960482120514,9.937249183654785,0.0052999998442828655,-0.007599999662488699,0.11819999665021896,-0.006000000186975531,-0.013000000266153095,-0.0539999991814898
0.12456552684307098,-0.049732357263565063,9.941242218017578,0.0052999998442828655,-0.007599999662488699,0.11819999665021896,0.01400000015835513,0.006000000186975531,0.02600000053230619
0.12276508659124374,-0.04410119727253914,9.946911811828613,0.0050999997183680534,0.002199999988079071,0.12799999117851257,0.03899999996469596,-0.043999998591942806,-0.014999999216793838
0.12216175347566605,-0.0457388311624527,9.941530227661133,0.004999999888241291,0.002099999925121665,0.12799999117851257,0.009999999755783667,-0.048000001495804245,-0.043999998591942806
0.10441592335700989,-0.05591897666454315,9.94798469543457,-0.014599999412894249,-0.007599999662488699,0.12799999117851257,0.04500000098543482,0.0009999999964224499,-0.010999999647985701
0.10183018445968628,-0.049722783267498016,9.949871063232422,-0.014399999752640724,-0.007599999662488699,0.12799999117851257,0.009999999755783667,0.029999998433587676,-0.03999999902313467
0.11426088213920593,-0.03521391749382019,9.936521530151367,-0.0044999998062849045,0.011799999512732029,0.11819999665021896,0.0009999999964224499,0,0.004999999877891834
0.12170206755399704,-0.04474284127354622,9.94743824005127,0.005200000014156103,0.001999999862164259,0.12799999117851257,0.046999999102312236,0.008999999863581633,0.024999999806340833
0.12249693274497986,-0.04876509681344032,9.951709747314453,0.005200000014156103,-0.007799999788403511,0.13779999315738678,0.0030000000934877653,0.0019999999928448997,-0.010999999647985701
0.12450806796550751,-0.04509718343615532,9.936846733093262,0.014800000004470348,0.0018999999156221747,0.11819999665021896,-0.023000000021936765,0.004999999877891834,-0.03100000082707969
0.1258392482995987,-0.036966472864151,9.939241409301758,0.014699999243021011,0.011699999682605267,0.11819999665021896,0.008999999863581633,-0.013000000266153095,0.009999999755783667
0.11888648569583893,-0.04431188479065895,9.935985565185547,0.004900000058114529,0.0018999999156221747,0.11819999665021896,0.010999999647985701,-0.004999999877891834,-0.007000000079177565
0.12385684251785278,-0.04876509681344032,9.934242248535156,0.004799999762326479,-0.007799999788403511,0.11819999665021896,-0.043999998591942806,0.017999999727163266,-0.008999999863581633
0.1321120411157608,-0.04801810905337334,9.93005657196045,0.014499999582767487,-0.007599999662488699,0.10839999467134476,-0.02600000053230619,-0.015999999942759198,-0.02800000031671026
0.11591766774654388,-0.04762545973062515,9.945331573486328,0.004699999932199717,0.002199999988079071,0.12799999117851257,0.0039999999856897995,0.03400000133744912,-0.07199999890865307
0.11766064167022705,-0.03791457787156105,9.953310012817383,0.004799999762326479,0.011899999342858791,0.13779999315738678,-0.0039999999856897995,0.0009999999964224499,-0.024000000747902123
0.11520898342132568,-0.04416823014616966,9.939901351928711,0.004799999762326479,0.002099999925121665,0.11819999665021896,0.02899999937514897,-0.049999999612681666,0.004999999877891834
0.11938447505235672,-0.04521210491657257,9.94825267791748,0.004600000102072954,0.001999999862164259,0.12799999117851257,-0.007999999971379599,-0.0019999999928448997,-0.010999999647985701
0.11608047783374786,-0.05091987922787666,9.949775695800781,0.004600000102072954,-0.007599999662488699,0.12799999117851257,-0.021999999295971403,0.0009999999964224499,-0.015999999942759198
0.11345642805099487,-0.05220317468047142,9.94727611541748,0.004600000102072954,-0.007599999662488699,0.12799999117851257,-0.007999999971379599,-0.0030000000934877653,-0.06500000216452881
0.11379161477088928,-0.04739561676979065,9.945466041564941,-0.004999999888241291,0.002300000051036477,0.12799999117851257,-0.021000000237532696,0.019999999511567335,-0.05099999867112037
0.12094549834728241,-0.06632896512746811,9.94607925415039,0.004699999932199717,-0.016999999061226845,0.12799999117851257,-0.021000000237532696,-0.021999999295971403,-0.03999999902313467
0.11713392287492752,-0.04239652305841446,9.941760063171387,0.004600000102072954,0.0026000000070780516,0.12799999117851257,-0.007999999971379599,0.012000000373951061,-0.021999999295971403
0.12331096827983856,-0.046102747321128845,9.93610954284668,0.004600000102072954,0.0026000000070780516,0.11819999665021896,0.017999999727163266,-0.019999999511567335,0.0269999995907449
0.12181698530912399,-0.048468220978975296,9.949516296386719,0.0044999998062849045,-0.0071000000461936,0.12799999117851257,0.02800000031671026,-0.007000000079177565,0.05300000012305109
0.11724884808063507,-0.049847278743982315,9.946873664855957,0.0044999998062849045,-0.0071000000461936,0.12799999117851257,0.004999999877891834,-0.029999998433587676,0.04200000047506539
0.1079401895403862,-0.041601650416851044,9.928046226501465,-0.005200000014156103,0.0026000000070780516,0.10839999467134476,-0.02899999937514897,0.017999999727163266,0.05499999823992851
0.1088978722691536,-0.03704308718442917,9.938417434692383,-0.0050999997183680534,0.012399999424815178,0.11819999665021896,-0.021999999295971403,0.013000000266153095,0.0429999995335041
0.11272858828306198,-0.03348051756620407,9.930669784545898,-0.004999999888241291,0.012399999424815178,0.10839999467134476,-0.05099999867112037,0.006000000186975531,-0.0329999989439571
0.11172302812337875,-0.06044880300760269,9.938455581665039,-0.004999999888241291,-0.016599999740719795,0.11819999665021896,-0.02899999937514897,0.0039999999856897995,-0.0269999995907449
0.11245086789131165,-0.04118984565138817,9.946892738342285,-0.004900000058114529,0.003000000026077032,0.12799999117851257,-0.021000000237532696,0.009999999755783667,-0.013000000266153095
0.12541785836219788,-0.04024174064397812,9.94962215423584,0.014499999582767487,0.003000000026077032,0.12799999117851257,-0.015999999942759198,-0.024999999806340833,-0.008999999863581633
0.11565909534692764,-0.050393156707286835,9.932058334350586,0.004600000102072954,-0.006599999964237213,0.11819999665021896,0.0429999995335041,0.019999999511567335,0.0039999999856897995
0.11058338731527328,-0.04947378486394882,9.942985534667969,-0.004999999888241291,-0.006599999964237213,0.12799999117851257,-0.05099999867112037,0.008999999863581633,-0.08700000146050021
0.12036130577325821,-0.047098737210035324,9.93606185913086,0.004699999932199717,0.0031999999191612005,0.11819999665021896,-0.0019999999928448997,-0.008999999863581633,-0.07300000130214508
0.114442840218544,-0.05077622830867767,9.942879676818848,-0.004999999888241291,-0.006399999838322401,0.12799999117851257,0.024999999806340833,0.014999999216793838,0.049999999612681666
0.12047622352838516,-0.03663128614425659,9.95163345336914,0.004699999932199717,0.012999999336898327,0.13779999315738678,0.021999999295971403,-0.0019999999928448997,0.0039999999856897995
0.1258392482995987,-0.04006936028599739,9.933399200439453,0.014399999752640724,0.0030999998562037945,0.11819999665021896,0.043999998591942806,0.03599999945432653,0.021000000237532696
0.12956462800502777,-0.03919786959886551,9.936837196350098,0.014399999752640724,0.003000000026077032,0.11819999665021896,-0.024999999806340833,-0.0009999999964224499,-0.20200000323771067
0.1139640063047409,-0.04831499233841896,9.927346229553223,-0.0050999997183680534,-0.006599999964237213,0.10839999467134476,-0.014999999216793838,-0.0030000000934877653,0.029999998433587676
0.11539094895124435,-0.046265553683042526,9.926407814025879,0.004600000102072954,0.0031999999191612005,0.10839999467134476,0.009999999755783667,-0.0030000000934877653,-0.0269999995907449
0.11890563368797302,-0.038259342312812805,9.943368911743164,0.004600000102072954,0.012899999506771564,0.12799999117851257,0.0009999999964224499,-0.07399999702553048,-0.02800000031671026
0.11616666615009308,-0.05287355184555054,9.9309663772583,0.004299999680370092,-0.006599999964237213,0.10839999467134476,0.017999999727163266,-0.02899999937514897,0.03100000082707969
0.11055465787649155,-0.04412034898996353,9.955578804016113,-0.005399999674409628,0.0030999998562037945,0.13779999315738678,-0.009999999755783667,-0.0019999999928448997,-0.04900000055424296
0.120399609208107,-0.045346178114414215,9.942497253417969,0.004299999680370092,0.0030999998562037945,0.12799999117851257,0.0009999999964224499,0.01700000066872456,0.0329999989439571
0.12337800115346909,-0.047146622091531754,9.936013221740723,0.004399999976158142,0.0030999998562037945,0.11819999665021896,-0.007999999971379599,0.013000000266153095,0.01700000066872456
0.11282436549663544,-0.05043146386742592,9.932297706604004,-0.005200000014156103,-0.0064999996684491634,0.11819999665021896,-0.0039999999856897995,-0.035000000395887826,-0.024999999806340833
0.11736376583576202,-0.03955221176147461,9.939231872558594,0.004299999680370092,0.0031999999191612005,0.11819999665021896,0.009999999755783667,-0.012000000373951061,-0.035000000395887826
0.12531252205371857,-0.05045061931014061,9.944106101989746,0.0139999995008111,-0.0064999996684491634,0.12799999117851257,0.023000000021936765,0.024999999806340833,-0.0030000000934877653
0.117066890001297,-0.03960009664297104,9.949411392211914,0.00419999985024333,0.0030999998562037945,0.12799999117851257,-0.007999999971379599,0.007999999971379599,0.004999999877891834
0.10393708199262619,-0.05182967707514763,9.936683654785156,-0.015099999494850636,-0.0064999996684491634,0.11819999665021896,-0.019999999511567335,0.01700000066872456,0.012000000373951061
0.12118491530418396,-0.05708734691143036,9.951949119567871,0.004399999976158142,-0.006300000008195639,0.13779999315738678,0.015999999942759198,-0.007999999971379599,0.04500000098543482
0.11548671126365662,-0.04542279615998268,9.946691513061523,0.004399999976158142,0.0032999999821186066,0.12799999117851257,0,0.01400000015835513,0.007000000079177565
0.1221521645784378,-0.03283886983990669,9.952170372009277,0.004399999976158142,0.013100000098347664,0.13779999315738678,-0.14900000311465958,0,-0.08200000283325337
0.1195664256811142,-0.05033569782972336,9.938360214233398,0.004299999680370092,-0.006000000052154064,0.11819999665021896,0.004999999877891834,-0.010999999647985701,0.013000000266153095
0.12395261228084564,-0.05244259163737297,9.94575309753418,0.004299999680370092,-0.006000000052154064,0.12799999117851257,0.06700000028140622,0.0030000000934877653,0.038000000906257256
0.12187444418668747,-0.04141968861222267,9.923611640930176,0.004299999680370092,0.003499999875202775,0.10839999467134476,-0.013000000266153095,-0.023000000021936765,-0.0039999999856897995
0.12549448013305664,-0.053898271173238754,9.932546615600586,0.013899999670684338,-0.006099999882280827,0.11819999665021896,0.0009999999964224499,0.021999999295971403,0.049999999612681666
0.11763191968202591,-0.04900452122092247,9.94215202331543,0.004100000020116568,-0.006000000052154064,0.12799999117851257,-0.0019999999928448997,0.004999999877891834,0
0.1194227859377861,-0.050747498869895935,9.928352355957031,0.004100000020116568,-0.0058999997563660145,0.10839999467134476,0.006000000186975531,-0.0030000000934877653,0.015999999942759198
0.12520717084407806,-0.04752969369292259,9.945456504821777,0.013799999840557575,0.0037999998312443495,0.12799999117851257,-0.013000000266153095,-0.0039999999856897995,-0.02600000053230619
0.11542925238609314,-0.04796064645051956,9.953835487365723,0.003999999724328518,-0.005799999926239252,0.1378999948501587,0.012000000373951061,0.021000000237532696,0.019000000453128628
0.12767799198627472,-0.04362235590815544,9.950303077697754,0.013700000010430813,0.0037999998312443495,0.1378999948501587,0.0039999999856897995,-0.006000000186975531,0.024000000747902123
0.12567643821239471,-0.04078762233257294,9.942381858825684,0.013599999248981476,0.0037999998312443495,0.12799999117851257,-0.015999999942759198,0.007999999971379599,-0.03100000082707969
0.12072522938251495,-0.03817315399646759,9.935688018798828,0.0037999998312443495,0.013599999248981476,0.11819999665021896,0.0019999999928448997,-0.024000000747902123,-0.03999999902313467
0.11820653080940247,-0.060726530849933624,9.937067031860352,0.003700000001117587,-0.015599999576807022,0.11819999665021896,0.007999999971379599,0.021000000237532696,-0.0019999999928448997
0.12068691849708557,-0.03810611367225647,9.930008888244629,0.003700000001117587,0.013599999248981476,0.10839999467134476,-0.06099999926066736,-0.021999999295971403,0.013000000266153095
0.11735418438911438,-0.04768292233347893,9.945302963256836,0.003599999938160181,0.0038999998942017555,0.12799999117851257,0.021000000237532696,0.04200000047506539,0.015999999942759198
0.11952812224626541,-0.040366239845752716,9.94762134552002,0.003700000001117587,0.0038999998942017555,0.12799999117851257,-0.03400000133744912,0.021999999295971403,-0.02800000031671026
0.12849201261997223,-0.037502776831388474,9.953961372375488,-0.005799999926239252,-0.005699999630451202,0.11819999665021896,-0.007999999971379599,-0.0039999999856897995,-0.006000000186975531
0.11437579989433289,-0.05572744086384773,9.937603950500488,0.013599999248981476,0.013799999840557575,0.1378999948501587,-0.0019999999928448997,-0.006000000186975531,-0.06299999737754478
0.11448115110397339,-0.052854396402835846,9.954784393310547,-0.0058999997563660145,-0.00559999980032444,0.1378999948501587,0.019999999511567335,0.013000000266153095,-0.03599999945432653
0.12143390625715256,-0.045231256633996964,9.945158958435059,-0.0058999997563660145,-0.00559999980032444,0.1378999948501587,-0.0009999999964224499,-0.007000000079177565,0.03999999902313467
0.11939404904842377,-0.037502776831388474,9.943177223205566,0.0038999998942017555,0.004100000020116568,0.12799999117851257,-0.007999999971379599,0.021999999295971403,0.03100000082707969
0.1168178841471672,-0.04779784381389618,9.935976028442383,0.0038999998942017555,0.003999999724328518,0.11819999665021896,0.046999999102312236,-0.007999999971379599,-0.0659999978879142
0.12151052057743073,-0.04873637109994888,9.93576431274414,0.0037999998312443495,-0.005799999926239252,0.11819999665021896,0.004999999877891834,-0.0039999999856897995,0.0009999999964224499
0.11505575478076935,-0.041764453053474426,9.947266578674316,0.0037999998312443495,0.0038999998942017555,0.12799999117851257,-0.021000000237532696,0.021999999295971403,-0.008999999863581633
0.10923305153846741,-0.04578671231865883,9.92176342010498,-0.005799999926239252,0.0038999998942017555,0.10839999467134476,-0.024000000747902123,0.015999999942759198,-0.01700000066872456
0.1279653012752533,-0.044254425913095474,9.938617706298828,0.013599999248981476,0.003999999724328518,0.11819999665021896,-0.02800000031671026,0,0.01700000066872456
0.1276971399784088,-0.04969405010342598,9.936827659606934,0.013499999418854713,-0.00559999980032444,0.11819999665021896,-0.019000000453128628,-0.0269999995907449,-0.0269999995907449
0.11903012543916702,-0.043287165462970734,9.93474006652832,0.003599999938160181,0.00419999985024333,0.11819999665021896,-0.05999999686717535,-0.0039999999856897995,-0.019000000453128628
0.11639650911092758,-0.05037400498986244,9.927165031433105,0.003599999938160181,-0.0052999998442828655,0.10839999467134476,-0.023000000021936765,-0.0030000000934877653,-0.010999999647985701
0.11637736111879349,-0.042999863624572754,9.935611724853516,0.003499999875202775,0.0044999998062849045,0.11819999665021896,0.08499999667351618,-0.029999998433587676,0.035000000395887826
0.11250832676887512,-0.04112280532717705,9.934348106384277,-0.006199999712407589,0.00419999985024333,0.11819999665021896,-0.03999999902313467,-0.013000000266153095,-0.03100000082707969
0.10927136242389679,-0.04443638399243355,9.921935081481934,-0.006099999882280827,0.004299999680370092,0.10839999467134476,-0.007999999971379599,0.0009999999964224499,0
0.11925039440393448,-0.05407065153121948,9.956939697265625,0.003599999938160181,-0.0052999998442828655,0.1378999948501587,0.0009999999964224499,0.0039999999856897995,0.041000001416626686
0.11416511237621307,-0.052547939121723175,9.940381050109863,-0.006099999882280827,-0.005200000014156103,0.11819999665021896,-0.007999999971379599,0.004999999877891834,-0.0030000000934877653
0.1196526288986206,-0.052097827196121216,9.937785148620605,0.003599999938160181,-0.0050999997183680534,0.11819999665021896,0.004999999877891834,-0.0030000000934877653,0.007000000079177565
