Accelerometer_Gx,Accelerometer_Gy,Accelerometer_Gz,Accelerometer_X,Accelerometer_Y,Accelerometer_Z,Gyroscope_Z,Gyroscope_X,Gyroscope_Y
0.11400230973958969,-0.04149630293250084,9.898778915405273,0.007899999618530273,0.014399999752640724,0.07889999449253082,-0.05600000063342052,0.03899999996469596,-0.04200000047506539
0.11073661595582962,-0.05436753109097481,9.917702674865723,0.007999999448657036,0.004600000102072954,0.09849999845027924,0.3579999897562813,-0.08799999718388561,-0.33300000329015367
0.10059478133916855,-0.034802116453647614,9.90962028503418,-0.001999999862164259,0.02319999970495701,0.08869999647140503,-0.5939999943314411,0.30799999014359963,-0.0429999995335041
0.11667423695325851,-0.03740701079368591,9.916629791259766,0.018299998715519905,0.02459999918937683,0.09849999845027924,-0.8650000226478619,-0.3150000002279371,0.07099999651516105
0.11697111278772354,-0.04466622695326805,9.918363571166992,0.017500000074505806,0.01719999872148037,0.09849999845027924,0.07399999702553048,-0.0429999995335041,0.009999999755783667
0.11012370139360428,-0.04085465520620346,9.908259391784668,0.007599999662488699,0.016899999231100082,0.08869999647140503,0.03100000082707969,0.5270000007201415,0.17599999436777122
0.09997228533029556,-0.06041049584746361,9.920872688293457,-0.0007999999797903001,-0.002699999837204814,0.09849999845027924,-0.739999983595518,0.3789999933288673,0.08899999957737763
0.11189541220664978,-0.04842991381883621,9.918880462646484,0.010099999606609344,0.00930000003427267,0.09849999845027924,0.4420000040466253,-0.17899999487814064,0.1199999937343507
0.10389877110719681,-0.06118621677160263,9.916055679321289,0,-0.001500000013038516,0.09849999845027924,-0.6140000155208549,0.27899999410350396,0.021999999295971403
0.09392932057380676,-0.03691859170794487,9.92967414855957,-0.008999999612569809,0.029399998486042023,0.10830000042915344,-1.0499999651858885,0.11500000177721047,0.1199999937343507
0.11342769861221313,-0.04379473999142647,9.93930721282959,0.010900000110268593,0.02290000021457672,0.11819999665021896,-0.5769999736523967,0.1629999966029081,-0.15699999558216926
0.12339715659618378,-0.05194459855556488,9.922961235046387,0.021199999377131462,0.02419999986886978,0.10839999467134476,0.1189999980109653,0.31099999065396905,-0.07699999753589991
0.12339715659618378,-0.05194459855556488,9.922961235046387,0.022199999541044235,0.0139999995008111,0.10830000042915344,-0.8759999889453145,0.28199999461387343,-0.024999999806340833
0.12966996431350708,-0.06270892918109894,9.917491912841797,0.03269999846816063,0.006300000008195639,0.09849999845027924,1.0090000471455944,-0.283000003677472,0.008999999863581633
0.11630074679851532,-0.044206537306308746,9.915759086608887,0.022199999541044235,0.023099999874830246,0.09849999845027924,-0.5759999912692245,-0.14600000260429016,-0.05499999823992851
0.11097603291273117,-0.04897578805685043,9.91894817352295,0.012000000104308128,0.014800000004470348,0.09849999845027924,-0.36399999077702017,-0.03899999996469596,0.007000000079177565
0.1039179340004921,-0.05416642129421234,9.910634994506836,0.002099999925121665,0.01589999906718731,0.08869999647140503,-0.25100000712700693,-0.6470000211349186,-0.1529999993484144
0.13097241520881653,-0.06251739710569382,9.901345252990723,0.02979999966919422,0.006799999624490738,0.07899999618530273,0.9000000463891228,0.2589999995945166,0.20800000425844953
0.10229945182800293,-0.050412312150001526,9.914830207824707,0.0009999999310821295,0.014399999752640724,0.09860000014305115,0.4519999879609058,-0.25599999908414717,-0.06899999839828364
0.11543882638216019,-0.051810525357723236,9.921131134033203,0.010199999436736107,0.0032999999821186066,0.09860000014305115,0.7510000032538235,-0.25599999908414717,-0.13799999679656727
0.115984708070755,-0.0530746653676033,9.922280311584473,0.019299998879432678,0.011099999770522118,0.09849999845027924,1.0309999797404998,-0.09099999769425504,-0.06700000028140622
0.10999920964241028,-0.0495312474668026,9.918440818786621,0.021299999207258224,0.01529999915510416,0.10839999467134476,-0.5290000188473387,0.1719999981340164,0.06700000028140622
0.11821610480546951,-0.05067088454961777,9.920978546142578,0.02149999886751175,0.013700000010430813,0.09849999845027924,0.010999999647985701,-0.13700000107318186,0.006000000186975531
0.10363062471151352,-0.05057511478662491,9.926494598388672,0.02149999886751175,0.013700000010430813,0.09849999845027924,1.1190000302852383,-0.4429999864297975,-0.07399999702553048
0.11651142686605453,-0.05654146522283554,9.921016693115234,0.020099999383091927,0.010900000110268593,0.09849999845027924,-1.264000037166143,0.39299998681711584,-0.04500000098543482
0.12324392795562744,-0.055583786219358444,9.932250022888184,0.021199999377131462,0.014399999752640724,0.11819999665021896,-0.3220000103122746,0.07300000130214508,-0.06899999839828364
0.12319604307413101,-0.05765237659215927,9.931483268737793,0.02149999886751175,0.005499999970197678,0.11819999665021896,-0.05499999823992851,-0.3280000113330135,-0.12599999475508955
0.1110239177942276,-0.04422569274902344,9.925000190734863,0.010900000110268593,0.025200000032782555,0.10839999467134476,-0.4240000009844087,-0.4649999723855557,0.07199999890865307
0.1195664256811142,-0.0454898327589035,9.91659164428711,0.01939999870955944,0.026499999687075615,0.09860000014305115,0.2740000021463637,-0.18400000017549412,-0.024999999806340833
0.11541009694337845,-0.03995443880558014,9.923678398132324,0.01889999955892563,0.025699999183416367,0.10839999467134476,0.8099999777171871,0.12299999424472013,0.035000000395887826
0.11833102256059647,-0.05139872431755066,9.932594299316406,0.019199999049305916,0.0139999995008111,0.11819999665021896,-0.4879999940853389,0.26900001018922354,0.09899999683187131
0.11188583076000214,-0.04438849911093712,9.918976783752441,0.010300000198185444,0.025299999862909317,0.09860000014305115,1.4869999505949472,-0.20599999947146552,-0.03899999996469596
0.12157756090164185,-0.057547032833099365,9.904515266418457,0.019700000062584877,0.002099999925121665,0.08869999647140503,0.4500000231945614,-0.09800000110848592,-0.04600000004387353
0.11090900003910065,-0.043047744780778885,9.918458938598633,0.009599999524652958,0.020399998873472214,0.09849999845027924,0.28499999512424284,-0.05999999686717535,0.048000001495804245
0.12505394220352173,-0.054961297661066055,9.927155494689941,0.029099998995661736,0.00969999935477972,0.10830000042915344,1.2470000164870987,-0.3660000089042174,-0.09000000197086964
0.11701900511980057,-0.033710360527038574,9.933609962463379,0.018400000408291817,0.02630000002682209,0.11809999495744705,0.407999989368963,-0.3259999932058162,-0.0039999999856897995
0.11463437974452972,-0.060467954725027084,9.916055679321289,0.007699999958276749,-0.004299999680370092,0.09849999845027924,-0.16699999283666295,0.3220000103122746,0.0749999994190225
0.13500423729419708,-0.0560338981449604,9.92994213104248,0.018299998715519905,0.005799999926239252,0.10830000042915344,0.28799999563461226,-0.3819999938392367,0.043999998591942806
0.1174020767211914,-0.058686673641204834,9.923985481262207,0.039000000804662704,0.0064999996684491634,0.10830000042915344,-0.8769999713284867,0.3379999952472939,0.06200000165415938
0.1135043129324913,-0.048899173736572266,9.929923057556152,0.018199998885393143,-0.00419999985024333,0.10830000042915344,-0.5020000142540139,0.3280000113330135,0.128999995265459
0.11667423695325851,-0.05170518159866333,9.927739143371582,0.009399999864399433,0.007899999618530273,0.10830000042915344,1.4079999549421698,-0.5840000104171607,-0.05499999823992851
0.124402716755867,-0.045365333557128906,9.9317045211792,0.01860000006854534,0.015199999324977398,0.11809999495744705,-0.7810000083575178,0.2589999995945166,0.07000000079177565
0.1100853979587555,-0.051887139678001404,9.933609962463379,0.01860000006854534,0.015199999324977398,0.11809999495744705,1.3930000057511756,-0.44800000506736415,0.03699999851276524
0.11767980456352234,-0.06454767286777496,9.934481620788574,0.009399999864399433,0.007199999876320362,0.11809999495744705,-1.3850000399640923,0.6720000076010463,0.02800000031671026
0.11070788651704788,-0.03759854659438133,9.931779861450195,0.017999999225139618,-0.006300000008195639,0.11809999495744705,-0.44399999549339614,0.14399999781730613,-0.038000000906257256
0.11691366136074066,-0.04241567477583885,9.936789512634277,0.010400000028312206,0.02719999849796295,0.11809999495744705,0.9260000152384226,-0.12100000279794933,-0.021999999295971403
0.1065036728978157,-0.05115929991006851,9.936100006103516,0.010499999858438969,0.006599999964237213,0.11809999495744705,-0.2929999875917525,0.23699998695833197,0.06099999926066736
0.12630850076675415,-0.04887044429779053,9.929022789001465,0.030899999663233757,0.007400000002235174,0.10830000042915344,-0.2069999951948509,0.14099999730693671,-0.021000000237532696
0.11307335644960403,-0.06160759553313255,9.924291610717773,0.011699999682605267,-0.0017999999690800905,0.10830000042915344,0.11500000177721047,-0.5129999805514666,-0.07799999992939192
0.10372639447450638,-0.047884032130241394,9.936119079589844,0.00029999998514540493,0.007499999832361937,0.11809999495744705,0.1939999974299878,-0.0039999999856897995,-0.06899999839828364
0.11473972350358963,-0.056081779301166534,9.947189331054688,0.010099999606609344,0.00699999975040555,0.12789998948574066,-0.09300000248123906,0.11099999887334903,0.04600000004387353
0.12049538642168045,-0.05374504253268242,9.941224098205566,0.02019999921321869,0.0071000000461936,0.12789998948574066,-1.2830000226115317,0.5540000053134664,0.11599999750059588
0.1182352602481842,-0.04784572497010231,9.937374114990234,0.02199999988079071,0.020899999886751175,0.11809999495744705,-1.021000049187072,0.5110000157851222,0.07099999651516105
0.11614751070737839,-0.05078580603003502,9.951221466064453,0.02319999970495701,0.013499999418854713,0.13779999315738678,-1.5690000001189468,0.7239999986604987,0.128999995265459
0.11628158390522003,-0.046715665608644485,9.932096481323242,0.025299999862909317,0.02759999968111515,0.11809999495744705,-1.5289999577401192,0.43799999447265725,0.06500000216452881
0.12226708978414536,-0.04341166839003563,9.939596176147461,0.02669999934732914,0.03229999914765358,0.11819999665021896,-0.45400000608810304,0.7080000137254794,0.02800000031671026
0.10540233552455902,-0.06325481086969376,9.949009895324707,0.01860000006854534,0.013700000010430813,0.12799999117851257,-0.9399999820462447,0.4229999919208101,0.05999999686717535
0.12171164155006409,-0.04628470540046692,9.94553279876709,0.029600000008940697,0.03590000048279762,0.12799999117851257,0.8750000065621423,0.2639999915516568,-0.0429999995335041
0.12324392795562744,-0.05348646640777588,9.951460838317871,0.030399998649954796,0.02329999953508377,0.13769999146461487,1.1089999930101049,-0.5129999805514666,-0.14300000209392072
0.1163390502333641,-0.04347870126366615,9.952505111694336,0.029199998825788498,0.030399998649954796,0.13769999146461487,-1.067999968248105,-0.3019999891228608,0.04500000098543482
0.11216355860233307,-0.04066311940550804,9.948338508605957,0.01850000023841858,0.03370000049471855,0.12799999117851257,-0.5470000219095553,0.6029999958625494,0.004999999877891834
0.12200852483510971,-0.05172433331608772,9.923362731933594,0.02979999966919422,0.025200000032782555,0.10830000042915344,1.3769999674553033,-0.3860000034132048,-0.10400000212922476
0.12114660441875458,-0.06309200078248978,9.939164161682129,0.02879999950528145,0.011599999852478504,0.11809999495744705,-0.7879999917614289,0.19900000272734125,-0.021000000237532696
0.11553459614515305,-0.05206909775733948,9.939422607421875,0.029500000178813934,0.023799998685717583,0.11809999495744705,-0.9889999725953277,0.40400000647542134,0.09399999820462447
0.12420160323381424,-0.053065087646245956,9.944067001342773,0.030499998480081558,0.026099998503923416,0.12799999117851257,1.319000028735965,-0.41300000800652964,-0.11299999699022645
0.12303323298692703,-0.0373208150267601,9.934117317199707,0.029199998825788498,0.03179999813437462,0.12789998948574066,-1.3010000256737484,0.39399999588071444,0.1400000015835513
0.12303323298692703,-0.0373208150267601,9.934117317199707,0.030299998819828033,0.04519999772310257,0.11819999665021896,0.5489999866758997,-0.5279999831033136,-0.06200000165415938
0.10551726073026657,-0.05239471048116684,9.936655044555664,0.02070000022649765,0.027300000190734863,0.11819999665021896,-0.49499997748924995,-0.36499999984061876,0.021000000237532696
0.11126334220170975,-0.04568136855959892,9.92869758605957,0.019600000232458115,0.038599997758865356,0.10839999467134476,1.2199999585329209,-0.6260000175623326,-0.06800000267489824
0.11436622589826584,-0.04533660411834717,9.937718391418457,0.019600000232458115,0.038599997758865356,0.10839999467134476,-1.2720000029532261,0.5179999991890332,0.08100000043976135
0.12234370410442352,-0.04269340634346008,9.931397438049316,0.028999999165534973,0.03830000013113022,0.11819999665021896,-0.950000019321378,0.3860000034132048,0.014999999216793838
0.12043792009353638,-0.06089891493320465,9.947659492492676,0.03019999898970127,0.02149999886751175,0.12799999117851257,0.5579999882070079,-0.28199999461387343,-0.16699999283666295
0.1123359426856041,-0.04802768677473068,9.940390586853027,0.01979999989271164,0.029999999329447746,0.11819999665021896,1.2019999554707044,-0.19499999315337319,-0.07099999651516105
0.11996866017580032,-0.05641696974635124,9.927700996398926,0.028999999165534973,0.026200000196695328,0.10839999467134476,0.5300000012305109,-0.12299999424472013,-0.019000000453128628
0.12336842715740204,-0.04969405010342598,9.945982933044434,0.028699999675154686,0.024699999019503593,0.12799999117851257,0.14399999781730613,0.21899999723632863,0.03599999945432653
0.11011412739753723,-0.05680961534380913,9.938015937805176,0.01939999870955944,0.024399999529123306,0.11819999665021896,-1.3070000266944872,0.44699999600376555,0.015999999942759198
0.12115617841482162,-0.06385814398527145,9.945810317993164,0.030700000002980232,0.01860000006854534,0.12799999117851257,-0.31600000929153577,0.42200000953763794,0.019999999511567335
0.11283393949270248,-0.051695603877305984,9.946298599243164,0.021900000050663948,0.029099998995661736,0.12799999117851257,-0.2519999895101791,0.42500001004800736,0.07099999651516105
0.12326307594776154,-0.054252609610557556,9.938043594360352,0.032899998128414154,0.02979999966919422,0.11819999665021896,0.9089999945593782,0.25100000712700693,-0.004999999877891834
0.11435665190219879,-0.055152833461761475,9.948310852050781,0.023899998515844345,0.026899999007582664,0.12789998948574066,1.3680000192850479,-0.6590000231763964,-0.08100000043976135
0.11358092725276947,-0.053926996886730194,9.944459915161133,0.02239999920129776,0.023599999025464058,0.12789998948574066,1.1130000292644995,-0.5339999841240525,-0.09600000299160849
0.11747869104146957,-0.057882219552993774,9.930516242980957,0.030700000002980232,0.010699999518692493,0.10830000042915344,-0.9779999529370222,0.12299999424472013,0.07399999702553048
0.13206416368484497,-0.04212837293744087,9.944565773010254,0.04099999740719795,0.033299997448921204,0.12789998948574066,-1.4710000190207806,0.6119999973936576,0.0859999990670082
0.1257338970899582,-0.050105854868888855,9.940582275390625,0.042500000447034836,0.026999998837709427,0.11809999495744705,1.6150000435185132,-0.007000000079177565,0.007999999971379599
0.12368446588516235,-0.03741658478975296,9.92908000946045,0.03269999846816063,0.041600000113248825,0.10830000042915344,0.6669999889634796,-0.3579999897562813,-0.05900000114378995
0.10287406295537949,-0.05886863172054291,9.942602157592773,0.01209999993443489,0.010300000198185444,0.12789998948574066,-1.2150000466170598,0.5179999991890332,0.06500000216452881
0.1138586550951004,-0.05635950714349747,9.944067001342773,0.02319999970495701,0.023000000044703484,0.12789998948574066,1.0689999506312773,-0.28199999461387343,0.057000003026912535
0.12293747067451477,-0.042358215898275375,9.945418357849121,0.03219999745488167,0.029500000178813934,0.12789998948574066,-1.3479999447347812,0.3999999969014533,0.031999999885518396
0.1135043129324913,-0.04902367293834686,9.959582328796387,0.02329999953508377,0.02290000021457672,0.13769999146461487,1.1000000448398495,-0.4519999879609058,-0.05499999823992851
0.12172121554613113,-0.05870582535862923,9.942248344421387,0.03179999813437462,0.00969999935477972,0.12789998948574066,-0.9169999603464615,0.4510000055777336,0.08400000095013078
0.12366530299186707,-0.03947559744119644,9.949163436889648,0.032999999821186066,0.01209999993443489,0.12789998948574066,0.8459999838416202,-0.5050000147643833,-0.07000000079177565
0.11542925238609314,-0.058897361159324646,9.949488639831543,0.03189999982714653,0.02969999983906746,0.12789998948574066,-1.709999970745457,0.4199999914104407,0.06500000216452881
0.11542925238609314,-0.058897361159324646,9.949488639831543,0.032899998128414154,0.010799999348819256,0.12789998948574066,-1.709999970745457,0.4199999914104407,0.06500000216452881
0.12558066844940186,-0.05042188614606857,9.931158065795898,0.04319999739527702,0.023599999025464058,0.11809999495744705,1.5269999929737748,-0.03699999851276524,-0.010999999647985701
0.11569740623235703,-0.061004262417554855,9.947372436523438,0.033299997448921204,0.010099999606609344,0.12789998948574066,-0.8560000211167536,0.29899998861249133,0.017999999727163266
0.10972147434949875,-0.04817133769392967,9.94128131866455,0.02449999935925007,0.022499999031424522,0.12789998948574066,-1.6069999710097242,0.6149999979040272,0.0659999978879142
0.11197202652692795,-0.038824375718832016,9.947908401489258,0.025999998673796654,0.03610000014305115,0.12789998948574066,-0.40400000647542134,0.2469999975530389,0.02899999937514897
0.11405976861715317,-0.05481764301657677,9.933256149291992,0.026799999177455902,0.027499999850988388,0.11809999495744705,-0.6029999958625494,-0.0030000000934877653,0.010999999647985701
0.11720095574855804,-0.049512092024087906,9.954036712646484,0.03659999743103981,0.029099998995661736,0.13769999146461487,-0.07199999890865307,-0.0269999995907449,-0.013000000266153095
0.12049538642168045,-0.030157363042235374,9.949478149414062,0.0364999994635582,0.04879999905824661,0.12789998948574066,0.5410000208888165,-0.20599999947146552,-0.07999999804626934
0.11212525516748428,-0.055440135300159454,9.953760147094727,0.026099998503923416,0.027499999850988388,0.13769999146461487,-1.19999999070436,0.15999999609253868,0.0039999999856897995
0.10909898579120636,-0.04877467826008797,9.944010734558105,0.026499999687075615,0.030299998819828033,0.12789998948574066,-1.5810000021604245,0.46600000812958076,0.09800000110848592
0.10360189527273178,-0.05027823522686958,9.956326484680176,0.017999999225139618,0.03460000082850456,0.13779999315738678,-1.3569999996267423,0.4720000091503196,0.05900000114378995
0.11050677299499512,-0.046840161085128784,9.960051536560059,0.02929999865591526,0.04859999939799309,0.147599995136261,0.5099999800410971,-0.07099999651516105,-0.04500000098543482
0.1217978298664093,-0.045796290040016174,9.941912651062012,0.039000000804662704,0.04729999974370003,0.12799999117851257,1.060999984844194,-0.3399999866940647,-0.06299999737754478
0.10708785057067871,-0.044254425913095474,9.954947471618652,0.028199998661875725,0.04439999908208847,0.13779999315738678,-0.35899999881987993,0.08799999718388561,0.024000000747902123
0.11096645891666412,-0.05315127968788147,9.960711479187012,0.02850000001490116,0.035599999129772186,0.147599995136261,-1.0960000085854549,0.3559999983095105,0.0539999991814898
0.1152951717376709,-0.0548655241727829,9.952974319458008,0.03920000046491623,0.03819999843835831,0.13779999315738678,1.0710000221193274,-0.36499999984061876,-0.04600000004387353
0.12801317870616913,-0.052931010723114014,9.946404457092285,0.0478999987244606,0.0348999984562397,0.12799999117851257,-0.09999999922536333,-0.0019999999928448997,0.014999999216793838
0.12237243354320526,-0.05512410029768944,9.95087718963623,0.038100000470876694,0.035099998116493225,0.13779999315738678,-0.321000001248676,0.12799999954207358,0.04200000047506539
0.11284351348876953,-0.038326382637023926,9.943387985229492,0.028699999675154686,0.04569999873638153,0.12799999117851257,0.8050000124404733,-0.29699999716572056,-0.057000003026912535
0.10563217848539352,-0.057575762271881104,9.94575309753418,0.027799999341368675,0.023599999025464058,0.12799999117851257,0.041000001416626686,0.22299999347008345,-0.012000000373951061
0.11618582159280777,-0.04968447610735893,9.94100284576416,0.03819999843835831,0.033299997448921204,0.12799999117851257,-0.22100000202331266,0.07999999804626934,0.0039999999856897995
0.11699027568101883,-0.06370491534471512,9.944594383239746,0.03839999809861183,0.02410000003874302,0.12799999117851257,0.8680000231582313,-0.049999999612681666,-0.013000000266153095
0.12068691849708557,-0.056129664182662964,9.955876350402832,0.03830000013113022,0.03150000050663948,0.13769999146461487,-0.7990000114197344,0.26200000010488605,0.03100000082707969
0.12171164155006409,-0.0592421256005764,9.940936088562012,0.039000000804662704,0.023599999025464058,0.12789998948574066,0.4319999934519184,-0.07600000181251451,-0.021999999295971403
0.1107940748333931,-0.051551952958106995,9.940629959106445,0.028999999165534973,0.032099999487400055,0.12789998948574066,0.09399999820462447,-0.03699999851276524,0.009999999755783667
0.11050677299499512,-0.05327577516436577,9.940753936767578,0.028299998492002487,0.028599999845027924,0.11809999495744705,-0.2469999975530389,0.03899999996469596,0.009999999755783667
0.1269214153289795,-0.04860229417681694,9.943512916564941,0.028199998661875725,0.028199998661875725,0.12789998948574066,-0.7900000098886262,0.3450000053316314,0.0019999999928448997
0.12481452524662018,-0.04220498725771904,9.951949119567871,0.04800000041723251,0.02889999933540821,0.12789998948574066,-0.24399999704266945,0.08200000283325337,-0.02800000031671026
0.12466129660606384,-0.048161763697862625,9.94580078125,0.04919999837875366,0.03150000050663948,0.12789998948574066,0.42899999294154895,-0.08200000283325337,-0.07300000130214508
0.13380713760852814,-0.04996220022439957,9.939863204956055,0.04899999871850014,0.03019999898970127,0.11809999495744705,0.06700000028140622,-0.02800000031671026,-0.009999999755783667
0.1406354010105133,-0.056761734187603,9.959371566772461,0.05859999731183052,0.029899999499320984,0.13769999146461487,-0.12400000330831876,0.10499999785261017,-0.004999999877891834
0.10926178842782974,-0.04526956379413605,9.944393157958984,0.029399998486042023,0.03989999741315842,0.12789998948574066,-0.642000002497352,0.038000000906257256,0.006000000186975531
0.11792880296707153,-0.05396530404686928,9.94957447052002,0.039400000125169754,0.032099999487400055,0.12789998948574066,-0.6410000201141798,0.15399999507179982,0.03400000133744912
0.11913547664880753,-0.06236416473984718,9.954266548156738,0.039799999445676804,0.02369999885559082,0.13769999146461487,-0.5519999871862691,0.26200000010488605,0.046999999102312236
0.1099608987569809,-0.050249505788087845,9.940496444702148,0.030700000002980232,0.03500000014901161,0.11809999495744705,0.9759999881706778,-0.15800000464576788,-0.10199999734224074
0.11073661595582962,-0.060180652886629105,9.941376686096191,0.030299998819828033,0.022199999541044235,0.12789998948574066,0.14600000260429016,0.0429999995335041,-0.013000000266153095
0.11435665190219879,-0.049042828381061554,9.943320274353027,0.030299998819828033,0.03150000050663948,0.12789998948574066,-0.5149999986786638,0.08700000146050021,0.06200000165415938
0.11716265231370926,-0.05831317603588104,9.956537246704102,0.020800000056624413,0.03309999778866768,0.12789998948574066,0.17400000292100043,-0.09399999820462447,0.0039999999856897995
0.12339715659618378,-0.05016331374645233,9.937430381774902,0.04010000079870224,0.02279999852180481,0.13769999146461487,-0.29999999767609,0.18400000017549412,0.0039999999856897995
0.12339715659618378,-0.05016331374645233,9.937430381774902,0.03989999741315842,0.032099999487400055,0.11809999495744705,-0.29999999767609,0.18400000017549412,0.0039999999856897995
0.12180740386247635,-0.05566040053963661,9.939825057983398,0.04050000011920929,0.032899998128414154,0.11809999495744705,-0.3130000087811663,-0.149999998838045,0.023000000021936765
0.11346600204706192,-0.05266286060214043,9.931541442871094,0.030299998819828033,0.03370000049471855,0.11809999495744705,-0.43400001157911566,0.20200000323771067,0.0019999999928448997
0.11270944029092789,-0.053352389484643936,9.952351570129395,0.030899999663233757,0.03480000048875809,0.11809999495744705,-0.11400000605382507,-0.046999999102312236,0.012000000373951061
0.11270944029092789,-0.053352389484643936,9.952351570129395,0.030799999833106995,0.035099998116493225,0.13779999315738678,-0.12400000330831876,-0.038000000906257256,0.01400000015835513
0.11111011356115341,-0.05193502455949783,9.93425178527832,0.03059999831020832,0.03529999777674675,0.11809999495744705,0.36199999933024934,-0.11099999887334903,0.10299999973573276
0.1273811012506485,-0.045250412076711655,9.941242218017578,0.04989999905228615,0.04389999806880951,0.12789998948574066,0.5930000119482689,-0.041000001416626686,-0.01700000066872456
0.10777737945318222,-0.05698200315237045,9.948846817016602,0.03019999898970127,0.032600000500679016,0.12789998948574066,-0.3409999957576634,0.23399998644796255,0.06099999926066736
0.12408668547868729,-0.05225105583667755,9.965730667114258,0.040699999779462814,0.033399999141693115,0.14749999344348907,-0.23399998644796255,-0.09200000008774706,0.017999999727163266
0.11055465787649155,-0.0566372349858284,9.957101821899414,0.060099996626377106,0.043800000101327896,0.12789998948574066,0.1930000017066024,-0.09399999820462447,-0.03899999996469596
0.13107775151729584,-0.05321831628680229,9.962532043457031,0.03150000050663948,0.03519999980926514,0.13779999315738678,0.1930000017066024,-0.09399999820462447,-0.03899999996469596
0.11708603799343109,-0.05621585622429848,9.94559097290039,0.05079999938607216,0.03460000082850456,0.147599995136261,0.4500000231945614,-0.2150000010025738,0.04200000047506539
0.12155841290950775,-0.06049668788909912,9.950579643249512,0.04089999943971634,0.02419999986886978,0.13769999146461487,-0.19600000221697184,0.012000000373951061,0.02600000053230619
0.11827356368303299,-0.05703946202993393,9.947284698486328,0.04089999943971634,0.02419999986886978,0.13769999146461487,-0.3890000039235742,0.34299998720443414,-0.06700000028140622
0.12360785156488419,-0.043143514543771744,9.945120811462402,0.041999999433755875,0.045399997383356094,0.12789998948574066,0.13700000107318186,0.019999999511567335,0.021999999295971403
0.11851298809051514,-0.05536352097988129,9.946059226989746,0.041999999433755875,0.035099998116493225,0.12789998948574066,-0.12199999852133472,0.11200000126684104,0.024999999806340833
0.11660720407962799,-0.04593036696314812,9.961871147155762,0.0421999990940094,0.045099999755620956,0.147599995136261,-0.5099999800410971,0.15599999985878385,-0.0269999995907449
0.11857043951749802,-0.06083187833428383,9.931570053100586,0.04270000010728836,0.02709999866783619,0.11809999495744705,0.15500000413539844,-0.03400000133744912,-0.05600000063342052
0.11309251189231873,-0.040720582008361816,9.95567512512207,0.03280000016093254,0.04619999974966049,0.13779999315738678,0.4720000091503196,-0.049999999612681666,-0.03599999945432653
0.11715307831764221,-0.04959828034043312,9.9520263671875,0.042500000447034836,0.0348999984562397,0.13769999146461487,0.6620000236867658,-0.28199999461387343,-0.013000000266153095
0.11684662103652954,-0.048065993934869766,9.949861526489258,0.04179999977350235,0.032999999821186066,0.12789998948574066,0.31800000073830653,-0.15900000036915327,-0.02600000053230619
0.12450806796550751,-0.05257666856050491,9.939116477966309,0.05119999870657921,0.03219999745488167,0.11809999495744705,0.33600000380052314,-0.09500000059811649,0.007000000079177565
0.11864705383777618,-0.060487110167741776,9.944499015808105,0.041099999099969864,0.021299999207258224,0.12789998948574066,0.6260000175623326,-0.29899998861249133,-0.0039999999856897995
0.10272083431482315,-0.04783615097403526,9.938886642456055,0.020800000056624413,0.039400000125169754,0.11809999495744705,0.28199999461387343,-0.20200000323771067,-0.006000000186975531
0.11778514832258224,-0.05147533863782883,9.961353302001953,0.03009999915957451,0.02879999950528145,0.13769999146461487,0.08700000146050021,0.07099999651516105,-0.03899999996469596
0.11778514832258224,-0.05147533863782883,9.961353302001953,0.040699999779462814,0.029600000008940697,0.14749999344348907,0.08700000146050021,0.07099999651516105,-0.03899999996469596
0.12136687338352203,-0.05387911573052406,9.956114768981934,0.031099999323487282,0.03909999877214432,0.12789998948574066,-0.008999999863581633,-0.14300000209392072,0.048000001495804245
0.11959516257047653,-0.06068822368979454,9.952974319458008,0.041200000792741776,0.020499998703598976,0.13769999146461487,0.5110000157851222,-0.2959999881021219,-0.015999999942759198
0.11959516257047653,-0.06068822368979454,9.952974319458008,0.041200000792741776,0.020499998703598976,0.13769999146461487,0.5110000157851222,-0.2959999881021219,-0.015999999942759198
0.1126711368560791,-0.04865017533302307,9.945188522338867,0.03179999813437462,0.03099999949336052,0.12789998948574066,-0.3660000089042174,0.019999999511567335,-0.019999999511567335
0.12581050395965576,-0.0468018539249897,9.941787719726562,0.03179999813437462,0.03099999949336052,0.12789998948574066,0.4139999903897018,-0.20899999998183494,-0.0039999999856897995
0.12060073018074036,-0.04801810905337334,9.945494651794434,0.041200000792741776,0.030899999663233757,0.12789998948574066,-0.8230000155026899,0.3459999877148036,0.01400000015835513
0.12284170091152191,-0.05182010307908058,9.950244903564453,0.041200000792741776,0.030899999663233757,0.12789998948574066,0.3540000068627397,-0.10100000161885533,0.03899999996469596
0.12317688763141632,-0.04696466028690338,9.933361053466797,0.04230000078678131,0.033399999141693115,0.12789998948574066,-0.3379999952472939,0.13400000056281244,0.023000000021936765
0.11763191968202591,-0.04608359560370445,9.943483352661133,0.042399998754262924,0.0429999977350235,0.12789998948574066,-0.39200000443394367,0.23099998593759313,0.046999999102312236
0.12264058738946915,-0.05125506967306137,9.945954322814941,0.042399998754262924,0.0429999977350235,0.12789998948574066,0.012000000373951061,-0.2140000052791884,-0.02800000031671026
0.12330138683319092,-0.05731718987226486,9.938484191894531,0.042500000447034836,0.0340999998152256,0.11809999495744705,-0.6620000236867658,0.37100000086135765,-0.0539999991814898
0.11676043272018433,-0.049607861787080765,9.94499683380127,0.04349999874830246,0.03590000048279762,0.12789998948574066,0.17100000241063099,0.321000001248676,0.04500000098543482
0.11510363966226578,-0.05585193634033203,9.944690704345703,0.044499997049570084,0.03529999777674675,0.12789998948574066,0.30400000725005805,-0.2589999995945166,-0.07000000079177565
0.12255439907312393,-0.04307647794485092,9.937775611877441,0.043800000101327896,0.04429999738931656,0.11809999495744705,0.31699999167470794,-0.16500000138989213,0.007999999971379599
0.12087845802307129,-0.04898536577820778,9.953347206115723,0.04349999874830246,0.03359999880194664,0.13769999146461487,-0.6549999869220019,0.2680000011256249,0.021000000237532696
0.1063983216881752,-0.06144479289650917,9.958499908447266,0.03449999913573265,0.02579999901354313,0.13769999146461487,-0.9409999644294169,0.3980000054546825,-0.0030000000934877653
0.11547713726758957,-0.05586151406168938,9.95223617553711,0.04529999941587448,0.03779999911785126,0.13769999146461487,-0.18600000496247812,0.27200001069959295,-0.0269999995907449
0.1215679869055748,-0.055267754942178726,9.950934410095215,0.04609999805688858,0.03839999809861183,0.13769999146461487,-0.8440000190752759,0.37800001094569513,0.009999999755783667
0.10438719391822815,-0.049588706344366074,9.947467803955078,0.02759999968111515,0.0405999980866909,0.12789998948574066,-0.6979999764503461,0.43999998591942807,0.029999998433587676
0.11382992565631866,-0.04341166839003563,9.951891899108887,0.03839999809861183,0.05209999904036522,0.13779999315738678,-0.5129999805514666,0.32700000226941484,0.04600000004387353
0.11959516257047653,-0.04668693244457245,9.950379371643066,0.049300000071525574,0.053599998354911804,0.13779999315738678,-0.6879999925360656,0.28600000418784144,-0.008999999863581633
0.11250832676887512,-0.051456183195114136,9.948080062866211,0.04019999876618385,0.045399997383356094,0.12799999117851257,-0.2810000122307012,0.012000000373951061,0.01700000066872456
0.11915463209152222,-0.059749700129032135,9.94002628326416,0.04999999701976776,0.03629999980330467,0.11819999665021896,0.5069999795307276,-0.26600000967885407,-0.06299999737754478
0.1195472776889801,-0.056100934743881226,9.944957733154297,0.04919999837875366,0.044499997049570084,0.12799999117851257,0.7530000213810208,-0.3819999938392367,-0.07999999804626934
0.11652100831270218,-0.05815037339925766,9.938178062438965,0.04829999804496765,0.03280000016093254,0.11819999665021896,-0.5870000109275301,0.36399999077702017,-0.03699999851276524
0.12296620011329651,-0.05931873992085457,9.942899703979492,0.049300000071525574,0.03439999744296074,0.12799999117851257,-0.3220000103122746,0.2899999870813831,0.01400000015835513
0.11941319704055786,-0.06245993450284004,9.942622184753418,0.050200000405311584,0.03529999777674675,0.12799999117851257,0.6249999818183075,-0.4870000117021667,-0.03899999996469596
0.12752476334571838,-0.05435795709490776,9.943981170654297,0.03920000046491623,0.033799998462200165,0.13779999315738678,0.24200000559589865,-0.19699999794035722,0.02899999937514897
0.12628935277462006,-0.05125506967306137,9.944469451904297,0.06030000001192093,0.042399998754262924,0.12789998948574066,0.0030000000934877653,0.1610000051561373,0.019999999511567335
0.11887689679861069,-0.05115929991006851,9.94128131866455,0.0502999983727932,0.041600000113248825,0.12789998948574066,0.5149999986786638,-0.48199999306460006,0.017999999727163266
0.12213301658630371,-0.037244200706481934,9.95020580291748,0.04879999905824661,0.05959999933838844,0.12789998948574066,-0.5579999882070079,0.6039999782457216,0
0.11747869104146957,-0.0562828928232193,9.94411563873291,0.0502999983727932,0.04129999876022339,0.12789998948574066,0.5350000198680775,-0.6660000065803073,0.02600000053230619
0.11528559774160385,-0.04706043004989624,9.955445289611816,0.04820000007748604,0.04939999803900719,0.13769999146461487,0.46099998949201404,-0.24500000610626807,0.0429999995335041
0.11190499365329742,-0.06324522942304611,9.939863204956055,0.04820000007748604,0.04939999803900719,0.13769999146461487,0.2959999881021219,-0.11200000126684104,-0.031999999885518396
0.10418608039617538,-0.034658461809158325,9.948914527893066,0.03779999911785126,0.0284000001847744,0.11809999495744705,0.4190000090272685,-0.559000023951033,0.0329999989439571
0.11763191968202591,-0.04707958176732063,9.943465232849121,0.04580000042915344,0.04609999805688858,0.12789998948574066,0.128999995265459,-0.7840000088678873,-0.029999998433587676
0.1335677206516266,-0.060151923447847366,9.942429542541504,0.053199999034404755,0.025999998673796654,0.12789998948574066,-0.6029999958625494,0.8939999920075311,0.0039999999856897995
0.12408668547868729,-0.04597824811935425,9.92051887512207,0.04580000042915344,0.047199998050928116,0.09849999845027924,-0.25400000763737635,0.7440000198499125,-0.004999999877891834
0.12207555025815964,-0.051791369915008545,9.943243980407715,0.047599997371435165,0.03799999877810478,0.12789998948574066,-0.031999999885518396,0.08100000043976135,0.01700000066872456
0.11743079870939255,-0.05233725160360336,9.931617736816406,0.04779999703168869,0.03799999877810478,0.11809999495744705,-0.42899999294154895,-0.46999999102312234,0.038000000906257256
0.11816821992397308,-0.04506845027208328,9.934845924377441,0.046699997037649155,0.04879999905824661,0.11809999495744705,-1.0919999723310605,0.3349999947369245,0.021000000237532696
0.11483548581600189,-0.055650826543569565,9.943684577941895,0.03790000081062317,0.04230000078678131,0.12799999117851257,-0.3310000118433829,-0.03899999996469596,0.08700000146050021
0.11407892405986786,-0.0517817959189415,9.927327156066895,0.03779999911785126,0.04309999942779541,0.10839999467134476,-1.0559999662066273,-0.05900000114378995,0.04500000098543482
0.11594640463590622,-0.0553252138197422,9.925603866577148,0.04749999940395355,0.04559999704360962,0.10839999467134476,0.2360000045751598,0.46099998949201404,0.015999999942759198
0.1131499707698822,-0.04794149473309517,9.927872657775879,0.03909999877214432,0.04479999840259552,0.10839999467134476,-1.0749999516520161,0.36199999933024934,0.007999999971379599
0.12696930766105652,-0.04013639688491821,9.945131301879883,0.05959999933838844,0.05719999969005585,0.12799999117851257,1.2749999501027427,0.046999999102312236,0.07199999890865307
0.10967358946800232,-0.04670608416199684,9.939250946044922,0.04010000079870224,0.053599998354911804,0.11819999665021896,0.7969999932925372,-0.09600000299160849,-0.021000000237532696
0.1246517151594162,-0.03751235082745552,9.936559677124023,0.05949999764561653,0.0608999989926815,0.11809999495744705,-1.0249999787197608,-0.19600000221697184,-0.04500000098543482
0.10520122200250626,-0.054750602692365646,9.946653366088867,0.029600000008940697,0.043699998408555984,0.12799999117851257,1.0960000085854549,0.1509999945614304,0.012000000373951061
0.11994951218366623,-0.052691590040922165,9.947113037109375,0.04959999769926071,0.0405999980866909,0.12789998948574066,-0.20099999417411205,0.01700000066872456,0.05600000063342052
0.12168290466070175,-0.04267425090074539,9.946222305297852,0.04959999769926071,0.05089999735355377,0.12789998948574066,-1.2789999863571373,0.0859999990670082,-0.05900000114378995
0.12694057822227478,-0.03749319911003113,9.942229270935059,0.05959999933838844,0.06369999796152115,0.12799999117851257,-0.2570000081477458,0.16899999762364695,-0.0030000000934877653
0.10559387505054474,-0.041620802134275436,9.941798210144043,0.04050000011920929,0.05469999834895134,0.12799999117851257,-0.6269999999455048,0.03899999996469596,0.03400000133744912
0.1187140941619873,-0.04760630801320076,9.942726135253906,0.05040000006556511,0.056299999356269836,0.12799999117851257,1.1620000198135825,-0.08100000043976135,0.08400000095013078
0.12271720170974731,-0.04837245121598244,9.934836387634277,0.04039999842643738,0.043699998408555984,0.12799999117851257,2.180000015129432,-0.08100000043976135,0.024000000747902123
0.11024820059537888,-0.05352477356791496,9.944718360900879,0.0502999983727932,0.045499999076128006,0.11819999665021896,1.7060000412127683,0.02600000053230619,0.013000000266153095
0.1137341558933258,-0.03784754127264023,9.930536270141602,0.040300000458955765,0.04019999876618385,0.12789998948574066,-0.29500000571894974,0.0019999999928448997,-0.06899999839828364
0.11509406566619873,-0.0600753091275692,9.934366226196289,0.040300000458955765,0.054499998688697815,0.10830000042915344,0.4549999884712752,-0.08499999667351618,0.0030000000934877653
0.117526575922966,-0.04228160157799721,9.938063621520996,0.04999999701976776,0.04429999738931656,0.11809999495744705,0.8059999948236455,-0.15800000464576788,-0.014999999216793838
0.12139560282230377,-0.048305410891771317,9.943684577941895,0.0494999997317791,0.03219999745488167,0.12789998948574066,0.1390000058601659,0.13400000056281244,-0.035000000395887826
0.12198936194181442,-0.048544835299253464,9.93065071105957,0.04989999905228615,0.031700000166893005,0.10830000042915344,-0.31999999218507735,0.09600000299160849,-0.02600000053230619
0.12329180538654327,-0.06478710472583771,9.940390586853027,0.05009999871253967,0.022699998691678047,0.11809999495744705,-0.18400000017549412,0.0429999995335041,0.038000000906257256
0.11315954476594925,-0.05189671739935875,9.962589263916016,0.04039999842643738,0.032899998128414154,0.14749999344348907,-0.7369999830851486,0.0859999990670082,-0.015999999942759198
0.11607089638710022,-0.039657559245824814,9.941635131835938,0.05040000006556511,0.04470000043511391,0.12789998948574066,-1.3810000037096979,0.24399999704266945,-0.0539999991814898
0.11798626184463501,-0.05352477356791496,9.953204154968262,0.050999999046325684,0.03819999843835831,0.13769999146461487,0.31800000073830653,0.0039999999856897995,0.01400000015835513
0.11111011356115341,-0.04630386084318161,9.954726219177246,0.041200000792741776,0.04690000042319298,0.13769999146461487,-2.701999997212007,0.15500000413539844,-0.05999999686717535
0.11605174094438553,-0.04805641621351242,9.949344635009766,0.051500000059604645,0.04439999908208847,0.12799999117851257,0.5669999897381163,-0.10199999734224074,0.05600000063342052
0.12739068269729614,-0.061837442219257355,9.932882308959961,0.060999996960163116,0.03319999948143959,0.11809999495744705,0.7889999741446011,0.021000000237532696,-0.015999999942759198
0.11366712301969528,-0.06064991652965546,9.926743507385254,0.04149999842047691,0.030700000002980232,0.10830000042915344,0.8979999749010726,-0.12499999903170415,0.07799999992939192
0.11736376583576202,-0.058638785034418106,9.938915252685547,0.050999999046325684,0.02850000001490116,0.11809999495744705,-1.1560000187928436,0.1629999966029081,0.057000003026912535
0.12220963090658188,-0.060793567448854446,9.927433013916016,0.05139999836683273,0.031599998474121094,0.10830000042915344,-0.05799999875029794,0.09399999820462447,0.0539999991814898
0.11986330896615982,-0.033854011446237564,9.923698425292969,0.05159999802708626,0.060999996960163116,0.10830000042915344,0.9810000068082445,-0.07399999702553048,0.038000000906257256
0.11758402734994888,-0.06921158730983734,9.940849304199219,0.05139999836683273,0.01939999870955944,0.12789998948574066,0.4969999956164472,0.14600000260429016,0.019000000453128628
0.1165880411863327,-0.05102522671222687,9.939892768859863,0.051899999380111694,0.03739999979734421,0.11809999495744705,-0.6759999904945878,0.021999999295971403,-0.09500000059811649
0.1098363921046257,-0.06486371904611588,9.934348106384277,0.04209999740123749,0.02929999865591526,0.11809999495744705,-0.4280000105583768,0.12499999903170415,0.048000001495804245
0.11366712301969528,-0.0509486123919487,9.944278717041016,0.042399998754262924,0.04010000079870224,0.12789998948574066,0.7089999961086516,-0.017999999727163266,0.0539999991814898
0.1102098897099495,-0.03738785535097122,9.948808670043945,0.042399998754262924,0.057499997317790985,0.12789998948574066,0.5440000213991859,0.009999999755783667,-0.057000003026912535
0.10264421999454498,-0.055267754942178726,9.96433162689209,0.05219999700784683,0.046299997717142105,0.14749999344348907,0.6140000155208549,-0.024000000747902123,0.038000000906257256
0.11354261636734009,-0.05038357898592949,9.943090438842773,0.032499998807907104,0.03480000048875809,0.14749999344348907,0.01400000015835513,0.11599999750059588,0.048000001495804245
0.120399609208107,-0.05507621914148331,9.941988945007324,0.04230000078678131,0.03449999913573265,0.12789998948574066,0.3059999986968288,0.017999999727163266,0.017999999727163266
0.12734279036521912,-0.050230350345373154,9.926380157470703,0.052299998700618744,0.034299999475479126,0.12789998948574066,-0.3119999997175677,-0.006000000186975531,0.06099999926066736
0.13030202686786652,-0.056436121463775635,9.939452171325684,0.06209999695420265,0.033299997448921204,0.10819999873638153,-0.38400001196643396,0.05799999875029794,-0.05799999875029794
0.11406934261322021,-0.05204036831855774,9.939623832702637,0.04270000010728836,0.03500000014901161,0.11809999495744705,0.2250000115972807,0.02800000031671026,0.06099999926066736
0.11809160560369492,-0.05289270356297493,9.927270889282227,0.05249999836087227,0.034299999475479126,0.10830000042915344,-0.043999998591942806,-0.019000000453128628,-0.017999999727163266
0.11313082277774811,-0.05428134277462959,9.93459701538086,0.04259999841451645,0.034299999475479126,0.11809999495744705,-0.3450000053316314,0.07900000232288394,-0.07900000232288394
0.11473972350358963,-0.06395391374826431,9.944058418273926,0.042799998074769974,0.02539999969303608,0.12789998948574066,-0.3349999947369245,0.0659999978879142,-0.021999999295971403
0.12514013051986694,-0.052011638879776,9.9366455078125,0.06260000169277191,0.03610000014305115,0.11809999495744705,0.2729999930827651,0.010999999647985701,-0.0019999999928448997
0.10390835255384445,-0.04334462806582451,9.932738304138184,0.03319999948143959,0.04519999772310257,0.11809999495744705,-0.28600000418784144,0.019000000453128628,-0.007000000079177565
0.10812214761972427,-0.04299028217792511,9.93478775024414,0.04309999942779541,0.045899998396635056,0.11809999495744705,-0.0969999987149939,-0.009999999755783667,0.024999999806340833
0.12484325468540192,-0.05207867547869682,9.944901466369629,0.0625,0.03629999980330467,0.12789998948574066,-0.26300000916848465,0.06800000267489824,0.015999999942759198
0.11996866017580032,-0.04722323641180992,9.93686580657959,0.05289999768137932,0.046699997037649155,0.11809999495744705,0.17799999915475526,-0.008999999863581633,0.07699999753589991
0.11964304745197296,-0.037761349231004715,9.959773063659668,0.052799999713897705,0.0559999980032444,0.13769999146461487,-0.19999999845072666,0.031999999885518396,0.0019999999928448997
0.12386641651391983,-0.05052723363041878,9.954218864440918,0.05289999768137932,0.03680000081658363,0.13769999146461487,-0.2959999881021219,0.09000000197086964,-0.10100000161885533
0.12021765857934952,-0.04481945559382439,9.947591781616211,0.05309999734163284,0.04729999974370003,0.12789998948574066,0.1620000008795227,0.03999999902313467,0.06700000028140622
0.1123167872428894,-0.04341166839003563,9.930909156799316,0.043299999088048935,0.046699997037649155,0.10830000042915344,0.008999999863581633,0.0329999989439571,-0.008999999863581633
0.10898406058549881,-0.05787264183163643,9.945236206054688,0.043299999088048935,0.026999998837709427,0.12789998948574066,-0.407999989368963,0.04200000047506539,-0.08700000146050021
0.12568601965904236,-0.05990292876958847,9.944125175476074,0.06300000101327896,0.027899999171495438,0.12789998948574066,-0.2379999960219306,0.015999999942759198,-0.12100000279794933
0.11784260720014572,-0.056129664182662964,9.946471214294434,0.053199999034404755,0.03830000013113022,0.12789998948574066,0.10299999973573276,-0.010999999647985701,-0.009999999755783667
0.1123359426856041,-0.05363012105226517,9.928505897521973,0.04319999739527702,0.03779999911785126,0.10830000042915344,0.20099999417411205,0.09099999769425504,0.02800000031671026
0.11807245016098022,-0.06473921239376068,9.934041023254395,0.053199999034404755,0.027300000190734863,0.11809999495744705,-0.0269999995907449,-0.03899999996469596,0.17899999487814064
0.11384908109903336,-0.05366842821240425,9.920336723327637,0.04309999942779541,0.03700000047683716,0.09849999845027924,0.09800000110848592,0,0.02600000053230619
0.11297759413719177,-0.04426399990916252,9.933907508850098,0.042899999767541885,0.04639999940991402,0.11809999495744705,0.09399999820462447,-0.004999999877891834,0.07699999753589991
0.1055651381611824,-0.046265553683042526,9.942726135253906,0.07209999859333038,0.03610000014305115,0.12789998948574066,-0.049999999612681666,0.024000000747902123,0.0659999978879142
0.1057949811220169,-0.05763322487473488,9.928360939025879,0.04259999841451645,0.04529999941587448,0.12789998948574066,-0.049999999612681666,0,-0.29800000622931916
0.10784441977739334,-0.05101565271615982,9.929405212402344,0.04259999841451645,0.025699999183416367,0.10830000042915344,-0.12499999903170415,0.02800000031671026,-0.26600000967885407
0.12170206755399704,-0.049914319068193436,9.945389747619629,0.042500000447034836,0.035499997437000275,0.10830000042915344,-0.04900000055424296,-0.0030000000934877653,-0.3450000053316314
0.11520898342132568,-0.06385814398527145,9.935976028442383,0.05209999904036522,0.02579999901354313,0.11809999495744705,0.0269999995907449,0.007999999971379599,0.4100000074961602
0.12480494379997253,-0.06413587182760239,9.940668106079102,0.06189999729394913,0.025599999353289604,0.11809999495744705,-0.05200000106461238,0.057000003026912535,0.10400000212922476
0.11360965669155121,-0.041199423372745514,9.94149112701416,0.04230000078678131,0.04519999772310257,0.12789998948574066,-0.07799999992939192,0.08299999855663877,-0.3379999952472939
0.11734461039304733,-0.04627513140439987,9.948263168334961,0.05219999700784683,0.04519999772310257,0.12789998948574066,0.035000000395887826,0.057000003026912535,-0.2890000046982109
0.1130254715681076,-0.04620809108018875,9.935870170593262,0.042500000447034836,0.044999998062849045,0.11809999495744705,-0.13600000534979648,0.0429999995335041,0.0659999978879142
0.12076353281736374,-0.05985504016280174,9.958834648132324,0.052299998700618744,0.025599999353289604,0.13769999146461487,0.06099999926066736,0.006000000186975531,0.0269999995907449
0.11395442485809326,-0.047998953610658646,9.9299898147583,0.04230000078678131,0.03500000014901161,0.10830000042915344,-0.10999999647985702,0.0039999999856897995,0.019000000453128628
0.11765106767416,-0.03973417356610298,9.93490219116211,0.05199999734759331,0.04490000009536743,0.11809999495744705,-0.043999998591942806,0.048000001495804245,0.05999999686717535
0.11461522430181503,-0.052480898797512054,9.931732177734375,0.04209999740123749,0.035099998116493225,0.11809999495744705,-0.09200000008774706,0.014999999216793838,-0.02600000053230619
0.12476664036512375,-0.050728343427181244,9.95131778717041,0.06159999966621399,0.035099998116493225,0.13769999146461487,-0.16899999762364695,-0.01400000015835513,0.019000000453128628
0.12575304508209229,-0.058207832276821136,9.939671516418457,0.061400000005960464,0.025599999353289604,0.11809999495744705,-0.035000000395887826,0.05999999686717535,0.10299999973573276
0.11616666615009308,-0.043143514543771744,9.938092231750488,0.051500000059604645,0.045099999755620956,0.11809999495744705,0.08700000146050021,0.012000000373951061,-0.041000001416626686
0.11688492447137833,-0.05086242035031319,9.938426971435547,0.05139999836683273,0.0348999984562397,0.11809999495744705,-0.16800000190026157,0.006000000186975531,0.014999999216793838
0.11484506726264954,-0.04653370380401611,9.950655937194824,0.04149999842047691,0.04490000009536743,0.13769999146461487,-0.11500000177721047,-0.008999999863581633,0.0269999995907449
0.10738473385572433,-0.05379292368888855,9.947850227355957,0.04129999876022339,0.03519999980926514,0.12789998948574066,-0.0269999995907449,0.0539999991814898,0.04600000004387353
0.11416511237621307,-0.04453215003013611,9.944019317626953,0.040699999779462814,0.044199999421834946,0.12789998948574066,0.0009999999964224499,-0.013000000266153095,0.021999999295971403
0.11905886232852936,-0.05658935010433197,9.943349838256836,0.04859999939799309,0.03280000016093254,0.12789998948574066,0.05300000012305109,0.024999999806340833,0.05600000063342052
0.11238382756710052,-0.04646666720509529,9.954630851745605,0.04859999939799309,0.03280000016093254,0.12789998948574066,-0.09099999769425504,-0.007000000079177565,0.024000000747902123
0.1120677962899208,-0.04234864190220833,9.9487886428833,0.03819999843835831,0.041600000113248825,0.13769999146461487,-0.05499999823992851,0.07999999804626934,-0.0039999999856897995
0.1120677962899208,-0.04234864190220833,9.9487886428833,0.03749999776482582,0.04089999943971634,0.12789998948574066,-0.05499999823992851,0.07999999804626934,-0.0039999999856897995
0.11999738961458206,-0.058686673641204834,9.95179557800293,0.056199997663497925,0.03059999831020832,0.12789998948574066,-0.03100000082707969,0.0039999999856897995,0.03100000082707969
0.12627018988132477,-0.05242343991994858,9.957206726074219,0.045899998396635056,0.02070000022649765,0.13769999146461487,0.006000000186975531,0.004999999877891834,0.08200000283325337
0.11727757006883621,-0.05447287857532501,9.94597339630127,0.05480000004172325,0.029999999329447746,0.13769999146461487,-0.014999999216793838,0.024000000747902123,0.019000000453128628
0.12030384689569473,-0.04797980189323425,9.934845924377441,0.044199999421834946,0.029399998486042023,0.12789998948574066,-0.029999998433587676,0.057000003026912535,0.09099999769425504
0.12327265739440918,-0.05073792114853859,9.944001197814941,0.042899999767541885,0.028299998492002487,0.12789998948574066,-0.10400000212922476,0.02600000053230619,-0.048000001495804245
0.1169423907995224,-0.055938128381967545,9.935458183288574,0.042899999767541885,0.028299998492002487,0.12789998948574066,-0.0329999989439571,0.024999999806340833,0.04200000047506539
0.12824302911758423,-0.04132392257452011,9.933581352233887,0.0510999970138073,0.03709999844431877,0.11809999495744705,-0.10299999973573276,-0.007999999971379599,0.029999998433587676
0.12455594539642334,-0.05255751311779022,9.938570022583008,0.050200000405311584,0.026999998837709427,0.11809999495744705,0.017999999727163266,0.03100000082707969,0.05200000106461238
0.10415735095739365,-0.047692496329545975,9.927806854248047,0.020399998873472214,0.035999998450279236,0.10830000042915344,-0.09899999683187131,0.02800000031671026,-0.02899999937514897
0.11430876702070236,-0.042147524654865265,9.934232711791992,0.02979999966919422,0.035499997437000275,0.11809999495744705,0.10499999785261017,0.09600000299160849,0.0009999999964224499
0.12004527449607849,-0.0507187694311142,9.946442604064941,0.03920000046491623,0.024899998679757118,0.12789998948574066,0.04500000098543482,0.043999998591942806,0.02800000031671026
0.12040919810533524,-0.04986643046140671,9.948453903198242,0.03869999945163727,0.024299999698996544,0.12789998948574066,-0.03699999851276524,0.01400000015835513,0.0039999999856897995
0.107566699385643,-0.06064033880829811,9.946318626403809,0.02850000001490116,0.014299999922513962,0.12789998948574066,-0.024999999806340833,0.009999999755783667,0.05799999875029794
0.11636777967214584,-0.05227978900074959,9.946884155273438,0.037699997425079346,0.02369999885559082,0.12789998948574066,-0.021000000237532696,0.05999999686717535,0.008999999863581633
0.11229763925075531,-0.05816952511668205,9.950799942016602,0.027699999511241913,0.013599999248981476,0.13769999146461487,-0.0429999995335041,0.05900000114378995,0.03999999902313467
0.11821610480546951,-0.05779602751135826,9.939720153808594,0.03700000047683716,0.013399999588727951,0.11809999495744705,-0.07399999702553048,0.019000000453128628,0.006000000186975531
0.11382035166025162,-0.04593036696314812,9.937326431274414,0.026799999177455902,0.032600000500679016,0.11809999495744705,-0.013000000266153095,-0.0030000000934877653,-0.04900000055424296
0.1101907417178154,-0.05231809616088867,9.947151184082031,0.026399999856948853,0.02239999920129776,0.12789998948574066,-0.029999998433587676,0.049999999612681666,0.007999999971379599
0.13297396898269653,-0.04524083808064461,9.940831184387207,0.045499999076128006,0.031700000166893005,0.12789998948574066,-0.09399999820462447,-0.014999999216793838,-0.03699999851276524
0.11524729430675507,-0.04416823014616966,9.955818176269531,0.035099998116493225,0.03150000050663948,0.13769999146461487,0.004999999877891834,0.017999999727163266,0.038000000906257256
0.1245272234082222,-0.06235458701848984,9.942172050476074,0.04399999976158142,0.011099999770522118,0.12789998948574066,-0.02899999937514897,0.03699999851276524,-0.03999999902313467
0.12247778475284576,-0.03967671096324921,9.944230079650879,0.04399999976158142,0.011099999770522118,0.12789998948574066,-0.05499999823992851,0.09000000197086964,0.023000000021936765
0.12024638056755066,-0.04801810905337334,9.941156387329102,0.03350000083446503,0.02019999921321869,0.12789998948574066,0.0019999999928448997,0.0539999991814898,0.0019999999928448997
0.12148179858922958,-0.05718311294913292,9.95193099975586,0.03350000083446503,0.02019999921321869,0.12789998948574066,-0.03100000082707969,0.05499999823992851,-0.017999999727163266
0.11166556179523468,-0.049224790185689926,9.956718444824219,0.03319999948143959,0.01979999989271164,0.13769999146461487,-0.04500000098543482,0.057000003026912535,0.014999999216793838
0.11667423695325851,-0.04599740356206894,9.945178985595703,0.03269999846816063,0.028999999165534973,0.12789998948574066,-0.02899999937514897,0.03100000082707969,-0.0019999999928448997
0.12822386622428894,-0.05975927412509918,9.937957763671875,0.03269999846816063,0.028999999165534973,0.12789998948574066,-0.07099999651516105,0.013000000266153095,0
0.12732364237308502,-0.0438426211476326,9.948119163513184,0.04149999842047691,0.02850000001490116,0.12789998948574066,-0.02600000053230619,0.01400000015835513,0.019999999511567335
0.10715489089488983,-0.05535394325852394,9.943120002746582,0.02159999869763851,0.018400000408291817,0.12789998948574066,-0.0429999995335041,0.029999998433587676,0.024000000747902123
0.1286739856004715,-0.053850382566452026,9.941251754760742,0.040699999779462814,0.018199998885393143,0.12789998948574066,0.01400000015835513,0.015999999942759198,0.046999999102312236
0.1084190309047699,-0.0468018539249897,9.938197135925293,0.020800000056624413,0.027499999850988388,0.11809999495744705,0.0009999999964224499,0.03400000133744912,0.02600000053230619
0.12051453441381454,-0.059778425842523575,9.943483352661133,0.020800000056624413,0.027499999850988388,0.11809999495744705,-0.031999999885518396,0.019999999511567335,0.0030000000934877653
0.11360965669155121,-0.05379292368888855,9.947093963623047,0.02029999904334545,0.01719999872148037,0.12789998948574066,-0.024999999806340833,0.017999999727163266,0.038000000906257256
0.11318828165531158,-0.03783796355128288,9.933341979980469,0.019999999552965164,0.03629999980330467,0.11809999495744705,-0.0539999991814898,0.048000001495804245,0.024999999806340833
0.11450988054275513,-0.05374504253268242,9.927547454833984,0.01979999989271164,0.016499999910593033,0.10830000042915344,-0.07300000130214508,0.05099999867112037,0.01400000015835513
0.11783303320407867,-0.0584089420735836,9.95114517211914,0.029399998486042023,0.0066999997943639755,0.13769999146461487,-0.004999999877891834,-0.0019999999928448997,0.006000000186975531
0.1133798137307167,-0.049914319068193436,9.929137229919434,0.019299998879432678,0.016200000420212746,0.10830000042915344,-0.024999999806340833,0.02899999937514897,0.017999999727163266
0.12593501806259155,-0.04956955462694168,9.924779891967773,0.03839999809861183,0.01589999906718731,0.10830000042915344,-0.006000000186975531,0.043999998591942806,0.035000000395887826
0.11817779392004013,-0.04855440929532051,9.923324584960938,0.028299998492002487,0.015599999576807022,0.10830000042915344,-0.0019999999928448997,0.031999999885518396,0
0.12331096827983856,-0.05906974524259567,9.94161605834961,0.0279999990016222,0.005699999630451202,0.12789998948574066,0.0009999999964224499,0.013000000266153095,-0.023000000021936765
0.12236285954713821,-0.042406100779771805,9.943042755126953,0.027699999511241913,0.024899998679757118,0.12789998948574066,-0.031999999885518396,0.010999999647985701,-0.05799999875029794
0.11518983542919159,-0.06612785160541534,9.940552711486816,0.027300000190734863,0.005200000014156103,0.11809999495744705,0.03599999945432653,0,0.041000001416626686
0.12411541491746902,-0.04687846824526787,9.93779468536377,0.026999998837709427,0.024299999698996544,0.11809999495744705,-0.10499999785261017,0.03999999902313467,-0.04200000047506539
0.12129983305931091,-0.051389146596193314,9.932795524597168,0.02669999934732914,0.014499999582767487,0.11809999495744705,-0.009999999755783667,0.019999999511567335,0.03400000133744912
0.11895351111888885,-0.05258624628186226,9.942113876342773,0.026399999856948853,0.014299999922513962,0.12789998948574066,0.021000000237532696,0.04900000055424296,0.024000000747902123
0.11622412502765656,-0.056551042944192886,9.92415714263916,0.026200000196695328,0.013899999670684338,0.10830000042915344,-0.0269999995907449,0.03999999902313467,0.015999999942759198
0.11365754157304764,-0.04616020992398262,9.948826789855957,0.016300000250339508,0.023399999365210533,0.12789998948574066,-0.05499999823992851,0.0269999995907449,0.010999999647985701
0.11816821992397308,-0.05067088454961777,9.941787719726562,0.02579999901354313,0.013499999418854713,0.12789998948574066,-0.024999999806340833,-0.008999999863581633,0
0.11663593351840973,-0.04880340397357941,9.942784309387207,0.025499999523162842,0.023000000044703484,0.11809999495744705,-0.02800000031671026,0.07799999992939192,0.019000000453128628
0.11745953559875488,-0.05096776410937309,9.92660903930664,0.025100000202655792,0.012899999506771564,0.12789998948574066,0.007999999971379599,-0.014999999216793838,0.04200000047506539
0.12058157473802567,-0.03860410675406456,9.934845924377441,0.024899998679757118,0.012799999676644802,0.10830000042915344,-0.03100000082707969,-0.01400000015835513,0.019999999511567335
0.1345924437046051,-0.05459737405180931,9.944172859191895,0.04360000044107437,0.012199999764561653,0.12789998948574066,-0.0269999995907449,0.008999999863581633,0.012000000373951061
0.11881944537162781,-0.05691496282815933,9.934146881103516,0.02369999885559082,0.012000000104308128,0.11809999495744705,-0.0329999989439571,-0.015999999942759198,0.048000001495804245
0.11428003758192062,-0.05654146522283554,9.934662818908691,0.013700000010430813,0.011899999342858791,0.11809999495744705,-0.021999999295971403,0.048000001495804245,0.0030000000934877653
0.11985373497009277,-0.04911944270133972,9.935027122497559,0.02329999953508377,0.011699999682605267,0.11809999495744705,-0.049999999612681666,0.021000000237532696,0.007999999971379599
0.11404062062501907,-0.05956773832440376,9.931530952453613,0.013399999588727951,0.0018999999156221747,0.11809999495744705,-0.02800000031671026,0.024999999806340833,0.02800000031671026
0.11235509812831879,-0.0522606335580349,9.93478775024414,0.013299999758601189,0.011500000022351742,0.11809999495744705,-0.0429999995335041,-0.041000001416626686,0.01700000066872456
0.11129207164049149,-0.043871354311704636,9.95149040222168,0.012999999336898327,0.0210999995470047,0.13769999146461487,-0.0269999995907449,0.007000000079177565,0.038000000906257256
0.12086888402700424,-0.05158068239688873,9.944546699523926,0.022599998861551285,0.01119999960064888,0.12789998948574066,-0.03599999945432653,0.04200000047506539,0.03699999851276524
0.10945332050323486,-0.03938940912485123,9.953022003173828,0.01269999984651804,0.020800000056624413,0.13769999146461487,-0.06800000267489824,0.07699999753589991,0.02800000031671026
0.11318828165531158,-0.05707776919007301,9.945331573486328,0.012799999676644802,0.010900000110268593,0.12789998948574066,-0.06700000028140622,0.010999999647985701,0.02800000031671026
0.10984598100185394,-0.05096776410937309,9.93033504486084,0.012600000016391277,0.010900000110268593,0.10830000042915344,-0.04900000055424296,0.031999999885518396,-0.02600000053230619
0.113523468375206,-0.049655742943286896,9.94312858581543,0.01249999925494194,0.010799999348819256,0.12789998948574066,-0.06200000165415938,0.04600000004387353,0.012000000373951061
0.12363657355308533,-0.060151923447847366,9.932489395141602,0.022199999541044235,0.0009999999310821295,0.11809999495744705,-0.02800000031671026,0.015999999942759198,0.024999999806340833
0.11982500553131104,-0.04978024214506149,9.952858924865723,0.02199999988079071,0.010699999518692493,0.13769999146461487,-0.03999999902313467,0.041000001416626686,0.024000000747902123
0.1168370470404625,-0.049540821462869644,9.932144165039062,0.021800000220537186,0.010599999688565731,0.11809999495744705,-0.0329999989439571,0.031999999885518396,0.01400000015835513
0.11778514832258224,-0.05480806529521942,9.953969955444336,0.021699998527765274,0.010499999858438969,0.13769999146461487,-0.02899999937514897,0.015999999942759198,-0.019999999511567335
0.12292789667844772,-0.04789361357688904,9.948501586914062,0.021199999377131462,0.010199999436736107,0.12789998948574066,-0.007999999971379599,-0.0019999999928448997,0.03100000082707969
0.12292789667844772,-0.04789361357688904,9.948501586914062,0.021199999377131462,0.010199999436736107,0.12789998948574066,-0.007999999971379599,-0.0019999999928448997,0.03100000082707969
0.1180245652794838,-0.060937222093343735,9.941511154174805,0.020899999886751175,0.00029999998514540493,0.12789998948574066,-0.02600000053230619,-0.0030000000934877653,-0.03400000133744912
0.11534306406974792,-0.04749138653278351,9.938580513000488,0.02070000022649765,0.019600000232458115,0.11809999495744705,-0.05900000114378995,0.008999999863581633,0.035000000395887826
0.13179601728916168,-0.0533236600458622,9.929414749145508,0.03009999915957451,0.009800000116229057,0.10830000042915344,-0.1189999980109653,0.008999999863581633,0.04500000098543482
0.11569740623235703,-0.04543237388134003,9.949660301208496,0.020099999383091927,0.019600000232458115,0.12799999117851257,-0.0009999999964224499,-0.021999999295971403,-0.03599999945432653
0.11169429868459702,-0.04682100564241409,9.915079116821289,0.01979999989271164,0,0.11809999495744705,-0.029999998433587676,0.0030000000934877653,0.017999999727163266
0.11038228124380112,-0.04578671231865883,9.950244903564453,0.00989999994635582,0.019299998879432678,0.09849999845027924,0.010999999647985701,-0.006000000186975531,0.009999999755783667
0.11815864592790604,-0.05652231350541115,9.934107780456543,0.00969999935477972,0.019099999219179153,0.12799999117851257,-0.0429999995335041,0.004999999877891834,0.021999999295971403
0.11716265231370926,-0.05196375399827957,9.941387176513672,0.019099999219179153,0.008999999612569809,0.12799999117851257,-0.08899999957737763,-0.009999999755783667,0.013000000266153095
0.12840582430362701,-0.05578489974141121,9.943071365356445,0.019099999219179153,0.008999999612569809,0.12799999117851257,-0.029999998433587676,-0.004999999877891834,0.012000000373951061
0.11252748221158981,-0.04978981614112854,9.949871063232422,0.008799999952316284,0.008999999612569809,0.12799999117851257,-0.05200000106461238,0.02600000053230619,0.07999999804626934
0.11528559774160385,-0.05862921103835106,9.946145057678223,0.01850000023841858,-0.000699999975040555,0.12799999117851257,-0.02899999937514897,0.05799999875029794,-0.013000000266153095
0.1193365827202797,-0.05427176132798195,9.937009811401367,0.018400000408291817,0.008899999782443047,0.11819999665021896,-0.06200000165415938,0.03699999851276524,0.019999999511567335
0.11723926663398743,-0.030339322984218597,9.935524940490723,0.018299998715519905,0.028299998492002487,0.11819999665021896,-0.0009999999964224499,-0.0019999999928448997,-0.004999999877891834
0.11722969263792038,-0.06630022823810577,9.935956001281738,0.01809999905526638,-0.0010999999940395355,0.11819999665021896,-0.046999999102312236,0.015999999942759198,-0.010999999647985701
0.11656889319419861,-0.05149449035525322,9.937115669250488,0.017899999395012856,0.008499999530613422,0.11819999665021896,-0.04900000055424296,-0.012000000373951061,-0.007000000079177565
0.1204858124256134,-0.0499909333884716,9.94739055633545,0.01759999990463257,0.008499999530613422,0.12799999117851257,-0.015999999942759198,0.048000001495804245,0.03100000082707969
0.11354261636734009,-0.05589982122182846,9.925163269042969,0.007799999788403511,0.008299999870359898,0.10839999467134476,-0.04200000047506539,0.010999999647985701,0.02800000031671026
0.10999920964241028,-0.055373094975948334,9.933676719665527,0.007799999788403511,0.008200000040233135,0.11819999665021896,0.021000000237532696,0.041000001416626686,0.035000000395887826
0.11653058975934982,-0.04712746664881706,9.932537078857422,0.017500000074505806,0.01769999973475933,0.11819999665021896,-0.04600000004387353,0.04500000098543482,-0.035000000395887826
0.10974062979221344,-0.05326620116829872,9.931560516357422,0.007699999958276749,0.007799999788403511,0.11819999665021896,-0.03699999851276524,0.015999999942759198,0.03999999902313467
0.10775823146104813,-0.05152321979403496,9.935592651367188,0.007599999662488699,0.007799999788403511,0.11819999665021896,-0.03699999851276524,0.007000000079177565,0.031999999885518396
0.11436622589826584,-0.06336972862482071,9.944643020629883,0.007499999832361937,-0.0018999999156221747,0.12799999117851257,-0.07699999753589991,0.057000003026912535,0.03899999996469596
0.11585063487291336,-0.05199248343706131,9.935707092285156,0.01730000041425228,0.007799999788403511,0.11819999665021896,-0.05600000063342052,0.009999999755783667,0.007999999971379599
0.12089760601520538,-0.0516572967171669,9.9473237991333,0.017099998891353607,0.007799999788403511,0.12799999117851257,-0.046999999102312236,0.03100000082707969,0.02600000053230619
0.11571655422449112,-0.048257529735565186,9.939701080322266,0.016999999061226845,0.007699999958276749,0.11819999665021896,-0.06399999977103679,0.013000000266153095,-0.03599999945432653
0.11607089638710022,-0.054108958691358566,9.94411563873291,0.016899999231100082,0.007699999958276749,0.12799999117851257,-0.0329999989439571,0.023000000021936765,-0.02899999937514897
0.10974062979221344,-0.043564897030591965,9.943865776062012,0.00699999975040555,0.017400000244379044,0.12799999117851257,-0.03100000082707969,0.008999999863581633,-0.015999999942759198
0.11903012543916702,-0.04569094628095627,9.944172859191895,0.00699999975040555,-0.002099999925121665,0.12799999117851257,-0.057000003026912535,0.0429999995335041,-0.014999999216793838
0.1182352602481842,-0.04710831493139267,9.940046310424805,0.016699999570846558,0.01719999872148037,0.12799999117851257,-0.05499999823992851,0,0.006000000186975531
0.1227555051445961,-0.04663905128836632,9.929788589477539,0.016599999740719795,0.017099998891353607,0.11819999665021896,-0.0539999991814898,0.008999999863581633,0.0019999999928448997
0.12196063250303268,-0.04823837801814079,9.937402725219727,0.016200000420212746,0.0071000000461936,0.11819999665021896,-0.007000000079177565,0.06700000028140622,0.01700000066872456
0.1335677206516266,-0.07387548685073853,9.928648948669434,0.02589999884366989,-0.012399999424815178,0.10839999467134476,-0.01400000015835513,0.031999999885518396,-0.017999999727163266
0.11178048700094223,-0.04842033237218857,9.938780784606934,0.02589999884366989,-0.012399999424815178,0.10839999467134476,-0.06399999977103679,-0.015999999942759198,-0.0019999999928448997
0.1099417433142662,-0.03689943626523018,9.946404457092285,0.006099999882280827,0.026399999856948853,0.12799999117851257,-0.057000003026912535,0.048000001495804245,0.013000000266153095
0.10626424849033356,-0.03748362511396408,9.929462432861328,0.006099999882280827,0.026399999856948853,0.12799999117851257,-0.02899999937514897,0.035000000395887826,0.046999999102312236
0.11515152454376221,-0.04720408096909523,9.931062698364258,0.01589999906718731,0.016200000420212746,0.10839999467134476,-0.04200000047506539,0.02800000031671026,-0.03599999945432653
0.1138778105378151,-0.05127422511577606,9.954381942749023,0.006099999882280827,0.006399999838322401,0.13779999315738678,-0.041000001416626686,0.0269999995907449,0.019999999511567335
0.10750923305749893,-0.04996220022439957,9.932498931884766,0.006099999882280827,0.006300000008195639,0.11819999665021896,-0.06399999977103679,0.0030000000934877653,0.0269999995907449
0.11904928833246231,-0.05883990228176117,9.933178901672363,0.015699999406933784,-0.0032999999821186066,0.11819999665021896,-0.03100000082707969,-0.023000000021936765,0.0009999999964224499
0.11215398460626602,-0.049224790185689926,9.941549301147461,0.005699999630451202,0.006300000008195639,0.12799999117851257,-0.01400000015835513,0.009999999755783667,0.021000000237532696
0.1152951717376709,-0.04291366785764694,9.939623832702637,0.015399999916553497,0.01589999906718731,0.11819999665021896,-0.05999999686717535,0.04600000004387353,-0.03100000082707969
0.12043792009353638,-0.05270116776227951,9.939020156860352,0.01529999915510416,0.006099999882280827,0.11819999665021896,-0.0269999995907449,0.007999999971379599,0.041000001416626686
0.11975797265768051,-0.0566372349858284,9.94019889831543,0.015199999324977398,0.006000000052154064,0.11819999665021896,-0.08299999855663877,0.046999999102312236,0.010999999647985701
0.11878113448619843,-0.057221420109272,9.945446968078613,0.015099999494850636,0.006099999882280827,0.12799999117851257,-0.11699999322398127,-0.004999999877891834,-0.049999999612681666
0.11416511237621307,-0.06089891493320465,9.940476417541504,0.005200000014156103,-0.0032999999821186066,0.11819999665021896,0.0030000000934877653,0.07000000079177565,-0.014999999216793838
0.11890563368797302,-0.052308518439531326,9.925938606262207,0.014999999664723873,0.006199999712407589,0.10839999467134476,-0.04900000055424296,0.006000000186975531,0.04900000055424296
0.11820653080940247,-0.04689761996269226,9.926934242248535,0.01489999983459711,0.01589999906718731,0.10839999467134476,-0.041000001416626686,0.007000000079177565,0.017999999727163266
0.1126711368560791,-0.04011724516749382,9.929396629333496,0.004999999888241291,0.015699999406933784,0.10839999467134476,-0.013000000266153095,0.0539999991814898,0.03400000133744912
0.12203724682331085,-0.04836287349462509,9.939508438110352,0.014800000004470348,0.005799999926239252,0.11819999665021896,-0.035000000395887826,-0.02899999937514897,-0.01700000066872456
0.10785399377346039,-0.0421762578189373,9.943741798400879,0.004799999762326479,0.01549999974668026,0.12799999117851257,-0.03100000082707969,0.015999999942759198,0.029999998433587676
0.11025777459144592,-0.06239289417862892,9.939845085144043,0.004799999762326479,-0.003999999724328518,0.11819999665021896,-0.006000000186975531,0.009999999755783667,-0.004999999877891834
0.11510363966226578,-0.05281608924269676,9.941961288452148,0.014399999752640724,0.005499999970197678,0.10839999467134476,-0.128999995265459,0.041000001416626686,-0.0539999991814898
0.11815864592790604,-0.05057511478662491,9.955415725708008,0.014399999752640724,0.005699999630451202,0.12799999117851257,-0.057000003026912535,0.0009999999964224499,-0.008999999863581633
0.11434707790613174,-0.04326801374554634,9.927824974060059,0.0142000000923872,0.00559999980032444,0.13779999315738678,-0.06399999977103679,-0.0030000000934877653,-0.03100000082707969
0.11488337814807892,-0.05395573005080223,9.943885803222656,0.004299999680370092,0.005499999970197678,0.12799999117851257,-0.019000000453128628,-0.009999999755783667,-0.05900000114378995
0.11573570966720581,-0.05405149981379509,9.943340301513672,0.004299999680370092,0.005499999970197678,0.12799999117851257,-0.024000000747902123,0.05300000012305109,0.05099999867112037
0.10739430785179138,-0.06494033336639404,9.935937881469727,0.004100000020116568,-0.004299999680370092,0.11819999665021896,-0.07799999992939192,0.021000000237532696,-0.0329999989439571
0.11288182437419891,-0.056407392024993896,9.945206642150879,0.004100000020116568,0.005499999970197678,0.12799999117851257,-0.07000000079177565,0.031999999885518396,-0.03999999902313467
0.11809160560369492,-0.04909071326255798,9.940093994140625,0.004100000020116568,0.005499999970197678,0.12799999117851257,-0.057000003026912535,0.013000000266153095,-0.04500000098543482
0.10590033233165741,-0.06329311430454254,9.939653396606445,0.003999999724328518,-0.004100000020116568,0.11819999665021896,-0.07099999651516105,0.007999999971379599,-0.043999998591942806
0.11420342326164246,-0.05187756195664406,9.933475494384766,0.003999999724328518,0.00559999980032444,0.11819999665021896,-0.0030000000934877653,0.057000003026912535,0
0.11830229312181473,-0.054185573011636734,9.935410499572754,0.013799999840557575,0.005499999970197678,0.11819999665021896,-0.021000000237532696,0.014999999216793838,0.02800000031671026
0.11858002841472626,-0.06009446457028389,9.936348915100098,0.013700000010430813,-0.00419999985024333,0.11819999665021896,-0.05300000012305109,0.03100000082707969,0.008999999863581633
0.10681013017892838,-0.04861186817288399,9.932575225830078,0.0038999998942017555,0.005499999970197678,0.11819999665021896,-0.0269999995907449,-0.0039999999856897995,-0.02600000053230619
0.11026735603809357,-0.061224523931741714,9.945686340332031,0.0037999998312443495,-0.00419999985024333,0.12799999117851257,-0.05600000063342052,0.013000000266153095,-0.049999999612681666
0.12627018988132477,-0.05429091677069664,9.933321952819824,0.02319999970495701,0.005499999970197678,0.11819999665021896,-0.02800000031671026,0.010999999647985701,0.0429999995335041
0.1190875917673111,-0.04413950443267822,9.936808586120605,0.013299999758601189,0.015099999494850636,0.11819999665021896,-0.015999999942759198,-0.0019999999928448997,0.05099999867112037
0.09697474539279938,-0.04495352879166603,9.92868709564209,-0.006199999712407589,0.01489999983459711,0.10839999467134476,-0.05200000106461238,-0.01700000066872456,-0.007000000079177565
0.11736376583576202,-0.05422388017177582,9.947639465332031,0.013100000098347664,0.0050999997183680534,0.12799999117851257,-0.03400000133744912,0.0269999995907449,-0.03699999851276524
0.12036130577325821,-0.04752011597156525,9.944421768188477,0.0032999999821186066,-0.004600000102072954,0.12799999117851257,0,0.017999999727163266,0.019999999511567335
0.1223820149898529,-0.05746084079146385,9.932164192199707,0.012999999336898327,-0.004699999932199717,0.11819999665021896,-0.07099999651516105,-0.0039999999856897995,0.008999999863581633
0.12318646162748337,-0.057997141033411026,9.931503295898438,0.012799999676644802,-0.0044999998062849045,0.11819999665021896,-0.0039999999856897995,0.0019999999928448997,0.07300000130214508
0.11789049208164215,-0.04003105312585831,9.92656135559082,0.012799999676644802,-0.0044999998062849045,0.11819999665021896,-0.0269999995907449,0,-0.019999999511567335
0.09730993956327438,-0.04770207777619362,9.944786071777344,0.01269999984651804,0.014699999243021011,0.10839999467134476,-0.04900000055424296,0.0269999995907449,-0.01700000066872456
0.1120677962899208,-0.05747999623417854,9.933935165405273,-0.006799999624490738,0.014599999412894249,0.12799999117851257,0.010999999647985701,0.03699999851276524,-0.0659999978879142
0.11941319704055786,-0.047788266092538834,9.944708824157715,0.002899999963119626,-0.004799999762326479,0.11819999665021896,-0.046999999102312236,-0.007000000079177565,0.03100000082707969
0.11937489360570908,-0.0466773584485054,9.940381050109863,0.01249999925494194,0.014299999922513962,0.11819999665021896,-0.004999999877891834,0.012000000373951061,-0.0009999999964224499
0.11356177181005478,-0.04746265336871147,9.942852020263672,0.002699999837204814,0.014099999330937862,0.12799999117851257,-0.05900000114378995,-0.010999999647985701,-0.06899999839828364
0.11151233315467834,-0.0625557005405426,9.928926467895508,0.0026000000070780516,-0.0052999998442828655,0.10839999467134476,0.004999999877891834,0.0009999999964224499,0.0039999999856897995
0.10867760330438614,-0.04749138653278351,9.949249267578125,0.0026000000070780516,-0.0052999998442828655,0.10839999467134476,-0.014999999216793838,0.04500000098543482,-0.004999999877891834
0.11107181012630463,-0.04096957668662071,9.926456451416016,0.0026000000070780516,0.013700000010430813,0.10839999467134476,-0.0659999978879142,0,0.07699999753589991
0.12007400393486023,-0.05877286195755005,9.941941261291504,0.012299999594688416,-0.00559999980032444,0.12799999117851257,-0.043999998591942806,-0.0019999999928448997,0.007000000079177565
0.11819694936275482,-0.061981093138456345,9.94128131866455,0.012199999764561653,-0.00559999980032444,0.12799999117851257,-0.0269999995907449,-0.0019999999928448997,0.03400000133744912
0.11745953559875488,-0.05241386592388153,9.933208465576172,0.012000000104308128,0.004100000020116568,0.11819999665021896,0.048000001495804245,0.023000000021936765,-0.05300000012305109
0.11586020886898041,-0.042664673179388046,9.925938606262207,0.011899999342858791,0.013499999418854713,0.10839999467134476,-0.043999998591942806,-0.0019999999928448997,-0.07999999804626934
0.1272183060646057,-0.049301404505968094,9.943703651428223,0.02149999886751175,0.003700000001117587,0.12799999117851257,-0.0969999987149939,0.038000000906257256,-0.009999999755783667
0.12130940705537796,-0.0629100427031517,9.944881439208984,0.011699999682605267,-0.005799999926239252,0.12799999117851257,0.006000000186975531,-0.02600000053230619,0.0009999999964224499
0.1016673818230629,-0.04832456633448601,9.93722915649414,-0.007899999618530273,0.003700000001117587,0.11819999665021896,-0.05499999823992851,-0.031999999885518396,0.021999999295971403
0.11418426781892776,-0.04258805885910988,9.938531875610352,0.0016999999061226845,0.013499999418854713,0.11819999665021896,-0.0269999995907449,-0.08200000283325337,0.05099999867112037
0.1213381439447403,-0.05358223244547844,9.919628143310547,0.011099999770522118,0.003599999938160181,0.09860000014305115,-0.029999998433587676,0.007000000079177565,0.03599999945432653
0.11167514324188232,-0.05266286060214043,9.945619583129883,0.0013000000035390258,0.003499999875202775,0.12799999117851257,-0.06899999839828364,-0.0030000000934877653,-0.02800000031671026
0.1081700399518013,-0.0571160763502121,9.94394302368164,0.0013000000035390258,0.003599999938160181,0.12799999117851257,-0.023000000021936765,0,-0.0749999994190225
0.11856086552143097,-0.05358223244547844,9.930018424987793,0.010900000110268593,0.003499999875202775,0.10839999467134476,-0.05900000114378995,0.017999999727163266,0.007000000079177565
0.11611878126859665,-0.05187756195664406,9.948444366455078,0.010900000110268593,0.003499999875202775,0.12799999117851257,-0.057000003026912535,-0.004999999877891834,-0.02899999937514897
0.11747869104146957,-0.04725196585059166,9.933762550354004,0.010699999518692493,0.013299999758601189,0.11819999665021896,-0.0969999987149939,0.02899999937514897,0.021999999295971403
0.12057200074195862,-0.0558040551841259,9.935707092285156,0.010699999518692493,0.003599999938160181,0.11819999665021896,-0.04500000098543482,0.049999999612681666,0.0269999995907449
0.12022723257541656,-0.04677312448620796,9.933178901672363,0.010699999518692493,0.013299999758601189,0.11819999665021896,0.012000000373951061,0.012000000373951061,-0.041000001416626686
0.11708603799343109,-0.04279874637722969,9.940831184387207,0.010599999688565731,0.012999999336898327,0.12799999117851257,-0.024000000747902123,0.010999999647985701,0.014999999216793838
0.12243947386741638,-0.060937222093343735,9.936080932617188,0.010400000028312206,-0.006399999838322401,0.11819999665021896,-0.06500000216452881,0.007000000079177565,-0.046999999102312236
0.11111968755722046,-0.0662236139178276,9.937957763671875,0.0005999999702908099,-0.006300000008195639,0.11819999665021896,-0.08100000043976135,0.02600000053230619,0.05200000106461238
0.13111606240272522,-0.0509486123919487,9.932413101196289,0.019999999552965164,0.003499999875202775,0.11819999665021896,-0.03100000082707969,-0.029999998433587676,-0.05200000106461238
0.11751700192689896,-0.05617754906415939,9.940208435058594,0.009999999776482582,0.003399999812245369,0.11819999665021896,-0.06899999839828364,0.006000000186975531,-0.023000000021936765
0.11780429631471634,-0.05049850046634674,9.941596984863281,0.00989999994635582,0.003499999875202775,0.12799999117851257,-0.07399999702553048,0.03400000133744912,-0.004999999877891834
0.12762053310871124,-0.04627513140439987,9.934443473815918,0.019600000232458115,0.013299999758601189,0.11819999665021896,-0.08499999667351618,0.012000000373951061,-0.0019999999928448997
0.11541967839002609,-0.05448245257139206,9.921332359313965,0.00969999935477972,0.003599999938160181,0.09860000014305115,-0.09000000197086964,0.04500000098543482,-0.017999999727163266
0.12822386622428894,-0.04113238677382469,9.921409606933594,0.01939999870955944,0.013399999588727951,0.09860000014305115,0.0030000000934877653,0.0269999995907449,0.029999998433587676
0.1185896024107933,-0.05541140213608742,9.942909240722656,0.009499999694526196,0.003399999812245369,0.12799999117851257,-0.06299999737754478,0.0269999995907449,0.006000000186975531
0.11357135325670242,-0.04223372042179108,9.926178932189941,-0.00009999999747378752,0.013100000098347664,0.10839999467134476,-0.0659999978879142,0.04900000055424296,-0.0030000000934877653
0.1164827048778534,-0.05080495774745941,9.944489479064941,0.009599999524652958,0.003399999812245369,0.12799999117851257,-0.0659999978879142,-0.0019999999928448997,-0.004999999877891834
0.1278408020734787,-0.04630386084318161,9.9193115234375,0.019199999049305916,0.013100000098347664,0.09860000014305115,-0.07099999651516105,0.04500000098543482,0.03100000082707969
0.11413638293743134,-0.050651729106903076,9.935324668884277,-0.00019999999494757503,0.003399999812245369,0.11819999665021896,-0.041000001416626686,0.0859999990670082,0.03599999945432653
0.1230906993150711,-0.041860222816467285,9.935630798339844,0.009599999524652958,0.013100000098347664,0.11819999665021896,-0.03400000133744912,-0.0019999999928448997,-0.0039999999856897995
0.11715307831764221,-0.06347507238388062,9.947965621948242,0.009499999694526196,-0.006399999838322401,0.12799999117851257,-0.03899999996469596,0.04900000055424296,-0.029999998433587676
0.12497732788324356,-0.04880340397357941,9.938312530517578,0.019199999049305916,0.0032999999821186066,0.11819999665021896,-0.04200000047506539,0.019999999511567335,-0.04900000055424296
0.12093590945005417,-0.057451263070106506,9.937727928161621,0.009399999864399433,0.0032999999821186066,0.11819999665021896,-0.06700000028140622,-0.009999999755783667,-0.04200000047506539
0.11730630695819855,-0.05845683068037033,9.936176300048828,0.009200000204145908,-0.006300000008195639,0.11819999665021896,-0.05999999686717535,0.031999999885518396,-0.05499999823992851
0.13474567234516144,-0.04405330866575241,9.950934410095215,0.028699999675154686,0.013199999928474426,0.13779999315738678,-0.09000000197086964,0.024000000747902123,0.014999999216793838
0.11252748221158981,-0.04450342059135437,9.92406177520752,-0.0005999999702908099,0.013199999928474426,0.10839999467134476,-0.02800000031671026,-0.03999999902313467,-0.0009999999964224499
0.11904928833246231,-0.04767334461212158,9.93224048614502,0.008899999782443047,0.013100000098347664,0.11819999665021896,-0.046999999102312236,-0.009999999755783667,-0.0019999999928448997
0.10930966585874557,-0.053352389484643936,9.952974319458008,-0.0008999999845400453,0.0031999999191612005,0.13779999315738678,-0.0539999991814898,0.007000000079177565,-0.006000000186975531
0.1125657856464386,-0.05900270864367485,9.94749641418457,-0.0008999999845400453,-0.006399999838322401,0.12799999117851257,-0.05799999875029794,0.01700000066872456,-0.043999998591942806
0.11703815311193466,-0.05658935010433197,9.93294906616211,0.008799999952316284,0.003399999812245369,0.11819999665021896,-0.02800000031671026,0.019000000453128628,0.0659999978879142
0.11364796757698059,-0.055583786219358444,9.93632984161377,-0.0008999999845400453,0.0032999999821186066,0.11819999665021896,-0.06800000267489824,-0.0039999999856897995,0.014999999216793838
0.11526644974946976,-0.049157749861478806,9.928466796875,0.008700000122189522,0.013100000098347664,0.13779999315738678,-0.057000003026912535,0.046999999102312236,-0.03599999945432653
0.12132856994867325,-0.04833414405584335,9.940620422363281,0.008599999360740185,0.0032999999821186066,0.10839999467134476,-0.02600000053230619,0.017999999727163266,-0.021999999295971403
0.11894393712282181,-0.04707000404596329,9.940600395202637,0.008599999360740185,0.003399999812245369,0.11819999665021896,-0.031999999885518396,0.035000000395887826,0.05499999823992851
0.12814724445343018,-0.048544835299253464,9.946940422058105,0.008499999530613422,0.012999999336898327,0.11819999665021896,-0.02899999937514897,0.004999999877891834,0.046999999102312236
0.10808383673429489,-0.05064215511083603,9.940016746520996,-0.0013000000035390258,0.0030999998562037945,0.11819999665021896,-0.041000001416626686,-0.009999999755783667,-0.008999999863581633
0.1077103391289711,-0.04684973880648613,9.922262191772461,-0.0013000000035390258,0.012799999676644802,0.10839999467134476,-0.0269999995907449,0.02600000053230619,0.014999999216793838
0.12257354706525803,-0.05339069664478302,9.934146881103516,0.00839999970048666,0.002899999963119626,0.11819999665021896,-0.04900000055424296,0.004999999877891834,0.017999999727163266
0.11405019462108612,-0.046696510165929794,9.942325592041016,-0.0013000000035390258,0.01269999984651804,0.12799999117851257,-0.06700000028140622,0.06500000216452881,0.007999999971379599
0.11764149367809296,-0.05660850554704666,9.93429946899414,0.00839999970048666,0.002899999963119626,0.11819999665021896,-0.05300000012305109,0.012000000373951061,-0.01700000066872456
0.11619539558887482,-0.06560112535953522,9.937459945678711,0.00839999970048666,-0.0066999997943639755,0.11819999665021896,-0.04600000004387353,0.01400000015835513,0.010999999647985701
0.10784441977739334,-0.04364151135087013,9.934998512268066,-0.0013000000035390258,0.01269999984651804,0.11819999665021896,0.023000000021936765,-0.019999999511567335,-0.035000000395887826
0.12566685676574707,-0.05001965910196304,9.937976837158203,0.017899999395012856,0.002699999837204814,0.11819999665021896,-0.0329999989439571,0.01400000015835513,-0.04500000098543482
0.1279269903898239,-0.056436121463775635,9.935256958007812,0.017799999564886093,0.002699999837204814,0.11819999665021896,-0.02800000031671026,-0.03999999902313467,0.009999999755783667
0.11851298809051514,-0.05485595017671585,9.948616981506348,0.007799999788403511,0.002699999837204814,0.12799999117851257,-0.07799999992939192,-0.0019999999928448997,-0.06399999977103679
0.11836933344602585,-0.055957283824682236,9.951739311218262,0.007699999958276749,0.00279999990016222,0.13779999315738678,-0.0039999999856897995,0.08499999667351618,-0.048000001495804245
0.11771810799837112,-0.04137180745601654,9.93659782409668,0.007799999788403511,0.012399999424815178,0.11819999665021896,-0.09600000299160849,0.10400000212922476,-0.024999999806340833
0.12739068269729614,-0.05516240745782852,9.9418363571167,0.01769999973475933,0.002699999837204814,0.12799999117851257,-0.03599999945432653,0.03599999945432653,-0.0659999978879142
0.12618400156497955,-0.052049946039915085,9.944718360900879,0.01769999973475933,0.002699999837204814,0.12799999117851257,-0.06099999926066736,0.006000000186975531,0.029999998433587676
0.10828495770692825,-0.03249410539865494,9.925057411193848,-0.0017999999690800905,0.022099999710917473,0.10839999467134476,-0.021000000237532696,0.0019999999928448997,0.08100000043976135
0.10907982289791107,-0.04077804088592529,9.932767868041992,-0.0017999999690800905,0.012199999764561653,0.11819999665021896,-0.014999999216793838,-0.0019999999928448997,-0.05900000114378995
0.11922166496515274,-0.052308518439531326,9.940265655517578,0.007799999788403511,0.002300000051036477,0.11819999665021896,-0.06500000216452881,-0.041000001416626686,-0.0030000000934877653
0.11994951218366623,-0.04743392392992973,9.933792114257812,0.007599999662488699,0.012000000104308128,0.11819999665021896,0.012000000373951061,0.02600000053230619,-0.004999999877891834
0.12174037098884583,-0.06070737913250923,9.930008888244629,0.007499999832361937,-0.007499999832361937,0.10839999467134476,-0.0269999995907449,0.017999999727163266,-0.0009999999964224499
0.11360965669155121,-0.04628470540046692,9.934260368347168,-0.002099999925121665,0.011799999512732029,0.11819999665021896,-0.06700000028140622,-0.021000000237532696,-0.017999999727163266
0.11620496958494186,-0.06414545327425003,9.944067001342773,0.007400000002235174,0.002099999925121665,0.11819999665021896,-0.04200000047506539,-0.024999999806340833,-0.06700000028140622
0.11063127219676971,-0.06094679981470108,9.95020580291748,0.0072999997064471245,-0.007499999832361937,0.12799999117851257,-0.046999999102312236,0.03100000082707969,-0.043999998591942806
0.10656112432479858,-0.05717353895306587,9.947649002075195,-0.0024999999441206455,-0.007400000002235174,0.12799999117851257,-0.01700000066872456,-0.014999999216793838,-0.05999999686717535
0.11168472468852997,-0.043277591466903687,9.934529304504395,-0.0023999998811632395,0.012000000104308128,0.11819999665021896,-0.04200000047506539,0.0429999995335041,-0.021999999295971403
0.10911813378334045,-0.05485595017671585,9.950799942016602,-0.0023999998811632395,0.012000000104308128,0.11819999665021896,-0.009999999755783667,0.0329999989439571,-0.0019999999928448997
0.1137341558933258,-0.059155937284231186,9.946845054626465,-0.002300000051036477,-0.007499999832361937,0.12799999117851257,-0.11099999887334903,-0.019999999511567335,-0.049999999612681666
0.11700942367315292,-0.0513029545545578,9.949057579040527,0.0072999997064471245,0.0023999998811632395,0.12799999117851257,-0.035000000395887826,0.03100000082707969,0.007999999971379599
0.10872548818588257,-0.044752418994903564,9.925402641296387,-0.002300000051036477,0.01209999993443489,0.10839999467134476,-0.03899999996469596,0.05499999823992851,-0.0329999989439571
0.11305420845746994,-0.04158249497413635,9.942248344421387,-0.002199999988079071,0.012000000104308128,0.12799999117851257,-0.02800000031671026,0.03999999902313467,0.05600000063342052
0.1286548227071762,-0.03585556522011757,9.939547538757324,0.01719999872148037,0.02149999886751175,0.11819999665021896,-0.038000000906257256,0.0030000000934877653,-0.05200000106461238
0.11413638293743134,-0.05315127968788147,9.927892684936523,-0.002300000051036477,0.0018999999156221747,0.10839999467134476,-0.0269999995907449,0,-0.0039999999856897995
0.12047622352838516,-0.04238694906234741,9.93348503112793,0.0072999997064471245,0.011599999852478504,0.11819999665021896,-0.05499999823992851,0.0329999989439571,-0.0039999999856897995
0.11850340664386749,-0.049799397587776184,9.924003601074219,0.0072999997064471245,0.0017999999690800905,0.10839999467134476,-0.048000001495804245,-0.004999999877891834,0.021999999295971403
0.11851298809051514,-0.058140791952610016,9.94090747833252,0.007199999876320362,-0.007799999788403511,0.12799999117851257,-0.0539999991814898,-0.04200000047506539,0.0030000000934877653
0.1173158809542656,-0.04506845027208328,9.950542449951172,-0.0026000000070780516,0.021399999037384987,0.10839999467134476,-0.06800000267489824,0.01400000015835513,-0.017999999727163266
0.11713392287492752,-0.03694731742143631,9.939892768859863,0.00699999975040555,0.0210999995470047,0.11819999665021896,-0.024999999806340833,0.017999999727163266,-0.014999999216793838
0.11713392287492752,-0.03694731742143631,9.939892768859863,0.00699999975040555,0.0210999995470047,0.11819999665021896,-0.024999999806340833,0.017999999727163266,-0.014999999216793838
0.12416329979896545,-0.062096014618873596,9.956125259399414,0.016599999740719795,0.001500000013038516,0.10839999467134476,-0.024000000747902123,0.03899999996469596,-0.019999999511567335
0.12294704467058182,-0.05731718987226486,9.947994232177734,0.006799999624490738,-0.008200000040233135,0.13779999315738678,-0.03599999945432653,0.024999999806340833,0
0.11653058975934982,-0.056579772382974625,9.928620338439941,0.006799999624490738,0.001500000013038516,0.10839999467134476,0.021000000237532696,-0.012000000373951061,0.006000000186975531
0.11653058975934982,-0.056579772382974625,9.928620338439941,0.006799999624490738,0.001500000013038516,0.10839999467134476,0.021000000237532696,-0.012000000373951061,0.006000000186975531
0.10988428443670273,-0.05035484954714775,9.938119888305664,-0.003000000026077032,0.0013000000035390258,0.11819999665021896,-0.0859999990670082,0.010999999647985701,0.08700000146050021
0.11509406566619873,-0.05202121287584305,9.951001167297363,-0.01269999984651804,0.01119999960064888,0.12799999117851257,-0.128999995265459,0.0269999995907449,0.0039999999856897995
0.11509406566619873,-0.05202121287584305,9.951001167297363,0.006799999624490738,0.0015999999595806003,0.13779999315738678,-0.05600000063342052,0.04600000004387353,0.02899999937514897
0.11895351111888885,-0.05637866258621216,9.931723594665527,-0.00279999990016222,0.011299999430775642,0.11819999665021896,-0.08299999855663877,-0.0019999999928448997,0.024999999806340833
0.10883083194494247,-0.06164590269327164,9.930832862854004,0.00699999975040555,0.001500000013038516,0.11819999665021896,-0.02899999937514897,-0.007999999971379599,0.0039999999856897995
0.11472056806087494,-0.04390966147184372,9.941224098205566,-0.00279999990016222,-0.007999999448657036,0.10839999467134476,-0.035000000395887826,0.041000001416626686,-0.03999999902313467
0.12166375666856766,-0.05171475559473038,9.940658569335938,0.006899999920278788,0.0015999999595806003,0.11819999665021896,-0.046999999102312236,0.017999999727163266,0.029999998433587676
0.1186087504029274,-0.04558560252189636,9.93305492401123,0.006899999920278788,0.011299999430775642,0.11819999665021896,-0.024000000747902123,0.0030000000934877653,0.012000000373951061
0.12398134171962738,-0.034323275089263916,9.937163352966309,0.006799999624490738,0.020899999886751175,0.11819999665021896,-0.06800000267489824,0.05499999823992851,-0.04200000047506539
0.12032299488782883,-0.05014416202902794,9.945782661437988,0.006899999920278788,0.0013000000035390258,0.12799999117851257,-0.019000000453128628,0.06700000028140622,0.04600000004387353
0.11618582159280777,-0.05616797134280205,9.93588924407959,0.006899999920278788,0.0013000000035390258,0.12799999117851257,-0.008999999863581633,-0.0030000000934877653,0.0539999991814898
0.11911632865667343,-0.05363012105226517,9.954957008361816,0.006899999920278788,0.0011999999405816197,0.13779999315738678,-0.019000000453128628,0.013000000266153095,0
0.12115617841482162,-0.05488467961549759,9.948837280273438,0.006799999624490738,0.0010999999940395355,0.12799999117851257,-0.03400000133744912,-0.006000000186975531,-0.0429999995335041
0.12872186303138733,-0.042358215898275375,9.937000274658203,0.01640000008046627,0.010799999348819256,0.11819999665021896,-0.05799999875029794,0.03100000082707969,-0.05999999686717535
0.11870452016592026,-0.058092910796403885,9.94361686706543,0.006599999964237213,-0.008599999360740185,0.12799999117851257,-0.07999999804626934,0.06899999839828364,-0.04200000047506539
0.1177564188838005,-0.05180094763636589,9.939193725585938,0.006799999624490738,0.0013000000035390258,0.11819999665021896,-0.08100000043976135,-0.007999999971379599,0.0329999989439571
0.12426864355802536,-0.04353616386651993,9.947745323181152,0.006799999624490738,0.0013000000035390258,0.11819999665021896,-0.007000000079177565,0.004999999877891834,0.0269999995907449
0.11144530028104782,-0.04659116268157959,9.933706283569336,-0.003000000026077032,0.010900000110268593,0.11819999665021896,-0.021999999295971403,-0.012000000373951061,-0.03999999902313467
0.11177091300487518,-0.06225882098078728,9.931503295898438,-0.0030999998562037945,-0.008599999360740185,0.11819999665021896,-0.041000001416626686,0.019000000453128628,-0.019000000453128628
0.1097119003534317,-0.045221682637929916,9.935659408569336,-0.003000000026077032,0.010900000110268593,0.11819999665021896,-0.0030000000934877653,0.03999999902313467,0.019000000453128628
0.11424172669649124,-0.06132987141609192,9.935381889343262,0.0066999997943639755,0.0008999999845400453,0.11819999665021896,-0.031999999885518396,0.004999999877891834,0.0009999999964224499
0.10978851467370987,-0.04372769966721535,9.93828296661377,-0.003000000026077032,-0.008700000122189522,0.11819999665021896,-0.0329999989439571,0.0019999999928448997,-0.02600000053230619
0.11556332558393478,-0.04862144961953163,9.932048797607422,0.0066999997943639755,0.0008999999845400453,0.11819999665021896,-0.05499999823992851,-0.013000000266153095,-0.06200000165415938
0.12148179858922958,-0.04476199299097061,9.932422637939453,0.006599999964237213,0.010699999518692493,0.11819999665021896,-0.024000000747902123,0.01400000015835513,0.024000000747902123
0.10400412231683731,-0.050249505788087845,9.919608116149902,-0.012799999676644802,0.0008999999845400453,0.09860000014305115,-0.0329999989439571,0.009999999755783667,-0.007999999971379599
0.12009315192699432,-0.0565127357840538,9.942899703979492,-0.012799999676644802,0.0008999999845400453,0.09860000014305115,-0.02899999937514897,0.024000000747902123,0.010999999647985701
0.10158119350671768,-0.06192363426089287,9.94597339630127,0.006599999964237213,0.0007999999797903001,0.12799999117851257,-0.029999998433587676,0.01700000066872456,0.012000000373951061
0.11315954476594925,-0.05797798931598663,9.93179988861084,-0.01269999984651804,-0.008799999952316284,0.12799999117851257,-0.029999998433587676,0.01700000066872456,0.012000000373951061
0.1146918386220932,-0.051006071269512177,9.946969985961914,-0.002899999963119626,0.0008999999845400453,0.12799999117851257,-0.03599999945432653,0.041000001416626686,0.06399999977103679
0.12425906956195831,-0.055392250418663025,9.944517135620117,-0.002899999963119626,0.0008999999845400453,0.12799999117851257,-0.024000000747902123,0.01400000015835513,0.04900000055424296
0.11629116535186768,-0.052806511521339417,9.940888404846191,0.006799999624490738,0.0007999999797903001,0.12799999117851257,0.007000000079177565,0.024000000747902123,0.05300000012305109
0.11087068915367126,-0.04500141367316246,9.938129425048828,-0.00279999990016222,0.010400000028312206,0.11819999665021896,-0.0269999995907449,0.07399999702553048,0.035000000395887826
0.11872366815805435,-0.04172614589333534,9.9490385055542,0.00699999975040555,0.010300000198185444,0.12799999117851257,-0.04600000004387353,-0.004999999877891834,0.021999999295971403
0.11629116535186768,-0.05607220530509949,9.928333282470703,0.006899999920278788,0.0004999999655410647,0.10839999467134476,-0.048000001495804245,0.01400000015835513,0.035000000395887826
0.1168370470404625,-0.0465720109641552,9.935870170593262,0.006799999624490738,0.010300000198185444,0.11819999665021896,-0.03899999996469596,-0.007999999971379599,0.049999999612681666
0.12530294060707092,-0.040509890764951706,9.933120727539062,0.01640000008046627,0.010199999436736107,0.11819999665021896,-0.07000000079177565,0.01400000015835513,-0.0659999978879142
0.10955867171287537,-0.053429003804922104,9.934002876281738,-0.003000000026077032,0.0004999999655410647,0.11819999665021896,-0.03100000082707969,0.019999999511567335,-0.04900000055424296
0.11062169820070267,-0.059989117085933685,9.944268226623535,-0.003000000026077032,-0.009200000204145908,0.12799999117851257,-0.04900000055424296,-0.05900000114378995,0.0039999999856897995
0.1152760237455368,-0.04873637109994888,9.940159797668457,0.0064999996684491634,0.0005999999702908099,0.11819999665021896,-0.0539999991814898,0.014999999216793838,0.08400000095013078
0.13074256479740143,-0.04593036696314812,9.937737464904785,0.016200000420212746,0.010300000198185444,0.11819999665021896,-0.02800000031671026,-0.0019999999928448997,-0.0429999995335041
0.11309251189231873,-0.055938128381967545,9.931435585021973,-0.003399999812245369,0.0004999999655410647,0.11819999665021896,-0.019000000453128628,0.03699999851276524,-0.0429999995335041
0.11275732517242432,-0.05848555639386177,9.942229270935059,-0.0032999999821186066,-0.009200000204145908,0.12799999117851257,-0.04500000098543482,-0.0329999989439571,0.0009999999964224499
0.11769896000623703,-0.05353435128927231,9.950043678283691,0.006300000008195639,0.0005999999702908099,0.12799999117851257,-0.08799999718388561,0.046999999102312236,0.046999999102312236
0.1111292615532875,-0.04142926633358002,9.93944263458252,-0.0032999999821186066,0.010400000028312206,0.11819999665021896,-0.02800000031671026,0.01400000015835513,0.017999999727163266
0.11294885724782944,-0.050010085105895996,9.945619583129883,-0.0032999999821186066,0.0005999999702908099,0.12799999117851257,-0.06200000165415938,0.019999999511567335,0.0429999995335041
0.1164827048778534,-0.04993347078561783,9.936664581298828,0.006399999838322401,0.0005999999702908099,0.11819999665021896,-0.07000000079177565,0.09500000059811649,0.008999999863581633
0.10501926392316818,-0.06368576735258102,9.933581352233887,-0.012799999676644802,-0.008899999782443047,0.11819999665021896,-0.04500000098543482,0.0269999995907449,0.05900000114378995
0.10408073663711548,-0.05717353895306587,9.935812950134277,-0.012600000016391277,0.0007999999797903001,0.11819999665021896,-0.04600000004387353,-0.019000000453128628,-0.006000000186975531
0.1275056004524231,-0.041764453053474426,9.936501502990723,0.006799999624490738,-0.008799999952316284,0.10839999467134476,-0.04900000055424296,0.05300000012305109,0.006000000186975531
0.1146918386220932,-0.048755522817373276,9.922443389892578,-0.003000000026077032,0.0008999999845400453,0.10839999467134476,-0.05200000106461238,-0.031999999885518396,-0.013000000266153095
0.10615890473127365,-0.05602432042360306,9.9299898147583,-0.0030999998562037945,0.0008999999845400453,0.10839999467134476,-0.0269999995907449,0.013000000266153095,0.043999998591942806
0.1110239177942276,-0.06404968351125717,9.930803298950195,-0.0030999998562037945,-0.008700000122189522,0.10839999467134476,-0.09399999820462447,-0.02899999937514897,-0.023000000021936765
0.11736376583576202,-0.05268201604485512,9.93930721282959,0.0064999996684491634,0.0010999999940395355,0.11819999665021896,0.010999999647985701,-0.03899999996469596,-0.021999999295971403
0.11655931919813156,-0.06428910046815872,9.932001113891602,0.0064999996684491634,0.0010999999940395355,0.11819999665021896,-0.008999999863581633,0.024999999806340833,-0.08299999855663877
0.1161092072725296,-0.04485776275396347,9.932422637939453,0.006199999712407589,0.010699999518692493,0.11819999665021896,0.024000000747902123,-0.013000000266153095,0
0.11667423695325851,-0.06009446457028389,9.936588287353516,0.006099999882280827,-0.008899999782443047,0.11819999665021896,0.015999999942759198,-0.05099999867112037,0.006000000186975531
0.11471099406480789,-0.05159026011824608,9.93398380279541,-0.003700000001117587,0.000699999975040555,0.11819999665021896,0.008999999863581633,-0.038000000906257256,0
0.11172302812337875,-0.03643975034356117,9.93544864654541,-0.0037999998312443495,0.019999999552965164,0.11819999665021896,0.0269999995907449,-0.05099999867112037,-0.012000000373951061
0.12010274082422256,-0.06038176640868187,9.93655014038086,0.00559999980032444,-0.009499999694526196,0.11819999665021896,-0.0039999999856897995,-0.05999999686717535,0.03100000082707969
0.12294704467058182,-0.05641696974635124,9.929224014282227,0.005399999674409628,0.00019999999494757503,0.10839999467134476,0.004999999877891834,-0.02899999937514897,-0.006000000186975531
0.11175175756216049,-0.0414675734937191,9.943761825561523,-0.004399999976158142,0.009800000116229057,0.12809999287128448,0.02899999937514897,-0.05600000063342052,0.0329999989439571
0.11674126982688904,-0.04306689649820328,9.942574501037598,0.0050999997183680534,0.009499999694526196,0.12809999287128448,-0.010999999647985701,-0.03100000082707969,-0.008999999863581633
0.12531252205371857,-0.0517817959189415,9.934337615966797,0.014699999243021011,-0.00019999999494757503,0.11819999665021896,0.021000000237532696,-0.021999999295971403,0.06299999737754478
0.11755530536174774,-0.052097827196121216,9.946069717407227,0.004699999932199717,-0.00039999998989515007,0.12809999287128448,-0.0039999999856897995,-0.023000000021936765,-0.024999999806340833
0.1275056004524231,-0.047357309609651566,9.933570861816406,0.014299999922513962,0.009099999442696571,0.11829999834299088,0.019000000453128628,-0.024999999806340833,0.007000000079177565
0.11291055381298065,-0.05492299050092697,9.921839714050293,-0.005200000014156103,-0.000699999975040555,0.10839999467134476,0.05900000114378995,-0.03699999851276524,0.038000000906257256
0.11851298809051514,-0.04424484819173813,9.942066192626953,0.004299999680370092,0.008599999360740185,0.12809999287128448,-0.0030000000934877653,-0.024000000747902123,0.019000000453128628
0.13153745234012604,-0.044493842869997025,9.936789512634277,0.013899999670684338,0.008499999530613422,0.11829999834299088,0.0030000000934877653,-0.01700000066872456,-0.007000000079177565
0.12308112531900406,-0.056292470544576645,9.931302070617676,0.003999999724328518,-0.0013000000035390258,0.11829999834299088,-0.0009999999964224499,-0.043999998591942806,-0.0039999999856897995
0.11645397543907166,-0.048832137137651443,9.933016777038574,0.0037999998312443495,-0.00139999995008111,0.11829999834299088,0,-0.024000000747902123,-0.007000000079177565
0.1276300996541977,-0.0536780022084713,9.953079223632812,0.013399999588727951,-0.001500000013038516,0.1378999948501587,0.04900000055424296,0.04600000004387353,0.019999999511567335
0.12113703042268753,-0.06283342838287354,9.933772087097168,0.003700000001117587,-0.011399999260902405,0.11829999834299088,0.03400000133744912,-0.017999999727163266,0.01700000066872456
0.1245272234082222,-0.05559336394071579,9.926637649536133,0.013299999758601189,-0.0017999999690800905,0.10839999467134476,-0.015999999942759198,0.012000000373951061,0.006000000186975531
0.11518025398254395,-0.04353616386651993,9.933686256408691,0.003399999812245369,0.007799999788403511,0.11829999834299088,-0.06299999737754478,-0.017999999727163266,-0.06800000267489824
0.11182837933301926,-0.04776911064982414,9.943004608154297,-0.006300000008195639,0.007799999788403511,0.12809999287128448,0.024999999806340833,-0.02899999937514897,0.008999999863581633
0.11055465787649155,-0.04073973372578621,9.932604789733887,0.0032999999821186066,-0.002099999925121665,0.12809999287128448,-0.05900000114378995,-0.029999998433587676,0.015999999942759198
0.11531433463096619,-0.053926996886730194,9.950167655944824,-0.0064999996684491634,0.007400000002235174,0.11829999834299088,0.010999999647985701,-0.046999999102312236,0.0269999995907449
0.1295933574438095,-0.05229894071817398,9.944853782653809,0.0030999998562037945,-0.002300000051036477,0.12809999287128448,0.048000001495804245,-0.03899999996469596,0.03999999902313467
0.12130940705537796,-0.04914817586541176,9.942229270935059,0.002699999837204814,-0.0026000000070780516,0.12809999287128448,-0.012000000373951061,0.0030000000934877653,0.05099999867112037
0.11761276423931122,-0.050699613988399506,9.938015937805176,0.002699999837204814,-0.0026000000070780516,0.11829999834299088,-0.007000000079177565,0.004999999877891834,0.004999999877891834
0.11046846956014633,-0.05536352097988129,9.934510231018066,-0.00699999975040555,-0.002699999837204814,0.11829999834299088,0.0269999995907449,-0.023000000021936765,-0.01400000015835513
0.1157548651099205,-0.06502652168273926,9.93016242980957,0.0026000000070780516,-0.01249999925494194,0.10849999636411667,0.029999998433587676,-0.0269999995907449,0.041000001416626686
0.11657846719026566,-0.05732676759362221,9.942400932312012,0.0023999998811632395,-0.002899999963119626,0.12809999287128448,0.024999999806340833,-0.05900000114378995,0.02899999937514897
0.11877156049013138,-0.051408298313617706,9.92802619934082,0.002300000051036477,-0.003000000026077032,0.10849999636411667,0.03100000082707969,-0.03999999902313467,-0.035000000395887826
0.1100662350654602,-0.05234682559967041,9.941289901733398,-0.007499999832361937,-0.0031999999191612005,0.12809999287128448,0.010999999647985701,-0.048000001495804245,-0.0030000000934877653
0.10717403888702393,-0.049464207142591476,9.925507545471191,-0.007599999662488699,-0.0032999999821186066,0.10849999636411667,0.0269999995907449,-0.031999999885518396,0.007000000079177565
0.09888052940368652,-0.049540821462869644,9.938092231750488,-0.017400000244379044,-0.003399999812245369,0.11829999834299088,0.009999999755783667,-0.03599999945432653,0.008999999863581633
0.10528741776943207,-0.05917508900165558,9.925575256347656,-0.01730000041425228,-0.013199999928474426,0.10849999636411667,0.010999999647985701,-0.029999998433587676,-0.017999999727163266
0.1156303659081459,-0.05097734183073044,9.929022789001465,0.001999999862164259,-0.003499999875202775,0.10849999636411667,0.015999999942759198,-0.02899999937514897,0.01400000015835513
0.11784260720014572,-0.049655742943286896,9.93993091583252,0.0018999999156221747,-0.003599999938160181,0.11829999834299088,0.008999999863581633,-0.0030000000934877653,0.031999999885518396
0.1136288121342659,-0.050038814544677734,9.930229187011719,-0.007699999958276749,-0.003700000001117587,0.10849999636411667,0.013000000266153095,0.03899999996469596,0.021999999295971403
0.1138778105378151,-0.07196012884378433,9.939757347106934,-0.007599999662488699,-0.02319999970495701,0.11829999834299088,0.07000000079177565,-0.05600000063342052,0.019999999511567335
0.11252748221158981,-0.056579772382974625,9.947035789489746,-0.007699999958276749,-0.0038999998942017555,0.12809999287128448,-0.03599999945432653,-0.06299999737754478,-0.08700000146050021
0.1273619532585144,-0.05407065153121948,9.940438270568848,0.011500000022351742,-0.0038999998942017555,0.11829999834299088,-0.006000000186975531,-0.0429999995335041,-0.024999999806340833
0.11621455103158951,-0.04572925344109535,9.950915336608887,0.001500000013038516,0.005699999630451202,0.1378999948501587,-0.01700000066872456,-0.02899999937514897,0.0030000000934877653
0.1133798137307167,-0.06721002608537674,9.929118156433105,0.011099999770522118,-0.003999999724328518,0.11829999834299088,0.05200000106461238,-0.049999999612681666,-0.043999998591942806
0.1133798137307167,-0.06721002608537674,9.929118156433105,-0.00839999970048666,-0.023399999365210533,0.10849999636411667,0.05200000106461238,-0.049999999612681666,-0.043999998591942806
0.1216924786567688,-0.04744350165128708,9.94455623626709,0.0010999999940395355,0.00559999980032444,0.12809999287128448,-0.007000000079177565,-0.029999998433587676,0.07000000079177565
0.12181698530912399,-0.04887044429779053,9.932652473449707,0.0009999999310821295,-0.004100000020116568,0.11829999834299088,-0.013000000266153095,-0.049999999612681666,0.024000000747902123
0.11074618995189667,-0.05282566323876381,9.925843238830566,0.0007999999797903001,-0.004100000020116568,0.11829999834299088,0.008999999863581633,-0.03599999945432653,0.10499999785261017
0.11245086789131165,-0.05398445948958397,9.929597854614258,-0.008899999782443047,-0.00419999985024333,0.10849999636411667,0.0039999999856897995,-0.03699999851276524,0.046999999102312236
0.11502702534198761,-0.048592716455459595,9.91663932800293,-0.008999999612569809,-0.004299999680370092,0.10849999636411667,0.008999999863581633,-0.05799999875029794,-0.021999999295971403
0.1097119003534317,-0.06633853912353516,9.929913520812988,-0.009200000204145908,-0.0142000000923872,0.10849999636411667,0.03100000082707969,-0.03699999851276524,-0.024999999806340833
0.11893436312675476,-0.03529053181409836,9.937603950500488,0.00039999998989515007,0.014800000004470348,0.11829999834299088,0.012000000373951061,-0.0009999999964224499,0.010999999647985701
0.11448115110397339,-0.05639781430363655,9.936263084411621,-0.00930000003427267,-0.004799999762326479,0.11829999834299088,0.008999999863581633,-0.03100000082707969,0.029999998433587676
0.11805330216884613,-0.05427176132798195,9.926015853881836,0.00029999998514540493,-0.004900000058114529,0.10849999636411667,-0.02600000053230619,-0.021000000237532696,-0.0659999978879142
0.10564175248146057,-0.053112972527742386,9.941568374633789,0.00029999998514540493,-0.004900000058114529,0.10849999636411667,0.012000000373951061,-0.04200000047506539,0.01400000015835513
0.10803595930337906,-0.05506663769483566,9.933188438415527,-0.009399999864399433,-0.004900000058114529,0.11829999834299088,-0.004999999877891834,-0.06399999977103679,0.008999999863581633
0.12041877210140228,-0.05966350436210632,9.95185375213623,0.00009999999747378752,-0.014699999243021011,0.1378999948501587,-0.01400000015835513,-0.02899999937514897,-0.0030000000934877653
0.12162545323371887,-0.055957283824682236,9.946069717407227,0,-0.004900000058114529,0.12809999287128448,0.18199999538851008,-0.05999999686717535,0.03100000082707969
0.11518983542919159,-0.05587109178304672,9.92885971069336,-0.00019999999494757503,-0.005499999970197678,0.10849999636411667,-0.007000000079177565,-0.08100000043976135,0.0329999989439571
0.11084196716547012,-0.05776729807257652,9.943120002746582,-0.010199999436736107,-0.015399999916553497,0.12809999287128448,-0.0039999999856897995,-0.03100000082707969,0.0269999995907449
0.11535263806581497,-0.052011638879776,9.961249351501465,-0.0004999999655410647,-0.00559999980032444,0.1476999968290329,0.017999999727163266,-0.05900000114378995,0
0.11864705383777618,-0.0597209669649601,9.941817283630371,-0.000699999975040555,-0.015599999576807022,0.12809999287128448,-0.013000000266153095,-0.031999999885518396,-0.05200000106461238
0.11701900511980057,-0.04767334461212158,9.942899703979492,-0.0008999999845400453,0.0038999998942017555,0.12809999287128448,-0.010999999647985701,-0.03100000082707969,-0.07300000130214508
0.110774926841259,-0.05779602751135826,9.923334121704102,-0.010799999348819256,-0.015699999406933784,0.10849999636411667,0.010999999647985701,-0.024999999806340833,-0.06099999926066736
0.11167514324188232,-0.05397488549351692,9.924991607666016,-0.010900000110268593,-0.006000000052154064,0.10849999636411667,0.014999999216793838,-0.029999998433587676,0.021000000237532696
0.11382992565631866,-0.040155552327632904,9.9304780960083,-0.010999999940395355,0.003599999938160181,0.10849999636411667,0,0.0039999999856897995,-0.017999999727163266
0.11665508151054382,-0.05339069664478302,9.935515403747559,-0.0011999999405816197,-0.006199999712407589,0.11829999834299088,0.012000000373951061,-0.0329999989439571,-0.049999999612681666
0.10346782207489014,-0.04073015972971916,9.93496036529541,-0.020899999886751175,0.0032999999821186066,0.11829999834299088,-0.0030000000934877653,-0.05799999875029794,0.012000000373951061
0.1091277152299881,-0.0498855859041214,9.940361022949219,-0.011299999430775642,-0.0064999996684491634,0.11829999834299088,0.008999999863581633,-0.019000000453128628,-0.029999998433587676
0.11198160797357559,-0.05731718987226486,9.94153881072998,-0.011299999430775642,-0.0064999996684491634,0.12809999287128448,0.035000000395887826,-0.029999998433587676,-0.017999999727163266
0.10570879280567169,-0.04636131972074509,9.948501586914062,-0.0015999999595806003,-0.0066999997943639755,0.12809999287128448,0,-0.03400000133744912,0
0.12004527449607849,-0.052950166165828705,9.9351806640625,-0.011399999260902405,0.002899999963119626,0.12809999287128448,-0.006000000186975531,-0.043999998591942806,-0.05799999875029794
0.11614751070737839,-0.044445961713790894,9.950139999389648,-0.0016999999061226845,-0.006799999624490738,0.11829999834299088,0.015999999942759198,0.038000000906257256,0.007000000079177565
0.11845552176237106,-0.05097734183073044,9.943666458129883,-0.0018999999156221747,0.002699999837204814,0.12809999287128448,0.015999999942759198,-0.02800000031671026,0.007000000079177565
0.12292789667844772,-0.05300762504339218,9.940227508544922,-0.0017999999690800905,-0.0071000000461936,0.12809999287128448,0.02800000031671026,-0.03100000082707969,0.01700000066872456
0.12507309019565582,-0.038517918437719345,9.942343711853027,0.007699999958276749,0.002300000051036477,0.12809999287128448,-0.07799999992939192,-0.038000000906257256,-0.048000001495804245
0.11602301895618439,-0.056579772382974625,9.934538841247559,0.007699999958276749,0.002300000051036477,0.12809999287128448,0,-0.06899999839828364,-0.008999999863581633
0.11182837933301926,-0.048468220978975296,9.941146850585938,-0.01209999993443489,-0.007199999876320362,0.12809999287128448,-0.009999999755783667,-0.029999998433587676,0.04500000098543482
0.11275732517242432,-0.04897578805685043,9.934107780456543,-0.01209999993443489,-0.007199999876320362,0.11829999834299088,0.007000000079177565,-0.06299999737754478,0.043999998591942806
0.11435665190219879,-0.04653370380401611,9.923698425292969,-0.01209999993443489,0.0023999998811632395,0.10849999636411667,0.015999999942759198,-0.05600000063342052,0.0030000000934877653
0.10924264043569565,-0.0710982158780098,9.92856216430664,-0.012199999764561653,-0.026799999177455902,0.10849999636411667,-0.0039999999856897995,-0.029999998433587676,0.057000003026912535
0.12421118468046188,-0.05271074175834656,9.930861473083496,-0.0024999999441206455,-0.007199999876320362,0.10849999636411667,0.041000001416626686,-0.03100000082707969,-0.06099999926066736
0.1077103391289711,-0.045106757432222366,9.944268226623535,-0.012299999594688416,0.002199999988079071,0.12809999287128448,0,-0.03599999945432653,0.04600000004387353
0.11855129152536392,-0.041697416454553604,9.940706253051758,-0.0026000000070780516,0.002099999925121665,0.11829999834299088,-0.0039999999856897995,0.0539999991814898,0.017999999727163266
0.10222283750772476,-0.05687665566802025,9.940706253051758,-0.021900000050663948,-0.007599999662488699,0.11829999834299088,0.03100000082707969,-0.013000000266153095,0.008999999863581633
0.12977531552314758,-0.04305732250213623,9.950675964355469,0.0072999997064471245,0.0018999999156221747,0.1378999948501587,0.015999999942759198,-0.05099999867112037,0.04500000098543482
