Accelerometer_Gx,Accelerometer_Gy,Accelerometer_Gz,Accelerometer_X,Accelerometer_Y,Accelerometer_Z,Gyroscope_Z,Gyroscope_X,Gyroscope_Y
-0.054013192653656006,0.06715257465839386,9.769271850585938,-0.010499999858438969,0.012299999594688416,0.009999999776482582,-0.0329999989439571,-0.01700000066872456,0.1939999974299878
-0.05329493060708046,0.07305187731981277,9.757664680480957,-0.010499999858438969,0.012299999594688416,0.009999999776482582,2.7309999132108236,-5.267999828991659,-1.3680000192850479
-0.05720226839184761,0.05954858288168907,9.752052307128906,-0.0017999999690800905,-0.002199999988079071,-0.05859999731183052,0.7900000098886262,4.057999801012166,0.4300000020051476
-0.056292470544576645,0.0656394362449646,9.762060165405273,0.012999999336898327,-0.005799999926239252,-0.0486999973654747,2.38699999698407,-0.325000010822644,-0.19000000119623298
-0.045202530920505524,0.06061160936951637,9.757702827453613,0.019899999722838402,-0.011399999260902405,-0.05849999934434891,4.437000167867003,-0.02600000053230619,-0.26600000967885407
-0.05586151406168938,0.06915412098169327,9.757702827453613,0.007699999958276749,-0.016599999740719795,-0.058399997651576996,0.029999998433587676,0.4139999903897018,-0.09500000059811649
-0.0462176688015461,0.06508397310972214,9.76587200164795,0.016999999061226845,-0.02449999935925007,-0.04859999939799309,-0.5609999887173774,0.6200000165415938,0.023000000021936765
-0.05887820944190025,0.054539911448955536,9.765929222106934,-0.0015999999595806003,-0.030299998819828033,-0.04859999939799309,-0.4649999723855557,2.219999950786554,0.4169999909000712
-0.047213658690452576,0.0759536549448967,9.758928298950195,0.01640000008046627,-0.007199999876320362,-0.0486999973654747,1.0079999580407164,-2.1680000130879544,-0.433000002515517
-0.05597643554210663,0.07408617436885834,9.75583553314209,-0.0026000000070780516,-0.008499999530613422,-0.05849999934434891,0.8699999879245757,0.2039999946844815,0.14699999832767557
-0.04993347078561783,0.06393475830554962,9.764158248901367,-0.002899999963119626,-0.017400000244379044,-0.0486999973654747,0.16999999334703236,1.4069999725589977,0.7560000218913903
-0.06589800864458084,0.05824613943696022,9.74569320678711,-0.008499999530613422,-0.015399999916553497,-0.06830000132322311,-0.06099999926066736,-0.8020000119301038,-0.16599999711327754
-0.05339069664478302,0.06191405653953552,9.75818157196045,0.0023999998811632395,-0.010999999940395355,-0.05849999934434891,0.7420000017227153,-0.8230000155026899,-0.6450000030077214
-0.05113057419657707,0.04914817586541176,9.761687278747559,-0.00009999999747378752,-0.002099999925121665,-0.0486999973654747,0.5009999785099888,-0.2929999875917525,0.4879999940853389
-0.05113057419657707,0.04914817586541176,9.761687278747559,-0.00009999999747378752,-0.002099999925121665,-0.0486999973654747,0.5009999785099888,-0.2929999875917525,0.4879999940853389
-0.047568000853061676,0.06427952647209167,9.759187698364258,0.011500000022351742,-0.002099999925121665,-0.04879999905824661,0.3240000017590454,-2.480000066166375,-0.5309999836136831
-0.046648625284433365,0.057834334671497345,9.744199752807617,0.010300000198185444,-0.001500000013038516,-0.06839999556541443,-0.9339999810255059,0.6960000116840017,-0.07999999804626934
-0.046648625284433365,0.057834334671497345,9.744199752807617,0.010300000198185444,-0.001500000013038516,-0.06839999556541443,-0.9339999810255059,0.6960000116840017,-0.07999999804626934
-0.04140053689479828,0.06294835358858109,9.748701095581055,0.012299999594688416,0.001999999862164259,-0.06839999556541443,0.11500000177721047,-0.8789999894556839,-0.6789999910049573
-0.04761588200926781,0.06335058063268661,9.757577896118164,0.010099999606609344,0.001999999862164259,-0.05859999731183052,3.163999969087193,-2.3090000904361707,0.10100000161885533
-0.05488467961549759,0.07138551771640778,9.745838165283203,-0.006899999920278788,0.002199999988079071,-0.06839999556541443,0.8050000124404733,-1.899000056259584,-0.5829999746731356
-0.04893748089671135,0.06757394969463348,9.749505043029785,-0.011299999430775642,0.00029999998514540493,-0.05859999731183052,0.4510000055777336,1.1279999784554937,0.4720000091503196
-0.04964616894721985,0.06830178946256638,9.75490665435791,-0.008100000210106373,-0.000699999975040555,-0.05859999731183052,-0.407999989368963,1.8980000738764118,0.6810000091321545
-0.039513904601335526,0.07173028588294983,9.761582374572754,0.008100000210106373,0.0005999999702908099,-0.0486999973654747,0.128999995265459,1.2600000009117485,0.3750000104353257
-0.048563987016677856,0.06298665702342987,9.751574516296387,0.0013000000035390258,-0.00930000003427267,-0.05849999934434891,-1.7490000307411124,1.712000042233507,1.0179999953158498
-0.05478890985250473,0.0701405331492424,9.75468635559082,0.0058999997563660145,0.005200000014156103,-0.05849999934434891,1.151000000155277,-2.9150000868090893,-0.36800000035098823
-0.04519294947385788,0.06591715663671494,9.74765682220459,0.008599999360740185,-0.0071000000461936,-0.06839999556541443,1.3800000213265255,1.9159999702169226,0.9839999539577611
-0.0586579404771328,0.06179913505911827,9.763649940490723,-0.005699999630451202,-0.010699999518692493,-0.0486999973654747,1.1200000126684104,-0.9959999559992387,-0.29899998861249133
-0.04246356338262558,0.07083963602781296,9.736145973205566,0.010199999436736107,-0.0044999998062849045,-0.07809999585151672,-1.2809999511234815,-0.05999999686717535,-0.321000001248676
-0.06382941454648972,0.05568913370370865,9.757913589477539,-0.009399999864399433,-0.0210999995470047,-0.05849999934434891,-0.4070000069857908,0.007999999971379599,-0.6290000180727021
-0.05960604548454285,0.06258442997932434,9.768821716308594,0.00029999998514540493,0,-0.05849999934434891,0.18400000017549412,-3.33599992720057,-0.26200000010488605
-0.0523659773170948,0.0558040551841259,9.755941390991211,-0.01719999872148037,-0.009999999776482582,-0.03889999911189079,-0.733000000191607,-0.5709999726316578,0.4969999956164472
-0.0383838415145874,0.06630980968475342,9.757492065429688,-0.009999999776482582,-0.010300000198185444,-0.05859999731183052,-0.2570000081477458,2.2929999454185928,0.6969999940671738
-0.05338112264871597,0.0643274113535881,9.749046325683594,-0.009999999776482582,-0.010300000198185444,-0.05859999731183052,-0.2570000081477458,2.2929999454185928,0.6969999940671738
-0.0598263144493103,0.06980534642934799,9.753718376159668,-0.032999999821186066,-0.002300000051036477,-0.05859999731183052,1.0439999641651496,0.006000000186975531,-0.26000000865811523
-0.05997954308986664,0.06039134040474892,9.746737480163574,-0.03229999914765358,-0.014299999922513962,-0.06839999556541443,-0.07099999651516105,-2.2610000822702596,-1.1070000282437604
-0.053352389484643936,0.05867709219455719,9.748863220214844,-0.0279999990016222,-0.013799999840557575,-0.06839999556541443,4.127999848494688,0.01400000015835513,0.09999999922536333
-0.05180094763636589,0.07085879147052765,9.743385314941406,-0.0279999990016222,-0.013799999840557575,-0.06839999556541443,4.127999848494688,0.01400000015835513,0.09999999922536333
-0.053429003804922104,0.07514920085668564,9.760078430175781,-0.030799999833106995,-0.01939999870955944,-0.0486999973654747,2.790999923418212,-2.457000044466592,-0.31600000929153577
-0.05779602751135826,0.06436571478843689,9.74569320678711,-0.04649999737739563,-0.03619999811053276,-0.0681999996304512,1.2179999937665764,-1.3630000006474812,-0.4310000110687462
-0.05092945694923401,0.06355168670415878,9.753824234008789,-0.039000000804662704,-0.03849999979138374,-0.058399997651576996,-2.3679999048169753,2.1060000381142214,1.3099999738440038
-0.047050848603248596,0.06591715663671494,9.752033233642578,-0.022599998861551285,-0.031300000846385956,-0.05849999934434891,-2.831000072518745,1.2389999439783097,-0.3999999969014533
-0.03867114707827568,0.05120718851685524,9.74219799041748,-0.017500000074505806,-0.03059999831020832,-0.06830000132322311,2.5499999002054854,-0.5829999746731356,0.8009999761860788
-0.05617754906415939,0.0644519105553627,9.759590148925781,-0.0279999990016222,-0.026200000196695328,-0.0486999973654747,0.4889999764685111,-0.49499997748924995,0.13300000483942703
-0.06156928837299347,0.05777687579393387,9.767366409301758,-0.03839999809861183,-0.026899999007582664,-0.0486999973654747,-0.17700000343136985,-4.301000002434648,-0.6330000009662436
-0.055152833461761475,0.06535212695598602,9.763056755065918,-0.038100000470876694,-0.02579999901354313,-0.0486999973654747,0.5849999928003328,4.177000052487182,-0.7029999950879127
-0.04753926768898964,0.0628046989440918,9.765220642089844,-0.020800000056624413,-0.03179999813437462,-0.04859999939799309,-1.5169999556986413,4.559000153048125,1.2940000422698372
-0.04748180881142616,0.06332184374332428,9.744477272033691,-0.010900000110268593,-0.0279999990016222,-0.06830000132322311,1.9879999824657888,-1.1070000282437604,0.19499999315337319
-0.05146576091647148,0.05963477864861488,9.750760078430176,-0.023499999195337296,-0.03350000083446503,-0.058399997651576996,-1.2270000486585377,-2.8340000196682618,0.22299999347008345
-0.05146576091647148,0.05963477864861488,9.750760078430176,-0.023499999195337296,-0.03350000083446503,-0.058399997651576996,-1.2270000486585377,-2.8340000196682618,0.22299999347008345
-0.04092169553041458,0.07154832780361176,9.775477409362793,-0.02969999983906746,-0.02979999966919422,-0.03889999911189079,-0.37299999230812847,-2.1449999913881714,-0.3469999967784022
-0.06771759688854218,0.06843586266040802,9.755375862121582,-0.04360000044107437,-0.011399999260902405,-0.05849999934434891,-3.1309999101122767,-0.4489999874505363,-0.2639999915516568
-0.04955039918422699,0.07056191563606262,9.758028030395508,-0.024299999698996544,-0.0044999998062849045,-0.05859999731183052,1.0100000295287666,1.1899999534292265,0.08100000043976135
-0.04603571072220802,0.06019023060798645,9.75402545928955,-0.010400000028312206,-0.017099998891353607,-0.05849999934434891,1.9230000603425395,2.5660000452230634,0.1629999966029081
-0.06777506321668625,0.06473921239376068,9.746919631958008,-0.03309999778866768,-0.021299999207258224,-0.06830000132322311,-0.7489999851266264,1.0439999641651496,0.5470000219095553
-0.05247132480144501,0.06740156561136246,9.754342079162598,-0.010199999436736107,-0.009099999442696571,-0.05849999934434891,-2.408000053917509,-2.5709999571389246,-0.5879999933107023
-0.05144660547375679,0.06775590777397156,9.769817352294922,-0.01850000023841858,-0.0005999999702908099,-0.039000000804662704,0.650000021645288,0.6939999935568044,0.25400000763737635
-0.06164590269327164,0.07247727364301682,9.745186805725098,-0.026499999687075615,-0.0017999999690800905,-0.06839999556541443,0.5500000224199247,3.6269999233455517,0.22299999347008345
-0.05762364715337753,0.06785167753696442,9.763468742370605,-0.01489999983459711,-0.0032999999821186066,-0.0486999973654747,0.5540000053134664,-6.200000058694232,-1.2369999792119653
-0.06703764945268631,0.062124744057655334,9.75668716430664,-0.03909999877214432,-0.014299999922513962,-0.05859999731183052,1.7190000256374183,-0.9219999789840281,-0.09899999683187131
-0.045844174921512604,0.05160941183567047,9.7836275100708,-0.018299998715519905,-0.035599999129772186,-0.029099998995661736,0.23699998695833197,1.7039999697247181,0.4720000091503196
-0.049703627824783325,0.05737464874982834,9.766925811767578,-0.02410000003874302,-0.0357000008225441,-0.0486999973654747,1.9659999431491777,-0.7519999856369958,0.015999999942759198
-0.04717535153031349,0.07042783498764038,9.772594451904297,-0.016300000250339508,-0.021699998527765274,-0.03879999741911888,-3.396999919791131,3.263999914951704,0.8960000101347283
-0.0522606335580349,0.06254612654447556,9.762654304504395,-0.017899999395012856,-0.023000000044703484,-0.0486999973654747,2.3500000084764645,0.0030000000934877653,-0.004999999877891834
-0.05291185900568962,0.07046613842248917,9.755682945251465,-0.017500000074505806,-0.019299998879432678,-0.05849999934434891,3.0539999859475495,0.03699999851276524,0.5429999856551608
-0.06834966689348221,0.0680144801735878,9.745989799499512,-0.017099998891353607,-0.029399998486042023,-0.058399997651576996,-0.6780000086217851,2.164000083555266,0.6249999818183075
-0.04639005288481712,0.06840712577104568,9.759905815124512,0.005399999674409628,-0.021699998527765274,-0.04859999939799309,3.1439998945369267,-0.8949999743907032,-0.15999999609253868
-0.04848737269639969,0.06916369497776031,9.758075714111328,0.0017999999690800905,-0.02929999865591526,-0.05829999968409538,1.3370000317981814,2.689000012787357,0.739999983595518
-0.055392250418663025,0.06775590777397156,9.764158248901367,0.011099999770522118,-0.03350000083446503,-0.05819999799132347,1.5060000427620417,-0.4199999914104407,0.06700000028140622
-0.051695603877305984,0.06977660953998566,9.75121021270752,0.01679999940097332,-0.03439999744296074,-0.05819999799132347,-2.5160000722908085,2.2120000917211766,0.3770000018820965
-0.051695603877305984,0.06977660953998566,9.75121021270752,0.01679999940097332,-0.03439999744296074,-0.05819999799132347,-2.5160000722908085,2.2120000917211766,0.3770000018820965
-0.0579492561519146,0.06071695312857628,9.757856369018555,0.006899999920278788,-0.02589999884366989,-0.05829999968409538,0.4089999984325616,5.426999802680386,1.2679999666988317
-0.05519114062190056,0.07255388796329498,9.7504243850708,0.043699998408555984,-0.019600000232458115,-0.05810000002384186,2.290999980652248,-0.8769999713284867,-0.2609999910412874
-0.05286397039890289,0.06082230061292648,9.741720199584961,0.018199998885393143,-0.03680000081658363,-0.06809999793767929,-1.0359999983780663,5.282000009242893,1.2739999677195706
-0.04329674690961838,0.06938396394252777,9.749801635742188,0.04859999939799309,-0.03229999914765358,-0.05810000002384186,-1.0960000085854549,0.9029999935386394,0.3100000082707969
-0.06665457040071487,0.06974788755178452,9.752522468566895,0.03909999877214432,-0.03500000014901161,-0.05790000036358833,3.364000074259626,0.3750000104353257,0.0030000000934877653
-0.04924394190311432,0.060678645968437195,9.760729789733887,0.04939999803900719,-0.053599998354911804,-0.04800000041723251,0.7969999932925372,4.0059998633135665,0.88700000860362
-0.05751830339431763,0.05976885184645653,9.748720169067383,0.052799999713897705,-0.055799998342990875,-0.06749999523162842,1.17199995036701,-4.502999858930013,-1.4809999495742083
-0.05348646640777588,0.06309200078248978,9.755796432495117,0.052799999713897705,-0.0575999990105629,-0.05779999867081642,0.9089999945593782,-0.20800000425844953,0.26500000061525547
-0.049330130219459534,0.06712383776903152,9.751937866210938,0.05159999802708626,-0.04999999701976776,-0.05779999867081642,-2.9339999655327724,-0.3259999932058162,-0.031999999885518396
-0.05900270864367485,0.06266104429960251,9.752311706542969,0.0502999983727932,-0.05219999700784683,-0.05790000036358833,1.661999962579546,3.658999786493885,1.2940000422698372
-0.05900270864367485,0.06266104429960251,9.752311706542969,0.04820000007748604,-0.05819999799132347,-0.05769999697804451,1.661999962579546,3.658999786493885,1.2940000422698372
-0.063973069190979,0.0681389793753624,9.753116607666016,0.060099996626377106,-0.05350000038743019,-0.057499997317790985,-0.9980000274872889,0.4799999749374028,0.5209999996994026
-0.059586890041828156,0.07087794691324234,9.761783599853516,0.06159999966621399,-0.058399997651576996,-0.04769999906420708,-0.32700000226941484,-2.200000089679699,-0.8080000129508427
-0.0611383356153965,0.05092945694923401,9.752779960632324,0.062199998646974564,-0.07859999686479568,-0.05739999935030937,1.8250000792443732,-3.0970000821975994,-0.9000000463891228
-0.0611383356153965,0.05092945694923401,9.752779960632324,0.062199998646974564,-0.07859999686479568,-0.05739999935030937,1.8250000792443732,-3.0970000821975994,-0.9000000463891228
-0.046696510165929794,0.06617573648691177,9.755481719970703,0.0705999955534935,-0.07429999858140945,-0.057499997317790985,0.5560000234406636,-1.2410000154663596,-0.3980000054546825
-0.05644569918513298,0.0681198239326477,9.752876281738281,0.05069999769330025,-0.06430000066757202,-0.0575999990105629,2.1939999819372544,0.985000043062639,0.24800000661663751
-0.05644569918513298,0.0681198239326477,9.752876281738281,0.05069999769330025,-0.06430000066757202,-0.0575999990105629,2.1939999819372544,0.985000043062639,0.24800000661663751
-0.056196700781583786,0.0712227076292038,9.763784408569336,0.052400000393390656,-0.06889999657869339,-0.04769999906420708,0.3240000017590454,2.7360000385700958,0.9469999654501557
-0.05146576091647148,0.0568670779466629,9.758890151977539,0.03969999775290489,-0.08869999647140503,-0.04769999906420708,-1.0299999973573275,0.7029999950879127,0.31099999065396905
-0.05146576091647148,0.0568670779466629,9.758890151977539,0.05700000002980232,-0.07719999551773071,-0.04779999703168869,-1.0299999973573275,0.7029999950879127,0.31099999065396905
-0.06421248614788055,0.06993941962718964,9.748414039611816,0.04839999973773956,-0.0543999969959259,-0.06749999523162842,-0.4649999723855557,2.442000095275598,1.56399998148138
-0.0601998046040535,0.0695563480257988,9.764301300048828,0.054499998688697815,-0.05249999836087227,-0.04779999703168869,0.9299999447711114,1.5550000333111247,0.6179999984143966
-0.05485595017671585,0.07527370750904083,9.76712703704834,0.0674000009894371,-0.05419999733567238,-0.04779999703168869,1.689000020533724,4.424000183442353,0.5300000012305109
-0.05356308072805405,0.06796659529209137,9.75436019897461,0.07889999449253082,-0.05819999799132347,-0.05739999935030937,-0.14600000260429016,3.4089999218326086,-0.29999999767609
-0.05146576091647148,0.07469909638166428,9.76041316986084,0.08989999443292618,-0.057099997997283936,-0.04739999771118164,0.4270000014947782,-2.994999958123333,-0.9180000494513394
-0.04239652305841446,0.05436753109097481,9.778475761413574,0.08309999853372574,-0.05739999935030937,-0.05729999765753746,1.6689999459834572,-2.496999980123714,-1.2110000103626655
-0.05841852352023125,0.06559155136346817,9.757664680480957,0.09279999881982803,-0.07840000092983246,-0.027899999171495438,2.0920000713063995,2.91999999872495,1.0040000285080277
-0.052308518439531326,0.058399368077516556,9.756583213806152,0.06659999489784241,-0.07189999520778656,-0.05739999935030937,-0.5690000078653135,0.40599999792219216,0.19999999845072666
-0.052308518439531326,0.058399368077516556,9.756583213806152,0.08349999785423279,-0.07699999958276749,-0.05719999969005585,-0.5690000078653135,0.40599999792219216,0.19999999845072666
-0.06012319028377533,0.06843586266040802,9.748461723327637,0.07979999482631683,-0.07519999891519547,-0.06679999828338623,-0.10299999973573276,-3.3900000431089254,-1.109999975393277
-0.05661807954311371,0.06155971437692642,9.75698471069336,0.07979999482631683,-0.07519999891519547,-0.06679999828338623,2.228000023295343,-1.8490000833273288,-0.6620000236867658
-0.05443457141518593,0.06567773967981339,9.760796546936035,0.07279999554157257,-0.08779999613761902,-0.04739999771118164,7.094999873002377,-3.2300000870370265,-0.23300000406479038
-0.06314946711063385,0.06508397310972214,9.750760078430176,0.05350000038743019,-0.10639999806880951,-0.05700000002980232,0.7480000027434541,-0.03899999996469596,0.04500000098543482
-0.061387334018945694,0.06282385438680649,9.763219833374023,0.05260000005364418,-0.09559999406337738,-0.04739999771118164,2.4529999014904917,-3.300999903459309,-0.15200000362502902
-0.05377376824617386,0.05975927412509918,9.757320404052734,0.042399998754262924,-0.10439999401569366,-0.05719999969005585,-4.33200009664322,-1.8400000284353675,-0.42500001004800736
-0.05377376824617386,0.05975927412509918,9.757320404052734,0.042399998754262924,-0.10439999401569366,-0.05719999969005585,-4.33200009664322,-1.8400000284353675,-0.42500001004800736
-0.044800300151109695,0.054329223930835724,9.751909255981445,0.046699997037649155,-0.1014999970793724,-0.057499997317790985,2.480000066166375,0.5849999928003328,0.07900000232288394
-0.05125506967306137,0.059682659804821014,9.75797176361084,0.026999998837709427,-0.09769999980926514,-0.057499997317790985,6.573999873302974,-0.3089999992071983,0
-0.05125506967306137,0.059682659804821014,9.75797176361084,0.026999998837709427,-0.09769999980926514,-0.057499997317790985,6.573999873302974,-0.3089999992071983,0
-0.04761588200926781,0.05956773832440376,9.757770538330078,0.035499997437000275,-0.11710000038146973,-0.05719999969005585,-2.0889999107134716,-4.341000151535182,-2.553000060798414
-0.05791094899177551,0.06483498215675354,9.762807846069336,0.0052999998442828655,-0.1111999973654747,-0.04749999940395355,-0.866000005031034,0.4720000091503196,0.3280000113330135
-0.0566372349858284,0.0665779560804367,9.759455680847168,0.016099998727440834,-0.1078999936580658,-0.047599997371435165,-3.038000054373383,-0.48599997595814165,-0.13100000005244303
-0.046198517084121704,0.060554150491952896,9.751880645751953,0.025599999353289604,-0.11009999364614487,-0.05729999765753746,0.3119999997175677,-0.13100000005244303,0.1070000026395942
-0.06208643689751625,0.06380068510770798,9.747159004211426,0.005499999970197678,-0.11019999533891678,-0.06719999760389328,-8.989999999729271,-3.733999959335679,-0.7900000098886262
-0.0536780022084713,0.0700160339474678,9.758057594299316,0.006199999712407589,-0.07800000160932541,-0.05769999697804451,-2.61200008862263,-0.3259999932058162,-0.009999999755783667
-0.049828123301267624,0.06838797777891159,9.767633438110352,0.005200000014156103,-0.07009999454021454,-0.04800000041723251,3.2229999969114096,-0.40499998885859356,0.03999999902313467
-0.053610965609550476,0.05815994739532471,9.762166023254395,0.0037999998312443495,-0.09019999951124191,-0.0478999987244606,2.0830000164144384,3.401000062767231,1.122999959817927
-0.04137180745601654,0.059539008885622025,9.764205932617188,0.020399998873472214,-0.09380000084638596,-0.04779999703168869,-0.13700000107318186,-0.38400001196643396,0.39699999639108385
-0.05057511478662491,0.06643430888652802,9.754830360412598,0.00930000003427267,-0.09269999712705612,-0.0575999990105629,-4.559000153048125,5.3229999272831865,2.214000056487521
-0.057527877390384674,0.06066907197237015,9.753106117248535,0.01209999993443489,-0.0810999944806099,-0.05769999697804451,2.8509999336256007,2.1719999426206433,0.606999978756091
-0.04395754262804985,0.06299623847007751,9.76684856414795,0.039000000804662704,-0.09019999951124191,-0.04779999703168869,-1.4319999590251251,2.6079999456465295,1.109999975393277
-0.04273171350359917,0.052672434598207474,9.753087043762207,0.045899998396635056,-0.09539999812841415,-0.0575999990105629,-4.677999977636318,3.820000151835779,1.5870000031811633
-0.060467954725027084,0.06630022823810577,9.758191108703613,0.033799998462200165,-0.07530000060796738,-0.05769999697804451,-0.8099999777171871,0.9579999851084613,0.27599999359313454
-0.046323012560606,0.06572562456130981,9.766159057617188,0.05609999969601631,-0.0722000002861023,-0.0478999987244606,0.7560000218913903,2.1249999168379046,0.7249999810436709
-0.07045656442642212,0.06225882098078728,9.752340316772461,0.03150000050663948,-0.07339999824762344,-0.0575999990105629,-3.349999894008392,-2.624000090664108,-0.6969999940671738
-0.05795883387327194,0.0712227076292038,9.746880531311035,0.033900000154972076,-0.05389999970793724,-0.06759999692440033,-3.2090000301035877,-4.6579999030860515,-1.6549999791756351
-0.04068227484822273,0.0664534643292427,9.75440788269043,0.03739999979734421,-0.05219999700784683,-0.057999998331069946,-4.424000183442353,4.336000026175909,1.8850000894517618
-0.0432392843067646,0.08179550617933273,9.764388084411621,0.04600000008940697,-0.023099999874830246,-0.04829999804496765,0.11400000605382507,1.3370000317981814,0.7390000012123459
-0.05246174708008766,0.0681389793753624,9.754446983337402,0.03999999910593033,-0.032899998128414154,-0.057999998331069946,1.2069999741082709,-3.219000067378721,-1.6909999853000683
-0.04344039410352707,0.06982450187206268,9.742303848266602,0.04189999774098396,-0.03539999946951866,-0.06790000200271606,5.265000095285554,2.73800000333644,0.5969999948418105
-0.05242343991994858,0.05748957023024559,9.763142585754395,0.03929999843239784,-0.05929999798536301,-0.04809999838471413,6.9919997665449385,-1.0600000024610219,-1.0650000210985886
-0.05780560523271561,0.058332327753305435,9.75649642944336,0.025599999353289604,-0.0828000009059906,-0.04779999703168869,-5.830000173618179,3.972000035398889,1.361000035881137
-0.06424121558666229,0.06643430888652802,9.76940631866455,0.03350000083446503,-0.07039999961853027,-0.05769999697804451,-6.85799999276575,3.1439998945369267,1.8549999776263617
-0.047951072454452515,0.06835924834012985,9.749715805053711,0.03619999811053276,-0.07699999958276749,-0.03799999877810478,-8.23900020991886,-1.3569999996267423,0.2729999930827651
-0.03787627071142197,0.05907932296395302,9.74690055847168,0.06870000064373016,-0.03720000013709068,-0.06780000030994415,9.304999786513797,4.836000182385284,2.7869999938855234
-0.03787627071142197,0.05907932296395302,9.74690055847168,0.06870000064373016,-0.03720000013709068,-0.06780000030994415,9.304999786513797,4.836000182385284,2.7869999938855234
-0.06075526028871536,0.0701596811413765,9.754982948303223,0.06520000100135803,-0.06879999488592148,-0.04769999906420708,4.020000043564799,-5.418999943615009,-2.860999970900734
-0.06347507238388062,0.06754522025585175,9.750587463378906,0.05260000005364418,-0.03659999743103981,-0.05779999867081642,10.308000259525476,-1.1469999639008823,-1.6369999761134186
-0.05243301764130592,0.06559155136346817,9.752349853515625,0.04429999738931656,-0.08129999786615372,-0.0575999990105629,7.738999626822661,-3.490999971356608,-2.8180000880940956
-0.04482903331518173,0.06707596033811569,9.757722854614258,0.04429999738931656,-0.09219999611377716,-0.05729999765753746,-13.727000005189806,2.3669999224338034,2.887999922133206
-0.04482903331518173,0.06707596033811569,9.757722854614258,0.04429999738931656,-0.09219999611377716,-0.05729999765753746,-13.727000005189806,2.3669999224338034,2.887999922133206
-0.05263412743806839,0.0540323443710804,9.749859809875488,0.0421999990940094,-0.04479999840259552,-0.04809999838471413,-7.567000095596108,-1.1630000021967546,-1.1920000249172766
-0.05294058471918106,0.07275500148534775,9.746028900146484,0.042799998074769974,0.0007999999797903001,-0.06809999793767929,-16.385000564098824,2.869000043409523,2.3269999867766815
-0.05613924190402031,0.06107129529118538,9.754878044128418,0.04939999803900719,0.030399998649954796,-0.058399997651576996,8.055000036320594,6.667000155928691,0.9089999945593782
-0.044608764350414276,0.06587885320186615,9.750807762145996,0.0771000012755394,0.00839999970048666,-0.05810000002384186,-24.101000382665116,0.5339999841240525,-0.5059999971475555
-0.05077622830867767,0.0627855435013771,9.753527641296387,0.06870000064373016,0.0908999964594841,-0.05810000002384186,-7.04899982960281,5.62700012129623,3.5019999910149138
-0.06223009154200554,0.05543055757880211,9.753881454467773,0.07209999859333038,0.09759999811649323,-0.05790000036358833,8.662999570573033,5.306000013325848,3.0150000326736
-0.0662427768111229,0.06583096832036972,9.766312599182129,0.08619999885559082,0.08329999446868896,-0.04800000041723251,21.571999899062835,4.10700000500466,-0.03899999996469596
-0.061483100056648254,0.06507439911365509,9.75649642944336,0.09559999406337738,0.03139999881386757,-0.05769999697804451,-23.94899964532836,-5.243000055968943,-2.4609999739992805
-0.05649358406662941,0.06393475830554962,9.747542381286621,0.09049999713897705,0.09669999778270721,-0.06759999692440033,-22.81099962959773,-4.563000082580814,-1.682000037129813
-0.0566372349858284,0.06864655017852783,9.755404472351074,0.07440000027418137,0.18410000205039978,-0.05729999765753746,11.457000294914408,1.4009999715382588,2.436999969916325
-0.06604165583848953,0.060467954725027084,9.761630058288574,0.06709999591112137,0.1500999927520752,-0.04779999703168869,15.264999804378474,-8.162000072310722,-4.594000176789386
-0.05157110467553139,0.07732313871383667,9.752732276916504,0.05119999870657921,0.12209999561309814,-0.05819999799132347,-31.38800114210478,2.905000049533956,5.869000126892129
-0.0603051520884037,0.06644388288259506,9.768122673034668,0.04809999838471413,0.17679999768733978,-0.04769999906420708,-20.007000362085105,3.2359999813360596,-6.40700004054887
-0.0437181256711483,0.07024587690830231,9.754868507385254,0.07589999586343765,0.24069999158382416,-0.05649999901652336,2.7850000291191788,-4.295999877075376,-0.16899999762364695
-0.05841852352023125,0.06562028080224991,9.764272689819336,0.041200000792741776,0.22029998898506165,-0.0471000000834465,-9.067000137337411,2.5139998940810524,2.4920000682078527
-0.05922297388315201,0.0703703761100769,9.761964797973633,0.04609999805688858,0.2474999874830246,-0.046699997037649155,-21.823999728490456,6.473000158498703,4.945999952081516
-0.04698381572961807,0.06429868191480637,9.745426177978516,0.08559999614953995,0.3034999966621399,-0.06459999829530716,24.483999825278996,-8.9410002226236,-10.22300026285196
-0.05707776919007301,0.07272627204656601,9.764033317565918,0.05350000038743019,0.25360000133514404,-0.04659999907016754,2.3159999671183757,-4.016999882971872,-5.906999884339494
-0.04993347078561783,0.06454767286777496,9.770506858825684,0.04179999977350235,0.2361999899148941,-0.03709999844431877,-1.7479999416362346,3.330000032901537,6.586000088787864
-0.04533660411834717,0.06494990736246109,9.754982948303223,0.06309999525547028,0.24059998989105225,-0.05649999901652336,0.08100000043976135,-0.6429999848805241,-1.7109999531286293
-0.04113238677382469,0.07606857270002365,9.760499954223633,0.061400000005960464,0.24889999628067017,-0.046699997037649155,4.075000141856328,-4.618000180872341,11.362000047522347
-0.04661031812429428,0.07015010714530945,9.748682022094727,0.04749999940395355,0.23469999432563782,-0.06669999659061432,1.3180000463527928,-6.170999929252004,10.294000079274243
-0.06001785025000572,0.06873274594545364,9.757003784179688,-0.0044999998062849045,0.2206999957561493,-0.05739999935030937,-8.01499988722006,15.321999440549524,14.57599934921156
-0.05797798931598663,0.07133763283491135,9.762682914733887,0.048499997705221176,0.24650000035762787,-0.046699997037649155,-1.9279999722584003,4.899000139742189,-3.1860000084038043
-0.05797798931598663,0.07133763283491135,9.762682914733887,0.048499997705221176,0.24650000035762787,-0.046699997037649155,-1.9279999722584003,4.899000139742189,-3.1860000084038043
-0.061291564255952835,0.05391742289066315,9.769702911376953,0.05819999799132347,0.249099999666214,-0.04649999737739563,-8.859000386543013,3.8409999953258063,12.68899993532369
-0.060295574367046356,0.05000050738453865,9.756936073303223,0.030899999663233757,0.2092999964952469,-0.03739999979734421,2.79400008401114,0.7189999800229321,10.520999708792324
-0.04018428176641464,0.06416460126638412,9.748920440673828,0.06229999661445618,0.2295999974012375,-0.06650000065565109,-7.7899997955815,14.913999798026104,-4.301000002434648
-0.05585193634033203,0.06506482511758804,9.753374099731445,0.10289999842643738,0.25509998202323914,-0.05559999868273735,0.08799999718388561,-2.0899998930966435,0.6900000106632628
-0.052452173084020615,0.06494990736246109,9.746038436889648,0.0982000008225441,0.26339998841285706,-0.05570000037550926,-5.071000097855566,14.69800018816633,-1.089000025181544
-0.052452173084020615,0.06494990736246109,9.746038436889648,0.09039999544620514,0.25360000133514404,-0.06560000032186508,-5.071000097855566,14.69800018816633,-1.089000025181544
-0.05434837564826012,0.05564124509692192,9.758469581604004,0.125,0.25459998846054077,-0.054999999701976776,2.1280000774308325,-10.714000364169374,5.343999770773214
-0.05951985716819763,0.06560112535953522,9.75086498260498,0.08579999953508377,0.25699999928474426,-0.05570000037550926,6.063999893261877,-27.935000714752128,4.0770001066226715
-0.05001965910196304,0.060151923447847366,9.762405395507812,0.0004999999655410647,0.23359999060630798,-0.047199998050928116,-6.033999994879888,29.91700037603206,-1.7599999436777123
-0.05324704572558403,0.07332003116607666,9.746306419372559,0.0004999999655410647,0.23359999060630798,-0.047199998050928116,-4.764999939076179,19.5999996347278,-2.6209999300711795
-0.062239665538072586,0.057144805788993835,9.752991676330566,0.12879998981952667,0.25130000710487366,-0.054899998009204865,5.287999903541926,-29.851000258082227,1.667999963600285
-0.05517198517918587,0.07100244611501694,9.754868507385254,0.056599996984004974,0.25509998202323914,-0.05639999732375145,-1.352999963372348,-0.9169999603464615,-4.195000162271104
-0.05102522671222687,0.06529466807842255,9.760259628295898,0.056599996984004974,0.25509998202323914,-0.05639999732375145,0.3339999856733259,-1.2439999626158762,0.5849999928003328
-0.05102522671222687,0.05920381844043732,9.7417573928833,0.04999999701976776,0.2466999888420105,-0.06619999557733536,-1.6929999500664126,-34.69599836092536,-6.554999994579291
-0.051360417157411575,0.06385814398527145,9.757607460021973,-0.05739999935030937,0.2506999969482422,-0.056699998676776886,-2.080000069264922,-8.558999695175835,-2.1739999073869876
-0.06250781565904617,0.0543866828083992,9.755624771118164,-0.08779999613761902,0.24459999799728394,-0.056599996984004974,1.6100000248809465,-33.35999969889252,-4.354999904899592
-0.04990473762154579,0.053065087646245956,9.754878044128418,-0.16939999163150787,0.23879998922348022,-0.05590000003576279,1.0909999899478884,25.609000283471797,3.7800000027352456
-0.05147533863782883,0.06190447881817818,9.76107406616211,-0.16939999163150787,0.23879998922348022,-0.05590000003576279,-0.6009999777353522,-16.925999357688028,-1.5099999722947304
-0.05952943116426468,0.0637432262301445,9.751335144042969,-0.12549999356269836,0.24369999766349792,-0.056599996984004974,3.4120000824255365,-23.91500067118733,-2.3980000166423756
-0.05374504253268242,0.06904877722263336,9.750548362731934,-0.1889999955892563,0.24169999361038208,-0.05590000003576279,-2.7809998861430785,-10.60499993652608,-1.1240000489228048
-0.048659756779670715,0.07230489701032639,9.760010719299316,-0.21379999816417694,0.24709999561309814,-0.04559999704360962,-3.8839998781324447,-6.61900014776278,-1.388999969496781
-0.052806511521339417,0.07096414268016815,9.766206741333008,-0.23119999468326569,0.2563999891281128,-0.045099999755620956,-0.7560000218913903,-18.984000241409984,-0.2699999925723957
-0.062287550419569016,0.05914635956287384,9.745166778564453,-0.3050000071525574,0.24789999425411224,-0.06319999694824219,-0.7930000103989956,-17.62299967192032,-3.2830000071187984
-0.05668511986732483,0.06140648573637009,9.762884140014648,-0.33649998903274536,0.2483999878168106,-0.042399998754262924,3.8079999363508894,6.366000122508575,1.4979999702532527
-0.05860047787427902,0.0644710585474968,9.767778396606445,-0.32749998569488525,0.2368999868631363,-0.04319999739527702,-1.94099995668305,4.108999969771005,0.9690000047667668
-0.05466441437602043,0.07372225821018219,9.759560585021973,-0.30649998784065247,0.2502000033855438,-0.04349999874830246,1.466000000383214,15.286999843695087,2.063999924247344
-0.05431006848812103,0.07392337173223495,9.747858047485352,-0.26330000162124634,0.2450999915599823,-0.06430000066757202,1.2100000279794934,7.02200009181375,1.0429999817819775
-0.053189586848020554,0.06506482511758804,9.750452995300293,-0.2378999888896942,0.23009999096393585,-0.05509999766945839,3.3770000586842754,5.052999988071644,0.38400001196643396
-0.04888959974050522,0.07542693614959717,9.762950897216797,-0.22459998726844788,0.23070000112056732,-0.04569999873638153,3.5159999578227357,8.602999773809056,0.9440000183006392
-0.04888959974050522,0.0618470199406147,9.751813888549805,-0.19990000128746033,0.210099995136261,-0.05609999969601631,1.443999961066603,6.778999890391267,1.1440000167513658
-0.051389146596193314,0.05710649862885475,9.75344181060791,-0.1824999898672104,0.19589999318122864,-0.05649999901652336,0.038000000906257256,-6.49400000198873,-1.2379999615951374
-0.03874776139855385,0.06582139432430267,9.76036548614502,-0.18949998915195465,0.2044999897480011,-0.04639999940991402,-0.9719999519162833,-6.99600012296445,-1.2189999761497488
-0.060487110167741776,0.06375280022621155,9.758268356323242,-0.2320999950170517,0.20669999718666077,-0.055799998342990875,1.5409999597815969,9.765999989449224,1.829000008777062
-0.052030790597200394,0.056675542145967484,9.762213706970215,-0.19779999554157257,0.1922999918460846,-0.04649999737739563,1.9289999546415724,5.35000009195907,1.090000007564716
-0.05957731604576111,0.05786306783556938,9.754839897155762,-0.19189999997615814,0.19589999318122864,-0.056599996984004974,0.7360000007019765,-1.962000013616489,-0.7209999981501293
-0.06709510833024979,0.052030790597200394,9.761351585388184,-0.20549999177455902,0.1832999885082245,-0.046799998730421066,0.44099999498302667,4.666999957978013,-1.1469999639008823
-0.052308518439531326,0.07446924597024918,9.76162052154541,-0.17219999432563782,0.20080000162124634,-0.0471000000834465,1.8760000345598007,3.5629999836054744,0.9659999508955445
-0.04506845027208328,0.0565127357840538,9.763237953186035,-0.1492999941110611,0.17389999330043793,-0.04729999974370003,-0.08299999855663877,3.8139998306499225,-0.20200000323771067
-0.05149449035525322,0.060697801411151886,9.765067100524902,-0.15049999952316284,0.18299999833106995,-0.04739999771118164,0.9200000142176837,2.1560000110464768,-0.08400000095013078
-0.042837053537368774,0.06440402567386627,9.751574516296387,-0.13329999148845673,0.179299995303154,-0.05739999935030937,-2.0629999418641716,-5.725999871334157,-0.8579999858830979
-0.06494990736246109,0.058945246040821075,9.767691612243652,-0.16439999639987946,0.18299999833106995,-0.04739999771118164,-1.1419999452633156,1.3920000233680034,0.9430000359174671
-0.06494990736246109,0.058945246040821075,9.767691612243652,-0.16439999639987946,0.18299999833106995,-0.04739999771118164,-1.1419999452633156,1.3920000233680034,0.9430000359174671
-0.06810066848993301,0.07245812565088272,9.755328178405762,-0.16869999468326569,0.19589999318122864,-0.05719999969005585,-0.7949999751653399,-2.4830000133158916,-0.3999999969014533
-0.05205952003598213,0.05547844246029854,9.748671531677246,-0.1589999943971634,0.1761000007390976,-0.06689999997615814,0.5570000058238358,1.1879999886628823,0.10999999647985702
-0.05205952003598213,0.05547844246029854,9.748671531677246,-0.1589999943971634,0.1761000007390976,-0.06689999997615814,0.5570000058238358,1.1879999886628823,0.10999999647985702
-0.052787356078624725,0.060228537768125534,9.755997657775879,-0.15539999306201935,0.19349999725818634,-0.04739999771118164,-2.2929999454185928,-4.814999912008434,-0.20599999947146552
-0.05858132615685463,0.06684611737728119,9.764110565185547,-0.17549999058246613,0.1906999945640564,-0.0471000000834465,-0.7859999736342317,-2.8190000704772675,-0.4139999903897018
-0.061128757894039154,0.06305369734764099,9.753556251525879,-0.17549999058246613,0.1906999945640564,-0.0471000000834465,-1.2150000466170598,-2.532999986248147,-1.0729999868856717
-0.05262455344200134,0.06637685000896454,9.757338523864746,-0.17790000140666962,0.19429999589920044,-0.056699998676776886,-0.5320000193577081,-1.261999965678093,-0.10999999647985702
-0.047692496329545975,0.06507439911365509,9.74361515045166,-0.1703999936580658,0.1947999894618988,-0.06650000065565109,-0.8600000040102952,-2.8359999844346064,-0.830999981289773
-0.04571967571973801,0.06333142518997192,9.757033348083496,-0.17739999294281006,0.19629999995231628,-0.056599996984004974,-0.8339999818001425,-2.68199992266174,-0.5140000162954916
-0.05326620116829872,0.06617573648691177,9.742609977722168,-0.1955999881029129,0.19820000231266022,-0.06619999557733536,-0.5870000109275301,-2.6280000201967963,-0.6919999754296072
-0.05076665058732033,0.07075344771146774,9.75344181060791,-0.20029999315738678,0.20839999616146088,-0.056299999356269836,-0.13499999628619785,-1.8900000013676228,0.2710000016359943
-0.05282566323876381,0.06099468097090721,9.751133918762207,-0.2150999903678894,0.188400000333786,-0.04639999940991402,1.4900000044661694,2.497999962506886,0.3150000002279371
-0.05282566323876381,0.06099468097090721,9.751133918762207,-0.20419999957084656,0.19699999690055847,-0.056299999356269836,1.4900000044661694,2.497999962506886,0.3150000002279371
-0.05504748597741127,0.06706637889146805,9.750405311584473,-0.1964999884366989,0.20189999043941498,-0.05649999901652336,-0.21899999723632863,-1.780000018227979,-0.24599998848944027
-0.05578489974141121,0.07197927683591843,9.764713287353516,-0.20179998874664307,0.19200000166893005,-0.05639999732375145,1.1430000343681936,2.3970000342592033,0.40400000647542134
-0.05578489974141121,0.07197927683591843,9.764713287353516,-0.20589999854564667,0.20329999923706055,-0.04649999737739563,1.1430000343681936,2.3970000342592033,0.40400000647542134
-0.04535575956106186,0.06643430888652802,9.75605583190918,-0.18789999186992645,0.1891999989748001,-0.05649999901652336,0.038000000906257256,-1.2199999585329209,-0.42899999294154895
-0.047692496329545975,0.06354211270809174,9.747418403625488,-0.20960000157356262,0.1882999986410141,-0.046699997037649155,-0.10900000075647161,-0.9510000017045502,-0.3379999952472939
-0.047692496329545975,0.06354211270809174,9.747418403625488,-0.18649999797344208,0.18699999153614044,-0.06639999896287918,-0.10900000075647161,-0.9510000017045502,-0.3379999952472939
-0.06205770745873451,0.06044880300760269,9.754819869995117,-0.2084999978542328,0.186599999666214,-0.05649999901652336,-0.13499999628619785,1.582999966926769,0.6739999723673906
-0.0555742122232914,0.06708553433418274,9.7509126663208,-0.19409999251365662,0.19599999487400055,-0.056599996984004974,-0.5930000119482689,-2.2659999941861204,-0.33000000277978425
-0.056646812707185745,0.06297708302736282,9.744487762451172,-0.19949999451637268,0.18699999153614044,-0.06629999727010727,0.3759999928184979,1.5949999689682466,0.3570000073731091
-0.04935886338353157,0.05002924054861069,9.753355026245117,-0.1947999894618988,0.17549999058246613,-0.056599996984004974,-0.26300000916848465,0.26699999206202624,0.14699999832767557
-0.05646485090255737,0.054875101894140244,9.75566291809082,-0.19329999387264252,0.17549999058246613,-0.056599996984004974,-0.6099999792664604,-1.262999948061265,-0.25400000763737635
-0.04733815789222717,0.0631590411067009,9.745962142944336,-0.20659999549388885,0.17679999768733978,-0.056599996984004974,0.5179999991890332,1.9269999898752281,0.3690000094145868
-0.056551042944192886,0.05826529487967491,9.75725269317627,-0.18469999730587006,0.18159998953342438,-0.0568000003695488,-0.1180000022875799,-2.688000030404185,-0.11400000605382507
-0.056551042944192886,0.05826529487967491,9.75725269317627,-0.18469999730587006,0.18159998953342438,-0.0568000003695488,-0.1180000022875799,-2.688000030404185,-0.11400000605382507
-0.055392250418663025,0.05502833053469658,9.753853797912598,-0.18799999356269836,0.1704999953508377,-0.0568000003695488,-0.4639999900023835,-0.5390000027616192,0.1620000008795227
-0.05541140213608742,0.06271850317716599,9.761026382446289,-0.1890999972820282,0.18119999766349792,-0.04690000042319298,-0.5290000188473387,-2.314999984735204,-0.45700000659847245
-0.04923436418175697,0.07032249122858047,9.759675979614258,-0.1890999972820282,0.18119999766349792,-0.04690000042319298,-0.5290000188473387,-2.314999984735204,-0.45700000659847245
-0.05971139296889305,0.06229712814092636,9.770315170288086,-0.2061000019311905,0.18239998817443848,-0.03700000047683716,0.17400000292100043,-0.6339999833494159,-0.3339999856733259
-0.05207867547869682,0.06248866394162178,9.763592720031738,-0.19539999961853027,0.18079999089241028,-0.04690000042319298,0.05200000106461238,0.1419999930303221,0.18600000496247812
-0.06106172129511833,0.06933607906103134,9.755721092224121,-0.2012999951839447,0.1889999955892563,-0.056699998676776886,0.39299998681711584,0.7200000157669572,-0.012000000373951061
-0.04909071326255798,0.0642220675945282,9.762462615966797,-0.1850000023841858,0.17469999194145203,-0.0471000000834465,0.041000001416626686,0.16999999334703236,0.18600000496247812
-0.04980897158384323,0.06453809887170792,9.763459205627441,-0.18230000138282776,0.17350000143051147,-0.0471000000834465,0.4679999728959251,0.42599999243117953,-0.0429999995335041
-0.04374685138463974,0.07699752599000931,9.752551078796387,-0.12839999794960022,0.14399999380111694,-0.057999998331069946,0.5819999922899634,0.9990000098704611,0.13799999679656727
-0.06087018549442291,0.07323384284973145,9.75833511352539,-0.1607999950647354,0.1517999917268753,-0.05769999697804451,0.05799999875029794,0.18600000496247812,0.07799999992939192
-0.057901374995708466,0.061598021537065506,9.762578010559082,-0.1340000033378601,0.11589999496936798,-0.04839999973773956,0.36499999984061876,0.5720000083756829,0.257999990530918
-0.06628108024597168,0.05748957023024559,9.760671615600586,-0.15969999134540558,0.14329999685287476,-0.0478999987244606,0.1629999966029081,0.2519999895101791,-0.08400000095013078
-0.061885327100753784,0.058734554797410965,9.764608383178711,-0.16329999268054962,0.15729999542236328,-0.03799999877810478,0.2159999967259592,-0.149999998838045,-0.08799999718388561
-0.05112099274992943,0.06627149879932404,9.75953197479248,-0.15950000286102295,0.15240000188350677,-0.06729999929666519,0.12400000330831876,0.4169999909000712,0.14300000209392072
-0.055057063698768616,0.057336341589689255,9.744094848632812,-0.16189999878406525,0.14579999446868896,-0.06719999760389328,-0.004999999877891834,-0.043999998591942806,0.010999999647985701
-0.037426162511110306,0.06803363561630249,9.75228214263916,-0.10749999433755875,0.12479999661445618,-0.05819999799132347,-0.029999998433587676,0.20299999896109608,0.14900000311465958
-0.06643430888652802,0.06001785025000572,9.748748779296875,-0.10749999433755875,0.12479999661445618,-0.05819999799132347,0.4679999728959251,0.5380000203784471,-0.021999999295971403
-0.05125506967306137,0.06284300982952118,9.743682861328125,-0.14090000092983246,0.13220000267028809,-0.06769999861717224,0.057000003026912535,-0.13700000107318186,0.017999999727163266
-0.052691590040922165,0.061933208256959915,9.750711441040039,-0.10659999400377274,0.09959999471902847,-0.058399997651576996,-0.1180000022875799,-0.28499999512424284,0.07399999702553048
-0.05001965910196304,0.06242162734270096,9.755796432495117,-0.12079999595880508,0.1136000007390976,-0.05819999799132347,-0.04900000055424296,-0.23300000406479038,-0.10900000075647161
-0.06102341413497925,0.06176082789897919,9.75566291809082,-0.1412999927997589,0.12399999797344208,-0.05810000002384186,-0.06399999977103679,-0.5080000152747527,-0.06399999977103679
-0.04752969369292259,0.06596504151821136,9.76276969909668,-0.13009999692440033,0.13159999251365662,-0.04809999838471413,0.3669999912873896,0.5440000213991859,0.149999998838045
-0.07086837291717529,0.06087018549442291,9.760106086730957,-0.16300000250339508,0.13589999079704285,-0.04800000041723251,0.2069999951948509,0.6059999963729188,0.16599999711327754
-0.05656062066555023,0.0731189176440239,9.755748748779297,-0.1459999978542328,0.14919999241828918,-0.05779999867081642,-0.2360000045751598,-0.21999999295971404,0.1079999983629796
-0.052547939121723175,0.07124187052249908,9.76553726196289,-0.1492999941110611,0.15269999206066132,-0.0478999987244606,0.017999999727163266,0.04500000098543482,0.1180000022875799
-0.04723281040787697,0.05571785941720009,9.757894515991211,-0.10520000010728836,0.10040000081062317,-0.05829999968409538,0.07999999804626934,-0.25100000712700693,-0.10199999734224074
-0.05092945694923401,0.060745686292648315,9.752253532409668,-0.125900000333786,0.1200999990105629,-0.05810000002384186,0.18600000496247812,0.5009999785099888,-0.07399999702553048
-0.055219866335392,0.07095456123352051,9.760940551757812,-0.13660000264644623,0.1419999897480011,-0.04809999838471413,0.05300000012305109,0.2399999874687014,0.0269999995907449
-0.055219866335392,0.07095456123352051,9.760940551757812,-0.13660000264644623,0.1419999897480011,-0.04809999838471413,0.05300000012305109,0.2399999874687014,0.0269999995907449
-0.04358404874801636,0.06253654509782791,9.758143424987793,-0.0982000008225441,0.10239999741315842,-0.058399997651576996,-0.0429999995335041,0.1189999980109653,0.05900000114378995
-0.04358404874801636,0.06253654509782791,9.758143424987793,-0.0982000008225441,0.10239999741315842,-0.058399997651576996,-0.0429999995335041,0.1189999980109653,0.05900000114378995
-0.05472187325358391,0.05456864461302757,9.759081840515137,-0.09510000050067902,0.08169999718666077,-0.0486999973654747,0.15500000413539844,0.2250000115972807,0.11400000605382507
-0.05472187325358391,0.05456864461302757,9.759081840515137,-0.09510000050067902,0.08169999718666077,-0.0486999973654747,0.15500000413539844,0.2250000115972807,0.11400000605382507
-0.05912720412015915,0.06929777562618256,9.767730712890625,-0.08559999614953995,0.0828000009059906,-0.048899997025728226,-0.15399999507179982,-0.19600000221697184,-0.3150000002279371
-0.05912720412015915,0.06929777562618256,9.767730712890625,-0.08559999614953995,0.0828000009059906,-0.048899997025728226,-0.15399999507179982,-0.19600000221697184,-0.3150000002279371
-0.05935704708099365,0.06261315941810608,9.746402740478516,-0.0810999944806099,0.07079999893903732,-0.06849999725818634,-0.11699999322398127,-0.01700000066872456,-0.06500000216452881
-0.05935704708099365,0.06261315941810608,9.746402740478516,-0.0810999944806099,0.07079999893903732,-0.06849999725818634,-0.11699999322398127,-0.01700000066872456,-0.06500000216452881
-0.054683566093444824,0.0586579404771328,9.76868724822998,-0.07939999550580978,0.07889999449253082,-0.039000000804662704,0.11099999887334903,0.03100000082707969,0.26900001018922354
-0.054683566093444824,0.0586579404771328,9.76868724822998,-0.07939999550580978,0.07889999449253082,-0.039000000804662704,0.11099999887334903,0.03100000082707969,0.26900001018922354
-0.055057063698768616,0.07164409011602402,9.754581451416016,-0.10819999873638153,0.11569999903440475,-0.058399997651576996,0.12599999475508955,0.27899999410350396,-0.046999999102312236
-0.05490383133292198,0.06656838208436966,9.768420219421387,-0.10819999873638153,0.11569999903440475,-0.058399997651576996,0.15699999558216926,0.1939999974299878,0.08299999855663877
-0.04732858017086983,0.07059064507484436,9.765240669250488,-0.11329999566078186,0.13009999692440033,-0.04839999973773956,-0.024000000747902123,0.1180000022875799,-0.08899999957737763
-0.050038814544677734,0.06738241761922836,9.769549369812012,-0.08449999988079071,0.08949999511241913,-0.039000000804662704,-0.05999999686717535,-0.0539999991814898,0.01400000015835513
-0.05207867547869682,0.05502833053469658,9.756247520446777,-0.06509999930858612,0.05379999801516533,-0.05869999900460243,-0.11400000605382507,-0.13799999679656727,0.012000000373951061
-0.05207867547869682,0.05502833053469658,9.756247520446777,-0.06509999930858612,0.05379999801516533,-0.05869999900460243,-0.11400000605382507,-0.13799999679656727,0.012000000373951061
-0.04949294030666351,0.05781518295407295,9.763975143432617,-0.07189999520778656,0.07039999961853027,-0.048899997025728226,0.01400000015835513,0.12499999903170415,0.17599999436777122
-0.056790463626384735,0.07218997180461884,9.755385398864746,-0.05419999733567238,0.06069999933242798,-0.058799996972084045,-0.08400000095013078,0.0329999989439571,0.010999999647985701
-0.06541916728019714,0.054616525769233704,9.760777473449707,-0.032099999487400055,0.044199999421834946,-0.04899999871850014,-0.031999999885518396,0.17100000241063099,-0.05600000063342052
-0.06541916728019714,0.054616525769233704,9.760777473449707,-0.03759999945759773,0.018199998885393143,-0.04899999871850014,-0.031999999885518396,0.17100000241063099,-0.05600000063342052
-0.04901409521698952,0.061052143573760986,9.75778865814209,-0.013700000010430813,0.02979999966919422,-0.06849999725818634,0.03699999851276524,0.04900000055424296,0.06800000267489824
-0.052691590040922165,0.0560338981449604,9.762711524963379,-0.012600000016391277,0.003599999938160181,-0.048899997025728226,-0.07799999992939192,0.06299999737754478,-0.09999999922536333
-0.052691590040922165,0.0560338981449604,9.762711524963379,-0.012600000016391277,0.003599999938160181,-0.048899997025728226,-0.07799999992939192,0.06299999737754478,-0.09999999922536333
-0.04641878232359886,0.061195798218250275,9.76827621459961,-0.0018999999156221747,0.00989999994635582,-0.048899997025728226,-0.04600000004387353,0,-0.16599999711327754
-0.049205634742975235,0.06879020482301712,9.768572807312012,-0.009099999442696571,0.01549999974668026,-0.06849999725818634,-0.09300000248123906,-0.041000001416626686,0.1070000026395942
-0.048382025212049484,0.07399041205644608,9.74925708770752,-0.03709999844431877,0.04189999774098396,-0.058799996972084045,-0.01400000015835513,-0.1509999945614304,0.09000000197086964
-0.057403381913900375,0.0650360956788063,9.757387161254883,-0.028599999845027924,0.02449999935925007,-0.058799996972084045,-0.024999999806340833,-0.2159999967259592,0.07000000079177565
-0.057403381913900375,0.0650360956788063,9.757387161254883,-0.028599999845027924,0.02449999935925007,-0.058799996972084045,-0.024999999806340833,-0.2159999967259592,0.07000000079177565
-0.04324885830283165,0.06425079703330994,9.761543273925781,-0.0139999995008111,0.017799999564886093,-0.048899997025728226,0.12499999903170415,0.16800000190026157,0.0030000000934877653
-0.054300494492053986,0.0646817535161972,9.745550155639648,-0.018299998715519905,0.013700000010430813,-0.06849999725818634,0.24299998797907083,-0.019000000453128628,-0.02800000031671026
-0.05022077634930611,0.06115749105811119,9.756525039672852,-0.0357000008225441,0.032099999487400055,-0.058799996972084045,0.0969999987149939,0.03999999902313467,0.07999999804626934
-0.05022077634930611,0.06115749105811119,9.756525039672852,-0.0357000008225441,0.032099999487400055,-0.058799996972084045,0.0969999987149939,0.03999999902313467,0.07999999804626934
-0.039274487644433975,0.07412447780370712,9.771062850952148,-0.011599999852478504,0.023099999874830246,-0.03909999877214432,0.03899999996469596,0.02600000053230619,0.17700000343136985
-0.05978800728917122,0.06643430888652802,9.763545036315918,-0.023000000044703484,0.009599999524652958,-0.048899997025728226,-0.05499999823992851,0.13499999628619785,-0.046999999102312236
-0.05978800728917122,0.06643430888652802,9.763545036315918,-0.023000000044703484,0.009599999524652958,-0.048899997025728226,-0.05499999823992851,0.13499999628619785,-0.046999999102312236
-0.06275681406259537,0.06627149879932404,9.754762649536133,-0.01719999872148037,0.007499999832361937,-0.05869999900460243,0.06399999977103679,-0.041000001416626686,0.0659999978879142
-0.05812164023518562,0.06279512494802475,9.7766752243042,-0.047199998050928116,0.03529999777674675,-0.03920000046491623,-0.07099999651516105,-0.013000000266153095,0.046999999102312236
-0.051551952958106995,0.058763287961483,9.750625610351562,-0.02239999920129776,0.018699999898672104,-0.05869999900460243,0.05499999823992851,0.08200000283325337,0.21299999621558977
-0.036966472864151,0.06857950985431671,9.761677742004395,-0.0284000001847744,0.054499998688697815,-0.04899999871850014,-0.10600000024610218,0.049999999612681666,-0.0539999991814898
-0.05456864461302757,0.07177817076444626,9.767499923706055,-0.024699999019503593,0.031599998474121094,-0.048899997025728226,0.2289999944908223,-0.07999999804626934,0.1419999930303221
-0.05176264047622681,0.06448063999414444,9.749946594238281,-0.038100000470876694,0.035099998116493225,-0.058799996972084045,-0.08200000283325337,-0.14699999832767557,0.03100000082707969
-0.05639781430363655,0.07460332661867142,9.764551162719727,-0.0279999990016222,0.03280000016093254,-0.048899997025728226,-0.0329999989439571,-0.05200000106461238,0
-0.05680004134774208,0.0627855435013771,9.755280494689941,-0.021399999037384987,0.017500000074505806,-0.05869999900460243,0.07699999753589991,0.08799999718388561,-0.007999999971379599
-0.0663481131196022,0.05705861747264862,9.766762733459473,-0.01599999889731407,0.020399998873472214,-0.05869999900460243,-0.05499999823992851,-0.11299999699022645,-0.08299999855663877
-0.05877286195755005,0.06446148455142975,9.7523775100708,-0.0142000000923872,0.007999999448657036,-0.05859999731183052,0.03899999996469596,0.0019999999928448997,-0.06099999926066736
-0.04113238677382469,0.06513186544179916,9.761552810668945,0.0038999998942017555,0.00559999980032444,-0.04879999905824661,-0.043999998591942806,0.046999999102312236,-0.22700000304405152
-0.04113238677382469,0.06513186544179916,9.761552810668945,0.00279999990016222,0.004100000020116568,-0.04879999905824661,-0.043999998591942806,0.046999999102312236,-0.22700000304405152
-0.055009178817272186,0.06050626188516617,9.765028953552246,-0.04519999772310257,0.032600000500679016,-0.058799996972084045,-0.12799999954207358,-0.019000000453128628,0.30700000776042746
-0.05318000912666321,0.06137775257229805,9.765374183654785,-0.07360000163316727,0.07119999825954437,-0.048899997025728226,0.10199999734224074,0.1509999945614304,-0.046999999102312236
-0.05318000912666321,0.06137775257229805,9.765374183654785,-0.07360000163316727,0.07119999825954437,-0.048899997025728226,0.10199999734224074,0.1509999945614304,-0.046999999102312236
-0.05533478781580925,0.06346549838781357,9.759771347045898,-0.03999999910593033,0.03869999945163727,-0.04899999871850014,-0.06800000267489824,0.10400000212922476,0.07600000181251451
-0.05533478781580925,0.06346549838781357,9.759771347045898,-0.03999999910593033,0.03869999945163727,-0.04899999871850014,-0.06800000267489824,0.10400000212922476,0.07600000181251451
-0.054731450974941254,0.06687483936548233,9.76020336151123,-0.029999999329447746,0.029399998486042023,-0.058799996972084045,0.06099999926066736,-0.03899999996469596,0.04600000004387353
-0.04580586776137352,0.0681389793753624,9.767950057983398,-0.008499999530613422,0.02239999920129776,-0.048899997025728226,-0.03999999902313467,-0.05900000114378995,-0.03999999902313467
-0.04580586776137352,0.0681389793753624,9.767950057983398,-0.008499999530613422,0.02239999920129776,-0.048899997025728226,-0.03999999902313467,-0.05900000114378995,-0.03999999902313467
-0.054013192653656006,0.06815813481807709,9.772029876708984,-0.009200000204145908,0.011500000022351742,-0.039000000804662704,-0.04900000055424296,0.09600000299160849,-0.023000000021936765
-0.05114014819264412,0.06333142518997192,9.76161003112793,-0.0064999996684491634,0.0013000000035390258,-0.04879999905824661,-0.1189999980109653,0.16599999711327754,0.2039999946844815
-0.05160941183567047,0.07449797540903091,9.751104354858398,-0.0064999996684491634,0.0013000000035390258,-0.04879999905824661,-0.10299999973573276,-0.06099999926066736,-0.013000000266153095
-0.05684792250394821,0.0566372349858284,9.750999450683594,-0.025299999862909317,0.015099999494850636,-0.058799996972084045,-0.06500000216452881,0.09399999820462447,-0.02600000053230619
-0.04353616386651993,0.06021896004676819,9.764033317565918,-0.010999999940395355,0.018199998885393143,-0.048899997025728226,-0.10100000161885533,-0.02800000031671026,0.05799999875029794
-0.04630386084318161,0.05017289146780968,9.762673377990723,-0.007999999448657036,0.006199999712407589,-0.048899997025728226,-0.03899999996469596,-0.07600000181251451,0.11200000126684104
-0.06182786449790001,0.05283524468541145,9.74765682220459,-0.021800000220537186,0.004900000058114529,-0.06849999725818634,-0.05799999875029794,0.0329999989439571,0.048000001495804245
-0.053065087646245956,0.06605123728513718,9.749246597290039,-0.008999999612569809,0.011099999770522118,-0.05869999900460243,-0.019999999511567335,0.08200000283325337,0.07199999890865307
-0.05739380419254303,0.07149086147546768,9.769454002380371,-0.0058999997563660145,0.014299999922513962,-0.039000000804662704,0.017999999727163266,0.019000000453128628,0.09600000299160849
-0.05969223752617836,0.06449022144079208,9.766925811767578,-0.011399999260902405,0.0031999999191612005,-0.04879999905824661,0.13799999679656727,0.05600000063342052,0.19200000598321698
-0.05905058979988098,0.07587704062461853,9.772920608520508,-0.03889999911189079,0.03999999910593033,-0.03920000046491623,0.014999999216793838,-0.05600000063342052,-0.24800000661663751
-0.05559336394071579,0.0669323056936264,9.770622253417969,-0.050599999725818634,0.05130000039935112,-0.03920000046491623,-0.019000000453128628,0.07900000232288394,-0.17899999487814064
-0.06300581246614456,0.06985322386026382,9.7518892288208,-0.04559999704360962,0.046299997717142105,-0.058799996972084045,0.03100000082707969,-0.06099999926066736,-0.007000000079177565
-0.05334281548857689,0.06508397310972214,9.74384593963623,-0.0279999990016222,0.0284000001847744,-0.06859999895095825,-0.05300000012305109,0.09800000110848592,-0.0269999995907449
-0.06380068510770798,0.0638485699892044,9.747551918029785,-0.028999999165534973,0.022099999710917473,-0.06849999725818634,-0.019999999511567335,0.02600000053230619,0.09200000008774706
-0.04916732758283615,0.06473921239376068,9.757597923278809,-0.0142000000923872,0.01640000008046627,-0.05869999900460243,0.03100000082707969,-0.017999999727163266,0.06700000028140622
-0.048190489411354065,0.060534995049238205,9.759522438049316,-0.010199999436736107,0.011599999852478504,-0.048899997025728226,-0.007000000079177565,0.06299999737754478,0.035000000395887826
-0.050488926470279694,0.054635681211948395,9.755721092224121,-0.007499999832361937,0.0013000000035390258,-0.05869999900460243,-0.02899999937514897,0,-0.0039999999856897995
-0.04279874637722969,0.06723876297473907,9.747791290283203,0.0016999999061226845,0.016300000250339508,-0.06849999725818634,0.09000000197086964,-0.031999999885518396,-0.04900000055424296
-0.06557239592075348,0.07293695956468582,9.741720199584961,-0.013799999840557575,0.012299999594688416,-0.06839999556541443,-0.09800000110848592,0.12400000330831876,0.05600000063342052
-0.056484006345272064,0.07585788518190384,9.748710632324219,-0.00279999990016222,0.009599999524652958,-0.06839999556541443,0.010999999647985701,-0.057000003026912535,-0.03599999945432653
-0.04739561676979065,0.07125144451856613,9.763583183288574,0.004799999762326479,0.0066999997943639755,-0.04879999905824661,0.10900000075647161,0.05999999686717535,-0.010999999647985701
-0.04752011597156525,0.059989117085933685,9.744707107543945,0.004999999888241291,-0.0032999999821186066,-0.06839999556541443,0.0969999987149939,0.021000000237532696,0.1400000015835513
-0.06635769456624985,0.07542693614959717,9.755375862121582,-0.014499999582767487,0.006199999712407589,-0.05859999731183052,-0.18700000068586353,-0.1620000008795227,0.14399999781730613
-0.058332327753305435,0.06668330729007721,9.763736724853516,-0.04089999943971634,0.04529999941587448,-0.04899999871850014,0.13100000005244303,0.07099999651516105,0.0859999990670082
-0.06339845806360245,0.06498821079730988,9.762414932250977,-0.034199997782707214,0.023799998685717583,-0.048899997025728226,0.1319999957758284,0.08700000146050021,-0.1180000022875799
-0.05705861747264862,0.05811206251382828,9.767241477966309,-0.010099999606609344,0.011899999342858791,-0.048899997025728226,-0.057000003026912535,0.0859999990670082,-0.02800000031671026
-0.05040273442864418,0.075015127658844,9.75627613067627,-0.007400000002235174,0.016499999910593033,-0.05859999731183052,-0.08899999957737763,-0.04500000098543482,0.08200000283325337
-0.05040273442864418,0.075015127658844,9.75627613067627,-0.007400000002235174,0.016499999910593033,-0.05859999731183052,-0.08899999957737763,-0.04500000098543482,0.08200000283325337
-0.040059782564640045,0.06223009154200554,9.749524116516113,0.0030999998562037945,0.002099999925121665,-0.05859999731183052,-0.2259999939804529,-0.1419999930303221,-0.07300000130214508
-0.052883125841617584,0.06342719495296478,9.761831283569336,0.0030999998562037945,0.002099999925121665,-0.05859999731183052,0.1800000039417393,0.05900000114378995,-0.11400000605382507
-0.05333323776721954,0.06367618590593338,9.754150390625,-0.024699999019503593,0.022299999371170998,-0.05869999900460243,-0.13000000432905762,-0.0269999995907449,-0.0659999978879142
-0.0491769015789032,0.06794743984937668,9.755059242248535,-0.01860000006854534,0.024299999698996544,-0.05869999900460243,0.02600000053230619,0.1070000026395942,0.013000000266153095
-0.054424989968538284,0.06438487023115158,9.760709762573242,-0.013100000098347664,0.010400000028312206,-0.048899997025728226,0.1189999980109653,-0.019999999511567335,0.048000001495804245
-0.054300494492053986,0.05191586911678314,9.75197696685791,-0.00989999994635582,0.00009999999747378752,-0.05869999900460243,-0.0269999995907449,0.06700000028140622,0.009999999755783667
-0.050603847950696945,0.058207832276821136,9.758306503295898,-0.0030999998562037945,0.005399999674409628,-0.05859999731183052,0.05499999823992851,0.1319999957758284,0.06899999839828364
-0.0644519105553627,0.06123410537838936,9.754063606262207,-0.009399999864399433,0.0038999998942017555,-0.05859999731183052,-0.2259999939804529,0.057000003026912535,0.13300000483942703
-0.04495352879166603,0.05827486887574196,9.74722671508789,-0.009399999864399433,0.0038999998942017555,-0.05859999731183052,0.0009999999964224499,0.09099999769425504,0.22800001210765014
-0.04495352879166603,0.05827486887574196,9.74722671508789,-0.016300000250339508,0.030799999833106995,-0.06859999895095825,0.0009999999964224499,0.09099999769425504,0.22800001210765014
-0.05161898955702782,0.060343459248542786,9.759493827819824,-0.060999996960163116,0.06529999524354935,-0.048899997025728226,-0.17899999487814064,0.10400000212922476,0.17100000241063099
-0.05672342702746391,0.053735461086034775,9.735868453979492,-0.07189999520778656,0.06679999828338623,-0.07829999923706055,-0.1620000008795227,-0.009999999755783667,0.0039999999856897995
-0.05340985208749771,0.06382941454648972,9.745406150817871,-0.05609999969601631,0.060099996626377106,-0.06859999895095825,0.010999999647985701,0.031999999885518396,-0.007999999971379599
-0.050297390669584274,0.05578489974141121,9.758028030395508,-0.03269999846816063,0.02319999970495701,-0.058799996972084045,0.057000003026912535,-0.01700000066872456,0.012000000373951061
-0.05112099274992943,0.06491159647703171,9.749601364135742,-0.024699999019503593,0.024799998849630356,-0.05869999900460243,-0.029999998433587676,-0.009999999755783667,-0.0019999999928448997
-0.0684933215379715,0.06838797777891159,9.762213706970215,-0.03500000014901161,0.027499999850988388,-0.048899997025728226,-0.14099999730693671,0.08200000283325337,0.0019999999928448997
-0.05012500658631325,0.049588706344366074,9.755864143371582,-0.015099999494850636,0.01809999905526638,-0.048899997025728226,-0.07099999651516105,-0.07900000232288394,-0.024999999806340833
-0.04810430109500885,0.06489244103431702,9.753191947937012,-0.014999999664723873,0.008200000040233135,-0.05869999900460243,0.09899999683187131,-0.14799999405106096,0.010999999647985701
-0.043287165462970734,0.05244259163737297,9.750999450683594,-0.005699999630451202,0.008200000040233135,-0.05869999900460243,0.03100000082707969,0.07999999804626934,-0.02800000031671026
-0.030818164348602295,0.05856217071413994,9.762136459350586,0.00419999985024333,0.017899999395012856,-0.048899997025728226,0.06899999839828364,0.05600000063342052,0.16500000138989213
-0.05723099783062935,0.07586745917797089,9.754034996032715,-0.015099999494850636,0.027499999850988388,-0.05869999900460243,-0.0429999995335041,0.08200000283325337,0.11299999699022645
-0.06085103377699852,0.0654095932841301,9.740445137023926,-0.025100000202655792,0.01809999905526638,-0.06849999725818634,0.17400000292100043,-0.06299999737754478,0.2150000010025738
-0.06085103377699852,0.0654095932841301,9.740445137023926,-0.025100000202655792,0.01809999905526638,-0.06849999725818634,0.17400000292100043,-0.06299999737754478,0.2150000010025738
-0.046907201409339905,0.06707596033811569,9.756601333618164,-0.005699999630451202,0.027499999850988388,-0.05869999900460243,0.15999999609253868,0.08299999855663877,0.06899999839828364
-0.058351483196020126,0.06240247189998627,9.755481719970703,-0.015199999324977398,0.02709999866783619,-0.05869999900460243,-0.05499999823992851,-0.012000000373951061,0.07199999890865307
-0.058351483196020126,0.06240247189998627,9.755481719970703,-0.024399999529123306,0.016599999740719795,-0.05869999900460243,-0.05499999823992851,-0.012000000373951061,0.07199999890865307
-0.06543832272291183,0.05890693888068199,9.766753196716309,-0.024399999529123306,0.016699999570846558,-0.048899997025728226,0.03400000133744912,-0.1070000026395942,0.05999999686717535
-0.05291185900568962,0.05861963331699371,9.758938789367676,-0.014699999243021011,0.01679999940097332,-0.048899997025728226,0.03400000133744912,0.02899999937514897,-0.16699999283666295
-0.05291185900568962,0.05861963331699371,9.758938789367676,-0.014699999243021011,0.01679999940097332,-0.048899997025728226,0.03400000133744912,0.02899999937514897,-0.16699999283666295
-0.057499147951602936,0.06814856082201004,9.748135566711426,-0.024399999529123306,0.026499999687075615,-0.06849999725818634,0.08499999667351618,-0.21200000049220435,-0.041000001416626686
-0.05715438351035118,0.05905058979988098,9.749103546142578,-0.01549999974668026,0.01640000008046627,-0.06849999725818634,0.05499999823992851,0.008999999863581633,-0.20200000323771067
-0.05825571343302727,0.06748775392770767,9.75130558013916,-0.01549999974668026,0.01640000008046627,-0.06849999725818634,0.05499999823992851,0.015999999942759198,0.013000000266153095
-0.04471411183476448,0.06538085639476776,9.749246597290039,-0.005699999630451202,0.01599999889731407,-0.05869999900460243,0.11599999750059588,0.0859999990670082,0.321000001248676
-0.04471411183476448,0.06538085639476776,9.749246597290039,-0.005699999630451202,0.01599999889731407,-0.05869999900460243,0.11599999750059588,0.0859999990670082,0.321000001248676
-0.04969405010342598,0.07161536067724228,9.755538940429688,-0.01529999915510416,0.015799999237060547,-0.05869999900460243,0.0269999995907449,-0.06800000267489824,0.049999999612681666
-0.05453033745288849,0.05841852352023125,9.742399215698242,-0.015599999576807022,0.01549999974668026,-0.06849999725818634,0.007000000079177565,-0.08499999667351618,-0.15200000362502902
-0.047568000853061676,0.0695563480257988,9.747504234313965,-0.006000000052154064,0.025299999862909317,-0.06849999725818634,0.19000000119623298,0.07199999890865307,0.05499999823992851
-0.047568000853061676,0.0695563480257988,9.747504234313965,-0.006000000052154064,0.025299999862909317,-0.06849999725818634,0.19000000119623298,0.07199999890865307,0.05499999823992851
-0.0537833496928215,0.06757394969463348,9.751104354858398,-0.015399999916553497,0.024799998849630356,-0.05869999900460243,-0.06800000267489824,0.23900000508552924,0.10100000161885533
-0.0537833496928215,0.06757394969463348,9.751104354858398,-0.015399999916553497,0.024799998849630356,-0.05869999900460243,-0.06800000267489824,0.23900000508552924,0.10100000161885533
-0.06155971437692642,0.08015787601470947,9.769674301147461,-0.02449999935925007,0.03519999980926514,-0.03909999877214432,0.09099999769425504,0.05200000106461238,0.1070000026395942
-0.05440583825111389,0.06646303832530975,9.757225036621094,-0.014499999582767487,0.01529999915510416,-0.05869999900460243,0.05499999823992851,0.006000000186975531,0.0019999999928448997
-0.04784572497010231,0.05266286060214043,9.768266677856445,-0.004699999932199717,0.005399999674409628,-0.048899997025728226,-0.19000000119623298,-0.03899999996469596,-0.07099999651516105
-0.0543866828083992,0.06975746154785156,9.756467819213867,-0.014599999412894249,0.025499999523162842,-0.05869999900460243,0.023000000021936765,-0.03100000082707969,-0.05099999867112037
-0.051006071269512177,0.06264188885688782,9.75806713104248,-0.014699999243021011,0.015599999576807022,-0.05869999900460243,0.15599999985878385,0.0030000000934877653,0.07699999753589991
-0.05289270356297493,0.06795702129602432,9.754724502563477,-0.014599999412894249,0.02499999850988388,-0.05869999900460243,-0.23399998644796255,-0.009999999755783667,0.12199999852133472
-0.05829402059316635,0.061387334018945694,9.758086204528809,-0.02449999935925007,0.01589999906718731,-0.05869999900460243,0.0859999990670082,0.035000000395887826,0.19499999315337319
-0.048784252256155014,0.06392518430948257,9.756888389587402,-0.014599999412894249,0.015699999406933784,-0.05869999900460243,0.035000000395887826,-0.12799999954207358,0.19999999845072666
-0.05932832136750221,0.06258442997932434,9.742877960205078,-0.024799998849630356,0.015599999576807022,-0.06849999725818634,-0.007000000079177565,0.12100000279794933,-0.17599999436777122
-0.045604754239320755,0.06731537729501724,9.75778865814209,-0.004799999762326479,0.02539999969303608,-0.05869999900460243,0.07199999890865307,-0.057000003026912535,0.05300000012305109
-0.05851428955793381,0.06501694768667221,9.746383666992188,-0.02459999918937683,0.015399999916553497,-0.06849999725818634,-0.04900000055424296,-0.14900000311465958,-0.08899999957737763
-0.04924394190311432,0.06643430888652802,9.75353717803955,-0.015099999494850636,0.015599999576807022,-0.05869999900460243,-0.149999998838045,-0.18900000547284757,-0.12799999954207358
-0.053515199571847916,0.06706637889146805,9.762481689453125,-0.015599999576807022,0.02579999901354313,-0.048899997025728226,0.09800000110848592,0.14699999832767557,0.18700000068586353
-0.06557239592075348,0.05887820944190025,9.759705543518066,-0.025100000202655792,0.015799999237060547,-0.048899997025728226,0.024999999806340833,-0.17899999487814064,-0.1620000008795227
-0.040864236652851105,0.05437710881233215,9.758890151977539,-0.006099999882280827,0.0058999997563660145,-0.048899997025728226,-0.0539999991814898,-0.05600000063342052,0.08299999855663877
-0.04278917238116264,0.06797617673873901,9.758871078491211,-0.006300000008195639,0.025599999353289604,-0.048899997025728226,0.021999999295971403,-0.0030000000934877653,0.09300000248123906
-0.048142608255147934,0.07494808733463287,9.76543140411377,-0.016099998727440834,0.025599999353289604,-0.048899997025728226,0.10999999647985702,-0.007999999971379599,0.05900000114378995
-0.0513029545545578,0.061885327100753784,9.75072193145752,-0.016099998727440834,0.01549999974668026,-0.05869999900460243,0.14399999781730613,0.08400000095013078,0.07399999702553048
-0.06950846314430237,0.05348646640777588,9.750243186950684,-0.03539999946951866,0.0052999998442828655,-0.05869999900460243,-0.13499999628619785,-0.10299999973573276,-0.11699999322398127
-0.0522606335580349,0.061971515417099,9.752110481262207,-0.016200000420212746,0.01549999974668026,-0.05869999900460243,-0.10299999973573276,-0.11299999699022645,-0.09500000059811649
-0.06812940537929535,0.0703703761100769,9.764626502990723,-0.035999998450279236,0.025499999523162842,-0.048899997025728226,0.12499999903170415,0.10400000212922476,-0.1620000008795227
-0.05993165448307991,0.06766971945762634,9.770430564880371,-0.025699999183416367,0.024899998679757118,-0.03909999877214432,0.128999995265459,0.10100000161885533,0.04200000047506539
-0.06538085639476776,0.054013192653656006,9.749208450317383,-0.02539999969303608,0.004999999888241291,-0.05869999900460243,0.0859999990670082,0.22299999347008345,0.1509999945614304
-0.06538085639476776,0.054013192653656006,9.749208450317383,-0.02539999969303608,0.004999999888241291,-0.05869999900460243,0.0859999990670082,0.22299999347008345,0.1509999945614304
-0.05016331374645233,0.06646303832530975,9.764148712158203,-0.014599999412894249,0.014599999412894249,-0.048899997025728226,0.03599999945432653,0.09999999922536333,0.06099999926066736
-0.04589205980300903,0.0684741660952568,9.748490333557129,-0.0044999998062849045,0.024299999698996544,-0.06849999725818634,0.24099999653230003,0.024000000747902123,-0.13600000534979648
-0.04568136855959892,0.062239665538072586,9.739171981811523,-0.0044999998062849045,0.024299999698996544,-0.06849999725818634,-0.006000000186975531,-0.07099999651516105,-0.1419999930303221
-0.04826710373163223,0.058801595121622086,9.754754066467285,-0.014499999582767487,0.0139999995008111,-0.05869999900460243,0.024999999806340833,-0.10100000161885533,-0.0859999990670082
-0.050536807626485825,0.07115567475557327,9.744017601013184,-0.014599999412894249,0.023799998685717583,-0.06849999725818634,-0.041000001416626686,-0.10199999734224074,0.07900000232288394
-0.05623500794172287,0.06573519855737686,9.75295352935791,-0.014599999412894249,0.013899999670684338,-0.05869999900460243,0.06299999737754478,0.02899999937514897,-0.041000001416626686
-0.04842991381883621,0.07270711660385132,9.749734878540039,-0.014599999412894249,0.02369999885559082,-0.05869999900460243,-0.06500000216452881,-0.08499999667351618,0.07199999890865307
-0.056627657264471054,0.059778425842523575,9.757003784179688,-0.014399999752640724,0.013899999670684338,-0.05869999900460243,-0.08200000283325337,-0.18799999640924894,-0.02600000053230619
-0.06519889831542969,0.0670567974448204,9.760470390319824,-0.024799998849630356,0.024000000208616257,-0.048899997025728226,-0.06500000216452881,-0.04900000055424296,-0.05600000063342052
-0.06709510833024979,0.07423940300941467,9.757377624511719,-0.03460000082850456,0.02419999986886978,-0.05869999900460243,-0.021000000237532696,0.16400000566650674,-0.0009999999964224499
-0.058351483196020126,0.07017884403467178,9.755356788635254,-0.02410000003874302,0.02459999918937683,-0.05869999900460243,0.029999998433587676,-0.0009999999964224499,-0.08799999718388561
-0.05322789400815964,0.06170336529612541,9.750845909118652,-0.014099999330937862,0.014599999412894249,-0.05869999900460243,0.11599999750059588,-0.0329999989439571,0.0329999989439571
-0.05755661055445671,0.0607839934527874,9.755941390991211,-0.024000000208616257,0.0142000000923872,-0.05869999900460243,-0.11099999887334903,-0.031999999885518396,-0.1830000044521087
-0.059797581285238266,0.06467217206954956,9.748883247375488,-0.023499999195337296,0.014399999752640724,-0.06849999725818634,-0.06200000165415938,0.08899999957737763,0.13400000056281244
-0.045815445482730865,0.0720367431640625,9.744707107543945,-0.0031999999191612005,0.02419999986886978,-0.06849999725818634,-0.18199999538851008,0.0019999999928448997,0.04600000004387353
-0.052739474922418594,0.06844543665647507,9.758613586425781,-0.022499999031424522,0.014800000004470348,-0.048899997025728226,0.09099999769425504,-0.07799999992939192,0.16400000566650674
-0.04871721565723419,0.06001785025000572,9.755825996398926,-0.012999999336898327,0.015199999324977398,-0.05869999900460243,-0.09899999683187131,0.004999999877891834,0.10499999785261017
-0.04707958176732063,0.06388688087463379,9.746498107910156,-0.012999999336898327,0.015199999324977398,-0.05869999900460243,-0.03999999902313467,-0.24899998899980968,-0.18900000547284757
-0.05837063491344452,0.0639922246336937,9.754982948303223,-0.023399999365210533,0.015599999576807022,-0.05869999900460243,0.031999999885518396,0.007999999971379599,-0.19799999366374263
-0.054424989968538284,0.060841452330350876,9.77513313293457,-0.013299999758601189,0.015199999324977398,-0.03909999877214432,-0.01400000015835513,0.18700000068586353,-0.03699999851276524
-0.054424989968538284,0.060841452330350876,9.77513313293457,-0.013299999758601189,0.015199999324977398,-0.03909999877214432,-0.01400000015835513,0.18700000068586353,-0.03699999851276524
-0.06282385438680649,0.06965211778879166,9.76859188079834,-0.022599998861551285,0.02499999850988388,-0.03909999877214432,-0.007000000079177565,0.2549999900205486,0.1749999986443858
-0.05772899091243744,0.06673119217157364,9.766695022583008,-0.02149999886751175,0.015199999324977398,-0.048899997025728226,-0.03999999902313467,-0.05799999875029794,-0.23699998695833197
-0.05772899091243744,0.06673119217157364,9.766695022583008,-0.02149999886751175,0.015199999324977398,-0.048899997025728226,-0.03999999902313467,-0.05799999875029794,-0.23699998695833197
-0.06196194142103195,0.05729803442955017,9.760519027709961,-0.021800000220537186,0.00559999980032444,-0.048899997025728226,-0.031999999885518396,-0.15399999507179982,-0.1189999980109653
-0.050105854868888855,0.06550535559654236,9.76486587524414,-0.012299999594688416,0.015399999916553497,-0.048899997025728226,-0.03899999996469596,0.0009999999964224499,0.08400000095013078
-0.06073610857129097,0.06502652168273926,9.741556167602539,-0.022099999710917473,0.01549999974668026,-0.06849999725818634,-0.07900000232288394,0.19499999315337319,0.10400000212922476
-0.041362229734659195,0.05692454054951668,9.752311706542969,-0.0018999999156221747,0.006000000052154064,-0.05869999900460243,0.18600000496247812,-0.14300000209392072,0.03400000133744912
-0.0659937709569931,0.06593631953001022,9.756429672241211,-0.021900000050663948,0.01549999974668026,-0.05869999900460243,0.09899999683187131,0.029999998433587676,0.12299999424472013
-0.04881298542022705,0.06454767286777496,9.756141662597656,-0.011799999512732029,0.014999999664723873,-0.05869999900460243,0.1319999957758284,0.14900000311465958,0.09999999922536333
-0.04881298542022705,0.06454767286777496,9.756141662597656,-0.011799999512732029,0.014999999664723873,-0.05869999900460243,0.1319999957758284,0.14900000311465958,0.09999999922536333
-0.04376600682735443,0.059395354241132736,9.75866985321045,-0.001500000013038516,0.014599999412894249,-0.05869999900460243,0.05300000012305109,0.3029999981864594,0.15200000362502902
-0.03810611367225647,0.07140467315912247,9.752492904663086,0.009099999442696571,0.02449999935925007,-0.05869999900460243,0.014999999216793838,0.05200000106461238,-0.0019999999928448997
-0.03810611367225647,0.07140467315912247,9.752492904663086,0.009099999442696571,0.02449999935925007,-0.05869999900460243,0.014999999216793838,0.05200000106461238,-0.0019999999928448997
-0.058045025914907455,0.06474879384040833,9.75522232055664,-0.019899999722838402,0.014599999412894249,-0.05869999900460243,-0.006000000186975531,0.12700000381868817,0.010999999647985701
-0.058045025914907455,0.06474879384040833,9.75522232055664,-0.019899999722838402,0.014599999412894249,-0.05869999900460243,-0.006000000186975531,0.12700000381868817,0.010999999647985701
-0.05879201367497444,0.07755298167467117,9.756832122802734,-0.019500000402331352,0.034199997782707214,-0.05869999900460243,-0.024999999806340833,-0.10299999973573276,-0.10600000024610218
-0.06310158222913742,0.06307285279035568,9.754532814025879,-0.01979999989271164,0.014599999412894249,-0.05869999900460243,-0.04900000055424296,0.03400000133744912,0.1400000015835513
-0.06075526028871536,0.06948930770158768,9.75454330444336,-0.00989999994635582,0.014699999243021011,-0.05869999900460243,0.06500000216452881,0.0269999995907449,0.05099999867112037
-0.05234682559967041,0.05917508900165558,9.768946647644043,-0.00989999994635582,0.014299999922513962,-0.03909999877214432,0.07399999702553048,-0.09800000110848592,-0.06200000165415938
-0.05612008646130562,0.06451894342899323,9.754380226135254,-0.010199999436736107,0.014099999330937862,-0.05869999900460243,0.19799999366374263,0.16999999334703236,0.20299999896109608
-0.04881298542022705,0.05345773696899414,9.741642951965332,-0.010199999436736107,0.014099999330937862,-0.05869999900460243,0.14799999405106096,0.05600000063342052,0.01700000066872456
-0.044369347393512726,0.056953269988298416,9.761974334716797,0.00009999999747378752,0.0032999999821186066,-0.048899997025728226,0.05499999823992851,-0.017999999727163266,0.07799999992939192
-0.06850289553403854,0.07223785668611526,9.743098258972168,-0.029199998825788498,0.022699998691678047,-0.06849999725818634,0.023000000021936765,0.07300000130214508,0.06800000267489824
-0.0450301431119442,0.07096414268016815,9.74325180053711,0.00029999998514540493,0.022599998861551285,-0.06849999725818634,-0.11699999322398127,-0.024000000747902123,0.007000000079177565
-0.05386953800916672,0.0668269544839859,9.758785247802734,-0.009399999864399433,0.013100000098347664,-0.048899997025728226,-0.09099999769425504,-0.043999998591942806,0.1079999983629796
-0.049751508980989456,0.05858132615685463,9.75000286102295,-0.009399999864399433,0.013100000098347664,-0.048899997025728226,-0.03100000082707969,0.09800000110848592,0.043999998591942806
-0.051168881356716156,0.05633077770471573,9.769003868103027,-0.00930000003427267,0.003700000001117587,-0.03909999877214432,0.017999999727163266,-0.029999998433587676,0.05799999875029794
-0.051360417157411575,0.05963477864861488,9.75663948059082,-0.009399999864399433,0.013399999588727951,-0.05869999900460243,0.16599999711327754,0.05499999823992851,0.10499999785261017
-0.05874413251876831,0.05870582535862923,9.75681209564209,-0.019099999219179153,0.012999999336898327,-0.05869999900460243,0.007000000079177565,0.04200000047506539,0.09600000299160849
-0.05780560523271561,0.06562028080224991,9.751497268676758,-0.01889999955892563,0.012899999506771564,-0.05869999900460243,0.20999999570522035,0.3379999952472939,0.06700000028140622
-0.05756618455052376,0.06909666210412979,9.769329071044922,-0.017799999564886093,0.021800000220537186,-0.03909999877214432,-0.10999999647985702,-0.04900000055424296,0.05099999867112037
-0.05756618455052376,0.06909666210412979,9.769329071044922,-0.017799999564886093,0.021800000220537186,-0.03909999877214432,-0.10999999647985702,-0.04900000055424296,0.05099999867112037
-0.0547410286962986,0.06640557944774628,9.761831283569336,-0.008100000210106373,0.012299999594688416,-0.048899997025728226,0.07999999804626934,0.1629999966029081,-0.16999999334703236
-0.046715665608644485,0.05851428955793381,9.760480880737305,0.0018999999156221747,0.01209999993443489,-0.048899997025728226,0.007000000079177565,0.13100000005244303,-0.03999999902313467
-0.06152140721678734,0.06739199161529541,9.75256061553955,-0.01719999872148037,0.021900000050663948,-0.05869999900460243,-0.149999998838045,0.05600000063342052,0.15200000362502902
-0.05339069664478302,0.05685750022530556,9.769109725952148,-0.007199999876320362,0.022299999371170998,-0.048899997025728226,-0.0969999987149939,-0.1620000008795227,0.14499999354069154
-0.05707776919007301,0.061387334018945694,9.763152122497559,-0.007899999618530273,0.012799999676644802,-0.048899997025728226,-0.09800000110848592,-0.15599999985878385,-0.08100000043976135
-0.05657019838690758,0.05813121795654297,9.758545875549316,-0.008299999870359898,0.012999999336898327,-0.05869999900460243,0.17400000292100043,0.24099999653230003,0.11099999887334903
-0.05657019838690758,0.05813121795654297,9.758545875549316,-0.008299999870359898,0.012999999336898327,-0.05869999900460243,0.17400000292100043,0.24099999653230003,0.11099999887334903
-0.06483498215675354,0.05517198517918587,9.740924835205078,-0.01769999973475933,0.002899999963119626,-0.06849999725818634,0.10499999785261017,0.29399999665535115,0.19099999691961836
-0.05504748597741127,0.06237374246120453,9.764857292175293,-0.007199999876320362,0.012199999764561653,-0.048899997025728226,0.11500000177721047,0.15599999985878385,0
-0.052289362996816635,0.06050626188516617,9.748183250427246,-0.0066999997943639755,0.011899999342858791,-0.06849999725818634,0.05999999686717535,0.014999999216793838,-0.048000001495804245
-0.05202121287584305,0.0674302950501442,9.7600679397583,-0.0066999997943639755,0.02149999886751175,-0.048899997025728226,0.043999998591942806,0.1180000022875799,0.04500000098543482
-0.06335058063268661,0.05988377332687378,9.743597030639648,-0.016099998727440834,0.011500000022351742,-0.06849999725818634,-0.10400000212922476,-0.14300000209392072,-0.15200000362502902
-0.052998051047325134,0.06458598375320435,9.753067970275879,-0.006899999920278788,0.011899999342858791,-0.05869999900460243,-0.12499999903170415,0.15500000413539844,0.10199999734224074
-0.054511185735464096,0.07152916491031647,9.757033348083496,-0.0064999996684491634,0.021900000050663948,-0.05869999900460243,0.1620000008795227,0.03899999996469596,-0.05799999875029794
-0.05611051246523857,0.06109045073390007,9.758574485778809,-0.006399999838322401,0.011599999852478504,-0.05869999900460243,0.13799999679656727,0.03400000133744912,0.07300000130214508
-0.056761734187603,0.07187393307685852,9.76640796661377,-0.006300000008195639,0.020999999716877937,-0.048899997025728226,-0.3310000118433829,0.08400000095013078,0.07000000079177565
-0.057288460433483124,0.05941450968384743,9.76912784576416,-0.006099999882280827,0.01209999993443489,-0.03909999877214432,-0.038000000906257256,-0.04600000004387353,0.05200000106461238
-0.05879201367497444,0.06648219376802444,9.76046085357666,-0.01599999889731407,0.012199999764561653,-0.048899997025728226,0.031999999885518396,-0.05900000114378995,-0.06800000267489824
-0.058207832276821136,0.05720226839184761,9.755452156066895,-0.016300000250339508,0.002199999988079071,-0.05869999900460243,-0.007000000079177565,0.1939999974299878,0.13499999628619785
-0.04983770474791527,0.07338707149028778,9.751152038574219,-0.006000000052154064,0.021900000050663948,-0.05869999900460243,0.06899999839828364,0.1079999983629796,-0.06099999926066736
-0.04983770474791527,0.07338707149028778,9.751152038574219,-0.006000000052154064,0.021900000050663948,-0.05869999900460243,0.06899999839828364,0.1079999983629796,-0.06099999926066736
-0.055181559175252914,0.062172628939151764,9.759235382080078,-0.00559999980032444,0.02159999869763851,-0.05869999900460243,-0.019000000453128628,-0.06399999977103679,-0.09999999922536333
-0.05301720276474953,0.057882219552993774,9.761112213134766,-0.0058999997563660145,0.011599999852478504,-0.048899997025728226,-0.03899999996469596,0.05200000106461238,-0.021999999295971403
-0.05301720276474953,0.057882219552993774,9.761112213134766,-0.0058999997563660145,0.011599999852478504,-0.048899997025728226,-0.03899999996469596,0.05200000106461238,-0.021999999295971403
-0.06175125017762184,0.06960423290729523,9.759943962097168,-0.015599999576807022,0.02159999869763851,-0.048899997025728226,0.006000000186975531,0.019000000453128628,0.15800000464576788
-0.051312532275915146,0.06892427802085876,9.755759239196777,-0.005699999630451202,0.02159999869763851,-0.05869999900460243,0.0009999999964224499,0.12299999424472013,-0.1719999981340164
-0.05747999623417854,0.0743064433336258,9.750875473022461,-0.014499999582767487,0.021299999207258224,-0.05869999900460243,-0.13700000107318186,0.0009999999964224499,-0.12700000381868817
-0.05747999623417854,0.0743064433336258,9.750875473022461,-0.014499999582767487,0.021299999207258224,-0.05869999900460243,-0.13700000107318186,0.0009999999964224499,-0.12700000381868817
-0.06585970520973206,0.06669288873672485,9.755768775939941,-0.014699999243021011,0.011799999512732029,-0.05869999900460243,-0.08899999957737763,-0.007999999971379599,0.17100000241063099
-0.060554150491952896,0.061435215175151825,9.756036758422852,-0.014699999243021011,0.01209999993443489,-0.05869999900460243,0.07199999890865307,0.13799999679656727,0.05499999823992851
-0.04833414405584335,0.0674111396074295,9.761754035949707,-0.014699999243021011,0.01209999993443489,-0.05869999900460243,0.07199999890865307,0.13799999679656727,0.05499999823992851
-0.056790463626384735,0.05819825455546379,9.76694393157959,-0.0044999998062849045,0.012000000104308128,-0.048899997025728226,0.031999999885518396,0.17400000292100043,0.019000000453128628
-0.05127422511577606,0.07459375262260437,9.761783599853516,-0.003999999724328518,0.021699998527765274,-0.04879999905824661,-0.11299999699022645,-0.09500000059811649,-0.0969999987149939
-0.04585375264286995,0.06626192480325699,9.770450592041016,0.005399999674409628,0.01209999993443489,-0.039000000804662704,-0.09500000059811649,-0.0039999999856897995,0.12599999475508955
-0.06501694768667221,0.05860047787427902,9.752291679382324,-0.014099999330937862,0.012399999424815178,-0.05869999900460243,0.01400000015835513,-0.024999999806340833,0.13400000056281244
-0.04881298542022705,0.06775590777397156,9.756113052368164,-0.004299999680370092,0.022199999541044235,-0.05869999900460243,-0.013000000266153095,0.13700000107318186,0.02600000053230619
-0.058025870472192764,0.060554150491952896,9.763784408569336,-0.013700000010430813,0.012299999594688416,-0.048899997025728226,0.05099999867112037,-0.08100000043976135,-0.0659999978879142
-0.053400274366140366,0.07104075700044632,9.760078430175781,-0.013599999248981476,0.0023999998811632395,-0.048899997025728226,0.024999999806340833,-0.12599999475508955,0.048000001495804245
-0.053400274366140366,0.07104075700044632,9.760078430175781,-0.004399999976158142,0.021900000050663948,-0.048899997025728226,0.024999999806340833,-0.12599999475508955,0.048000001495804245
-0.04886086657643318,0.07376056909561157,9.750387191772461,-0.004999999888241291,0.021800000220537186,-0.05869999900460243,-0.11400000605382507,0.05900000114378995,0.023000000021936765
-0.04886086657643318,0.07376056909561157,9.750387191772461,-0.004999999888241291,0.021800000220537186,-0.05869999900460243,-0.11400000605382507,0.05900000114378995,0.023000000021936765
-0.058045025914907455,0.059797581285238266,9.754935264587402,-0.014599999412894249,0.012299999594688416,-0.05869999900460243,0.021000000237532696,-0.019000000453128628,-0.22100000202331266
-0.04341166839003563,0.05621585622429848,9.765910148620605,0.004900000058114529,0.0024999999441206455,-0.048899997025728226,0.23199999500119176,-0.1319999957758284,0.08100000043976135
-0.05412811413407326,0.06086060777306557,9.762012481689453,-0.005200000014156103,0.011599999852478504,-0.048899997025728226,-0.05600000063342052,-0.0859999990670082,0.07900000232288394
-0.055152833461761475,0.06567773967981339,9.76535415649414,-0.005399999674409628,0.011599999852478504,-0.048899997025728226,0.1719999981340164,-0.029999998433587676,0.06700000028140622
-0.055152833461761475,0.06567773967981339,9.76535415649414,-0.005399999674409628,0.011599999852478504,-0.048899997025728226,0.1719999981340164,-0.029999998433587676,0.06700000028140622
-0.05004839226603508,0.06177040562033653,9.757272720336914,-0.005399999674409628,0.010999999940395355,-0.05869999900460243,-0.08100000043976135,-0.13799999679656727,-0.0019999999928448997
-0.05004839226603508,0.06177040562033653,9.757272720336914,-0.005399999674409628,0.010999999940395355,-0.05869999900460243,-0.08100000043976135,-0.13799999679656727,-0.0019999999928448997
-0.05772899091243744,0.06339845806360245,9.750875473022461,-0.015599999576807022,0.01119999960064888,-0.05869999900460243,0.11599999750059588,0.1610000051561373,0.10400000212922476
-0.05446329712867737,0.06240247189998627,9.74606704711914,-0.005200000014156103,0.010799999348819256,-0.06849999725818634,-0.046999999102312236,0.06800000267489824,0
-0.06001785025000572,0.05705861747264862,9.759360313415527,-0.014800000004470348,0.0010999999940395355,-0.04879999905824661,-0.0659999978879142,0.07600000181251451,-0.04200000047506539
-0.05336196720600128,0.0677654892206192,9.762290000915527,-0.004799999762326479,0.020999999716877937,-0.04879999905824661,0.07900000232288394,-0.18900000547284757,0.17100000241063099
-0.05336196720600128,0.0677654892206192,9.762290000915527,-0.004799999762326479,0.020999999716877937,-0.04879999905824661,0.07900000232288394,-0.18900000547284757,0.17100000241063099
-0.05297889560461044,0.07592492550611496,9.753508567810059,-0.0052999998442828655,0.02070000022649765,-0.05869999900460243,-0.2379999960219306,0.010999999647985701,0.18700000068586353
-0.054252609610557556,0.06961380690336227,9.75960922241211,-0.005200000014156103,0.02149999886751175,-0.048899997025728226,0.10100000161885533,0.1180000022875799,0.004999999877891834
-0.055248599499464035,0.06313031166791916,9.763315200805664,-0.004999999888241291,0.011399999260902405,-0.048899997025728226,-0.0659999978879142,0.10100000161885533,0.16899999762364695
-0.05204036831855774,0.08182423561811447,9.764138221740723,-0.004900000058114529,0.030799999833106995,-0.048899997025728226,-0.13000000432905762,0,0.1400000015835513
-0.05713523179292679,0.06633853912353516,9.758382797241211,-0.004900000058114529,0.030799999833106995,-0.048899997025728226,-0.04600000004387353,0.012000000373951061,-0.07900000232288394
-0.048468220978975296,0.0668269544839859,9.759446144104004,-0.004799999762326479,0.011599999852478504,-0.048899997025728226,-0.04600000004387353,-0.08400000095013078,-0.11299999699022645
-0.05879201367497444,0.07318595796823502,9.764531135559082,-0.014800000004470348,0.021699998527765274,-0.048899997025728226,-0.046999999102312236,-0.13000000432905762,-0.12299999424472013
-0.056484006345272064,0.0655340850353241,9.758124351501465,-0.005200000014156103,0.012000000104308128,-0.05869999900460243,0.05900000114378995,0.0039999999856897995,0.14699999832767557
-0.03751235082745552,0.07376056909561157,9.761639595031738,0.0142000000923872,0.02159999869763851,-0.048899997025728226,0.13300000483942703,-0.06700000028140622,0.12799999954207358
-0.05533478781580925,0.06886681914329529,9.763630867004395,-0.005499999970197678,0.0210999995470047,-0.048899997025728226,0.009999999755783667,0.36199999933024934,-0.038000000906257256
-0.05099649727344513,0.06809109449386597,9.766772270202637,-0.004699999932199717,0.020999999716877937,-0.04879999905824661,0.06899999839828364,-0.014999999216793838,0.08100000043976135
-0.05324704572558403,0.051264647394418716,9.752483367919922,-0.004799999762326479,0.0011999999405816197,-0.05869999900460243,0.019999999511567335,0.11099999887334903,-0.06899999839828364
-0.05860047787427902,0.07171113044023514,9.758756637573242,-0.0142000000923872,0.02070000022649765,-0.05869999900460243,-0.024000000747902123,-0.05900000114378995,0.02800000031671026
-0.06166505813598633,0.0607839934527874,9.754015922546387,0.004999999888241291,0.020499998703598976,-0.06849999725818634,0.05300000012305109,0.257999990530918,0.06500000216452881
-0.0550953708589077,0.053237468004226685,9.755884170532227,-0.004100000020116568,0.0005999999702908099,-0.05869999900460243,0.10600000024610218,0.048000001495804245,-0.019999999511567335
-0.0550953708589077,0.053237468004226685,9.755884170532227,-0.004100000020116568,0.0005999999702908099,-0.05869999900460243,0.10600000024610218,0.048000001495804245,-0.019999999511567335
-0.04185064882040024,0.06903920322656631,9.756074905395508,0.005699999630451202,0.019899999722838402,-0.05859999731183052,-0.1749999986443858,-0.09800000110848592,-0.1390000058601659
-0.06308242678642273,0.0648062527179718,9.757521629333496,-0.012999999336898327,0.009599999524652958,-0.05859999731183052,0.17799999915475526,0.05499999823992851,0.017999999727163266
-0.05933789536356926,0.06580223888158798,9.765939712524414,-0.012899999506771564,0.009200000204145908,-0.04879999905824661,0.07300000130214508,0.08799999718388561,-0.0859999990670082
-0.058495137840509415,0.06694187968969345,9.757434844970703,-0.012299999594688416,0.009200000204145908,-0.05859999731183052,-0.019000000453128628,0.128999995265459,0.09999999922536333
-0.0479893796145916,0.06712383776903152,9.737390518188477,-0.002199999988079071,0.01899999938905239,-0.07829999923706055,-0.18799999640924894,0.06299999737754478,-0.049999999612681666
-0.04661989584565163,0.06302496790885925,9.748623847961426,0.007499999832361937,0.00989999994635582,-0.06839999556541443,0.046999999102312236,-0.10100000161885533,-0.03400000133744912
-0.0498855859041214,0.06478710472583771,9.760375022888184,-0.0024999999441206455,0.00969999935477972,-0.04879999905824661,0.06800000267489824,-0.07999999804626934,-0.12100000279794933
-0.05397488549351692,0.0650360956788063,9.760375022888184,-0.00279999990016222,0.008999999612569809,-0.04879999905824661,0.11599999750059588,0.1079999983629796,0.05900000114378995
-0.06760267913341522,0.05620627850294113,9.74291706085205,-0.02199999988079071,-0.0010999999940395355,-0.06839999556541443,0.1830000044521087,0.14300000209392072,0.06099999926066736
-0.068723164498806,0.07807012647390366,9.755280494689941,-0.02159999869763851,0.027799999341368675,-0.05859999731183052,0.006000000186975531,0.1749999986443858,0.1199999937343507
-0.046715665608644485,0.06348465383052826,9.755155563354492,0.008200000040233135,0.008100000210106373,-0.05859999731183052,0.06700000028140622,0.03699999851276524,0.14499999354069154
-0.04861186817288399,0.0703703761100769,9.768994331359863,-0.001500000013038516,0.01769999973475933,-0.039000000804662704,0.023000000021936765,0.046999999102312236,0.08299999855663877
-0.05384080857038498,0.06669288873672485,9.76659107208252,-0.0013000000035390258,0.007799999788403511,-0.04879999905824661,-0.07600000181251451,-0.029999998433587676,-0.19999999845072666
-0.05146576091647148,0.07218997180461884,9.76020336151123,-0.00139999995008111,0.017799999564886093,-0.04879999905824661,-0.08700000146050021,-0.012000000373951061,-0.1800000039417393
-0.049416325986385345,0.06557239592075348,9.745023727416992,-0.00139999995008111,0.008200000040233135,-0.06839999556541443,0.0539999991814898,-0.03100000082707969,0.12100000279794933
-0.050297390669584274,0.06186617165803909,9.753393173217773,-0.001500000013038516,0.007999999448657036,-0.05859999731183052,0.07399999702553048,-0.0329999989439571,-0.046999999102312236
-0.05051765590906143,0.05607220530509949,9.74782943725586,-0.0015999999595806003,-0.0018999999156221747,-0.06839999556541443,-0.03400000133744912,0.02899999937514897,0.008999999863581633
-0.05691496282815933,0.06418376415967941,9.765326499938965,-0.001500000013038516,0.007899999618530273,-0.04879999905824661,-0.06200000165415938,-0.1189999980109653,0.10499999785261017
-0.06201940029859543,0.07146213203668594,9.761370658874512,-0.011699999682605267,0.017799999564886093,-0.04879999905824661,0.0659999978879142,0.049999999612681666,0.04500000098543482
-0.05551674962043762,0.06879020482301712,9.767232894897461,-0.0016999999061226845,0.01759999990463257,-0.04879999905824661,-0.014999999216793838,0.12299999424472013,0.04600000004387353
-0.06011361628770828,0.06876147538423538,9.764971733093262,-0.010900000110268593,0.01719999872148037,-0.04879999905824661,0.06200000165415938,-0.09600000299160849,-0.043999998591942806
-0.05038357898592949,0.0813932791352272,9.743597030639648,-0.0009999999310821295,0.026200000196695328,-0.06839999556541443,0.024999999806340833,0.10900000075647161,0.10600000024610218
-0.05038357898592949,0.0813932791352272,9.743597030639648,-0.0009999999310821295,0.026200000196695328,-0.06839999556541443,0.024999999806340833,0.10900000075647161,0.10600000024610218
-0.05737464874982834,0.05892609432339668,9.758191108703613,-0.0005999999702908099,0.006099999882280827,-0.05859999731183052,0.08499999667351618,0.021000000237532696,0.13000000432905762
-0.05467398837208748,0.06796659529209137,9.744017601013184,-0.0005999999702908099,0.006099999882280827,-0.05859999731183052,-0.128999995265459,0.1610000051561373,0.22700000304405152
-0.056790463626384735,0.06567773967981339,9.74925708770752,-0.00009999999747378752,0.005799999926239252,-0.05859999731183052,-0.08299999855663877,-0.07199999890865307,0.1199999937343507
-0.06075526028871536,0.054827217012643814,9.754656791687012,-0.010099999606609344,-0.003700000001117587,-0.05859999731183052,-0.03100000082707969,0.06899999839828364,-0.03899999996469596
-0.06075526028871536,0.054827217012643814,9.754656791687012,-0.010099999606609344,-0.003700000001117587,-0.05859999731183052,-0.03100000082707969,0.06899999839828364,-0.03899999996469596
-0.05879201367497444,0.06766971945762634,9.755989074707031,0.009599999524652958,0.006099999882280827,-0.04879999905824661,-0.006000000186975531,-0.008999999863581633,0.10499999785261017
-0.05326620116829872,0.05114014819264412,9.754667282104492,-0.00029999998514540493,-0.0031999999191612005,-0.05859999731183052,-0.08499999667351618,0.14300000209392072,0.2159999967259592
-0.06000826880335808,0.06845501810312271,9.76548957824707,-0.009800000116229057,0.01640000008046627,-0.04879999905824661,-0.043999998591942806,0.1509999945614304,0.11699999322398127
-0.05290227755904198,0.07273584604263306,9.760719299316406,0.00039999998989515007,0.016499999910593033,-0.04879999905824661,0.03400000133744912,-0.14099999730693671,0.021000000237532696
-0.05978800728917122,0.06903920322656631,9.755203247070312,-0.009800000116229057,0.016300000250339508,-0.05859999731183052,0.017999999727163266,0.07799999992939192,0.04900000055424296
-0.05570828542113304,0.06956592202186584,9.758258819580078,0.00009999999747378752,0.016300000250339508,-0.05859999731183052,-0.021999999295971403,-0.08400000095013078,-0.013000000266153095
-0.055181559175252914,0.06582139432430267,9.761878967285156,-0.00009999999747378752,0.0064999996684491634,-0.04879999905824661,0,-0.02800000031671026,-0.10299999973573276
-0.05450160428881645,0.059184666723012924,9.766217231750488,-0.00019999999494757503,0.0064999996684491634,-0.04879999905824661,-0.11699999322398127,-0.2959999881021219,-0.09800000110848592
-0.06568731367588043,0.060678645968437195,9.75441837310791,-0.010699999518692493,0.006799999624490738,-0.05859999731183052,0.031999999885518396,-0.12599999475508955,-0.16400000566650674
-0.06096595525741577,0.06390602886676788,9.751133918762207,-0.00139999995008111,0.006599999964237213,-0.04879999905824661,-0.06200000165415938,0.13600000534979648,0.041000001416626686
-0.06096595525741577,0.06390602886676788,9.751133918762207,-0.010999999940395355,0.006599999964237213,-0.05859999731183052,-0.06200000165415938,0.13600000534979648,0.041000001416626686
-0.04350743442773819,0.07449797540903091,9.741020202636719,0.008899999782443047,0.016499999910593033,-0.06839999556541443,-0.004999999877891834,-0.024999999806340833,-0.006000000186975531
-0.05635950714349747,0.06377195566892624,9.751008987426758,-0.0008999999845400453,0.0066999997943639755,-0.05859999731183052,0.11500000177721047,-0.046999999102312236,0.05300000012305109
-0.056761734187603,0.0622013583779335,9.755922317504883,-0.0009999999310821295,0.006399999838322401,-0.05859999731183052,0.02600000053230619,-0.08299999855663877,0.012000000373951061
-0.060534995049238205,0.06750690937042236,9.748902320861816,-0.011099999770522118,0.01599999889731407,-0.06839999556541443,-0.0429999995335041,0,0.004999999877891834
-0.06010403856635094,0.06995857506990433,9.749208450317383,-0.011099999770522118,0.016099998727440834,-0.05859999731183052,-0.1729999938574018,-0.06500000216452881,-0.17799999915475526
-0.05682877078652382,0.07483316957950592,9.750885009765625,-0.00139999995008111,0.016599999740719795,-0.05859999731183052,0.004999999877891834,0.029999998433587676,0.03699999851276524
-0.056953269988298416,0.06794743984937668,9.751688003540039,-0.0013000000035390258,0.016499999910593033,-0.05859999731183052,0.128999995265459,0.014999999216793838,0.007000000079177565
-0.05326620116829872,0.06720045208930969,9.757587432861328,-0.0013000000035390258,0.016099998727440834,-0.05859999731183052,0.09300000248123906,-0.13000000432905762,-0.038000000906257256
-0.0516572967171669,0.06780379265546799,9.758057594299316,-0.0016999999061226845,0.015799999237060547,-0.05859999731183052,-0.017999999727163266,0.1400000015835513,-0.12499999903170415
-0.061502255499362946,0.06809109449386597,9.751028060913086,-0.01119999960064888,0.015699999406933784,-0.05859999731183052,0.03599999945432653,-0.031999999885518396,-0.06899999839828364
-0.049847278743982315,0.07096414268016815,9.757425308227539,-0.001500000013038516,0.015599999576807022,-0.05859999731183052,0.12199999852133472,-0.1199999937343507,0.0030000000934877653
-0.0632835403084755,0.05492299050092697,9.750405311584473,-0.011500000022351742,-0.00419999985024333,-0.05859999731183052,-0.09999999922536333,-0.017999999727163266,0.0539999991814898
-0.04527914524078369,0.06213432177901268,9.746986389160156,0.007899999618530273,0.005799999926239252,-0.06839999556541443,-0.14099999730693671,0.08499999667351618,-0.0009999999964224499
-0.05274904891848564,0.06260358542203903,9.756573677062988,-0.001500000013038516,0.006199999712407589,-0.05859999731183052,0.043999998591942806,-0.06899999839828364,-0.05799999875029794
-0.05400361120700836,0.06265147030353546,9.765987396240234,-0.0016999999061226845,0.006099999882280827,-0.05859999731183052,-0.024999999806340833,-0.18700000068586353,0.021999999295971403
-0.05549759790301323,0.07556100189685822,9.763899803161621,-0.0023999998811632395,0.015399999916553497,-0.04879999905824661,0.01400000015835513,0.04600000004387353,-0.14600000260429016
-0.05761406943202019,0.05971139296889305,9.756850242614746,-0.011799999512732029,0.005499999970197678,-0.05859999731183052,-0.043999998591942806,0.09000000197086964,0.09300000248123906
-0.06299623847007751,0.06476794183254242,9.759628295898438,-0.01119999960064888,0.005399999674409628,-0.04879999905824661,0.009999999755783667,-0.13799999679656727,-0.15599999985878385
-0.05229894071817398,0.07320510596036911,9.7595796585083,-0.0015999999595806003,0.014800000004470348,-0.04879999905824661,0.0749999994190225,-0.0749999994190225,0.05600000063342052
-0.05222232639789581,0.06947973370552063,9.767212867736816,-0.0017999999690800905,0.0142000000923872,-0.04879999905824661,0.1400000015835513,-0.14399999781730613,-0.03400000133744912
-0.0515327975153923,0.07187393307685852,9.752291679382324,-0.002099999925121665,0.013499999418854713,-0.05859999731183052,0.06399999977103679,0.05600000063342052,0.049999999612681666
-0.051389146596193314,0.07148128747940063,9.757512092590332,-0.0018999999156221747,0.013100000098347664,-0.05859999731183052,-0.12599999475508955,-0.05799999875029794,-0.09099999769425504
-0.04461834207177162,0.0676601380109787,9.755768775939941,-0.011599999852478504,0.013199999928474426,-0.05859999731183052,0.16500000138989213,0.06700000028140622,0.049999999612681666
-0.057029884308576584,0.0642220675945282,9.750473022460938,0.007699999958276749,0.012899999506771564,-0.05859999731183052,-0.06099999926066736,-0.04500000098543482,0.0329999989439571
-0.0451354905962944,0.06571605056524277,9.75866985321045,0.007699999958276749,0.002699999837204814,-0.05859999731183052,-0.007999999971379599,0.08700000146050021,0.13000000432905762
-0.06270892918109894,0.06781336665153503,9.765057563781738,-0.011299999430775642,0.012199999764561653,-0.04879999905824661,0.03400000133744912,0.029999998433587676,-0.1189999980109653
-0.049540821462869644,0.06307285279035568,9.753355026245117,-0.0009999999310821295,0.001999999862164259,-0.05859999731183052,-0.0009999999964224499,0.09500000059811649,0.16999999334703236
-0.0523659773170948,0.04931097850203514,9.763237953186035,-0.0007999999797903001,-0.007499999832361937,-0.04879999905824661,-0.015999999942759198,0.0429999995335041,0.1180000022875799
-0.06020938605070114,0.05938578024506569,9.74815559387207,-0.0009999999310821295,0.011799999512732029,-0.039000000804662704,-0.07300000130214508,-0.15200000362502902,-0.048000001495804245
-0.045413218438625336,0.05630204826593399,9.759455680847168,0.008100000210106373,-0.006799999624490738,-0.05859999731183052,-0.1079999983629796,0.09899999683187131,0.014999999216793838
-0.05329493060708046,0.06789956241846085,9.765460014343262,-0.0013000000035390258,-0.0066999997943639755,-0.04879999905824661,-0.012000000373951061,0.07900000232288394,0.1180000022875799
-0.052002061158418655,0.07338707149028778,9.761303901672363,-0.010300000198185444,0.01249999925494194,-0.06839999556541443,0.09999999922536333,-0.06299999737754478,0.019000000453128628
-0.05634992942214012,0.06564901024103165,9.76340103149414,-0.0007999999797903001,0.002300000051036477,-0.04879999905824661,-0.09500000059811649,0.024000000747902123,0.07000000079177565
-0.06804320961236954,0.06661626696586609,9.752100944519043,-0.02029999904334545,0.0026000000070780516,-0.05859999731183052,-0.14699999832767557,-0.23699998695833197,0.07999999804626934
-0.06804320961236954,0.06661626696586609,9.752100944519043,-0.02029999904334545,0.0026000000070780516,-0.05859999731183052,-0.14699999832767557,-0.23699998695833197,0.07999999804626934
-0.0508241131901741,0.05708734691143036,9.75833511352539,-0.0015999999595806003,-0.006599999964237213,-0.05859999731183052,-0.009999999755783667,-0.0749999994190225,-0.006000000186975531
-0.04768292233347893,0.061502255499362946,9.749246597290039,0.007999999448657036,0.002699999837204814,-0.05859999731183052,-0.08299999855663877,-0.12199999852133472,0.0009999999964224499
-0.04768292233347893,0.061502255499362946,9.749246597290039,0.007999999448657036,0.002699999837204814,-0.05859999731183052,-0.08299999855663877,-0.12199999852133472,0.0009999999964224499
-0.059682659804821014,0.06527551263570786,9.768956184387207,-0.011799999512732029,0.002899999963119626,-0.039000000804662704,0,-0.18199999538851008,-0.05300000012305109
-0.05864836648106575,0.07338707149028778,9.750606536865234,-0.012399999424815178,0.01269999984651804,-0.05859999731183052,-0.13300000483942703,-0.031999999885518396,0.03699999851276524
-0.049138594418764114,0.06346549838781357,9.750606536865234,-0.002699999837204814,0.0031999999191612005,-0.05859999731183052,-0.08299999855663877,0.07600000181251451,0.149999998838045
-0.058207832276821136,0.07352115213871002,9.748566627502441,-0.012199999764561653,0.003399999812245369,-0.04879999905824661,0.03699999851276524,0.013000000266153095,0.18900000547284757
-0.05718311294913292,0.06694187968969345,9.757453918457031,-0.0026000000070780516,0.003399999812245369,-0.05859999731183052,0.0659999978879142,-0.06299999737754478,-0.149999998838045
-0.05718311294913292,0.06694187968969345,9.757453918457031,-0.0026000000070780516,0.003399999812245369,-0.05859999731183052,0.0659999978879142,-0.06299999737754478,-0.149999998838045
-0.05675215646624565,0.05707776919007301,9.762041091918945,-0.00279999990016222,-0.0064999996684491634,-0.04879999905824661,0.13499999628619785,0.06399999977103679,0.021999999295971403
-0.05834190919995308,0.06911581754684448,9.767970085144043,-0.012199999764561653,0.012399999424815178,-0.04879999905824661,-0.007000000079177565,-0.049999999612681666,0.0009999999964224499
-0.05421430245041847,0.07784028351306915,9.751487731933594,-0.0024999999441206455,0.021800000220537186,-0.05859999731183052,0.05900000114378995,0.057000003026912535,0.06700000028140622
-0.058897361159324646,0.0679953321814537,9.762979507446289,-0.011599999852478504,0.011899999342858791,-0.04879999905824661,0.1199999937343507,0.12199999852133472,0.046999999102312236
-0.05334281548857689,0.07161536067724228,9.755653381347656,-0.00139999995008111,0.011299999430775642,-0.05859999731183052,-0.05099999867112037,-0.010999999647985701,0.08499999667351618
-0.05334281548857689,0.07161536067724228,9.755653381347656,-0.00139999995008111,0.011299999430775642,-0.05859999731183052,-0.05099999867112037,-0.010999999647985701,0.08499999667351618
-0.03544376417994499,0.06725791096687317,9.7521390914917,0.008100000210106373,0.001500000013038516,-0.04879999905824661,-0.0969999987149939,0.008999999863581633,-0.019999999511567335
-0.03544376417994499,0.06725791096687317,9.7521390914917,0.017799999564886093,0.010999999940395355,-0.05859999731183052,-0.0969999987149939,0.008999999863581633,-0.019999999511567335
-0.05049850046634674,0.07275500148534775,9.763583183288574,-0.0016999999061226845,0.010599999688565731,-0.04879999905824661,0.08899999957737763,0.012000000373951061,0.20800000425844953
-0.047050848603248596,0.06633853912353516,9.743232727050781,0.007899999618530273,0.0004999999655410647,-0.06839999556541443,-0.1830000044521087,-0.013000000266153095,0.14799999405106096
-0.05952943116426468,0.06324522942304611,9.753067970275879,-0.011599999852478504,0.0007999999797903001,-0.05859999731183052,0.012000000373951061,0.046999999102312236,-0.08799999718388561
-0.05870582535862923,0.06598419696092606,9.750338554382324,-0.011399999260902405,0.0007999999797903001,-0.05859999731183052,-0.08700000146050021,-0.04600000004387353,0.012000000373951061
-0.05396530404686928,0.061483100056648254,9.752100944519043,-0.011399999260902405,0.0007999999797903001,-0.05859999731183052,-0.09600000299160849,0,0.11500000177721047
-0.05446329712867737,0.06508397310972214,9.766206741333008,-0.0016999999061226845,0.0013000000035390258,-0.04879999905824661,0.1419999930303221,0.09500000059811649,-0.031999999885518396
-0.06156928837299347,0.062431201338768005,9.76099681854248,-0.0016999999061226845,0.0013000000035390258,-0.04879999905824661,-0.006000000186975531,-0.01700000066872456,0.13300000483942703
-0.04794149473309517,0.07140467315912247,9.755845069885254,-0.00139999995008111,0.010599999688565731,-0.05859999731183052,0.03999999902313467,-0.10299999973573276,-0.14699999832767557
-0.05685750022530556,0.07397124916315079,9.755577087402344,-0.0016999999061226845,0.010400000028312206,-0.05859999731183052,0.1079999983629796,0.05300000012305109,-0.07699999753589991
-0.06719087809324265,0.0682443231344223,9.753863334655762,-0.0210999995470047,0.010099999606609344,-0.05859999731183052,0.12499999903170415,0.04900000055424296,-0.04500000098543482
-0.054444145411252975,0.06527551263570786,9.753326416015625,-0.00139999995008111,0,-0.05859999731183052,-0.021999999295971403,-0.14799999405106096,-0.2150000010025738
-0.042808327823877335,0.07343494892120361,9.77109146118164,0.007799999788403511,0.00989999994635582,-0.039000000804662704,0.048000001495804245,0.21800000151294321,-0.1079999983629796
-0.04589205980300903,0.0729752629995346,9.750970840454102,0.008299999870359898,0.009800000116229057,-0.05859999731183052,0.07199999890865307,-0.007000000079177565,0.37299999230812847
-0.05976885184645653,0.06092764809727669,9.745713233947754,-0.01119999960064888,-0.00019999999494757503,-0.06839999556541443,-0.1509999945614304,0.03699999851276524,0.007000000079177565
-0.06177997961640358,0.06559155136346817,9.759081840515137,-0.011099999770522118,0.00009999999747378752,-0.04879999905824661,0.009999999755783667,-0.14600000260429016,-0.2519999895101791
-0.05379292368888855,0.05801629647612572,9.76237678527832,-0.0016999999061226845,0,-0.04879999905824661,-0.0969999987149939,-0.05499999823992851,0.1390000058601659
-0.05308423936367035,0.06455725431442261,9.764311790466309,-0.0018999999156221747,0.00039999998989515007,-0.04879999905824661,0.021999999295971403,-0.1079999983629796,0.05300000012305109
-0.0611383356153965,0.048851292580366135,9.758794784545898,-0.011899999342858791,-0.009399999864399433,-0.04879999905824661,-0.08100000043976135,-0.0269999995907449,0.05900000114378995
-0.05215528979897499,0.07113651931285858,9.754523277282715,-0.002199999988079071,0.010599999688565731,-0.05859999731183052,-0.06800000267489824,-0.0329999989439571,0.012000000373951061
-0.05215528979897499,0.07113651931285858,9.754523277282715,-0.002199999988079071,0.010599999688565731,-0.05859999731183052,-0.06800000267489824,-0.0329999989439571,0.012000000373951061
-0.0529693178832531,0.07788816839456558,9.763909339904785,-0.002300000051036477,0.020499998703598976,-0.04879999905824661,0.13700000107318186,0.05499999823992851,0.11099999887334903
-0.04649539664387703,0.06749733537435532,9.765527725219727,0.007599999662488699,0.0004999999655410647,-0.04879999905824661,0.03899999996469596,0.1390000058601659,-0.049999999612681666
-0.06089891493320465,0.07064810395240784,9.757779121398926,-0.01119999960064888,0.010099999606609344,-0.05859999731183052,-0.019000000453128628,-0.06500000216452881,0.02800000031671026
-0.05517198517918587,0.06140648573637009,9.764598846435547,-0.001500000013038516,0,-0.04879999905824661,0.05600000063342052,0.10100000161885533,0.1070000026395942
-0.07171113044023514,0.06358999758958817,9.751248359680176,-0.02029999904334545,-0.00009999999747378752,-0.05859999731183052,0.03100000082707969,-0.006000000186975531,0.13100000005244303
-0.05591897666454315,0.06451894342899323,9.756209373474121,-0.000699999975040555,-0.00019999999494757503,-0.05859999731183052,-0.14399999781730613,-0.04900000055424296,0.128999995265459
-0.056273315101861954,0.06498821079730988,9.755796432495117,-0.0007999999797903001,0.00009999999747378752,-0.05859999731183052,0.10999999647985702,-0.08700000146050021,-0.015999999942759198
-0.06701849400997162,0.0649307444691658,9.757329940795898,-0.010599999688565731,0,-0.05859999731183052,-0.10400000212922476,0,0.04200000047506539
-0.05064215511083603,0.06638642400503159,9.756180763244629,-0.0007999999797903001,0.00009999999747378752,-0.05859999731183052,0.014999999216793838,0.02600000053230619,0.07000000079177565
-0.05637866258621216,0.06400179862976074,9.75023365020752,-0.000699999975040555,0.00009999999747378752,-0.05859999731183052,-0.1529999993484144,-0.24800000661663751,0.06299999737754478
-0.042358215898275375,0.056551042944192886,9.762510299682617,0.00839999970048666,-0.00930000003427267,-0.04879999905824661,0.01700000066872456,0.008999999863581633,0.05099999867112037
