Accelerometer_Gx,Accelerometer_Gy,Accelerometer_Gz,Accelerometer_X,Accelerometer_Y,Accelerometer_Z,Gyroscope_Z,Gyroscope_X,Gyroscope_Y
-0.05992208048701286,0.07325299829244614,9.760030746459961,0.012299999594688416,-0.008499999530613422,-0.03889999911189079,0.019999999511567335,0.22800001210765014,-0.017999999727163266
-0.0584089420735836,0.06325481086969376,9.745569229125977,0.012299999594688416,-0.008499999530613422,-0.03889999911189079,0.019000000453128628,0.02600000053230619,0.10100000161885533
-0.05612008646130562,0.06787082552909851,9.747330665588379,0.012299999594688416,-0.008499999530613422,-0.03889999911189079,1.6079999533928964,0.7299999996812375,-0.12499999903170415
-0.04187937453389168,0.06240247189998627,9.766188621520996,0.012299999594688416,-0.008499999530613422,-0.03889999911189079,-0.23399998644796255,1.1709999679838379,-0.11500000177721047
-0.058475982397794724,0.06841670721769333,9.756535530090332,0.00019999999494757503,-0.00029999998514540493,-0.05849999934434891,-0.12100000279794933,0.627999982328677,0.34200000482126197
-0.060467954725027084,0.054300494492053986,9.757539749145508,0.0016999999061226845,-0.01889999955892563,-0.05849999934434891,-0.9570000027252891,0.3190000098019052,0.27599999359313454
-0.05495171621441841,0.0689530074596405,9.761256217956543,0.011699999682605267,0.0038999998942017555,-0.0486999973654747,2.660000096788541,1.067999968248105,0.6620000236867658
-0.05872498080134392,0.05498044937849045,9.770048141479492,0.003700000001117587,-0.020399998873472214,-0.03889999911189079,-1.6989999510871514,0.37200000992495624,0.29399999665535115
-0.06194278597831726,0.0799759104847908,9.763774871826172,0.003999999724328518,0.0142000000923872,-0.0486999973654747,1.0069999756575443,1.0309999797404998,0.30799999014359963
-0.05829402059316635,0.06210559234023094,9.757989883422852,0.0066999997943639755,-0.007999999448657036,-0.05849999934434891,1.248999981253443,1.4009999715382588,0.5939999943314411
-0.06724833697080612,0.06589800864458084,9.755864143371582,-0.00019999999494757503,-0.010099999606609344,-0.058399997651576996,0.33000000277978425,-0.6239999994351354,0.03599999945432653
-0.059989117085933685,0.07254431396722794,9.761514663696289,0.016699999570846558,-0.0005999999702908099,-0.04859999939799309,-2.8540000942185286,0.10499999785261017,0.2639999915516568
-0.059989117085933685,0.07254431396722794,9.761514663696289,-0.001500000013038516,0.00419999985024333,-0.0486999973654747,-2.8540000942185286,0.10499999785261017,0.2639999915516568
-0.05858132615685463,0.07124187052249908,9.755021095275879,-0.0007999999797903001,0.010599999688565731,-0.05859999731183052,-0.8329999994169703,-0.7889999741446011,0.12299999424472013
-0.055219866335392,0.07233361899852753,9.770162582397461,0.00930000003427267,0.005799999926239252,-0.03889999911189079,-1.3569999996267423,-0.9029999935386394,0.09200000008774706
-0.055219866335392,0.07233361899852753,9.770162582397461,0.00930000003427267,0.005799999926239252,-0.03889999911189079,-1.3569999996267423,-0.9029999935386394,0.09200000008774706
-0.05070919170975685,0.07069598883390427,9.760499954223633,0.0071000000461936,0.007899999618530273,-0.0486999973654747,-0.9680000223835946,-0.950000019321378,-0.36800000035098823
-0.06605123728513718,0.07531201094388962,9.761370658874512,-0.005200000014156103,0.009200000204145908,-0.04879999905824661,0.5679999721212884,1.7149999893830237,0.03400000133744912
-0.06605123728513718,0.07531201094388962,9.761370658874512,-0.005200000014156103,0.009200000204145908,-0.04879999905824661,0.5679999721212884,1.7149999893830237,0.03400000133744912
-0.05829402059316635,0.07295611500740051,9.756965637207031,-0.0015999999595806003,0.007499999832361937,-0.05849999934434891,0.27599999359313454,0.9800000244250723,-0.09500000059811649
-0.05409938097000122,0.07596323639154434,9.76171588897705,-0.0015999999595806003,0.007499999832361937,-0.05849999934434891,-0.27599999359313454,0.11699999322398127,-0.23900000508552924
-0.06956592202186584,0.05806417763233185,9.765182495117188,-0.008599999360740185,-0.0037999998312443495,-0.0486999973654747,-1.5310000292281694,-0.5260000183369693,0.1419999930303221
-0.058428097516298294,0.06486371904611588,9.748902320861816,-0.0004999999655410647,0.0004999999655410647,-0.06839999556541443,-0.7530000213810208,-1.1910000425341045,-0.33000000277978425
-0.06142564117908478,0.0720367431640625,9.767375946044922,-0.004100000020116568,0.01209999993443489,-0.04879999905824661,0.1189999980109653,0.2399999874687014,0.014999999216793838
-0.0536780022084713,0.06490202248096466,9.755356788635254,0.006099999882280827,0.0016999999061226845,-0.05859999731183052,-0.3600000078834786,0.3570000073731091,0.7600000047849319
-0.06460513919591904,0.06694187968969345,9.74925708770752,-0.0024999999441206455,0.0023999998811632395,-0.05859999731183052,0.7200000157669572,0.41600000851689906,-0.06099999926066736
-0.054300494492053986,0.06453809887170792,9.755050659179688,0.007999999448657036,0.00039999998989515007,-0.05859999731183052,-2.8739999553253837,-0.8979999749010726,0.08299999855663877
-0.049588706344366074,0.06814856082201004,9.748682022094727,0.005399999674409628,0.01759999990463257,-0.06839999556541443,-1.4499999620873418,-1.2280000310417098,-0.09899999683187131
-0.04712746664881706,0.059376202523708344,9.753058433532715,0.010699999518692493,0.012299999594688416,-0.05859999731183052,2.4379999522994975,0.10900000075647161,0.19699999794035722
-0.05758533999323845,0.07096414268016815,9.749994277954102,-0.008599999360740185,0.016499999910593033,-0.05859999731183052,-1.1829999700253155,-1.682000037129813,-0.043999998591942806
-0.05673300102353096,0.06815813481807709,9.75405502319336,-0.003999999724328518,0.01939999870955944,-0.05859999731183052,1.132000014709888,0.7769999721031233,0.21200000049220435
-0.06983407586812973,0.0776200145483017,9.756036758422852,-0.02149999886751175,0.025699999183416367,-0.05859999731183052,-1.9299999370247447,-0.4019999883482241,0.3089999992071983
-0.05263412743806839,0.061435215175151825,9.757722854614258,-0.002699999837204814,0.010599999688565731,-0.05859999731183052,1.41000002643022,1.1699999856006655,0.5179999991890332
-0.056694693863391876,0.07300399988889694,9.762520790100098,0.0013000000035390258,0.01489999983459711,-0.04879999905824661,-0.4240000009844087,0.4319999934519184,0.041000001416626686
-0.05371630936861038,0.06811024993658066,9.746000289916992,0.0024999999441206455,0.01529999915510416,-0.06839999556541443,1.2760000392076207,0.08499999667351618,0.2150000010025738
-0.05692454054951668,0.07240065932273865,9.747523307800293,0.00279999990016222,0.011399999260902405,-0.06839999556541443,-0.5870000109275301,-0.26300000916848465,0.13600000534979648
-0.06344634294509888,0.06125325709581375,9.766868591308594,-0.007499999832361937,0.0024999999441206455,-0.04879999905824661,2.245999919635854,1.5029999888908194,0.6200000165415938
-0.06381984055042267,0.0657639279961586,9.760470390319824,-0.0031999999191612005,-0.0038999998942017555,-0.0486999973654747,-0.010999999647985701,0.3950000049443131,-0.031999999885518396
-0.04386177286505699,0.07092583179473877,9.771761894226074,0.017500000074505806,0.00559999980032444,-0.03889999911189079,-0.9109999593257225,-0.3409999957576634,-0.031999999885518396
-0.05896440148353577,0.06436571478843689,9.75446605682373,-0.002699999837204814,-0.0024999999441206455,-0.05849999934434891,3.6599999823204685,1.7509999955074569,0.4169999909000712
-0.06071695312857628,0.0713280588388443,9.750663757324219,0.0024999999441206455,-0.003999999724328518,-0.05849999934434891,-0.21800000151294321,0.41300000800652964,0.2920000052085803
-0.06345592439174652,0.0654095932841301,9.762510299682617,0.003499999875202775,-0.013299999758601189,-0.04859999939799309,3.0199999445894607,1.261999965678093,0.3379999952472939
-0.07182604819536209,0.060774415731430054,9.746862411499023,-0.0026000000070780516,-0.021900000050663948,-0.0681999996304512,-1.404000025409481,-0.10499999785261017,-0.14600000260429016
-0.05032612010836601,0.07163451611995697,9.744171142578125,0.01640000008046627,-0.0072999997064471245,-0.0681999996304512,-0.7829999731238623,0.2740000021463637,-0.024000000747902123
-0.06489244103431702,0.06236416473984718,9.757387161254883,0.00699999975040555,-0.015199999324977398,-0.058399997651576996,2.351999973242809,1.6919999676832405,0.585999975183505
-0.05397488549351692,0.06722918897867203,9.755499839782715,0.012000000104308128,-0.03189999982714653,-0.06809999793767929,1.8439999579680562,0.9149999955801171,0.06399999977103679
-0.0554497092962265,0.06154056265950203,9.743529319763184,0.02369999885559082,-0.016300000250339508,-0.05829999968409538,1.2830000226115317,-0.046999999102312236,-0.1419999930303221
-0.0554497092962265,0.06154056265950203,9.743529319763184,0.020600000396370888,-0.023399999365210533,-0.06809999793767929,1.2830000226115317,-0.046999999102312236,-0.1419999930303221
-0.06051584333181381,0.06898174434900284,9.75725269317627,0.00969999935477972,-0.01640000008046627,-0.05829999968409538,-0.8459999838416202,0.7570000042745624,0.14799999405106096
-0.057096924632787704,0.07083006203174591,9.759063720703125,0.00969999935477972,-0.01640000008046627,-0.05829999968409538,1.7430000297203736,0.7889999741446011,0.07099999651516105
-0.04992389306426048,0.07333918660879135,9.756908416748047,0.023000000044703484,-0.017099998891353607,-0.05829999968409538,-3.18400004363746,-0.0969999987149939,-0.07699999753589991
-0.056551042944192886,0.06733452528715134,9.746785163879395,0.022299999371170998,-0.008100000210106373,-0.0681999996304512,-3.2049998871274874,-0.3439999962680328,-0.12400000330831876
-0.0636378824710846,0.06381984055042267,9.760988235473633,0.022299999371170998,-0.008100000210106373,-0.0681999996304512,-1.0309999797404998,-0.38999998630674637,-0.20999999570522035
-0.05824613943696022,0.06975746154785156,9.76538372039795,0.00969999935477972,0.005399999674409628,-0.0486999973654747,-1.4820000386790861,1.5459999784191636,0.5429999856551608
-0.05903143808245659,0.06721002608537674,9.753010749816895,0.0142000000923872,0.009999999776482582,-0.05849999934434891,0.5960000124586383,0.5039999790203582,-0.0749999994190225
-0.05356308072805405,0.07103117555379868,9.757041931152344,0.025100000202655792,0.008200000040233135,-0.058399997651576996,-0.7870000093782568,-0.30400000725005805,-0.06800000267489824
-0.04841075837612152,0.06607996672391891,9.752838134765625,0.02410000003874302,0,-0.05849999934434891,2.7620000074193958,-0.6829999738984989,-0.19900000272734125
-0.0628046989440918,0.06519889831542969,9.762970924377441,0.02410000003874302,0,-0.05849999934434891,-0.6039999782457216,-0.6059999963729188,-0.10999999647985702
-0.055057063698768616,0.07344453781843185,9.759465217590332,0.009800000116229057,-0.007699999958276749,-0.04859999939799309,-1.0749999516520161,1.138000015730627,-0.0859999990670082
-0.05742253363132477,0.0727454200387001,9.75503158569336,0.02159999869763851,0.006599999964237213,-0.05849999934434891,-0.8350000175441675,0.05999999686717535,0.14499999354069154
-0.04990473762154579,0.06182786449790001,9.763851165771484,0.021399999037384987,-0.0008999999845400453,-0.0486999973654747,3.1010000117302883,2.253000009761471,0.20599999947146552
-0.05384080857038498,0.0856645330786705,9.759101867675781,0.021399999037384987,-0.0008999999845400453,-0.0486999973654747,2.8470000040929118,0.46000000710884187,-0.05200000106461238
-0.04805641621351242,0.07184520363807678,9.75000286102295,0.029399998486042023,-0.008499999530613422,-0.05829999968409538,-2.427999915024364,0.8930000096243589,0.36199999933024934
-0.05193502455949783,0.06383899599313736,9.762740135192871,0.031300000846385956,-0.011599999852478504,-0.048499997705221176,0.15500000413539844,-1.2580000361454042,0.20299999896109608
-0.06066907197237015,0.07104075700044632,9.763717651367188,0.02879999950528145,-0.008899999782443047,-0.04839999973773956,-0.4280000105583768,1.0760000407568941,0.6029999958625494
-0.05086242035031319,0.07012137770652771,9.762088775634766,0.04169999808073044,-0.0072999997064471245,-0.04839999973773956,1.9870000000826167,-0.4489999874505363,0.03699999851276524
-0.04977066442370415,0.0768921822309494,9.763449668884277,0.04010000079870224,-0.002199999988079071,-0.04839999973773956,-1.2820000402283596,1.676000036109074,0.40499998885859356
-0.05207867547869682,0.07486189901828766,9.76258659362793,0.044099997729063034,-0.00839999970048666,-0.04839999973773956,0.8440000190752759,1.9269999898752281,-0.5080000152747527
-0.06417418271303177,0.07091625034809113,9.767509460449219,0.03830000013113022,-0.010300000198185444,-0.04829999804496765,-3.024000087565561,0.985000043062639,-0.06399999977103679
-0.057690683752298355,0.06732495129108429,9.762414932250977,0.04039999842643738,-0.0018999999156221747,-0.04839999973773956,-4.347999814773975,-0.6739999723673906,-0.09000000197086964
-0.05635950714349747,0.07383718341588974,9.769865036010742,0.047199998050928116,0.012899999506771564,-0.03869999945163727,1.4820000386790861,-0.559000023951033,-0.19900000272734125
-0.06428910046815872,0.06886681914329529,9.774548530578613,0.035599999129772186,0.009800000116229057,-0.03869999945163727,0.4139999903897018,0.30100000673968863,0.4300000020051476
-0.058638785034418106,0.08069417625665665,9.752148628234863,0.035999998450279236,0.018299998715519905,-0.05829999968409538,-2.5800000120308857,-2.31799993188472,0.10100000161885533
-0.055583786219358444,0.07523539662361145,9.760327339172363,0.03959999978542328,0.014499999582767487,-0.04859999939799309,1.17199995036701,-1.7910000378862845,-0.30799999014359963
-0.07545565813779831,0.07219954580068588,9.7595796585083,0.014599999412894249,0.01119999960064888,-0.04859999939799309,-2.4609999739992805,-1.1670000384511492,-0.3409999957576634
-0.04826710373163223,0.07156747579574585,9.74869155883789,0.02969999983906746,0.01939999870955944,-0.06830000132322311,-2.2569999392941593,0.4429999864297975,-0.3750000104353257
-0.05599559098482132,0.07386591285467148,9.769559860229492,0.03019999898970127,0.023799998685717583,-0.03889999911189079,2.520000001823497,0.9020000111554672,0.24899998899980968
-0.06594589352607727,0.07473740726709366,9.770000457763672,0.022699998691678047,0.015799999237060547,-0.03879999741911888,2.3909999265167587,0.02600000053230619,-0.18799999640924894
-0.05917508900165558,0.0741819441318512,9.75948429107666,0.02239999920129776,0.00989999994635582,-0.04859999939799309,1.8659999972846673,1.1060000458605883,0.06399999977103679
-0.06401137262582779,0.06735368072986603,9.755941390991211,0.025100000202655792,0.004600000102072954,-0.058399997651576996,-2.8779998848580726,-2.409000036300681,-0.4240000009844087
-0.06265147030353546,0.06915412098169327,9.753451347351074,0.016499999910593033,0.014299999922513962,-0.05849999934434891,0.44800000506736415,0.05099999867112037,-0.31600000929153577
-0.05797798931598663,0.06297708302736282,9.763267517089844,0.016300000250339508,0.003499999875202775,-0.0486999973654747,-2.3629999929011145,0.19999999845072666,0.007999999971379599
-0.05763322487473488,0.07694964855909348,9.761945724487305,0.016599999740719795,0.03009999915957451,-0.0486999973654747,-2.294999910184937,-0.3849999943496062,0.669999989473849
-0.056551042944192886,0.06262274086475372,9.765412330627441,0.025200000032782555,0.015799999237060547,-0.0486999973654747,-0.8140000139715816,0.606999978756091,0.4639999900023835
-0.06366661190986633,0.06791871786117554,9.756085395812988,0.01679999940097332,0.02759999968111515,-0.05849999934434891,-0.9049999583049837,0,-0.3450000053316314
-0.06973830610513687,0.07177817076444626,9.755041122436523,0.02630000002682209,0.020600000396370888,-0.05849999934434891,-1.255999964657354,-0.3600000078834786,-0.019000000453128628
-0.06551493704319,0.07558973878622055,9.76276969909668,0.0044999998062849045,0.03229999914765358,-0.05849999934434891,-2.2809999433771146,-1.0989999557349714,-0.5029999966371861
-0.05503791198134422,0.06820601969957352,9.747101783752441,0.019999999552965164,0.04089999943971634,-0.06839999556541443,-1.7759999819735846,0.20899999998183494,0.4179999999636699
-0.05503791198134422,0.06820601969957352,9.747101783752441,0.019999999552965164,0.04089999943971634,-0.06839999556541443,-1.7759999819735846,0.20899999998183494,0.4179999999636699
-0.06390602886676788,0.061387334018945694,9.763009071350098,0.010499999858438969,0.035599999129772186,-0.04879999905824661,-0.4300000020051476,-0.4300000020051476,-0.26699999206202624
-0.07668149471282959,0.06803363561630249,9.761801719665527,-0.010300000198185444,0.045099999755620956,-0.04879999905824661,0.2680000011256249,-0.023000000021936765,-0.06899999839828364
-0.06446148455142975,0.0638485699892044,9.767414093017578,0.008999999612569809,0.03399999812245369,-0.04879999905824661,3.680000056870735,0.34800000584200086,-0.3770000018820965
-0.056646812707185745,0.06980534642934799,9.765192031860352,0.019500000402331352,0.03460000082850456,-0.04879999905824661,-2.4100000186838533,-0.5900000114378995,-0.3029999981864594
-0.0554497092962265,0.0668269544839859,9.768342971801758,0.017799999564886093,0.03099999949336052,-0.039000000804662704,-1.9720000508916224,-0.6089999968832882,-0.1610000051561373
-0.0554497092962265,0.0668269544839859,9.768342971801758,0.017799999564886093,0.03099999949336052,-0.039000000804662704,-1.9720000508916224,-0.6089999968832882,-0.1610000051561373
-0.05182967707514763,0.07957368344068527,9.773006439208984,0.016599999740719795,0.05570000037550926,-0.039000000804662704,-0.2810000122307012,0.20599999947146552,0.07999999804626934
-0.05570828542113304,0.07531201094388962,9.759416580200195,0.017099998891353607,0.046299997717142105,-0.04879999905824661,-0.12499999903170415,1.034000033611722,0.3950000049443131
-0.062172628939151764,0.07883626967668533,9.763497352600098,0.009599999524652958,0.055799998342990875,-0.04879999905824661,-1.0309999797404998,-0.3499999972887716,-0.2740000021463637
-0.05175306275486946,0.08054094761610031,9.76486587524414,0.018299998715519905,0.05810000002384186,-0.04879999905824661,-1.7769999643567567,-0.15500000413539844,0.1199999937343507
-0.060056157410144806,0.05846640467643738,9.753680229187012,0.007899999618530273,0.04399999976158142,-0.05859999731183052,-2.9920000109738165,-0.7579999866577346,-0.07300000130214508
-0.0548655241727829,0.06595546752214432,9.756467819213867,0.01599999889731407,0.04959999769926071,-0.05859999731183052,-0.7179999976397599,-0.31800000073830653,-0.09399999820462447
-0.0664534643292427,0.075810007750988,9.74814510345459,0.0050999997183680534,0.06109999865293503,-0.06839999556541443,-1.7080000059791127,-0.5189999815722054,-0.15699999558216926
-0.05725015327334404,0.06281428039073944,9.758737564086914,0.013499999418854713,0.05480000004172325,-0.05859999731183052,-1.0969999909686272,-0.3879999948599756,-0.35499998924591186
-0.052931010723114014,0.06896258890628815,9.758517265319824,0.012299999594688416,0.06709999591112137,-0.05869999900460243,-0.6200000165415938,0.6540000045388297,0.22199999774669807
-0.0459686741232872,0.07480443269014359,9.764694213867188,0.02419999986886978,0.06859999895095825,-0.04879999905824661,2.401999946175064,1.9340000800008448,0.551000004803097
-0.057499147951602936,0.07674852758646011,9.771502494812012,0.02419999986886978,0.06859999895095825,-0.04879999905824661,0.5549999876966385,0.16699999283666295,0.1620000008795227
-0.05167644843459129,0.06697060912847519,9.754916191101074,0.01719999872148037,0.053599998354911804,-0.05859999731183052,-1.8490000833273288,-0.4420000040466253,-0.3600000078834786
-0.05167644843459129,0.06697060912847519,9.754916191101074,0.01719999872148037,0.053599998354911804,-0.05859999731183052,-1.8490000833273288,-0.4420000040466253,-0.3600000078834786
-0.05253836140036583,0.06151182949542999,9.771120071411133,0.01589999906718731,0.057999998331069946,-0.039000000804662704,1.9199998997496113,-0.49199997697888054,-0.8080000129508427
-0.05538267642259598,0.0690775066614151,9.751803398132324,0.0139999995008111,0.06069999933242798,-0.05859999731183052,1.200999973087532,0.23199999500119176,0.10100000161885533
-0.0696808472275734,0.08124962449073792,9.756017684936523,-0.004999999888241291,0.06700000166893005,-0.05859999731183052,-0.7709999710823845,0.3789999933288673,-0.11599999750059588
-0.0629100427031517,0.05931873992085457,9.762310028076172,0.00559999980032444,0.04899999871850014,-0.04879999905824661,-0.07699999753589991,-0.021999999295971403,-0.25299999857377775
-0.045844174921512604,0.06698976457118988,9.758689880371094,0.025100000202655792,0.04859999939799309,-0.05859999731183052,-2.3850000322177256,-0.38000000239246595,0.12700000381868817
-0.05946239456534386,0.06994900107383728,9.759493827819824,0.004299999680370092,0.06439999490976334,-0.04879999905824661,-2.0119999865487443,-0.2289999944908223,0.4639999900023835
-0.049205634742975235,0.06940311938524246,9.75827693939209,0.013199999928474426,0.07069999724626541,-0.05859999731183052,0.19200000598321698,0.09500000059811649,0.024000000747902123
-0.05826529487967491,0.06707596033811569,9.760757446289062,0.002699999837204814,0.050999999046325684,-0.04879999905824661,0.4500000231945614,0.0269999995907449,0.7339999825747792
-0.06277596950531006,0.0649307444691658,9.753259658813477,0.002899999963119626,0.044099997729063034,-0.05869999900460243,0.9730000410211613,0.05200000106461238,-0.29399999665535115
-0.050249505788087845,0.07941088080406189,9.75184154510498,0.012899999506771564,0.06430000066757202,-0.05859999731183052,-3.5419999266720357,0.1939999974299878,0.2959999881021219
-0.06051584333181381,0.06912539154291153,9.765766143798828,0.003700000001117587,0.06619999557733536,-0.04879999905824661,2.7319998955939955,0.16800000190026157,0.17400000292100043
-0.056340355426073074,0.0773710235953331,9.775276184082031,0.014099999330937862,0.05819999799132347,-0.04879999905824661,0.9999999922536332,0.19999999845072666,0.39200000443394367
-0.06638642400503159,0.07388506084680557,9.768802642822266,0.004299999680370092,0.05689999833703041,-0.039000000804662704,-2.523999931356186,1.0139999590614552,0.8709999703077478
-0.051456183195114136,0.06653965264558792,9.760969161987305,0.016499999910593033,0.05339999869465828,-0.04879999905824661,0.1930000017066024,2.5310000214818027,1.7370000286996348
-0.06092764809727669,0.06538085639476776,9.770956993103027,0.013499999418854713,0.05289999768137932,-0.039000000804662704,-2.7610000250362234,0.14699999832767557,-0.11299999699022645
-0.05260540172457695,0.05644569918513298,9.750999450683594,0.02719999849796295,0.06719999760389328,-0.05849999934434891,0.9409999644294169,1.543000031269647,0.8750000065621423
-0.05260540172457695,0.05644569918513298,9.750999450683594,0.02719999849796295,0.06719999760389328,-0.05849999934434891,0.9409999644294169,1.543000031269647,0.8750000065621423
-0.054233454167842865,0.07629841566085815,9.766149520874023,0.025299999862909317,0.08309999853372574,-0.0486999973654747,-0.5849999928003328,-0.5089999976579249,0.07199999890865307
-0.054233454167842865,0.07629841566085815,9.766149520874023,0.0284000001847744,0.07050000131130219,-0.0486999973654747,-0.5849999928003328,-0.5089999976579249,0.07199999890865307
-0.05917508900165558,0.0731189176440239,9.7633056640625,0.01249999925494194,0.08590000122785568,-0.04879999905824661,-4.301999771374409,-0.5059999971475555,0.12100000279794933
-0.057527877390384674,0.06748775392770767,9.748758316040039,0.01249999925494194,0.08590000122785568,-0.04879999905824661,5.895000095741429,0.3059999986968288,0.21899999723632863
-0.06267062574625015,0.06765056401491165,9.759800910949707,0.011399999260902405,0.08379999548196793,-0.04879999905824661,-0.9089999945593782,0.11599999750059588,-0.20800000425844953
-0.05694369599223137,0.06506482511758804,9.76094913482666,0.021399999037384987,0.08559999614953995,-0.04879999905824661,-1.300000043290576,0.2039999946844815,-0.8020000119301038
-0.05760449171066284,0.08532934635877609,9.756304740905762,0.009200000204145908,0.10889999568462372,-0.05849999934434891,-2.9259998930239832,0.03599999945432653,0.03400000133744912
-0.05808333307504654,0.06891470402479172,9.763937950134277,0.00969999935477972,0.10040000081062317,-0.0486999973654747,-0.24599998848944027,-0.9570000027252891,-0.6519999864116324
-0.05736507475376129,0.07491935789585114,9.772833824157715,0.016699999570846558,0.10029999911785126,-0.03889999911189079,3.0270000347150776,1.0720000045024995,-0.14499999354069154
-0.06658753752708435,0.07062894850969315,9.75571060180664,0.010499999858438969,0.08919999748468399,-0.05859999731183052,7.216999858183498,0.7519999856369958,-0.43499999396228783
-0.05694369599223137,0.06793786585330963,9.758966445922852,0.022099999710917473,0.07009999454021454,-0.04879999905824661,11.846000058714145,1.850000065710501,0.8299999989066009
-0.0476350374519825,0.06475836783647537,9.760499954223633,0.031599998474121094,0.0429999977350235,-0.04879999905824661,0.3130000087811663,0.5960000124586383,0.5300000012305109
-0.06425079703330994,0.06517017632722855,9.756888389587402,0.013499999418854713,0.04169999808073044,-0.05859999731183052,-0.09800000110848592,0.20299999896109608,0.7239999986604987
-0.05765237659215927,0.06638642400503159,9.762473106384277,0.0139999995008111,0.041600000113248825,-0.04879999905824661,7.721000370812385,2.350999990859637,-0.14600000260429016
-0.0647009015083313,0.07321469485759735,9.758009910583496,0.018699999898672104,0.03519999980926514,-0.05849999934434891,1.939999974299878,0.5969999948418105,-0.08299999855663877
-0.06909666210412979,0.07139509916305542,9.76587200164795,0.010599999688565731,0.02889999933540821,-0.0486999973654747,-4.511999913821975,-2.0479999926731773,0.14399999781730613
-0.05488467961549759,0.07030333578586578,9.747780799865723,0.025200000032782555,0.039400000125169754,-0.06839999556541443,-0.5639999892277469,-0.2920000052085803,-0.5939999943314411
-0.05530606210231781,0.070389524102211,9.750367164611816,0.024299999698996544,0.0405999980866909,-0.05859999731183052,-7.197999979459815,-2.116000075389355,-0.6720000076010463
-0.048784252256155014,0.07171113044023514,9.768179893493652,0.024299999698996544,0.0405999980866909,-0.05859999731183052,5.6949997771255845,3.663999911853157,0.28199999461387343
-0.05472187325358391,0.06626192480325699,9.78428840637207,0.024299999698996544,0.04309999942779541,-0.029199998825788498,3.188999955553321,0.4519999879609058,-0.43999998591942807
-0.05585193634033203,0.07709329575300217,9.757338523864746,0.025499999523162842,0.05249999836087227,-0.05859999731183052,6.305999898857776,3.441999980807525,0.38400001196643396
-0.0720367431640625,0.06142564117908478,9.771886825561523,0.0139999995008111,0.017500000074505806,-0.03889999911189079,4.759000044777146,1.8309999735434064,0.8960000101347283
-0.060697801411151886,0.07198885083198547,9.764158248901367,0.028699999675154686,0.0139999995008111,-0.04859999939799309,-0.42899999294154895,1.5949999689682466,-1.1130000292644995
-0.05112099274992943,0.06979577243328094,9.763870239257812,0.043800000101327896,0.01529999915510416,-0.048499997705221176,11.602999857291662,4.3120000220929535,0.149999998838045
-0.06390602886676788,0.07414364069700241,9.762558937072754,0.04259999841451645,-0.008499999530613422,-0.04829999804496765,-4.164000068062532,-0.8200000149923204,-0.014999999216793838
-0.04689761996269226,0.07565677911043167,9.763784408569336,0.05939999967813492,0.004100000020116568,-0.04839999973773956,-8.27099964618037,-2.2079999487450763,-0.7560000218913903
-0.061100028455257416,0.07482359558343887,9.773256301879883,0.02449999935925007,0.057999998331069946,-0.03889999911189079,10.044999556665903,3.3070000112017537,-0.18700000068586353
-0.06123410537838936,0.07556100189685822,9.76931095123291,0.035599999129772186,0.023399999365210533,-0.03869999945163727,14.079999549421698,4.0259999378638325,-0.5350000198680775
-0.06123410537838936,0.07556100189685822,9.76931095123291,0.035599999129772186,0.023399999365210533,-0.03869999945163727,14.079999549421698,4.0259999378638325,-0.5350000198680775
-0.07627926766872406,0.068263478577137,9.758057594299316,0.033799998462200165,-0.005499999970197678,-0.05810000002384186,-5.091999941345594,-1.7490000307411124,0.6300000004558742
-0.06412629783153534,0.06890513002872467,9.761505126953125,0.03739999979734421,0.02149999886751175,-0.03869999945163727,-0.8410000185649065,0.5009999785099888,-0.9329999986423336
-0.04707000404596329,0.07377014309167862,9.765738487243652,0.0632999986410141,-0.014599999412894249,-0.04829999804496765,16.179000351183948,0.14300000209392072,1.3250000297567037
-0.04707000404596329,0.07377014309167862,9.765738487243652,0.0632999986410141,-0.014599999412894249,-0.04829999804496765,16.179000351183948,0.14300000209392072,1.3250000297567037
-0.06700892001390457,0.07862558960914612,9.759129524230957,0.06340000033378601,-0.07970000058412552,-0.03790000081062317,12.478999792876124,2.298000070777865,-1.8770000169429728
-0.05929001420736313,0.0739521011710167,9.762453079223633,0.05040000006556511,-0.11109999567270279,-0.046799998730421066,-16.640000554119375,-2.3210000924776484,-0.4720000091503196
-0.050986919552087784,0.05611051246523857,9.77131175994873,0.06039999797940254,-0.13369999825954437,-0.03709999844431877,19.176000274073626,2.183999944662121,2.822000017626784
-0.06302496790885925,0.07144297659397125,9.765009880065918,0.05609999969601631,-0.16599999368190765,-0.04580000042915344,-5.5369999992634416,0.43600000302588643,2.9129999085993337
-0.06302496790885925,0.07144297659397125,9.765009880065918,0.05609999969601631,-0.16599999368190765,-0.04580000042915344,-5.5369999992634416,0.43600000302588643,2.9129999085993337
-0.05705861747264862,0.07478528469800949,9.763172149658203,0.06679999828338623,-0.15629999339580536,-0.0364999994635582,-8.19299973963247,-1.780000018227979,-0.024999999806340833
-0.06052541732788086,0.07426813244819641,9.764359474182129,0.06830000132322311,-0.1712999939918518,-0.04569999873638153,25.063000083862853,3.792999987159895,-1.508000007528386
-0.05885905399918556,0.07484274357557297,9.769625663757324,0.061400000005960464,-0.20430000126361847,-0.03500000014901161,-26.544999162046587,-4.775999958734484,-0.8429999833312508
-0.06203855574131012,0.07671980559825897,9.766092300415039,0.04809999838471413,-0.120899997651577,-0.046699997037649155,-21.6099996565102,2.7029999795951793,3.579999897562813
-0.06667372584342957,0.07349241524934769,9.759839057922363,0.04809999838471413,-0.120899997651577,-0.046699997037649155,-10.582999897209469,-4.044000047647756,-0.9949999736160666
-0.05417599529027939,0.07293695956468582,9.754063606262207,0.057999998331069946,-0.033799998462200165,-0.05790000036358833,-14.507000778216092,4.256999923801426,-0.4810000106814279
-0.05467398837208748,0.06971915066242218,9.76369857788086,0.07069999724626541,0.01119999960064888,-0.04829999804496765,-8.989999999729271,-4.897000174975845,1.7080000059791127
-0.057882219552993774,0.08229350298643112,9.769980430603027,0.04879999905824661,0.042799998074769974,-0.03869999945163727,-20.827999345604393,1.423999993238042,2.294999910184937
-0.0598263144493103,0.05857175216078758,9.7665433883667,0.052400000393390656,0.08020000159740448,-0.04839999973773956,-15.617999348610367,2.9689999892740335,8.152999590531937
-0.04903325065970421,0.07816589623689651,9.763036727905273,0.0722000002861023,0.15279999375343323,-0.04800000041723251,5.049000058538955,-0.6999999945775432,-2.3319998986925423
-0.05886863172054291,0.07021714746952057,9.757396697998047,0.06059999763965607,0.1322999894618988,-0.05790000036358833,0.3879999948599756,-4.757000080010801,-5.344999966599798
-0.05718311294913292,0.0701405331492424,9.757320404052734,0.0551999993622303,0.13089999556541443,-0.05810000002384186,16.09400035451043,-3.251999912910226,-15.669000371142852
-0.0516572967171669,0.05775772035121918,9.771617889404297,0.04690000042319298,0.08240000158548355,-0.03869999945163727,-5.479000167265808,-1.3800000213265255,-13.276000052972925
-0.057336341589689255,0.05996038764715195,9.76369857788086,0.04169999808073044,0.10109999775886536,-0.048499997705221176,-2.583999941563574,0.9779999529370222,3.500000026248569
-0.05568913370370865,0.06301538646221161,9.755941390991211,0.04230000078678131,0.10779999941587448,-0.05829999968409538,2.5079999997820193,3.667000072446085,-16.374999459606634
-0.06511270999908447,0.06899131834506989,9.764598846435547,0.04319999739527702,0.10979999601840973,-0.04839999973773956,2.7659999369520842,6.141999799809776,16.396000583757132
-0.053256623446941376,0.0624503567814827,9.759187698364258,0.06759999692440033,0.09239999949932098,-0.04829999804496765,13.21899956302823,-4.079000071389016,14.879000201171667
-0.0464475117623806,0.06375280022621155,9.758152961730957,0.06610000133514404,0.055299997329711914,-0.05829999968409538,1.8240000968612011,10.43299955152588,3.89499989779075
-0.05170518159866333,0.0710982158780098,9.761457443237305,0.09160000085830688,0.05819999799132347,-0.04809999838471413,-7.420999679445208,0.33000000277978425,-0.6440000206245492
-0.05121676251292229,0.06675992161035538,9.763640403747559,0.09189999848604202,0.0632999986410141,-0.04809999838471413,2.0499999574395216,4.474000156374609,4.700000016952929
-0.0581790991127491,0.06419333815574646,9.773130416870117,0.09549999982118607,0.05639999732375145,-0.038100000470876694,-9.24800015034275,7.070999868919421,1.8980000738764118
-0.06264188885688782,0.07616434246301651,9.771235466003418,0.1119999960064888,0.08779999613761902,-0.03779999911785126,9.392000174840481,5.867999931065545,1.9899999472321332
-0.04553771764039993,0.07232404500246048,9.768113136291504,0.14710000157356262,0.06159999966621399,-0.04739999771118164,10.219000333319272,-1.842999975584884,0.4709999734062945
-0.054942142218351364,0.06296750903129578,9.765182495117188,0.13040000200271606,0.016499999910593033,-0.04749999940395355,2.31799993188472,-2.855000076601701,-0.4649999723855557
-0.05231809616088867,0.06737283617258072,9.760298728942871,0.12389999628067017,0.021299999207258224,-0.047599997371435165,-6.218000168478154,2.7480000406115734,1.3800000213265255
-0.055842362344264984,0.08054094761610031,9.764703750610352,0.13169999420642853,0.04999999701976776,-0.04749999940395355,-3.892999933024406,0.7840000088678873,-1.34099996133087
-0.06035303324460983,0.05712565407156944,9.768946647644043,0.12319999933242798,0.02969999983906746,-0.037699997425079346,5.167000114187388,1.312000045332054,0.3029999981864594
-0.06465302407741547,0.06495948135852814,9.762558937072754,0.12610000371932983,0.025100000202655792,-0.04739999771118164,-3.5779999327964687,-6.390000126591531,-2.0979999656054327
-0.05542098358273506,0.06435614079236984,9.755136489868164,0.11349999904632568,0.037299998104572296,-0.0575999990105629,0.627999982328677,0.830999981289773,0.47899999255423065
-0.05286397039890289,0.07366479188203812,9.752885818481445,0.11449999362230301,0.055399999022483826,-0.0575999990105629,-4.066999855904127,-3.8680001600016896,-3.0819999195631937
-0.05286397039890289,0.07366479188203812,9.752885818481445,0.10199999809265137,0.057999998331069946,-0.05779999867081642,-1.3959999529006921,3.4650000025073084,-1.2230000124041431
-0.056771308183670044,0.07227616012096405,9.753307342529297,0.10979999601840973,0.06109999865293503,-0.05769999697804451,-2.4659998859151413,-12.13400010770961,-2.8810000454510005
-0.05492299050092697,0.07667191326618195,9.769942283630371,0.07599999755620956,0.07750000059604645,-0.03849999979138374,3.004000013015294,11.167999623205537,1.97100006850845
-0.04968447610735893,0.08056967705488205,9.759273529052734,0.11369999498128891,0.06679999828338623,-0.04779999703168869,0.8879999909867923,0.8249999802690342,0.149999998838045
-0.05504748597741127,0.06173209846019745,9.774299621582031,0.1152999997138977,0.044599998742341995,-0.0575999990105629,-4.814000143068673,-10.213999781073175,-1.339999978947698
-0.05504748597741127,0.06173209846019745,9.774299621582031,0.0885000005364418,0.056699998676776886,-0.03830000013113022,-3.584999809478674,-5.525999979605135,-0.7299999996812375
-0.04887044429779053,0.0658884271979332,9.76744270324707,0.07479999959468842,0.06509999930858612,-0.04829999804496765,-1.4270000471092643,-9.311999876639414,-1.5930000042019021
-0.04887044429779053,0.0658884271979332,9.76744270324707,0.05269999802112579,0.07519999891519547,-0.048499997705221176,-1.4270000471092643,-9.311999876639414,-1.5930000042019021
-0.054942142218351364,0.06546705216169357,9.767203330993652,0.017400000244379044,0.08009999990463257,-0.04879999905824661,3.287999919034659,12.78400018271575,0.9200000142176837
-0.048573561012744904,0.06712383776903152,9.763851165771484,0.017400000244379044,0.08009999990463257,-0.04879999905824661,-0.5900000114378995,-3.295000009160276,0.2680000011256249
-0.05744168907403946,0.07359776645898819,9.760087966918945,0.04829999804496765,0.0803999975323677,-0.04859999939799309,2.395000069492859,5.409999888723047,0.5979999772249827
-0.04707000404596329,0.07710287719964981,9.76966381072998,0.07270000129938126,0.08329999446868896,-0.038599997758865356,2.275000049078082,4.921000179058801,0.67699997287776
-0.05824613943696022,0.07327214628458023,9.764339447021484,0.07270000129938126,0.08329999446868896,-0.038599997758865356,1.2520000351246652,2.9520000753166946,0.20299999896109608
-0.07388506084680557,0.07824251055717468,9.76472282409668,0.06549999862909317,0.07209999859333038,-0.04820000007748604,2.497999962506886,6.9909999976051775,-0.2150000010025738
-0.04299028217792511,0.07259219139814377,9.771915435791016,0.1160999983549118,0.05429999902844429,-0.038100000470876694,1.2720000029532261,0.6600000055595685,0.09800000110848592
-0.05222232639789581,0.0742872953414917,9.768994331359863,0.10749999433755875,0.050999999046325684,-0.038100000470876694,-0.836999982310512,2.6980000676793185,-0.2770000026567332
-0.05948155000805855,0.06390602886676788,9.7734375,0.1046999990940094,0.04319999739527702,-0.03799999877810478,-0.8680000231582313,0.29800000622931916,-0.5849999928003328
-0.0530746653676033,0.06649176776409149,9.74984073638916,0.11499999463558197,0.045899998396635056,-0.0575999990105629,1.8449999403512285,0.7279999815540403,0.4999999961268166
-0.054875101894140244,0.06560112535953522,9.769070625305176,0.11629999428987503,0.041200000792741776,-0.03790000081062317,1.2449999449990485,2.4869999428485805,0.11400000605382507
-0.03922659903764725,0.07359776645898819,9.768065452575684,0.13239999115467072,0.04739999771118164,-0.047599997371435165,-0.369999991797759,2.1270000950476606,-0.48299997544777223
-0.05459737405180931,0.07356902956962585,9.775525093078613,0.12719999253749847,0.04809999838471413,-0.03779999911785126,0.8819999899660533,-0.7889999741446011,-0.13000000432905762
-0.054827217012643814,0.07163451611995697,9.762950897216797,0.12449999898672104,0.045399997383356094,-0.047599997371435165,1.2539999998910096,1.6139999544136352,0.14799999405106096
-0.05227978900074959,0.06572562456130981,9.752225875854492,0.12939999997615814,0.031099999323487282,-0.05729999765753746,0.6739999723673906,-1.248999981253443,0.49499997748924995
-0.05136999115347862,0.059395354241132736,9.76313304901123,0.125900000333786,0.02929999865591526,-0.047599997371435165,1.2940000422698372,1.2189999761497488,0.31699999167470794
-0.04986643046140671,0.0663481131196022,9.76161003112793,0.12860000133514404,0.025599999353289604,-0.04749999940395355,-2.125999899221077,-1.0499999651858885,0.13799999679656727
-0.06704722344875336,0.06453809887170792,9.770880699157715,0.10529999434947968,0.03189999982714653,-0.03779999911785126,-2.634999896879002,-1.0989999557349714,-0.17700000343136985
-0.06194278597831726,0.069182850420475,9.763717651367188,0.11229999363422394,0.04699999839067459,-0.047599997371435165,0.04900000055424296,-0.42200000953763794,0.5009999785099888
-0.05774814635515213,0.0733296126127243,9.771857261657715,0.11029999703168869,0.04659999907016754,-0.03790000081062317,-0.845000001458448,-0.9740000234043334,-0.23399998644796255
-0.061981093138456345,0.06461471319198608,9.756420135498047,0.10969999432563782,0.0414000004529953,-0.057499997317790985,0.2570000081477458,0.3339999856733259,0.20099999417411205
-0.061981093138456345,0.06461471319198608,9.756420135498047,0.10969999432563782,0.0414000004529953,-0.057499997317790985,0.2570000081477458,0.3339999856733259,0.20099999417411205
-0.060841452330350876,0.0749959722161293,9.75633430480957,0.10769999772310257,0.04820000007748604,-0.057499997317790985,-2.0830000164144384,-1.1959999544499653,-0.3190000098019052
-0.060841452330350876,0.0749959722161293,9.75633430480957,0.10769999772310257,0.04820000007748604,-0.057499997317790985,-2.0830000164144384,-1.1959999544499653,-0.3190000098019052
-0.05626374110579491,0.06028600037097931,9.750999450683594,0.11289999634027481,0.04529999941587448,-0.0575999990105629,-0.9320000162591615,-0.06399999977103679,-0.28699998657101367
-0.061416059732437134,0.07728482782840729,9.757434844970703,0.10249999910593033,0.06669999659061432,-0.0575999990105629,-1.271000020570054,-0.43600000302588643,-0.33600000380052314
-0.06491159647703171,0.06839755177497864,9.760719299316406,0.1005999967455864,0.060499999672174454,-0.04779999703168869,0.1419999930303221,0.12700000381868817,-0.22199999774669807
-0.06995857506990433,0.07684429734945297,9.746201515197754,0.09070000052452087,0.0697999969124794,-0.06749999523162842,-0.2680000011256249,0.5579999882070079,-0.38000000239246595
-0.054137688130140305,0.06958507746458054,9.76401424407959,0.11140000075101852,0.060499999672174454,-0.04779999703168869,-0.44800000506736415,-0.0859999990670082,-0.2909999961449817
-0.05715438351035118,0.07744763791561127,9.748279571533203,0.11059999465942383,0.07149999588727951,-0.06749999523162842,-0.9320000162591615,-0.29500000571894974,-0.2699999925723957
-0.06559155136346817,0.0740574523806572,9.752703666687012,0.0997999981045723,0.06340000033378601,-0.05769999697804451,-0.07300000130214508,-0.6050000139897467,0.0019999999928448997
-0.0586579404771328,0.07674852758646011,9.762337684631348,0.09749999642372131,0.0731000006198883,-0.0478999987244606,-0.046999999102312236,-0.6320000185830715,-0.1729999938574018
-0.059893347322940826,0.06244077906012535,9.768878936767578,0.10529999434947968,0.06319999694824219,-0.038100000470876694,-0.22199999774669807,0.5350000198680775,-0.3059999986968288
-0.059893347322940826,0.06244077906012535,9.768878936767578,0.09629999846220016,0.05130000039935112,-0.038100000470876694,-0.22199999774669807,0.5350000198680775,-0.3059999986968288
-0.058610059320926666,0.06484455615282059,9.767748832702637,0.08789999783039093,0.06159999966621399,-0.028299998492002487,0.49600001323327503,0.30400000725005805,0.1390000058601659
-0.06487329304218292,0.07411490380764008,9.757761001586914,0.09510000050067902,0.05139999836683273,-0.0478999987244606,0.49600001323327503,0.30400000725005805,0.1390000058601659
-0.05495171621441841,0.0670567974448204,9.756879806518555,0.10740000009536743,0.05979999899864197,-0.05769999697804451,0.27200001069959295,-0.3139999911643385,0.012000000373951061
-0.05240428447723389,0.06508397310972214,9.771446228027344,0.10610000044107437,0.04899999871850014,-0.038100000470876694,-0.13499999628619785,1.0549999838234552,-0.0749999994190225
-0.054942142218351364,0.07305187731981277,9.770755767822266,0.10610000044107437,0.04899999871850014,-0.038100000470876694,-0.3669999912873896,-0.5020000142540139,0.12400000330831876
-0.055152833461761475,0.07473740726709366,9.760211944580078,0.10779999941587448,0.05949999764561653,-0.0478999987244606,-0.433000002515517,0.8440000190752759,-0.2780000117203318
-0.048305410891771317,0.06096595525741577,9.765288352966309,0.10999999940395355,0.06059999763965607,-0.04779999703168869,-0.13300000483942703,-0.32899999371618566,0.26200000010488605
-0.048305410891771317,0.06096595525741577,9.765288352966309,0.1087999939918518,0.0494999997317791,-0.0478999987244606,-0.13300000483942703,-0.32899999371618566,0.26200000010488605
-0.06308242678642273,0.07504386454820633,9.765240669250488,0.09769999980926514,0.05939999967813492,-0.0478999987244606,-0.41600000851689906,0.4070000069857908,-0.2740000021463637
-0.053141701966524124,0.05762364715337753,9.765364646911621,0.10849999636411667,0.05079999938607216,-0.0478999987244606,1.3029999904400926,0.6930000111736323,0.34299998720443414
-0.05222232639789581,0.07409575581550598,9.764166831970215,0.10949999839067459,0.05769999697804451,-0.0478999987244606,0.4780000101710585,-0.5420000032719886,0.26300000916848465
-0.06042007356882095,0.06757394969463348,9.75191879272461,0.0965999960899353,0.05729999765753746,-0.05769999697804451,-0.3059999986968288,-0.38999998630674637,0.06299999737754478
-0.04372769966721535,0.07174943387508392,9.750731468200684,0.11469999700784683,0.05790000036358833,-0.05769999697804451,-0.6309999828390465,-0.06500000216452881,0.02899999937514897
-0.06248866394162178,0.06597462296485901,9.770679473876953,0.11469999700784683,0.05790000036358833,-0.05769999697804451,-0.6930000111736323,0.8630000045206646,-0.20299999896109608
-0.05781518295407295,0.06998730450868607,9.763822555541992,0.0957999974489212,0.06109999865293503,-0.0478999987244606,-0.3819999938392367,0.35499998924591186,-0.15800000464576788
-0.05291185900568962,0.06540001928806305,9.754849433898926,0.1062999963760376,0.05219999700784683,-0.05769999697804451,0.5900000114378995,1.21299997512901,-0.006000000186975531
-0.059376202523708344,0.07152916491031647,9.765393257141113,0.0989999994635582,0.06039999797940254,-0.0478999987244606,-0.6179999984143966,-0.5919999762042438,0.23499999551156117
-0.0649307444691658,0.07276458293199539,9.757128715515137,0.09699999541044235,0.06189999729394913,-0.05769999697804451,-0.2050000037480801,-0.3660000089042174,0.07099999651516105
-0.05364927276968956,0.07341580092906952,9.772546768188477,0.09699999541044235,0.06189999729394913,-0.05769999697804451,-0.4769999744270334,-0.9459999830669835,0.12199999852133472
-0.05649358406662941,0.06595546752214432,9.748796463012695,0.10279999673366547,0.05329999700188637,-0.06759999692440033,0.5059999971475555,0.14900000311465958,0.03899999996469596
-0.056905388832092285,0.0722857341170311,9.758641242980957,0.10289999842643738,0.06129999831318855,-0.05779999867081642,0.6600000055595685,-0.03100000082707969,-0.0009999999964224499
-0.05421430245041847,0.07222828269004822,9.770966529846191,0.10239999741315842,0.05949999764561653,-0.03819999843835831,-0.37299999230812847,-0.6290000180727021,-0.021999999295971403
-0.06342719495296478,0.07234320044517517,9.75632381439209,0.09049999713897705,0.06030000001192093,-0.05779999867081642,0.20800000425844953,0.01700000066872456,-0.07000000079177565
-0.05251920595765114,0.06883808970451355,9.76984691619873,0.06989999860525131,0.0414000004529953,-0.038599997758865356,0.6879999925360656,0.4930000127229056,-0.07999999804626934
-0.05543055757880211,0.06714299321174622,9.765499114990234,0.07809999585151672,0.044199999421834946,-0.04829999804496765,-0.2680000011256249,-0.3510000063523703,0.14300000209392072
-0.052002061158418655,0.0738084465265274,9.764052391052246,0.08229999989271164,0.04820000007748604,-0.04820000007748604,0.5110000157851222,-0.3259999932058162,0.17599999436777122
-0.055344369262456894,0.07052360475063324,9.749601364135742,0.08549999445676804,0.04939999803900719,-0.057999998331069946,-0.4139999903897018,-0.25299999857377775,0.05999999686717535
-0.05684792250394821,0.07175900787115097,9.755854606628418,0.08760000020265579,0.05219999700784683,-0.057999998331069946,-0.12400000330831876,-0.1629999966029081,-0.05200000106461238
-0.06524679064750671,0.0777253657579422,9.760354995727539,0.0568000003695488,0.04569999873638153,-0.04839999973773956,-0.6140000155208549,-0.09800000110848592,0.11200000126684104
-0.056436121463775635,0.06837840378284454,9.78134822845459,0.07349999994039536,0.042799998074769974,-0.028699999675154686,-0.25400000763737635,0.42200000953763794,-0.13000000432905762
-0.06554366648197174,0.0656394362449646,9.76432991027832,0.07009999454021454,0.03759999945759773,-0.04829999804496765,-0.10900000075647161,-0.2780000117203318,0.004999999877891834
-0.06627149879932404,0.06629065424203873,9.76952075958252,0.07329999655485153,0.04079999774694443,-0.03839999809861183,-0.021000000237532696,-0.13799999679656727,-0.149999998838045
-0.05568913370370865,0.07424898445606232,9.780696868896484,0.07050000131130219,0.04189999774098396,-0.028699999675154686,0.4669999905127529,0.29999999767609,-0.038000000906257256
-0.05568913370370865,0.07424898445606232,9.780696868896484,0.07050000131130219,0.04189999774098396,-0.028699999675154686,0.4669999905127529,0.29999999767609,-0.038000000906257256
-0.05250963196158409,0.06671203672885895,9.760978698730469,0.07679999619722366,0.03500000014901161,-0.04829999804496765,0.5810000099067912,0.21800000151294321,0.041000001416626686
-0.05522944778203964,0.07479485869407654,9.764598846435547,0.07169999927282333,0.04619999974966049,-0.057999998331069946,-0.09000000197086964,-0.1729999938574018,0.09500000059811649
-0.06109045073390007,0.06992026418447495,9.773140907287598,0.05819999799132347,0.039000000804662704,-0.038599997758865356,-0.049999999612681666,0.1629999966029081,-0.024000000747902123
-0.06109045073390007,0.06992026418447495,9.773140907287598,0.05819999799132347,0.039000000804662704,-0.038599997758865356,-0.049999999612681666,0.1629999966029081,-0.024000000747902123
-0.05547844246029854,0.0656394362449646,9.750625610351562,0.03480000048875809,0.013399999588727951,-0.058399997651576996,0.02899999937514897,-0.06299999737754478,0.05799999875029794
-0.06208643689751625,0.0656585842370987,9.758316040039062,0.014399999752640724,0.005399999674409628,-0.05849999934434891,-0.1079999983629796,0.20299999896109608,0.0039999999856897995
-0.062191784381866455,0.0720558911561966,9.749544143676758,0.03240000084042549,0.02539999969303608,-0.058399997651576996,-0.0749999994190225,0.16400000566650674,0.03599999945432653
-0.062191784381866455,0.0720558911561966,9.749544143676758,0.03240000084042549,0.02539999969303608,-0.058399997651576996,-0.0749999994190225,0.16400000566650674,0.03599999945432653
-0.05591897666454315,0.06275681406259537,9.767346382141113,0.031300000846385956,0.018699999898672104,-0.04859999939799309,0.07600000181251451,-0.08299999855663877,-0.057000003026912535
-0.050795383751392365,0.07528328150510788,9.75232982635498,0.04739999771118164,0.017999999225139618,-0.04859999939799309,-0.12199999852133472,0.2289999944908223,-0.0030000000934877653
-0.05581362918019295,0.07419151812791824,9.759742736816406,0.0510999970138073,0.02969999983906746,-0.048499997705221176,-0.18600000496247812,0.25299999857377775,-0.12799999954207358
-0.05263412743806839,0.06450936943292618,9.751420974731445,0.0510999970138073,0.02969999983906746,-0.048499997705221176,-0.0030000000934877653,0.11699999322398127,0.0030000000934877653
-0.05263412743806839,0.06450936943292618,9.751420974731445,0.06229999661445618,0.026499999687075615,-0.05819999799132347,-0.0030000000934877653,0.11699999322398127,0.0030000000934877653
-0.053208738565444946,0.0759536549448967,9.7612943649292,0.061400000005960464,0.03529999777674675,-0.04839999973773956,0.017999999727163266,-0.15999999609253868,0.015999999942759198
-0.05019204318523407,0.07242938876152039,9.750654220581055,0.046299997717142105,0.02669999934732914,-0.058399997651576996,0.043999998591942806,-0.057000003026912535,0.05999999686717535
-0.05637866258621216,0.060132771730422974,9.76717472076416,0.03359999880194664,0.01209999993443489,-0.04859999939799309,-0.03599999945432653,0.09300000248123906,0.1939999974299878
-0.05877286195755005,0.06019023060798645,9.764176368713379,0.01769999973475933,0.008899999782443047,-0.0486999973654747,-0.12199999852133472,0.16999999334703236,-0.05099999867112037
-0.05516240745782852,0.07495766133069992,9.758306503295898,0.021399999037384987,0.014499999582767487,-0.05849999934434891,0.27200001069959295,0.14600000260429016,-0.0030000000934877653
-0.04923436418175697,0.06483498215675354,9.77206802368164,0.03999999910593033,0.0139999995008111,-0.03879999741911888,0.257999990530918,0.3190000098019052,-0.007000000079177565
-0.053610965609550476,0.06342719495296478,9.758689880371094,0.05419999733567238,0.020399998873472214,-0.05829999968409538,0.0749999994190225,0.15999999609253868,0.10299999973573276
-0.06360915303230286,0.06544789671897888,9.76624584197998,0.032899998128414154,0.014699999243021011,-0.04859999939799309,0.31600000929153577,0.17799999915475526,0.14300000209392072
-0.06121494993567467,0.06663542240858078,9.760164260864258,0.04600000008940697,0.020499998703598976,-0.048499997705221176,-0.02800000031671026,0.15200000362502902,-0.019999999511567335
-0.049847278743982315,0.07813716679811478,9.780888557434082,0.036399997770786285,0.02589999884366989,-0.028999999165534973,-0.06299999737754478,-0.09300000248123906,-0.017999999727163266
-0.05632119998335838,0.06767929345369339,9.751947402954102,0.0284000001847744,0.012600000016391277,-0.058399997651576996,0.1390000058601659,0.20899999998183494,0.11400000605382507
-0.05334281548857689,0.07990887761116028,9.77022933959961,0.04490000009536743,0.031099999323487282,-0.03869999945163727,0.12700000381868817,0.1189999980109653,-0.11599999750059588
-0.06019023060798645,0.0681198239326477,9.767203330993652,0.026099998503923416,0.015399999916553497,-0.04859999939799309,0.10100000161885533,0.019000000453128628,-0.09500000059811649
-0.05333323776721954,0.06075526028871536,9.768189430236816,0.026599999517202377,0.0037999998312443495,-0.0486999973654747,-0.03899999996469596,-0.17100000241063099,0.1180000022875799
-0.05781518295407295,0.07793605327606201,9.760403633117676,0.012000000104308128,0.01730000041425228,-0.0486999973654747,0.10400000212922476,0.0009999999964224499,0.07600000181251451
-0.05431006848812103,0.06856035441160202,9.760049819946289,0.016099998727440834,0.0052999998442828655,-0.0486999973654747,0.08899999957737763,0.13799999679656727,-0.12700000381868817
-0.04651454836130142,0.06465302407741547,9.753202438354492,0.02019999921321869,-0.003700000001117587,-0.05849999934434891,-0.007000000079177565,0.0969999987149939,0.06399999977103679
-0.046648625284433365,0.07459375262260437,9.753776550292969,0.015599999576807022,0.0044999998062849045,-0.05849999934434891,0.048000001495804245,0.03400000133744912,-0.0009999999964224499
-0.059874195605516434,0.0680144801735878,9.773082733154297,-0.0024999999441206455,0.002899999963119626,-0.03889999911189079,-0.03899999996469596,0.2499999980634083,-0.01700000066872456
-0.06223009154200554,0.06355168670415878,9.774194717407227,0.019199999049305916,0.00419999985024333,-0.03879999741911888,0.17100000241063099,0.05799999875029794,-0.014999999216793838
-0.0653904378414154,0.062076862901449203,9.763323783874512,0.014299999922513962,0.002699999837204814,-0.0486999973654747,0.2140000052791884,0.22800001210765014,0.21200000049220435
-0.06496905535459518,0.07486189901828766,9.760595321655273,0.023799998685717583,0.014800000004470348,-0.04859999939799309,-0.03400000133744912,0.42599999243117953,-0.1419999930303221
-0.052691590040922165,0.08379705995321274,9.759723663330078,0.023799998685717583,0.014800000004470348,-0.04859999939799309,-0.013000000266153095,0.12100000279794933,0.07300000130214508
-0.06711426377296448,0.07213250547647476,9.771407127380371,0.04959999769926071,0.03229999914765358,-0.048499997705221176,0.06299999737754478,0.008999999863581633,0.0019999999928448997
-0.0585334450006485,0.07088752835988998,9.770191192626953,0.02199999988079071,0.010900000110268593,-0.03879999741911888,-0.02899999937514897,-0.09000000197086964,-0.0030000000934877653
-0.059088896960020065,0.07095456123352051,9.765738487243652,0.016300000250339508,0.008100000210106373,-0.04859999939799309,-0.02600000053230619,0.004999999877891834,-0.014999999216793838
-0.05893566831946373,0.07640375941991806,9.757463455200195,0.012600000016391277,0.006199999712407589,-0.05849999934434891,-0.23499999551156117,0.04600000004387353,-0.1939999974299878
-0.04923436418175697,0.060343459248542786,9.764052391052246,0.04039999842643738,0.006799999624490738,-0.04859999939799309,-0.16599999711327754,0.04200000047506539,0.10199999734224074
-0.052806511521339417,0.0684741660952568,9.760920524597168,0.02979999966919422,0.012600000016391277,-0.04859999939799309,0.19200000598321698,0.08899999957737763,0.010999999647985701
-0.05135083943605423,0.054329223930835724,9.77588939666748,0.020899999886751175,-0.005200000014156103,-0.03889999911189079,0.04900000055424296,0.2150000010025738,0.0019999999928448997
-0.06442318111658096,0.07209420204162598,9.759197235107422,0.01599999889731407,0.0031999999191612005,-0.0486999973654747,0.2069999951948509,0.10299999973573276,-0.0009999999964224499
-0.050632577389478683,0.07564719021320343,9.766925811767578,0.025599999353289604,0.020499998703598976,-0.04859999939799309,0.09000000197086964,-0.128999995265459,-0.08100000043976135
-0.050632577389478683,0.07564719021320343,9.766925811767578,0.0502999983727932,0.026200000196695328,-0.048499997705221176,0.09000000197086964,-0.128999995265459,-0.08100000043976135
-0.04932055622339249,0.06780379265546799,9.760872840881348,0.034699998795986176,0.017899999395012856,-0.03879999741911888,-0.17100000241063099,0.12599999475508955,0.010999999647985701
-0.06804320961236954,0.08240842074155807,9.76069164276123,0.02579999901354313,0.012999999336898327,-0.0486999973654747,-0.09999999922536333,-0.021999999295971403,-0.1620000008795227
-0.06543832272291183,0.07341580092906952,9.77383041381836,0.010300000198185444,0.005200000014156103,-0.03879999741911888,-0.010999999647985701,-0.03699999851276524,-0.13799999679656727
-0.050699613988399506,0.07897992432117462,9.762606620788574,0.01489999983459711,0.010999999940395355,-0.0486999973654747,0.1079999983629796,0.14099999730693671,-0.10100000161885533
-0.06235458701848984,0.06451894342899323,9.773218154907227,0.003999999724328518,-0.006199999712407589,-0.03889999911189079,-0.12199999852133472,0.21200000049220435,-0.06099999926066736
-0.07213250547647476,0.07782112807035446,9.769166946411133,0.013700000010430813,0.02319999970495701,-0.03879999741911888,-0.04900000055424296,0.16800000190026157,-0.12199999852133472
-0.048286259174346924,0.07213250547647476,9.763172149658203,0.01769999973475933,0.0044999998062849045,-0.0486999973654747,0.18799999640924894,0.22700000304405152,0.009999999755783667
-0.05357265844941139,0.06981492042541504,9.765527725219727,0.03669999912381172,0.013599999248981476,-0.04859999939799309,-0.007000000079177565,0.05499999823992851,0.128999995265459
-0.052787356078624725,0.07388506084680557,9.775545120239258,0.04339999705553055,0.01759999990463257,-0.03869999945163727,-0.03400000133744912,0.02800000031671026,0.09800000110848592
-0.055267754942178726,0.0724102333188057,9.763525009155273,0.032099999487400055,0.012999999336898327,-0.04859999939799309,0.06099999926066736,0.15900000036915327,0.09600000299160849
-0.05864836648106575,0.08218815922737122,9.760623931884766,0.01679999940097332,0.016599999740719795,-0.04859999939799309,0.14699999832767557,0.1199999937343507,0.12700000381868817
-0.051810525357723236,0.07059064507484436,9.769386291503906,0.018799999728798866,0.004299999680370092,-0.03889999911189079,0.0030000000934877653,-0.006000000186975531,-0.23900000508552924
-0.051053959876298904,0.061128757894039154,9.768898010253906,0.02589999884366989,0.0024999999441206455,-0.03879999741911888,-0.07699999753589991,0.021999999295971403,-0.03400000133744912
-0.05081453546881676,0.0616171769797802,9.76388931274414,0.019299998879432678,0.0018999999156221747,-0.0486999973654747,-0.029999998433587676,0.40400000647542134,-0.1830000044521087
-0.06185659393668175,0.0712035596370697,9.757033348083496,0.028299998492002487,0.019199999049305916,-0.058399997651576996,0.02600000053230619,0.06299999737754478,-0.20800000425844953
-0.05919424444437027,0.06604165583848953,9.767184257507324,0.020999999716877937,0.0066999997943639755,-0.04859999939799309,0.06299999737754478,0.15900000036915327,0.13499999628619785
-0.057786453515291214,0.07009264826774597,9.768610954284668,0.014999999664723873,0.011299999430775642,-0.03889999911189079,0.05999999686717535,0.05200000106461238,0.12400000330831876
-0.05942408740520477,0.07622180134057999,9.764463424682617,0.01850000023841858,0.008200000040233135,-0.0486999973654747,-0.03999999902313467,0.1529999993484144,-0.0039999999856897995
-0.05942408740520477,0.07622180134057999,9.764463424682617,0.0064999996684491634,0.006000000052154064,-0.0486999973654747,-0.03999999902313467,0.1529999993484144,-0.0039999999856897995
-0.049799397587776184,0.07366479188203812,9.758641242980957,0.012799999676644802,0.004600000102072954,-0.05849999934434891,-0.07199999890865307,0.05600000063342052,-0.09099999769425504
-0.0646817535161972,0.07335833460092545,9.756630897521973,0.0024999999441206455,0.003599999938160181,-0.05849999934434891,0.08899999957737763,0.12700000381868817,0.0019999999928448997
-0.0654095932841301,0.06866570562124252,9.760614395141602,0.023799998685717583,0.01209999993443489,-0.04859999939799309,0,0.08499999667351618,0.05300000012305109
-0.0654095932841301,0.06866570562124252,9.760614395141602,0.023799998685717583,0.01209999993443489,-0.04859999939799309,0,0.08499999667351618,0.05300000012305109
-0.05101565271615982,0.06575435400009155,9.777134895324707,0.02329999953508377,0.001500000013038516,-0.03889999911189079,-0.0859999990670082,0.08400000095013078,0.11200000126684104
-0.0584089420735836,0.06370491534471512,9.767117500305176,0.010099999606609344,0.0011999999405816197,-0.0486999973654747,0.007000000079177565,-0.1620000008795227,0.13700000107318186
-0.054683566093444824,0.08205407857894897,9.756583213806152,0.01489999983459711,0.015799999237060547,-0.05849999934434891,-0.02600000053230619,0.10600000024610218,0.13600000534979648
-0.05193502455949783,0.0782041996717453,9.768572807312012,0.009599999524652958,0.011599999852478504,-0.03889999911189079,0.13000000432905762,-0.006000000186975531,-0.046999999102312236
-0.05193502455949783,0.0782041996717453,9.768572807312012,0.009599999524652958,0.011599999852478504,-0.03889999911189079,0.13000000432905762,-0.006000000186975531,-0.046999999102312236
-0.05836106091737747,0.06358042359352112,9.773591041564941,0.00009999999747378752,-0.006099999882280827,-0.03889999911189079,0.021000000237532696,0.07799999992939192,-0.16500000138989213
-0.05836106091737747,0.06358042359352112,9.773591041564941,0.00009999999747378752,-0.006099999882280827,-0.03889999911189079,0.021000000237532696,0.07799999992939192,-0.16500000138989213
-0.065055251121521,0.07637502998113632,9.752205848693848,0.00029999998514540493,0.002699999837204814,-0.05849999934434891,0.21200000049220435,0.13799999679656727,0.2589999995945166
-0.05099649727344513,0.07079175859689713,9.773198127746582,0.031199999153614044,0.011099999770522118,-0.03879999741911888,-0.02899999937514897,0.004999999877891834,-0.18900000547284757
-0.055392250418663025,0.06429868191480637,9.76384162902832,0.02149999886751175,0.007599999662488699,-0.03889999911189079,0.0039999999856897995,0.14099999730693671,0.15800000464576788
-0.06965211778879166,0.07611646503210068,9.772662162780762,-0.002199999988079071,0.00559999980032444,-0.03889999911189079,0.13499999628619785,-0.07399999702553048,0.08100000043976135
-0.05776729807257652,0.0644519105553627,9.763649940490723,0.005499999970197678,-0.003399999812245369,-0.0486999973654747,0.0749999994190225,0.0969999987149939,0.10299999973573276
-0.05776729807257652,0.0644519105553627,9.763649940490723,0.005499999970197678,-0.003399999812245369,-0.0486999973654747,0.0749999994190225,0.0969999987149939,0.10299999973573276
-0.04902367293834686,0.07060021907091141,9.779126167297363,0.00930000003427267,0.002699999837204814,-0.029099998995661736,-0.10600000024610218,-0.06500000216452881,-0.18600000496247812
-0.049722783267498016,0.0764133408665657,9.763765335083008,0.006899999920278788,0.002199999988079071,-0.0486999973654747,-0.02899999937514897,0.1729999938574018,-0.1189999980109653
-0.05872498080134392,0.070265032351017,9.767940521240234,-0.0016999999061226845,0.0015999999595806003,-0.0486999973654747,-0.015999999942759198,-0.14799999405106096,-0.27599999359313454
-0.05642654374241829,0.06970957666635513,9.761428833007812,0.028099998831748962,0.010499999858438969,-0.04859999939799309,-0.10600000024610218,0.14900000311465958,0.057000003026912535
-0.05642654374241829,0.06970957666635513,9.761428833007812,0.028099998831748962,0.010499999858438969,-0.04859999939799309,-0.10600000024610218,0.14900000311465958,0.057000003026912535
-0.059491124004125595,0.0652850940823555,9.761552810668945,0.00839999970048666,-0.00139999995008111,-0.0486999973654747,-0.046999999102312236,0.20800000425844953,-0.007000000079177565
-0.048449065536260605,0.07505343854427338,9.7581148147583,0.014499999582767487,0.006399999838322401,-0.05849999934434891,0.023000000021936765,0.1070000026395942,-0.013000000266153095
-0.05300762504339218,0.07383718341588974,9.75866985321045,0.01119999960064888,0.004699999932199717,-0.05849999934434891,0.0269999995907449,0.20999999570522035,0.0009999999964224499
-0.048688482493162155,0.07693048566579819,9.765892028808594,0.008599999360740185,0.010300000198185444,-0.0486999973654747,-0.08700000146050021,0.11400000605382507,-0.1719999981340164
-0.060295574367046356,0.07422982901334763,9.770727157592773,-0.00039999998989515007,0.0004999999655410647,-0.03889999911189079,0.14499999354069154,0.06299999737754478,0.07699999753589991
-0.05725015327334404,0.06754522025585175,9.762558937072754,0.00699999975040555,0,-0.0486999973654747,0.08400000095013078,0.012000000373951061,0.13000000432905762
-0.05322789400815964,0.07513005286455154,9.773725509643555,0.004999999888241291,-0.00009999999747378752,-0.03889999911189079,0.04900000055424296,0.1199999937343507,0.01700000066872456
-0.05832275375723839,0.06127241253852844,9.764042854309082,-0.0031999999191612005,-0.007499999832361937,-0.0486999973654747,-0.14699999832767557,0.08400000095013078,0.0039999999856897995
-0.05712565407156944,0.08314583450555801,9.766830444335938,0.004999999888241291,0.008999999612569809,-0.0486999973654747,-0.041000001416626686,0.16899999762364695,-0.1319999957758284
-0.06376238167285919,0.06389645487070084,9.762635231018066,-0.004100000020116568,-0.010300000198185444,-0.0486999973654747,-0.08100000043976135,0.21899999723632863,0.057000003026912535
-0.060084883123636246,0.07181647419929504,9.777288436889648,0.014599999412894249,0.0071000000461936,-0.03879999741911888,0.05900000114378995,-0.13300000483942703,-0.15599999985878385
-0.05391742289066315,0.07377971708774567,9.762022018432617,0.01759999990463257,0.004999999888241291,-0.0486999973654747,-0.019999999511567335,0.19900000272734125,-0.1319999957758284
-0.05225105583667755,0.06829220801591873,9.776876449584961,0.03680000081658363,0.012999999336898327,-0.03879999741911888,-0.01400000015835513,0.013000000266153095,-0.017999999727163266
-0.05736507475376129,0.06224924325942993,9.770574569702148,0.025499999523162842,0.002199999988079071,-0.03889999911189079,-0.06500000216452881,0.2140000052791884,0.11699999322398127
-0.05951985716819763,0.07152916491031647,9.759015083312988,0.03229999914765358,0.01809999905526638,-0.04859999939799309,0.22100000202331266,0.14399999781730613,0.1529999993484144
-0.06227797269821167,0.05892609432339668,9.75943660736084,0.04479999840259552,0.01209999993443489,-0.048499997705221176,-0.031999999885518396,0.12100000279794933,0.11500000177721047
-0.05761406943202019,0.060745686292648315,9.767577171325684,0.03309999778866768,0.008899999782443047,-0.04859999939799309,-0.11099999887334903,-0.0269999995907449,0.06800000267489824
-0.06398265063762665,0.08047390729188919,9.775764465332031,0.023000000044703484,0.019899999722838402,-0.03879999741911888,0.10499999785261017,0.1180000022875799,0.1400000015835513
-0.04639962688088417,0.07256346195936203,9.76876449584961,0.030299998819828033,0.0066999997943639755,-0.03889999911189079,0.11099999887334903,-0.0659999978879142,0.03599999945432653
-0.05511452630162239,0.0689721629023552,9.765756607055664,0.015199999324977398,0.004799999762326479,-0.0486999973654747,0.10100000161885533,0.0039999999856897995,0.010999999647985701
-0.04950251430273056,0.06794743984937668,9.763879776000977,0.011299999430775642,0.0031999999191612005,-0.0486999973654747,0.049999999612681666,0.07699999753589991,0.014999999216793838
-0.05316085368394852,0.07384675741195679,9.774433135986328,0.007999999448657036,0.002099999925121665,-0.03889999911189079,0.08700000146050021,0.10299999973573276,-0.014999999216793838
-0.060084883123636246,0.07060021907091141,9.76859188079834,-0.0008999999845400453,0.0011999999405816197,-0.03889999911189079,-0.02600000053230619,-0.05300000012305109,-0.13799999679656727
-0.051168881356716156,0.06639600545167923,9.760375022888184,0.0064999996684491634,-0.013599999248981476,-0.0486999973654747,-0.07600000181251451,0.07799999992939192,-0.07099999651516105
-0.05075707659125328,0.06240247189998627,9.774385452270508,0.01939999870955944,0.001999999862164259,-0.03889999911189079,0.019999999511567335,-0.07300000130214508,-0.0019999999928448997
-0.05549759790301323,0.08047390729188919,9.760173797607422,0.010699999518692493,0.013299999758601189,-0.0486999973654747,0.029999998433587676,0.09999999922536333,0.17700000343136985
-0.05549759790301323,0.08047390729188919,9.760173797607422,0.010699999518692493,0.013299999758601189,-0.0486999973654747,0.029999998433587676,0.09999999922536333,0.17700000343136985
-0.06299623847007751,0.06985322386026382,9.763296127319336,0.0005999999702908099,0.0037999998312443495,-0.0486999973654747,0.09000000197086964,0.029999998433587676,0.021999999295971403
-0.06738241761922836,0.06834966689348221,9.754819869995117,-0.006799999624490738,0.0026000000070780516,-0.05849999934434891,0.16800000190026157,-0.015999999942759198,-0.09999999922536333
-0.04566221684217453,0.07671021670103073,9.748997688293457,0.020999999716877937,0.014099999330937862,-0.06830000132322311,-0.03599999945432653,0.0749999994190225,-0.12700000381868817
-0.05766195431351662,0.06390602886676788,9.776827812194824,0.0016999999061226845,-0.0052999998442828655,-0.03889999911189079,-0.16999999334703236,-0.0030000000934877653,-0.08299999855663877
-0.060630764812231064,0.08190084993839264,9.757539749145508,0.002099999925121665,0.014699999243021011,-0.05849999934434891,0.23199999500119176,0.30100000673968863,0.09000000197086964
-0.05658935010433197,0.06690356880426407,9.758804321289062,0.012600000016391277,-0.0052999998442828655,-0.0486999973654747,-0.07300000130214508,0.07999999804626934,0.17899999487814064
-0.052002061158418655,0.06880936026573181,9.778753280639648,0.012899999506771564,0.003999999724328518,-0.029099998995661736,-0.06399999977103679,-0.01400000015835513,-0.13600000534979648
-0.0624503567814827,0.07831912487745285,9.775190353393555,0.0030999998562037945,0.013899999670684338,-0.03889999911189079,-0.007999999971379599,0.05499999823992851,0.048000001495804245
-0.04739561676979065,0.06674076616764069,9.765814781188965,0.02290000021457672,-0.00559999980032444,-0.0486999973654747,-0.09300000248123906,-0.03599999945432653,-0.012000000373951061
-0.06290046870708466,0.08310753107070923,9.767059326171875,0.0031999999191612005,0.0142000000923872,-0.0486999973654747,0.09999999922536333,0.14600000260429016,-0.05999999686717535
-0.062383320182561874,0.08111555129289627,9.762453079223633,0.003599999938160181,0.013899999670684338,-0.0486999973654747,0.06299999737754478,-0.05499999823992851,-0.12799999954207358
-0.0550953708589077,0.07472781836986542,9.767414093017578,0.013199999928474426,0.0038999998942017555,-0.0486999973654747,0.17100000241063099,0.12100000279794933,0.14300000209392072
-0.06830178946256638,0.0647009015083313,9.758910179138184,-0.006000000052154064,-0.006199999712407589,-0.0486999973654747,-0.035000000395887826,0.04900000055424296,-0.0269999995907449
-0.06357084214687347,0.07025545835494995,9.770622253417969,0.0037999998312443495,0.003599999938160181,-0.03889999911189079,-0.14300000209392072,0.1830000044521087,0.0009999999964224499
-0.050891149789094925,0.06321649998426437,9.756610870361328,0.014099999330937862,-0.005699999630451202,-0.05849999934434891,-0.09800000110848592,0.1189999980109653,0.029999998433587676
-0.05626374110579491,0.06911581754684448,9.768122673034668,0.014399999752640724,0.004299999680370092,-0.0486999973654747,0.1719999981340164,0.02899999937514897,-0.1509999945614304
-0.059797581285238266,0.07053317874670029,9.77889633178711,0.004699999932199717,0.003700000001117587,-0.029099998995661736,0.08899999957737763,0.11099999887334903,-0.049999999612681666
-0.06734410673379898,0.061416059732437134,9.774060249328613,-0.004699999932199717,-0.006199999712407589,-0.03889999911189079,0.046999999102312236,0.07900000232288394,0.013000000266153095
-0.052356403321027756,0.060343459248542786,9.776962280273438,0.014999999664723873,-0.006300000008195639,-0.03889999911189079,0.0009999999964224499,0.046999999102312236,-0.03599999945432653
-0.05232767015695572,0.06248866394162178,9.767845153808594,0.015099999494850636,-0.006300000008195639,-0.0486999973654747,0.08700000146050021,-0.23900000508552924,-0.038000000906257256
-0.06640557944774628,0.06734410673379898,9.765172958374023,0.004699999932199717,0.0030999998562037945,-0.0486999973654747,0.04200000047506539,-0.007000000079177565,0.1390000058601659
-0.05772899091243744,0.07032249122858047,9.763669967651367,0.004600000102072954,0.003000000026077032,-0.0486999973654747,0.0019999999928448997,0.14799999405106096,-0.08299999855663877
-0.05864836648106575,0.07083963602781296,9.755902290344238,0.004999999888241291,0.003000000026077032,-0.05849999934434891,-0.1629999966029081,0.09200000008774706,-0.26500000061525547
-0.06418376415967941,0.06502652168273926,9.757837295532227,0.0052999998442828655,-0.006199999712407589,-0.05849999934434891,0.03699999851276524,0.26500000061525547,0.08400000095013078
-0.04589205980300903,0.0759536549448967,9.761370658874512,0.025499999523162842,0.003499999875202775,-0.0486999973654747,0.015999999942759198,0.14499999354069154,-0.15900000036915327
-0.04589205980300903,0.0759536549448967,9.761370658874512,0.025499999523162842,0.003499999875202775,-0.0486999973654747,0.015999999942759198,0.14499999354069154,-0.15900000036915327
-0.07408617436885834,0.06627149879932404,9.771225929260254,-0.0032999999821186066,-0.006300000008195639,-0.03889999911189079,-0.07300000130214508,0.010999999647985701,-0.09000000197086964
-0.056905388832092285,0.05985504016280174,9.765862464904785,0.016200000420212746,-0.006099999882280827,-0.0486999973654747,-0.06700000028140622,0.2800000031671026,0.19999999845072666
-0.05358223244547844,0.07185478508472443,9.763142585754395,0.017099998891353607,0.0037999998312443495,-0.0486999973654747,0.10499999785261017,0.12599999475508955,0.17899999487814064
-0.06395391374826431,0.06892427802085876,9.768266677856445,0.007699999958276749,0.003599999938160181,-0.0486999973654747,0.019000000453128628,0.03999999902313467,0.14499999354069154
-0.05879201367497444,0.06985322386026382,9.766561508178711,0.007799999788403511,0.003499999875202775,-0.0486999973654747,-0.04200000047506539,0.128999995265459,-0.038000000906257256
-0.05533478781580925,0.07526411861181259,9.762548446655273,-0.001500000013038516,-0.006000000052154064,-0.0486999973654747,-0.038000000906257256,-0.14300000209392072,-0.05600000063342052
-0.05634992942214012,0.0675356462597847,9.765748023986816,0.018199998885393143,0.0037999998312443495,-0.0486999973654747,-0.13400000056281244,0.08100000043976135,0.13700000107318186
-0.054300494492053986,0.08009083569049835,9.770699501037598,0.017799999564886093,0.0038999998942017555,-0.0486999973654747,-0.08400000095013078,0.11099999887334903,0.0030000000934877653
-0.054300494492053986,0.08009083569049835,9.770699501037598,0.017999999225139618,0.0139999995008111,-0.03889999911189079,-0.08400000095013078,0.11099999887334903,0.0030000000934877653
-0.06171294301748276,0.06690356880426407,9.757761001586914,0.008499999530613422,-0.0052999998442828655,-0.05849999934434891,0.03100000082707969,0.18600000496247812,-0.24299998797907083
-0.06342719495296478,0.07141424715518951,9.767251014709473,0.01899999938905239,0.004299999680370092,-0.03889999911189079,-0.0019999999928448997,-0.02800000031671026,0.10100000161885533
-0.06331226974725723,0.06500735878944397,9.776033401489258,0.00989999994635582,0.004299999680370092,-0.0486999973654747,0.06399999977103679,-0.03100000082707969,-0.12199999852133472
-0.05747999623417854,0.06618531048297882,9.7756986618042,0.00969999935477972,-0.00559999980032444,-0.03879999741911888,-0.0859999990670082,0.010999999647985701,0.05099999867112037
-0.06252697110176086,0.0655340850353241,9.762088775634766,0.00969999935477972,-0.0052999998442828655,-0.0486999973654747,-0.008999999863581633,0.13799999679656727,-0.0659999978879142
-0.06240247189998627,0.06537128239870071,9.763334274291992,0.00969999935477972,-0.0052999998442828655,-0.0486999973654747,-0.11599999750059588,0,-0.049999999612681666
-0.061808712780475616,0.08051221817731857,9.757128715515137,0.010199999436736107,0.014399999752640724,-0.05849999934434891,0.1939999974299878,-0.0329999989439571,-0.14499999354069154
-0.05654146522283554,0.06512228399515152,9.765374183654785,0.019899999722838402,-0.00559999980032444,-0.0486999973654747,0.17799999915475526,0.021999999295971403,-0.20299999896109608
-0.055200714617967606,0.07124187052249908,9.764445304870605,0.019700000062584877,0.003599999938160181,-0.04859999939799309,0.1930000017066024,0.08200000283325337,-0.008999999863581633
-0.055200714617967606,0.07124187052249908,9.764445304870605,0.019700000062584877,0.003599999938160181,-0.04859999939799309,0.1930000017066024,0.08200000283325337,-0.008999999863581633
-0.059443242847919464,0.07056191563606262,9.776350021362305,0.010300000198185444,0.0030999998562037945,-0.03879999741911888,-0.10100000161885533,0.07099999651516105,0.06099999926066736
-0.05976885184645653,0.06483498215675354,9.76931095123291,0.010300000198185444,0.0030999998562037945,-0.03879999741911888,-0.01400000015835513,0.0009999999964224499,0.25299999857377775
-0.0584089420735836,0.07609730213880539,9.760470390319824,0.010499999858438969,0.003399999812245369,-0.04859999939799309,0.013000000266153095,0.08499999667351618,0.38300000290283537
-0.06227797269821167,0.07505343854427338,9.771541595458984,0.010799999348819256,0.003399999812245369,-0.03879999741911888,0.06700000028140622,0.17599999436777122,0.012000000373951061
-0.07562804222106934,0.06948930770158768,9.761783599853516,0.010799999348819256,0.003399999812245369,-0.03879999741911888,0.04200000047506539,0.09099999769425504,-0.029999998433587676
-0.04774995893239975,0.073473259806633,9.766830444335938,0.031199999153614044,0.0030999998562037945,-0.04859999939799309,0.07300000130214508,0.12599999475508955,0.2810000122307012
-0.05551674962043762,0.07207505404949188,9.769761085510254,0.021800000220537186,0.002899999963119626,-0.03879999741911888,-0.08100000043976135,0.0039999999856897995,-0.08400000095013078
-0.04225287213921547,0.07101202756166458,9.772566795349121,0.031599998474121094,0.003000000026077032,-0.03879999741911888,0.06700000028140622,0.31600000929153577,-0.09600000299160849
-0.06213432177901268,0.07575254142284393,9.761993408203125,0.012899999506771564,0.002899999963119626,-0.04859999939799309,0.01400000015835513,0.23099998593759313,0.18400000017549412
-0.05540182814002037,0.06921158730983734,9.747015953063965,0.023499999195337296,0.00279999990016222,-0.0681999996304512,-0.024000000747902123,0.2899999870813831,0.07999999804626934
-0.056388236582279205,0.07089710235595703,9.76228141784668,0.02419999986886978,0.002899999963119626,-0.04859999939799309,0.2570000081477458,0.048000001495804245,-0.1079999983629796
-0.0495312474668026,0.07514920085668564,9.752828598022461,0.024399999529123306,0.002099999925121665,-0.058399997651576996,0.1180000022875799,0.11200000126684104,0.27899999410350396
-0.051982905715703964,0.06012319028377533,9.77356243133545,0.024699999019503593,-0.007799999788403511,-0.03879999741911888,0.06800000267489824,0.12499999903170415,0.014999999216793838
-0.04641878232359886,0.07397124916315079,9.76122760772705,0.03480000048875809,0.0016999999061226845,-0.04859999939799309,-0.18099999966512467,0.06200000165415938,-0.20299999896109608
-0.06518932431936264,0.07221869379281998,9.766724586486816,0.01549999974668026,0.002300000051036477,-0.04859999939799309,0,0.043999998591942806,-0.17100000241063099
-0.05658935010433197,0.07848193496465683,9.750760078430176,0.02539999969303608,0.01209999993443489,-0.058399997651576996,-0.03100000082707969,-0.01400000015835513,0.1419999930303221
-0.06236416473984718,0.0636378824710846,9.761907577514648,0.01549999974668026,-0.0072999997064471245,-0.04859999939799309,-0.31600000929153577,-0.1729999938574018,-0.13700000107318186
-0.06618531048297882,0.07432559877634048,9.771637916564941,0.015099999494850636,0.0031999999191612005,-0.03879999741911888,-0.10999999647985702,0.004999999877891834,-0.23099998593759313
-0.056838348507881165,0.07037995010614395,9.775171279907227,0.02499999850988388,0.003499999875202775,-0.03879999741911888,0.1189999980109653,0.0030000000934877653,-0.07699999753589991
-0.055746592581272125,0.06540001928806305,9.761476516723633,0.02499999850988388,-0.006599999964237213,-0.04859999939799309,-0.05999999686717535,0.09300000248123906,0.031999999885518396
-0.06189490109682083,0.0752258151769638,9.75953197479248,0.015399999916553497,0.0031999999191612005,-0.04859999939799309,0.0269999995907449,0.2150000010025738,-0.14799999405106096
-0.050843264907598495,0.07187393307685852,9.761189460754395,0.02589999884366989,0.0030999998562037945,-0.04859999939799309,-0.05600000063342052,0.05499999823992851,-0.04500000098543482
-0.048190489411354065,0.07484274357557297,9.767786979675293,0.026200000196695328,0.0030999998562037945,-0.04859999939799309,0.1939999974299878,0.12400000330831876,0.03100000082707969
-0.03959051892161369,0.06692273169755936,9.770373344421387,0.0364999994635582,-0.007199999876320362,-0.03879999741911888,-0.019999999511567335,0.09600000299160849,0.13600000534979648
-0.05616797134280205,0.07140467315912247,9.76445484161377,0.026799999177455902,0.0024999999441206455,-0.04859999939799309,-0.015999999942759198,0.17799999915475526,-0.12700000381868817
-0.06336972862482071,0.0709928646683693,9.769645690917969,0.027400000020861626,0.0026000000070780516,-0.04859999939799309,0.02899999937514897,0.1830000044521087,0.08200000283325337
-0.057642798870801926,0.062431201338768005,9.752110481262207,0.01769999973475933,-0.007599999662488699,-0.058399997651576996,0.029999998433587676,0.31800000073830653,0.22100000202331266
-0.057642798870801926,0.062431201338768005,9.752110481262207,0.01769999973475933,-0.007599999662488699,-0.058399997651576996,0.029999998433587676,0.31800000073830653,0.22100000202331266
-0.06467217206954956,0.06673119217157364,9.763459205627441,0.019099999219179153,-0.007699999958276749,-0.04859999939799309,-0.021000000237532696,0.15900000036915327,-0.05900000114378995
-0.06467217206954956,0.06673119217157364,9.763459205627441,0.019099999219179153,-0.007699999958276749,-0.04859999939799309,-0.021000000237532696,0.15900000036915327,-0.05900000114378995
-0.05464525893330574,0.07624095678329468,9.766992568969727,0.02929999865591526,0.001999999862164259,-0.04859999939799309,-0.10199999734224074,-0.02899999937514897,-0.05499999823992851
-0.07112694531679153,0.0726400837302208,9.757951736450195,0.009599999524652958,0.002300000051036477,-0.058399997651576996,-0.09600000299160849,0.12100000279794933,0.1939999974299878
-0.055765748023986816,0.06875190138816833,9.764847755432129,0.029600000008940697,0.0024999999441206455,-0.04859999939799309,-0.13400000056281244,0.15900000036915327,-0.08100000043976135
-0.05152321979403496,0.07204631716012955,9.75574016571045,0.03009999915957451,0.003000000026077032,-0.058399997651576996,0.05900000114378995,0.1180000022875799,0.0269999995907449
-0.053735461086034775,0.05642654374241829,9.763219833374023,0.020600000396370888,-0.006899999920278788,-0.058399997651576996,-0.03999999902313467,0.007000000079177565,0.12199999852133472
-0.050038814544677734,0.07705498486757278,9.767786979675293,0.029899999499320984,0.01269999984651804,-0.04859999939799309,-0.10400000212922476,0.15599999985878385,-0.07099999651516105
-0.05658935010433197,0.07040868699550629,9.77743148803711,0.030299998819828033,0.0031999999191612005,-0.03879999741911888,-0.1180000022875799,0.20800000425844953,-0.0009999999964224499
-0.05658935010433197,0.07040868699550629,9.77743148803711,0.030299998819828033,0.0031999999191612005,-0.03879999741911888,-0.1180000022875799,0.20800000425844953,-0.0009999999964224499
-0.051082685589790344,0.0632643848657608,9.765900611877441,0.031099999323487282,-0.006099999882280827,-0.04859999939799309,0.05900000114378995,-0.014999999216793838,-0.04900000055424296
-0.05483679473400116,0.0680144801735878,9.75490665435791,0.031099999323487282,-0.006099999882280827,-0.04859999939799309,0.1189999980109653,0.12199999852133472,-0.0019999999928448997
-0.06737283617258072,0.06080314517021179,9.768017768859863,0.011699999682605267,-0.0064999996684491634,-0.04859999939799309,0.017999999727163266,0.2379999960219306,-0.03899999996469596
-0.06263231486082077,0.08242757618427277,9.764713287353516,0.022199999541044235,0.012899999506771564,-0.04859999939799309,-0.09000000197086964,-0.06399999977103679,-0.11400000605382507
-0.05279693752527237,0.06706637889146805,9.763879776000977,0.022199999541044235,0.012899999506771564,-0.04859999939799309,-0.05600000063342052,0.02800000031671026,-0.023000000021936765
-0.06356126815080643,0.07752425223588943,9.767672538757324,0.02199999988079071,0.013399999588727951,-0.04859999939799309,-0.01400000015835513,0.048000001495804245,-0.08400000095013078
-0.054827217012643814,0.06627149879932404,9.761150360107422,0.03219999745488167,-0.006300000008195639,-0.04859999939799309,-0.004999999877891834,0.05099999867112037,0.021999999295971403
-0.06116706505417824,0.07523539662361145,9.766342163085938,0.02239999920129776,0.003399999812245369,-0.04859999939799309,0.12100000279794933,0.14600000260429016,0.0019999999928448997
-0.05431964993476868,0.062028978019952774,9.770755767822266,0.03269999846816063,-0.0066999997943639755,-0.03879999741911888,0.0269999995907449,0.05999999686717535,-0.006000000186975531
-0.05642654374241829,0.06848374009132385,9.758986473083496,0.03269999846816063,0.003000000026077032,-0.04859999939799309,0.029999998433587676,0.07600000181251451,0.09600000299160849
-0.053687579929828644,0.06194278597831726,9.76749038696289,0.032899998128414154,-0.006799999624490738,-0.04859999939799309,0.010999999647985701,0.06899999839828364,0.041000001416626686
-0.0537833496928215,0.0729944258928299,9.763784408569336,0.032999999821186066,0.002899999963119626,-0.04859999939799309,0.09200000008774706,0.16800000190026157,0.12100000279794933
-0.0579492561519146,0.05815994739532471,9.76673412322998,0.023599999025464058,-0.0071000000461936,-0.04859999939799309,-0.04200000047506539,0.05600000063342052,0.07900000232288394
-0.06454767286777496,0.06727706640958786,9.751832962036133,0.023399999365210533,0.002699999837204814,-0.058399997651576996,0.13000000432905762,-0.07300000130214508,-0.06399999977103679
-0.06387729942798615,0.06958507746458054,9.76707935333252,0.02290000021457672,0.0023999998811632395,-0.04859999939799309,-0.11099999887334903,0.12799999954207358,0.08400000095013078
-0.054731450974941254,0.06900089234113693,9.766322135925293,0.032600000500679016,0.002699999837204814,-0.04859999939799309,-0.04200000047506539,0.1419999930303221,-0.10400000212922476
-0.0453844889998436,0.0825808048248291,9.759111404418945,0.041999999433755875,0.012399999424815178,-0.04859999939799309,0.13300000483942703,0.06500000216452881,0.03999999902313467
-0.0571160763502121,0.06254612654447556,9.755941390991211,0.03189999982714653,-0.007400000002235174,-0.058399997651576996,-0.16400000566650674,0.09000000197086964,-0.07999999804626934
-0.054827217012643814,0.06653965264558792,9.774711608886719,0.031099999323487282,-0.006599999964237213,-0.03879999741911888,0.049999999612681666,0.06099999926066736,0.12799999954207358
-0.0662236139178276,0.0720558911561966,9.777776718139648,0.0210999995470047,0.002899999963119626,-0.03879999741911888,0.03999999902313467,0.015999999942759198,0.1180000022875799
-0.05229894071817398,0.06602250784635544,9.753067970275879,0.030499998480081558,-0.006799999624490738,-0.058399997651576996,-0.017999999727163266,0.18900000547284757,0.0859999990670082
-0.06115749105811119,0.06878062337636948,9.757865905761719,0.020899999886751175,0.002899999963119626,-0.058399997651576996,0.10299999973573276,0.04500000098543482,-0.07099999651516105
-0.057547032833099365,0.07232404500246048,9.760834693908691,0.02070000022649765,0.0024999999441206455,-0.04859999939799309,0.10400000212922476,0.21299999621558977,-0.08299999855663877
-0.0533236600458622,0.07220911979675293,9.763506889343262,0.031099999323487282,0.002300000051036477,-0.04859999939799309,-0.006000000186975531,0.11500000177721047,0.06399999977103679
-0.05882074683904648,0.07328172028064728,9.77055549621582,0.02149999886751175,0.002300000051036477,-0.03879999741911888,-0.06500000216452881,0.06899999839828364,-0.09200000008774706
-0.06020938605070114,0.060467954725027084,9.770373344421387,0.021699998527765274,-0.0072999997064471245,-0.03879999741911888,0.0749999994190225,0.08200000283325337,0.024000000747902123
-0.051360417157411575,0.06890513002872467,9.764876365661621,0.031599998474121094,0.002199999988079071,-0.04859999939799309,0.014999999216793838,-0.04600000004387353,0.07199999890865307
-0.05882074683904648,0.061483100056648254,9.775266647338867,0.02159999869763851,-0.007499999832361937,-0.03879999741911888,-0.007000000079177565,0.2039999946844815,0.09099999769425504
-0.058332327753305435,0.06919243186712265,9.769970893859863,0.02199999988079071,0.002199999988079071,-0.03879999741911888,0.1629999966029081,0.20800000425844953,-0.07799999992939192
-0.06230670586228371,0.0614926740527153,9.760480880737305,0.022699998691678047,-0.007999999448657036,-0.04859999939799309,0.05799999875029794,0.21899999723632863,0.19000000119623298
-0.059155937284231186,0.06562986224889755,9.762798309326172,0.02319999970495701,0.0015999999595806003,-0.048499997705221176,-0.12499999903170415,0.0329999989439571,-0.23399998644796255
-0.059155937284231186,0.06562986224889755,9.762798309326172,0.023799998685717583,-0.007699999958276749,-0.048499997705221176,-0.12499999903170415,0.0329999989439571,-0.23399998644796255
-0.0668078064918518,0.06510313600301743,9.76979923248291,0.024000000208616257,-0.007199999876320362,-0.03869999945163727,0.02899999937514897,0.019999999511567335,0.11400000605382507
-0.0668078064918518,0.06510313600301743,9.76979923248291,0.024000000208616257,-0.007199999876320362,-0.03869999945163727,0.02899999937514897,0.019999999511567335,0.11400000605382507
-0.07225700467824936,0.05472187325358391,9.763248443603516,0.024000000208616257,0.0024999999441206455,-0.02889999933540821,0.10100000161885533,0.2499999980634083,0.03599999945432653
-0.07225700467824936,0.05472187325358391,9.763248443603516,0.014800000004470348,-0.017500000074505806,-0.048499997705221176,0.10100000161885533,0.2499999980634083,0.03599999945432653
-0.05834190919995308,0.059232551604509354,9.774873733520508,0.025499999523162842,-0.007999999448657036,-0.03869999945163727,-0.05999999686717535,0.07199999890865307,0.019999999511567335
-0.06381026655435562,0.06942227482795715,9.761917114257812,0.02579999901354313,0.0016999999061226845,-0.048499997705221176,-0.0269999995907449,0.18600000496247812,0.12299999424472013
-0.05753745511174202,0.07717949151992798,9.763717651367188,0.02579999901354313,0.0016999999061226845,-0.048499997705221176,0.12400000330831876,0.10900000075647161,-0.019000000453128628
-0.057096924632787704,0.07139509916305542,9.770306587219238,0.03629999980330467,0.001500000013038516,-0.03869999945163727,-0.015999999942759198,-0.05900000114378995,-0.16800000190026157
-0.05109226703643799,0.07389463484287262,9.75778865814209,0.035999998450279236,0.001500000013038516,-0.05829999968409538,-0.012000000373951061,0.11099999887334903,-0.02600000053230619
-0.05792052671313286,0.07066725939512253,9.758613586425781,0.035999998450279236,0.001500000013038516,-0.05829999968409538,0.05200000106461238,0.08899999957737763,-0.08299999855663877
-0.06332184374332428,0.07242938876152039,9.765440940856934,0.02669999934732914,0.001500000013038516,-0.048499997705221176,-0.0539999991814898,0.0329999989439571,0.010999999647985701
-0.05543055757880211,0.06703764945268631,9.779739379882812,0.0364999994635582,0.0015999999595806003,-0.02889999933540821,0.04900000055424296,-0.019000000453128628,0.02899999937514897
-0.05597643554210663,0.05718311294913292,9.755434036254883,0.026499999687075615,0.001500000013038516,-0.048499997705221176,0.09800000110848592,-0.04900000055424296,0.02800000031671026
-0.051954176276922226,0.07567592710256577,9.760403633117676,0.03539999946951866,0.0008999999845400453,-0.048499997705221176,-0.10199999734224074,0.007999999971379599,-0.1189999980109653
-0.07215166836977005,0.07697837054729462,9.77060317993164,0.01549999974668026,0.010699999518692493,-0.03869999945163727,-0.04200000047506539,0.1079999983629796,0.009999999755783667
-0.05464525893330574,0.057575762271881104,9.756630897521973,0.0348999984562397,-0.008499999530613422,-0.05829999968409538,0.07900000232288394,0.11599999750059588,-0.09099999769425504
-0.06950846314430237,0.06815813481807709,9.76321029663086,0.015199999324977398,0.0008999999845400453,-0.048499997705221176,0,0.23699998695833197,-0.04200000047506539
-0.055765748023986816,0.0758291557431221,9.761505126953125,0.035599999129772186,0.0009999999310821295,-0.048499997705221176,-0.07799999992939192,0.009999999755783667,0.1390000058601659
-0.06714299321174622,0.06344634294509888,9.773064613342285,0.01589999906718731,-0.008499999530613422,-0.03869999945163727,-0.0269999995907449,0.16899999762364695,0.15900000036915327
-0.05176264047622681,0.06830178946256638,9.76456069946289,0.035999998450279236,0.0013000000035390258,-0.048499997705221176,-0.07099999651516105,0.008999999863581633,0.0539999991814898
-0.06353253871202469,0.07100244611501694,9.756975173950195,0.026099998503923416,0.001500000013038516,-0.05829999968409538,0.007000000079177565,0.07099999651516105,0.05799999875029794
-0.04884171113371849,0.07506301254034042,9.773130416870117,0.0364999994635582,0.0013000000035390258,-0.03869999945163727,-0.10999999647985702,-0.0039999999856897995,0.10999999647985702
-0.04884171113371849,0.07506301254034042,9.773130416870117,0.0364999994635582,0.0013000000035390258,-0.03869999945163727,-0.10999999647985702,-0.0039999999856897995,0.10999999647985702
-0.046763546764850616,0.06777506321668625,9.755414009094238,0.04619999974966049,0.0016999999061226845,-0.05829999968409538,-0.06899999839828364,0.046999999102312236,0.11299999699022645
-0.06356126815080643,0.06939353793859482,9.761543273925781,0.026599999517202377,0.0018999999156221747,-0.048499997705221176,-0.06299999737754478,-0.02899999937514897,0.010999999647985701
-0.05472187325358391,0.07814674079418182,9.77371597290039,0.03629999980330467,0.011799999512732029,-0.03869999945163727,-0.15699999558216926,-0.05499999823992851,0.05799999875029794
-0.05707776919007301,0.078683041036129,9.748777389526367,0.03610000014305115,0.012199999764561653,-0.06809999793767929,0.19699999794035722,0.13400000056281244,0.031999999885518396
-0.05291185900568962,0.07108864188194275,9.755481719970703,0.0364999994635582,0.0017999999690800905,-0.05829999968409538,-0.09200000008774706,0.03400000133744912,-0.11200000126684104
-0.0571160763502121,0.06502652168273926,9.759407997131348,0.0364999994635582,-0.007499999832361937,-0.048499997705221176,0.05499999823992851,0.023000000021936765,-0.08100000043976135
-0.05196375399827957,0.07955453544855118,9.759215354919434,0.0364999994635582,0.011799999512732029,-0.048499997705221176,0.17100000241063099,0.08700000146050021,-0.1180000022875799
-0.05943366140127182,0.06928820163011551,9.75965690612793,0.026899999007582664,0.001500000013038516,-0.048499997705221176,0.1529999993484144,0.18799999640924894,0.14099999730693671
-0.054750602692365646,0.07078217715024948,9.759493827819824,0.03709999844431877,0.0010999999940395355,-0.048499997705221176,0.01700000066872456,0.128999995265459,-0.19200000598321698
-0.05748957023024559,0.07152916491031647,9.781012535095215,0.027699999511241913,0.0010999999940395355,-0.02889999933540821,0.06299999737754478,0.12199999852133472,-0.017999999727163266
-0.06564901024103165,0.07422025501728058,9.77464485168457,0.028099998831748962,0.0008999999845400453,-0.03869999945163727,0.06700000028140622,0.15800000464576788,0.04500000098543482
-0.0561583936214447,0.07323384284973145,9.762931823730469,0.038100000470876694,0.000699999975040555,-0.048499997705221176,-0.021000000237532696,-0.057000003026912535,0.06500000216452881
-0.055344369262456894,0.062191784381866455,9.772642135620117,0.03779999911785126,-0.008899999782443047,-0.03869999945163727,0.08899999957737763,0.1830000044521087,0.08299999855663877
-0.07033207267522812,0.06825389713048935,9.754552841186523,0.01860000006854534,0.0005999999702908099,-0.05829999968409538,-0.013000000266153095,0.1800000039417393,0.06299999737754478
-0.05540182814002037,0.06767929345369339,9.765766143798828,0.038599997758865356,0.0005999999702908099,-0.048499997705221176,-0.031999999885518396,-0.015999999942759198,-0.08899999957737763
-0.052356403321027756,0.06019023060798645,9.776578903198242,0.03849999979138374,-0.008899999782443047,-0.05829999968409538,0.1629999966029081,0.2549999900205486,-0.049999999612681666
-0.05586151406168938,0.058686673641204834,9.77197265625,0.03849999979138374,-0.009099999442696571,-0.03869999945163727,-0.20599999947146552,0.2499999980634083,-0.17700000343136985
-0.04955039918422699,0.07289864867925644,9.76313304901123,0.03999999910593033,0.0005999999702908099,-0.048499997705221176,0.2069999951948509,0.07300000130214508,0.19699999794035722
-0.058332327753305435,0.06851247698068619,9.77090072631836,0.030399998649954796,0,-0.03869999945163727,-0.019000000453128628,0.08299999855663877,0.11699999322398127
-0.05172433331608772,0.07904696464538574,9.758469581604004,0.030399998649954796,0,-0.03869999945163727,0.09600000299160849,0.012000000373951061,-0.07600000181251451
-0.056905388832092285,0.06673119217157364,9.767892837524414,0.040300000458955765,-0.009800000116229057,-0.048499997705221176,0.02600000053230619,0.3190000098019052,-0.0539999991814898
-0.06519889831542969,0.07221869379281998,9.764388084411621,0.03150000050663948,-0.00009999999747378752,-0.048499997705221176,-0.13700000107318186,0.0009999999964224499,0.18700000068586353
-0.06936481595039368,0.06495948135852814,9.764388084411621,0.021699998527765274,-0.009499999694526196,-0.048499997705221176,0.07999999804626934,0.21800000151294321,-0.029999998433587676
-0.0627855435013771,0.0638677254319191,9.765277862548828,0.03199999779462814,-0.00969999935477972,-0.048499997705221176,0.07900000232288394,0.12199999852133472,0.007000000079177565
-0.06856993585824966,0.06789956241846085,9.761658668518066,0.022599998861551285,-0.00019999999494757503,-0.048499997705221176,-0.1199999937343507,-0.05499999823992851,-0.10100000161885533
-0.05630204826593399,0.06346549838781357,9.761926651000977,0.041999999433755875,-0.00969999935477972,-0.048499997705221176,0.16999999334703236,0.07600000181251451,-0.04500000098543482
-0.06740156561136246,0.07924807816743851,9.76646614074707,0.022499999031424522,0.00930000003427267,-0.048499997705221176,0.08899999957737763,0.15599999985878385,-0.0429999995335041
-0.06482540816068649,0.06839755177497864,9.775017738342285,0.032499998807907104,-0.0007999999797903001,-0.03869999945163727,0.25100000712700693,-0.023000000021936765,0.23699998695833197
-0.06482540816068649,0.06839755177497864,9.775017738342285,0.032499998807907104,-0.0007999999797903001,-0.03869999945163727,0.25100000712700693,-0.023000000021936765,0.23699998695833197
-0.05445372313261032,0.06667372584342957,9.765106201171875,0.0421999990940094,-0.011500000022351742,-0.048499997705221176,0.11200000126684104,0.2469999975530389,0.24899998899980968
-0.05874413251876831,0.06211517006158829,9.768831253051758,0.032999999821186066,-0.011899999342858791,-0.038599997758865356,0.16599999711327754,-0.01700000066872456,-0.007999999971379599
-0.061885327100753784,0.05556463077664375,9.768160820007324,0.032899998128414154,-0.022099999710917473,-0.04839999973773956,0.006000000186975531,-0.006000000186975531,-0.07900000232288394
-0.06764098256826401,0.07058106362819672,9.769444465637207,0.023000000044703484,-0.0023999998811632395,-0.038599997758865356,0.08499999667351618,-0.06200000165415938,-0.13499999628619785
-0.06764098256826401,0.07058106362819672,9.769444465637207,0.023000000044703484,-0.0023999998811632395,-0.038599997758865356,0.08499999667351618,-0.06200000165415938,-0.13499999628619785
-0.05286397039890289,0.0684741660952568,9.753365516662598,0.0421999990940094,-0.002699999837204814,-0.05829999968409538,-0.18700000068586353,-0.07300000130214508,-0.13100000005244303
-0.06155971437692642,0.054041918367147446,9.76489543914795,0.03219999745488167,-0.021699998527765274,-0.048499997705221176,0.09000000197086964,0.03100000082707969,0.15599999985878385
-0.06678865104913712,0.07739975303411484,9.753843307495117,0.03219999745488167,0.0072999997064471245,-0.05829999968409538,0.004999999877891834,0.1390000058601659,0.28699998657101367
-0.06889554858207703,0.05727888271212578,9.755461692810059,0.02279999852180481,-0.02199999988079071,-0.05829999968409538,0.08700000146050021,-0.06800000267489824,-0.0429999995335041
-0.05371630936861038,0.07391379773616791,9.771446228027344,0.041999999433755875,-0.002699999837204814,-0.038599997758865356,0.18700000068586353,-0.006000000186975531,0.019999999511567335
-0.06179913505911827,0.068263478577137,9.753776550292969,0.032099999487400055,-0.0030999998562037945,-0.05829999968409538,-0.19900000272734125,0.17799999915475526,0.21100000476881897
-0.0574704185128212,0.07354030013084412,9.770468711853027,0.03269999846816063,-0.0024999999441206455,-0.038599997758865356,0.10600000024610218,-0.07000000079177565,0.02899999937514897
-0.05234682559967041,0.07469909638166428,9.758325576782227,0.0421999990940094,-0.002699999837204814,-0.05829999968409538,0.10299999973573276,0.2959999881021219,-0.12299999424472013
-0.054798487573862076,0.06307285279035568,9.771072387695312,0.0429999977350235,-0.012799999676644802,-0.038599997758865356,0.021000000237532696,-0.13499999628619785,0.07900000232288394
-0.056053049862384796,0.06275681406259537,9.775296211242676,0.042399998754262924,-0.012799999676644802,-0.038599997758865356,-0.17400000292100043,0.14300000209392072,-0.1719999981340164
-0.061224523931741714,0.06449022144079208,9.7464599609375,0.042399998754262924,-0.012799999676644802,-0.038599997758865356,-0.17400000292100043,0.14300000209392072,-0.1719999981340164
-0.04672523960471153,0.06298665702342987,9.758258819580078,0.052400000393390656,-0.012399999424815178,-0.05829999968409538,-0.012000000373951061,0.06700000028140622,-0.07199999890865307
-0.0550953708589077,0.06957550346851349,9.75731086730957,0.04270000010728836,-0.0024999999441206455,-0.05829999968409538,-0.07399999702553048,0.11699999322398127,-0.014999999216793838
-0.04388092830777168,0.06424121558666229,9.765862464904785,0.05269999802112579,-0.01209999993443489,-0.04839999973773956,-0.26600000967885407,-0.019999999511567335,-0.06099999926066736
-0.06403053551912308,0.07183562219142914,9.771560668945312,0.042799998074769974,-0.00139999995008111,-0.048499997705221176,0.10299999973573276,-0.05300000012305109,-0.015999999942759198
-0.06403053551912308,0.07183562219142914,9.771560668945312,0.032999999821186066,-0.0011999999405816197,-0.038599997758865356,0.10299999973573276,-0.05300000012305109,-0.015999999942759198
-0.055181559175252914,0.06473921239376068,9.755250930786133,0.042899999767541885,-0.010799999348819256,-0.05829999968409538,-0.05999999686717535,0.04900000055424296,0.019000000453128628
-0.055181559175252914,0.06473921239376068,9.755250930786133,0.042899999767541885,-0.010799999348819256,-0.05829999968409538,-0.05999999686717535,0.04900000055424296,0.019000000453128628
-0.06107129529118538,0.06618531048297882,9.766264915466309,0.03309999778866768,-0.010599999688565731,-0.048499997705221176,-0.057000003026912535,0.1419999930303221,-0.02600000053230619
-0.07266880571842194,0.06600335240364075,9.762961387634277,0.02369999885559082,-0.010400000028312206,-0.048499997705221176,-0.02899999937514897,0.10999999647985702,0.02600000053230619
-0.06254612654447556,0.07621222734451294,9.764589309692383,0.033900000154972076,-0.0004999999655410647,-0.048499997705221176,0.015999999942759198,-0.019000000453128628,0.15500000413539844
-0.06254612654447556,0.07621222734451294,9.764589309692383,0.033900000154972076,-0.0004999999655410647,-0.048499997705221176,0.015999999942759198,-0.019000000453128628,0.15500000413539844
-0.04918648302555084,0.068263478577137,9.769625663757324,0.044099997729063034,-0.0011999999405816197,-0.038599997758865356,0.07900000232288394,0.13499999628619785,-0.007999999971379599
-0.04918648302555084,0.068263478577137,9.769625663757324,0.044099997729063034,-0.0011999999405816197,-0.038599997758865356,0.07900000232288394,0.13499999628619785,-0.007999999971379599
-0.06846459209918976,0.07054275274276733,9.765661239624023,0.025100000202655792,-0.00139999995008111,-0.04839999973773956,0.09800000110848592,0.13499999628619785,0.06399999977103679
-0.05310339480638504,0.07144297659397125,9.762760162353516,0.025100000202655792,-0.00139999995008111,-0.04839999973773956,-0.07000000079177565,0.1180000022875799,0.008999999863581633
-0.031909920275211334,0.06310158222913742,9.761112213134766,0.06469999998807907,-0.011299999430775642,-0.04839999973773956,-0.19999999845072666,0.257999990530918,0.1180000022875799
-0.055698707699775696,0.08041644841432571,9.76771068572998,0.04580000042915344,0.008799999952316284,-0.04839999973773956,-0.16400000566650674,0.16500000138989213,-0.07399999702553048
-0.05707776919007301,0.077016681432724,9.761811256408691,0.04580000042915344,0.008799999952316284,-0.04839999973773956,0.03699999851276524,0.15500000413539844,0
-0.05761406943202019,0.06754522025585175,9.757750511169434,0.03680000081658363,-0.0004999999655410647,-0.05819999799132347,0.1830000044521087,0.007000000079177565,0.09500000059811649
-0.06378152966499329,0.07603985071182251,9.776617050170898,0.03669999912381172,-0.0009999999310821295,-0.038599997758865356,0.05600000063342052,0.03100000082707969,0.006000000186975531
-0.05668511986732483,0.07631757110357285,9.759819030761719,0.04639999940991402,-0.0011999999405816197,-0.04839999973773956,0.11699999322398127,0.19699999794035722,0.128999995265459
-0.05756618455052376,0.07151001691818237,9.776521682739258,0.03709999844431877,-0.001500000013038516,-0.038599997758865356,-0.02600000053230619,-0.024999999806340833,-0.06399999977103679
-0.04839160665869713,0.07364564388990402,9.766800880432129,0.046699997037649155,-0.00139999995008111,-0.04839999973773956,-0.03100000082707969,0.20899999998183494,0.024000000747902123
-0.06976703554391861,0.06721002608537674,9.758536338806152,0.027400000020861626,-0.0013000000035390258,-0.05819999799132347,-0.06500000216452881,0.14099999730693671,-0.004999999877891834
-0.05705861747264862,0.06999687850475311,9.765623092651367,0.04729999974370003,-0.0010999999940395355,-0.04839999973773956,0.012000000373951061,0.03400000133744912,-0.2069999951948509
-0.05641696974635124,0.06369534134864807,9.76396656036377,0.047199998050928116,-0.010900000110268593,-0.04839999973773956,-0.14600000260429016,-0.07000000079177565,-0.049999999612681666
-0.05227978900074959,0.06205770745873451,9.761514663696289,0.04690000042319298,-0.010499999858438969,-0.04839999973773956,-0.1079999983629796,0.0030000000934877653,0.16800000190026157
-0.05811206251382828,0.06463386863470078,9.756190299987793,0.03700000047683716,-0.010099999606609344,-0.05819999799132347,0.023000000021936765,0.18600000496247812,-0.057000003026912535
-0.059155937284231186,0.07307104021310806,9.76663875579834,0.03720000013709068,-0.00029999998514540493,-0.04839999973773956,0.08299999855663877,-0.13100000005244303,0.0009999999964224499
-0.05906016752123833,0.06523720920085907,9.772939682006836,0.03669999912381172,-0.010400000028312206,-0.038599997758865356,0.11599999750059588,0.3059999986968288,-0.0009999999964224499
-0.059395354241132736,0.06738241761922836,9.767289161682129,0.03739999979734421,-0.0007999999797903001,-0.04839999973773956,-0.05999999686717535,0.09300000248123906,-0.004999999877891834
-0.06380068510770798,0.07006391882896423,9.761408805847168,0.03759999945759773,-0.000699999975040555,-0.04839999973773956,0.13400000056281244,0.08200000283325337,0.11299999699022645
-0.053400274366140366,0.06837840378284454,9.776712417602539,0.04739999771118164,-0.0010999999940395355,-0.038599997758865356,0.10199999734224074,0.19000000119623298,0.03999999902313467
-0.06382941454648972,0.0649307444691658,9.769674301147461,0.03790000081062317,-0.011099999770522118,-0.038599997758865356,0.021000000237532696,-0.15399999507179982,0.12299999424472013
-0.060276418924331665,0.07854897528886795,9.755356788635254,0.037299998104572296,0.008299999870359898,-0.05819999799132347,0.19200000598321698,0.15800000464576788,0.08299999855663877
-0.05002924054861069,0.07556100189685822,9.758238792419434,0.04749999940395355,-0.0018999999156221747,-0.05819999799132347,0.06099999926066736,0.10400000212922476,0.11599999750059588
-0.054396264255046844,0.06865613162517548,9.752445220947266,0.047599997371435165,-0.001999999862164259,-0.05819999799132347,-0.14799999405106096,0.08499999667351618,-0.1390000058601659
-0.06533297896385193,0.06164590269327164,9.76269245147705,0.03799999877810478,-0.011299999430775642,-0.04839999973773956,-0.023000000021936765,0.18799999640924894,0.08200000283325337
-0.04199429601430893,0.06952761858701706,9.755672454833984,0.05779999867081642,-0.00139999995008111,-0.05819999799132347,0.14699999832767557,0.01400000015835513,-0.0269999995907449
-0.06698976457118988,0.07560888677835464,9.770143508911133,0.038100000470876694,-0.0018999999156221747,-0.038599997758865356,0.0329999989439571,0.1400000015835513,0.09600000299160849
-0.05815994739532471,0.06265147030353546,9.761658668518066,0.038100000470876694,-0.011899999342858791,-0.04839999973773956,0.12599999475508955,-0.12799999954207358,-0.06099999926066736
-0.05815994739532471,0.06265147030353546,9.761658668518066,0.038100000470876694,-0.011899999342858791,-0.04839999973773956,0.12599999475508955,-0.12799999954207358,-0.06099999926066736
-0.05983588844537735,0.07080133259296417,9.775266647338867,0.03749999776482582,0.007199999876320362,-0.04839999973773956,0.149999998838045,-0.038000000906257256,0.05300000012305109
-0.04822879657149315,0.0683688223361969,9.76516342163086,0.03739999979734421,-0.0026000000070780516,-0.038599997758865356,0.031999999885518396,0.13499999628619785,-0.08400000095013078
-0.057901374995708466,0.0747661292552948,9.768122673034668,0.037299998104572296,-0.0030999998562037945,-0.04839999973773956,-0.03599999945432653,0.16599999711327754,-0.06099999926066736
-0.055392250418663025,0.05424303561449051,9.763362884521484,0.04619999974966049,-0.02199999988079071,-0.04839999973773956,0.03699999851276524,-0.023000000021936765,-0.19200000598321698
-0.053946152329444885,0.08272445946931839,9.768160820007324,0.04619999974966049,-0.02199999988079071,-0.04839999973773956,0.03699999851276524,-0.023000000021936765,-0.19200000598321698
-0.06282385438680649,0.07126101851463318,9.751075744628906,0.03449999913573265,-0.0026000000070780516,-0.05819999799132347,0.09999999922536333,-0.12799999954207358,0.07099999651516105
-0.06483498215675354,0.06547663360834122,9.767145156860352,0.03319999948143959,-0.012399999424815178,-0.04839999973773956,0.02600000053230619,-0.14399999781730613,0.0859999990670082
-0.06332184374332428,0.06544789671897888,9.755328178405762,0.032099999487400055,-0.012199999764561653,-0.05829999968409538,0.21100000476881897,0.06800000267489824,0.0009999999964224499
-0.06879020482301712,0.07113651931285858,9.753881454467773,0.02199999988079071,-0.002899999963119626,-0.05829999968409538,0.08100000043976135,-0.07699999753589991,0.08400000095013078
-0.05453033745288849,0.07350198924541473,9.761351585388184,0.040300000458955765,-0.0030999998562037945,-0.048499997705221176,0.007999999971379599,0.06899999839828364,0.21800000151294321
-0.05742253363132477,0.07971733808517456,9.765987396240234,0.03989999741315842,0.00699999975040555,-0.048499997705221176,0.1509999945614304,-0.08299999855663877,-0.048000001495804245
-0.054252609610557556,0.07043741643428802,9.773725509643555,0.03959999978542328,-0.003000000026077032,-0.03869999945163727,-0.01700000066872456,-0.07399999702553048,-0.321000001248676
-0.054252609610557556,0.07043741643428802,9.773725509643555,0.03959999978542328,-0.003000000026077032,-0.03869999945163727,-0.01700000066872456,-0.07399999702553048,-0.321000001248676
-0.05554547905921936,0.06474879384040833,9.763334274291992,0.039400000125169754,-0.012799999676644802,-0.048499997705221176,-0.20999999570522035,-0.013000000266153095,-0.06099999926066736
-0.04957912862300873,0.07385633140802383,9.780831336975098,0.039799999445676804,-0.002300000051036477,-0.02889999933540821,0.03999999902313467,0.07600000181251451,0.014999999216793838
-0.06875190138816833,0.07863516360521317,9.767739295959473,0.02029999904334545,0.0072999997064471245,-0.048499997705221176,-0.08499999667351618,0.07600000181251451,-0.04900000055424296
-0.05621585622429848,0.07432559877634048,9.752857208251953,0.03999999910593033,-0.002199999988079071,-0.05829999968409538,0.01400000015835513,-0.0749999994190225,-0.128999995265459
-0.059797581285238266,0.06595546752214432,9.76209831237793,0.029899999499320984,-0.012000000104308128,-0.048499997705221176,-0.22199999774669807,0.12799999954207358,-0.18799999640924894
-0.05227978900074959,0.06185659393668175,9.754207611083984,0.04019999876618385,-0.011299999430775642,-0.05829999968409538,-0.014999999216793838,0.16800000190026157,0.0019999999928448997
-0.05104437842965126,0.07613561302423477,9.759072303771973,0.04050000011920929,-0.00139999995008111,-0.048499997705221176,0.17599999436777122,0.04500000098543482,0.2140000052791884
-0.05927085876464844,0.06837840378284454,9.764838218688965,0.030799999833106995,-0.0018999999156221747,-0.048499997705221176,0.07199999890865307,-0.13300000483942703,-0.08499999667351618
-0.06177997961640358,0.0703703761100769,9.756046295166016,0.030399998649954796,-0.002099999925121665,-0.05829999968409538,0.021999999295971403,0.2379999960219306,0.1620000008795227
-0.06739199161529541,0.06906793266534805,9.786079406738281,0.021199999377131462,-0.002099999925121665,-0.02889999933540821,0.007999999971379599,0.1939999974299878,-0.08499999667351618
-0.06297708302736282,0.07627926766872406,9.763630867004395,0.031599998474121094,-0.002199999988079071,-0.048499997705221176,-0.009999999755783667,0.16699999283666295,-0.03100000082707969
-0.052049946039915085,0.07008306682109833,9.764148712158203,0.04169999808073044,-0.002099999925121665,-0.048499997705221176,-0.019999999511567335,0.03699999851276524,-0.04900000055424296
-0.05411853268742561,0.07151001691818237,9.766140937805176,0.041600000113248825,-0.002099999925121665,-0.048499997705221176,0.05300000012305109,0.10900000075647161,0.06899999839828364
-0.05658935010433197,0.07040868699550629,9.766101837158203,0.04179999977350235,-0.002199999988079071,-0.048499997705221176,0.1729999938574018,0.06200000165415938,-0.019000000453128628
-0.04858314245939255,0.06208643689751625,9.754044532775879,0.04179999977350235,-0.012399999424815178,-0.05829999968409538,0.07799999992939192,0.06399999977103679,-0.05900000114378995
-0.05665638670325279,0.07579084485769272,9.752129554748535,0.04189999774098396,-0.002899999963119626,-0.05829999968409538,0.10299999973573276,0.18099999966512467,0.06200000165415938
-0.05211698263883591,0.07467994093894958,9.763113975524902,0.0421999990940094,-0.0030999998562037945,-0.04839999973773956,0.004999999877891834,0.07999999804626934,-0.010999999647985701
-0.059491124004125595,0.06784210354089737,9.747723579406738,0.032499998807907104,-0.0030999998562037945,-0.06809999793767929,0.0269999995907449,0.0429999995335041,0.07099999651516105
-0.05448245257139206,0.06545747071504593,9.763199806213379,0.04230000078678131,-0.012899999506771564,-0.04839999973773956,-0.03699999851276524,0.019999999511567335,-0.014999999216793838
-0.056646812707185745,0.0803302526473999,9.76917552947998,0.04319999739527702,0.006300000008195639,-0.038599997758865356,0.06399999977103679,0.09000000197086964,0.1939999974299878
-0.056646812707185745,0.0803302526473999,9.76917552947998,0.04319999739527702,0.006300000008195639,-0.038599997758865356,0.06399999977103679,0.09000000197086964,0.1939999974299878
-0.06021896004676819,0.06527551263570786,9.752321243286133,0.033399999141693115,-0.013299999758601189,-0.05819999799132347,0.02600000053230619,0.12100000279794933,0.20200000323771067
-0.05599559098482132,0.070389524102211,9.77131175994873,0.04360000044107437,-0.003599999938160181,-0.038599997758865356,-0.0039999999856897995,0.08400000095013078,0.008999999863581633
-0.058092910796403885,0.07585788518190384,9.760845184326172,0.033900000154972076,-0.003599999938160181,-0.04839999973773956,-0.013000000266153095,0.06200000165415938,-0.08299999855663877
-0.05922297388315201,0.07146213203668594,9.76302719116211,0.03399999812245369,-0.003499999875202775,-0.04839999973773956,0.023000000021936765,-0.049999999612681666,0.2589999995945166
-0.04793192073702812,0.057288460433483124,9.766667366027832,0.04360000044107437,-0.003599999938160181,-0.04839999973773956,0.14900000311465958,0.14300000209392072,0
-0.04793192073702812,0.057288460433483124,9.766667366027832,0.04360000044107437,-0.023000000044703484,-0.04839999973773956,0.14900000311465958,0.14300000209392072,0
-0.050230350345373154,0.06896258890628815,9.769205093383789,0.04389999806880951,-0.0038999998942017555,-0.04839999973773956,-0.04200000047506539,0.1199999937343507,-0.0539999991814898
-0.06146394833922386,0.06170336529612541,9.765336036682129,0.0340999998152256,-0.013799999840557575,-0.04839999973773956,0.11400000605382507,-0.05600000063342052,0.07900000232288394
-0.06146394833922386,0.06170336529612541,9.765336036682129,0.0340999998152256,-0.013799999840557575,-0.04839999973773956,0.11400000605382507,-0.05600000063342052,0.07900000232288394
-0.06850289553403854,0.07034164667129517,9.763248443603516,0.023799998685717583,-0.00419999985024333,-0.04839999973773956,0.04600000004387353,0.09800000110848592,-0.03599999945432653
-0.05729803442955017,0.06746860593557358,9.762290000915527,0.023799998685717583,-0.00419999985024333,-0.04839999973773956,-0.05600000063342052,0.01400000015835513,-0.019999999511567335
-0.05538267642259598,0.05701073259115219,9.756093978881836,0.04349999874830246,-0.02369999885559082,-0.05819999799132347,-0.009999999755783667,0.014999999216793838,0.041000001416626686
-0.05448245257139206,0.06570647656917572,9.761313438415527,0.04339999705553055,-0.013799999840557575,-0.04839999973773956,0.021999999295971403,0.13300000483942703,-0.04600000004387353
-0.05448245257139206,0.06570647656917572,9.761313438415527,0.04339999705553055,-0.013799999840557575,-0.04839999973773956,0.021999999295971403,0.13300000483942703,-0.04600000004387353
-0.058475982397794724,0.07741890847682953,9.761974334716797,0.03280000016093254,0.005399999674409628,-0.04839999973773956,-0.1180000022875799,0.06700000028140622,0.06099999926066736
-0.05588066950440407,0.07267838716506958,9.765230178833008,0.04169999808073044,-0.0037999998312443495,-0.04839999973773956,-0.08400000095013078,0.007999999971379599,-0.11099999887334903
-0.060697801411151886,0.06831136345863342,9.764914512634277,0.03099999949336052,-0.003499999875202775,-0.048499997705221176,0.07000000079177565,0.2140000052791884,-0.28199999461387343
