Accelerometer_Gx,Accelerometer_Gy,Accelerometer_Gz,Accelerometer_X,Accelerometer_Y,Accelerometer_Z,Gyroscope_Z,Gyroscope_X,Gyroscope_Y
-0.04528871923685074,0.07759128510951996,9.77584171295166,2.468899965286255,-2.7990000247955322,-0.439300000667572,0.07300000130214508,0.10999999647985702,-0.05799999875029794
-0.04368939250707626,0.07403828948736191,9.756621360778809,2.468899965286255,-2.7990000247955322,-0.439300000667572,0.05600000063342052,0.024999999806340833,0.11299999699022645
-0.04851610213518143,0.07326257228851318,9.750367164611816,2.468899965286255,-2.7990000247955322,-0.439300000667572,-0.0269999995907449,0.09200000008774706,-0.16999999334703236
-0.05077622830867767,0.06690356880426407,9.758737564086914,0.00009999999747378752,-0.00019999999494757503,-0.04879999905824661,0.5600000063342052,0.6840000096425239,-0.2289999944908223
-0.05077622830867767,0.06690356880426407,9.758737564086914,-0.008499999530613422,-0.008999999612569809,-0.05859999731183052,0.5600000063342052,0.6840000096425239,-0.2289999944908223
-0.057527877390384674,0.06520847976207733,9.760662078857422,0.003499999875202775,-0.009800000116229057,-0.03889999911189079,0.7759999897199512,0.4849999935749695,-0.23199999500119176
-0.0479893796145916,0.07624095678329468,9.75218677520752,-0.012799999676644802,-0.008200000040233135,-0.0486999973654747,2.241999990103165,-0.41499999945330046,0.3579999897562813
-0.0479893796145916,0.07624095678329468,9.75218677520752,-0.0011999999405816197,0.000699999975040555,-0.05849999934434891,2.241999990103165,-0.41499999945330046,0.3579999897562813
-0.054702721536159515,0.07513005286455154,9.747753143310547,0.0072999997064471245,-0.006099999882280827,-0.05849999934434891,-0.1319999957758284,0.5350000198680775,0.2899999870813831
-0.06656838208436966,0.06527551263570786,9.761495590209961,-0.0016999999061226845,-0.007199999876320362,-0.06830000132322311,2.645999916537307,1.151999982538449,0.40499998885859356
-0.05596685782074928,0.06283342838287354,9.76876449584961,-0.00930000003427267,-0.01549999974668026,-0.0486999973654747,0.2909999961449817,-0.517000016805861,0.13100000005244303
-0.04457045719027519,0.07762959599494934,9.760384559631348,0.008700000122189522,-0.0013000000035390258,-0.0486999973654747,-1.8730000874102841,-1.7440000121035457,-0.3759999928184979
-0.04880340397357941,0.06403053551912308,9.759809494018555,0.008700000122189522,-0.0013000000035390258,-0.0486999973654747,-2.79400008401114,-2.7139999992534847,-0.21100000476881897
-0.0579492561519146,0.06717172265052795,9.756027221679688,-0.02159999869763851,0.0044999998062849045,-0.05859999731183052,-1.1130000292644995,-0.8900000091139895,-0.05099999867112037
-0.05222232639789581,0.07165367156267166,9.764033317565918,-0.012199999764561653,0.007400000002235174,-0.04879999905824661,-0.46900000863995017,2.3189999142678923,-0.8279999807794036
-0.0472806952893734,0.07601111382246017,9.753268241882324,0.004100000020116568,0.007899999618530273,-0.05859999731183052,0.20899999998183494,-0.5679999721212884,0.40299999741182274
-0.058973975479602814,0.0681389793753624,9.772345542907715,-0.01549999974668026,0.0066999997943639755,-0.039000000804662704,1.403000043026309,-3.259999985419015,0.8050000124404733
-0.04032793268561363,0.07012137770652771,9.76437759399414,-0.0058999997563660145,0.00139999995008111,-0.04879999905824661,2.476999905573447,-0.4549999884712752,-0.2570000081477458
-0.04492479935288429,0.06998730450868607,9.753527641296387,-0.0058999997563660145,-0.0037999998312443495,-0.05859999731183052,-2.8300000901355733,-0.4270000014947782,0.029999998433587676
-0.057853490114212036,0.06734410673379898,9.762558937072754,-0.02539999969303608,0.0044999998062849045,-0.04879999905824661,0.33300000329015367,0.23699998695833197,0.07999999804626934
-0.04936843737959862,0.07811801135540009,9.745808601379395,-0.013700000010430813,0.012899999506771564,-0.06839999556541443,1.0880000427983718,-1.4789999848078639,0.1729999938574018
-0.04393838718533516,0.06469132751226425,9.761141777038574,-0.006899999920278788,-0.00969999935477972,-0.04879999905824661,-4.753000150478113,-1.15899996594236,-0.9039999759218116
-0.04630386084318161,0.0721612423658371,9.765220642089844,-0.009800000116229057,0.015799999237060547,-0.048899997025728226,0.3579999897562813,1.1970000435548434,0.33300000329015367
-0.05723099783062935,0.0740574523806572,9.753335952758789,-0.016200000420212746,0.014499999582767487,-0.05869999900460243,-0.6819999915153268,-2.621999912454352,0.02600000053230619
-0.057834334671497345,0.08670841157436371,9.766772270202637,-0.03269999846816063,0.035099998116493225,-0.048899997025728226,0.7209999981501293,-0.11599999750059588,0.07799999992939192
-0.05927085876464844,0.07685387134552002,9.75191879272461,-0.03150000050663948,0.02239999920129776,-0.05869999900460243,0.9779999529370222,-2.104000073347877,-0.7510000032538235
-0.046524129807949066,0.07656657695770264,9.759398460388184,-0.017799999564886093,0.008299999870359898,-0.04879999905824661,-0.733000000191607,-0.515999981061836,-0.4280000105583768
-0.04789361357688904,0.07114609330892563,9.765182495117188,-0.02759999968111515,0.009399999864399433,-0.048899997025728226,-0.3339999856733259,-0.5639999892277469,0.0429999995335041
-0.048257529735565186,0.06696103513240814,9.750041961669922,-0.027400000020861626,-0.00019999999494757503,-0.05869999900460243,-2.4249999678748475,0.5069999795307276,0.7089999961086516
-0.04509718343615532,0.07548438757658005,9.772594451904297,-0.014699999243021011,0.016699999570846558,-0.03909999877214432,4.127999848494688,1.6449999419005017,-0.21299999621558977
-0.054587800055742264,0.07490020990371704,9.760671615600586,-0.019700000062584877,0.00699999975040555,-0.04879999905824661,-2.540000076373764,0.5009999785099888,0.3059999986968288
-0.04862144961953163,0.0779552087187767,9.761811256408691,-0.01730000041425228,0.023000000044703484,-0.048899997025728226,0.5240000002097721,1.3630000006474812,0.5099999800410971
-0.05464525893330574,0.07475655525922775,9.75965690612793,-0.011799999512732029,0.010799999348819256,-0.04879999905824661,-2.3919999088999306,0.7360000007019765,0.128999995265459
-0.050795383751392365,0.06993941962718964,9.750741004943848,-0.009399999864399433,0.01549999974668026,-0.05859999731183052,2.76399997218574,-4.387999963874509,0.6159999802871993
-0.0498855859041214,0.08169973641633987,9.761917114257812,-0.02149999886751175,0.016599999740719795,-0.04879999905824661,-1.2329999429575706,-0.4579999889816446,-0.3310000118433829
-0.05673300102353096,0.08037813752889633,9.764971733093262,-0.020800000056624413,0.010799999348819256,-0.04879999905824661,-0.8239999978858621,0.3879999948599756,-0.3989999878378547
-0.05673300102353096,0.08037813752889633,9.764971733093262,-0.020800000056624413,0.010799999348819256,-0.04879999905824661,-0.8239999978858621,0.3879999948599756,-0.3989999878378547
-0.04168783873319626,0.058715399354696274,9.774749755859375,-0.008999999612569809,0.003399999812245369,-0.04879999905824661,4.452999885997758,-4.173999891894254,-0.1939999974299878
-0.05253836140036583,0.07523539662361145,9.758661270141602,-0.00989999994635582,-0.0066999997943639755,-0.039000000804662704,-2.116000075389355,1.1610000374304101,0.7500000208706514
-0.05019204318523407,0.07339664548635483,9.753786087036133,-0.0284000001847744,-0.005699999630451202,-0.05859999731183052,-0.838000018054537,1.193999989683621,0.8650000226478619
-0.04191768169403076,0.06254612654447556,9.759015083312988,-0.014599999412894249,-0.013100000098347664,-0.04879999905824661,-1.689000020533724,0.6530000221556574,-0.5039999790203582
-0.04141968861222267,0.06176082789897919,9.760394096374512,-0.011799999512732029,-0.007199999876320362,-0.04879999905824661,-0.19099999691961836,-0.17799999915475526,0.15399999507179982
-0.04654328152537346,0.05634992942214012,9.756420135498047,-0.011699999682605267,-0.01640000008046627,-0.05859999731183052,0.6110000150104855,-0.2890000046982109,-0.7440000198499125
-0.0450301431119442,0.06988196074962616,9.760604858398438,-0.03150000050663948,0.0013000000035390258,-0.04879999905824661,-2.1109999500300827,0.11400000605382507,-0.6360000014766131
-0.05263412743806839,0.06426995247602463,9.761428833007812,-0.025999998673796654,-0.007899999618530273,-0.04879999905824661,3.1730000239791543,-0.8149999963547537,0.23300000406479038
-0.05263412743806839,0.06426995247602463,9.761428833007812,-0.025999998673796654,-0.007899999618530273,-0.04879999905824661,3.1730000239791543,-0.8149999963547537,0.23300000406479038
-0.057001154869794846,0.07004476338624954,9.759360313415527,-0.028199998661875725,-0.008799999952316284,-0.0486999973654747,-0.6129999797768299,-0.23099998593759313,-0.06700000028140622
-0.05522944778203964,0.07116525620222092,9.765134811401367,-0.018400000408291817,-0.0071000000461936,-0.06839999556541443,-1.9389999919167058,0.8780000070725118,0.1079999983629796
-0.04212837293744087,0.061100028455257416,9.761869430541992,-0.03199999779462814,-0.010199999436736107,-0.0486999973654747,2.7830000643528345,-1.5180000448035194,0.1180000022875799
-0.03877649083733559,0.0600753091275692,9.755615234375,-0.023099999874830246,-0.02239999920129776,-0.05849999934434891,3.149000019896199,0.17799999915475526,0.40499998885859356
-0.05816952511668205,0.061435215175151825,9.757722854614258,-0.023099999874830246,-0.02239999920129776,-0.05849999934434891,-1.3099999738440038,-0.09600000299160849,-0.21800000151294321
-0.05991250276565552,0.06869443506002426,9.760892868041992,-0.04089999943971634,-0.01979999989271164,-0.0486999973654747,-0.9310000338759893,1.1850000415133657,0.7759999897199512
-0.05173391103744507,0.06411672383546829,9.763468742370605,-0.02669999934732914,-0.02630000002682209,-0.0486999973654747,1.5800000197772524,-0.20899999998183494,-0.08400000095013078
-0.035060688853263855,0.07828081399202347,9.764732360839844,-0.00699999975040555,-0.010099999606609344,-0.0486999973654747,0.0030000000934877653,0.09600000299160849,0.8249999802690342
-0.05170518159866333,0.07490020990371704,9.766571044921875,-0.02579999901354313,-0.019500000402331352,-0.0486999973654747,1.1819999876421434,0.36099999026665075,0.11500000177721047
-0.04678269848227501,0.0688285157084465,9.766188621520996,-0.014299999922513962,-0.023099999874830246,-0.04859999939799309,0.7129999790021931,-0.5769999736523967,0.5260000183369693
-0.045202530920505524,0.08161354809999466,9.769482612609863,-0.01529999915510416,-0.014599999412894249,-0.03879999741911888,2.692999942320046,-1.543000031269647,-0.017999999727163266
-0.0516572967171669,0.07484274357557297,9.7662935256958,-0.02879999950528145,-0.03139999881386757,-0.04859999939799309,-0.7669999881888429,1.3380000141813537,0.3100000082707969
-0.045221682637929916,0.06925946474075317,9.770162582397461,-0.015399999916553497,-0.029099998995661736,-0.03879999741911888,-4.3120000220929535,0.04200000047506539,0
-0.05362053960561752,0.0677654892206192,9.763909339904785,-0.02459999918937683,-0.01679999940097332,-0.0486999973654747,3.3609999136666975,-0.02899999937514897,-0.08200000283325337
-0.04293282330036163,0.0682443231344223,9.770986557006836,-0.014499999582767487,-0.027899999171495438,-0.03879999741911888,3.7469999437603287,-0.6570000050491991,0.13300000483942703
-0.05511452630162239,0.06435614079236984,9.757980346679688,-0.025499999523162842,-0.04609999805688858,-0.05829999968409538,0.18900000547284757,-0.014999999216793838,-0.3579999897562813
-0.05408022552728653,0.07303272932767868,9.755404472351074,-0.025100000202655792,-0.03619999811053276,-0.05829999968409538,-1.3990000067719144,0.97699997055385,-0.4500000231945614
-0.04312435910105705,0.07594407349824905,9.766905784606934,-0.012600000016391277,-0.03229999914765358,-0.048499997705221176,-1.7490000307411124,0.019999999511567335,-0.433000002515517
-0.05800671875476837,0.06387729942798615,9.757185935974121,-0.031700000166893005,-0.03669999912381172,-0.058399997651576996,2.883999992600517,-1.4780000024246918,-0.8909999914971617
-0.048563987016677856,0.073932945728302,9.748547554016113,-0.026499999687075615,-0.03619999811053276,-0.06809999793767929,-0.08899999957737763,-0.9949999736160666,-0.8699999879245757
-0.04891832917928696,0.06873274594545364,9.756793022155762,-0.0284000001847744,-0.03539999946951866,-0.05829999968409538,-0.6549999869220019,0.8209999973754926,0.3860000034132048
-0.04779784381389618,0.05747999623417854,9.756610870361328,-0.006199999712407589,-0.032999999821186066,-0.048499997705221176,-2.68199992266174,-0.3190000098019052,-0.19099999691961836
-0.045010991394519806,0.06898174434900284,9.754667282104492,-0.016699999570846558,-0.033799998462200165,-0.05829999968409538,1.4830000210622585,0.04500000098543482,-0.3459999877148036
-0.055765748023986816,0.07144297659397125,9.778637886047363,-0.025999998673796654,-0.03830000013113022,-0.02889999933540821,-1.8199999538851008,0.39200000443394367,-0.007999999971379599
-0.059041015803813934,0.06637685000896454,9.757109642028809,-0.03460000082850456,-0.043699998408555984,-0.05829999968409538,-1.6849999842793295,-0.23099998593759313,-0.35199998873554245
-0.050469771027565,0.07177817076444626,9.757884979248047,-0.0279999990016222,-0.03610000014305115,-0.05829999968409538,1.8309999735434064,-1.0569999485897996,0.4280000105583768
-0.046907201409339905,0.06662584841251373,9.761630058288574,-0.020800000056624413,-0.05040000006556511,-0.048499997705221176,-2.745000093462057,0.4649999723855557,0.06099999926066736
-0.037742193788290024,0.07283161580562592,9.745942115783691,-0.018799999728798866,-0.020800000056624413,-0.058399997651576996,2.4300000932341197,0.8519999848623591,0.40299999741182274
-0.053754616528749466,0.07085879147052765,9.749544143676758,-0.02630000002682209,-0.03269999846816063,-0.058399997651576996,1.4760000376583473,-0.021999999295971403,0.9459999830669835
-0.053754616528749466,0.07085879147052765,9.749544143676758,-0.02630000002682209,-0.03269999846816063,-0.058399997651576996,1.4760000376583473,-0.021999999295971403,0.9459999830669835
-0.054089806973934174,0.068263478577137,9.753700256347656,-0.025999998673796654,-0.0357000008225441,-0.05829999968409538,2.3289999515430257,0.7870000093782568,0.3259999932058162
-0.04748180881142616,0.06591715663671494,9.761907577514648,-0.013799999840557575,-0.05139999836683273,-0.048499997705221176,0.14799999405106096,0.9610000389796836,0.5209999996994026
-0.04383304715156555,0.07442136108875275,9.760279655456543,-0.010199999436736107,-0.03179999813437462,-0.05829999968409538,-2.5489999178223135,0.38699998579637696,-0.1719999981340164
-0.045508988201618195,0.07445009797811508,9.763199806213379,-0.00839999970048666,-0.044999998062849045,-0.04839999973773956,-0.9800000244250723,0.3100000082707969,0.321000001248676
-0.04642836004495621,0.07998549193143845,9.754676818847656,-0.006099999882280827,-0.024000000208616257,-0.05829999968409538,-1.1850000415133657,0.5769999736523967,0.49900001374364444
-0.04642836004495621,0.07998549193143845,9.754676818847656,-0.006099999882280827,-0.024000000208616257,-0.05829999968409538,-1.1850000415133657,0.5769999736523967,0.49900001374364444
-0.04847779497504234,0.07858727872371674,9.76418685913086,-0.0142000000923872,-0.020399998873472214,-0.048499997705221176,2.2799999609939428,-0.21200000049220435,-0.2740000021463637
-0.044704534113407135,0.07218997180461884,9.762931823730469,-0.02449999935925007,-0.04729999974370003,-0.048499997705221176,2.745000093462057,0.08400000095013078,-0.6799999733881295
-0.057403381913900375,0.07637502998113632,9.750923156738281,-0.0044999998062849045,-0.04270000010728836,-0.04839999973773956,-1.821999918651445,0.8780000070725118,0.5759999912692245
-0.04802768677473068,0.07821378111839294,9.764368057250977,-0.012199999764561653,-0.031099999323487282,-0.04839999973773956,0.8690000055414034,0.648999985901263,0.7089999961086516
-0.04639962688088417,0.06974788755178452,9.756218910217285,-0.0004999999655410647,-0.042899999767541885,-0.05819999799132347,-3.449000070933142,0.012000000373951061,-0.3130000087811663
-0.04588248208165169,0.06815813481807709,9.765039443969727,-0.0004999999655410647,-0.042899999767541885,-0.05819999799132347,4.70099978589269,1.2609999832949206,0.5969999948418105
-0.050747498869895935,0.07912357896566391,9.761590957641602,-0.007499999832361937,-0.029999999329447746,-0.04839999973773956,-0.325000010822644,0.16599999711327754,0.18400000017549412
-0.04338293522596359,0.07320510596036911,9.761390686035156,0.00279999990016222,-0.03839999809861183,-0.04839999973773956,0.5330000017408804,1.2739999677195706,0.8769999713284867
-0.05522944778203964,0.06556282192468643,9.765680313110352,-0.0037999998312443495,-0.04899999871850014,-0.04839999973773956,2.374999994942592,-0.36800000035098823,-0.3600000078834786
-0.06926904618740082,0.06485413014888763,9.7588529586792,-0.024299999698996544,-0.054999999701976776,-0.04839999973773956,2.395000069492859,0.20999999570522035,-0.43999998591942807
-0.057211846113204956,0.06504566967487335,9.762701988220215,-0.0038999998942017555,-0.06269999593496323,-0.04829999804496765,-4.09400002058001,-0.07099999651516105,-0.38100001145606455
-0.042549751698970795,0.08251377195119858,9.767653465270996,0.005799999926239252,-0.0340999998152256,-0.04839999973773956,-0.9070000297930338,0.019000000453128628,0.08100000043976135
-0.04281790181994438,0.07349241524934769,9.75965690612793,0.005799999926239252,-0.0405999980866909,-0.04839999973773956,-0.20599999947146552,-0.7200000157669572,0.5729999907588551
-0.04599740356206894,0.07346368581056595,9.761370658874512,0.004100000020116568,-0.03969999775290489,-0.04839999973773956,-1.8109998989931397,-0.39200000443394367,-0.8420000009480786
-0.04712746664881706,0.06671203672885895,9.76535415649414,0.003000000026077032,-0.04399999976158142,-0.048499997705221176,-1.502000006507647,-0.5410000208888165,-0.38999998630674637
-0.05333323776721954,0.07609730213880539,9.762127876281738,-0.008499999530613422,-0.028699999675154686,-0.048499997705221176,1.9850000353162722,-0.7380000188291737,-0.5810000099067912
-0.04400542750954628,0.07695922255516052,9.759159088134766,-0.00019999999494757503,-0.022499999031424522,-0.048499997705221176,0.43600000302588643,-0.11299999699022645,-0.3339999856733259
-0.05353435128927231,0.06992983818054199,9.771990776062012,-0.010300000198185444,-0.033299997448921204,-0.03869999945163727,2.329999933926198,0.15200000362502902,-0.09200000008774706
-0.04787445813417435,0.06909666210412979,9.757119178771973,-0.00009999999747378752,-0.03849999979138374,-0.05829999968409538,-0.6690000070906769,0.6870000101528934,0.46600000812958076
-0.05826529487967491,0.07561846822500229,9.768304824829102,-0.01769999973475933,-0.03629999980330467,-0.048499997705221176,3.069999917521716,0.6099999792664604,0.37200000992495624
-0.0658692792057991,0.07224743068218231,9.763612747192383,-0.016899999231100082,-0.05309999734163284,-0.04829999804496765,0.8429999833312508,-0.3660000089042174,0.2929999875917525
-0.048161763697862625,0.07449797540903091,9.766868591308594,-0.008100000210106373,-0.055299997329711914,-0.04829999804496765,1.0069999756575443,-0.3379999952472939,-0.22400000253368207
-0.05189671739935875,0.06562028080224991,9.772336959838867,-0.008799999952316284,-0.06700000166893005,-0.03839999809861183,1.5610000343318635,-0.42899999294154895,-0.33000000277978425
-0.0669514536857605,0.069058358669281,9.764664649963379,-0.019700000062584877,-0.0608999989926815,-0.04820000007748604,-3.5149999754395638,1.6659999988339407,0.6149999979040272
-0.04672523960471153,0.07691133767366409,9.75197696685791,0.00559999980032444,-0.038599997758865356,-0.05810000002384186,-0.6320000185830715,-0.1939999974299878,-0.035000000395887826
-0.05416642129421234,0.06369534134864807,9.77028751373291,-0.0044999998062849045,-0.056199997663497925,-0.03849999979138374,0.49900001374364444,-0.32299999269544677,-0.517000016805861
-0.06275681406259537,0.07271669805049896,9.766035079956055,-0.015099999494850636,-0.047199998050928116,-0.04839999973773956,-3.105999923646149,-0.6390000019869825,-0.4019999883482241
-0.047663770616054535,0.06666415184736252,9.759857177734375,0.002899999963119626,-0.04910000041127205,-0.04839999973773956,-1.8150000419692398,-0.38400001196643396,-0.12100000279794933
-0.05009627714753151,0.062028978019952774,9.768390655517578,-0.007799999788403511,-0.043699998408555984,-0.03869999945163727,-2.9540000400830393,-0.04600000004387353,-0.05999999686717535
-0.055679552257061005,0.06648219376802444,9.755979537963867,-0.007799999788403511,-0.03319999948143959,-0.058399997651576996,0.7360000007019765,0.07999999804626934,-0.06200000165415938
-0.054731450974941254,0.07408617436885834,9.75681209564209,-0.007599999662488699,-0.024799998849630356,-0.058399997651576996,-2.9780000441659946,-0.5849999928003328,-0.551000004803097
-0.04980897158384323,0.0744117870926857,9.758086204528809,-0.009099999442696571,-0.016300000250339508,-0.05849999934434891,-0.038000000906257256,0.7170000152565876,0.3759999928184979
-0.05850471183657646,0.06026684492826462,9.761303901672363,-0.017099998891353607,-0.025699999183416367,-0.04859999939799309,2.0489999750563497,-0.7219999805333015,0.09899999683187131
-0.05895482376217842,0.06973830610513687,9.75356674194336,-0.01899999938905239,-0.021299999207258224,-0.058399997651576996,-1.8069999694604508,-0.19099999691961836,0.128999995265459
-0.052787356078624725,0.06340803951025009,9.77268123626709,0,-0.01489999983459711,-0.0486999973654747,-2.3610000281347703,-0.2639999915516568,0.6669999889634796
-0.05696284770965576,0.07329130917787552,9.76646614074707,-0.009099999442696571,-0.024799998849630356,-0.03889999911189079,1.3269999945230482,0.3089999992071983,-0.03699999851276524
-0.04699338972568512,0.07796478271484375,9.749850273132324,0.000699999975040555,-0.0015999999595806003,-0.05849999934434891,-3.462000055357792,-0.5799999741627662,0.20599999947146552
-0.06345592439174652,0.0684933215379715,9.768553733825684,-0.02029999904334545,-0.0017999999690800905,-0.03889999911189079,1.9189999173664392,-0.4799999749374028,0.06500000216452881
-0.06345592439174652,0.0684933215379715,9.768553733825684,-0.02029999904334545,-0.0017999999690800905,-0.03889999911189079,1.9189999173664392,-0.4799999749374028,0.06500000216452881
-0.05222232639789581,0.0783287063241005,9.75627613067627,-0.012299999594688416,0.0013000000035390258,-0.05849999934434891,-0.635000019093441,2.082000034031266,0.9690000047667668
-0.053256623446941376,0.07433517277240753,9.759886741638184,-0.012299999594688416,0.0013000000035390258,-0.05849999934434891,5.32400012310977,2.080000069264922,0.2780000117203318
-0.05090072751045227,0.0668078064918518,9.764551162719727,-0.0007999999797903001,-0.02879999950528145,-0.04859999939799309,0.9879999902121556,-1.9740000156579667,-2.0249999709733943
-0.04628470540046692,0.0710982158780098,9.762884140014648,0.003599999938160181,-0.02159999869763851,-0.04859999939799309,-0.6840000096425239,-0.2289999944908223,-0.035000000395887826
-0.05428134277462959,0.06941269338130951,9.766140937805176,0.003599999938160181,-0.02159999869763851,-0.04859999939799309,-1.3269999945230482,-3.12799996296276,-2.0560000651819665
-0.05398445948958397,0.078558549284935,9.764244079589844,-0.014299999922513962,-0.006000000052154064,-0.0486999973654747,2.5670000276062357,-0.49600001323327503,-0.9959999559992387
-0.04410119727253914,0.0644710585474968,9.753795623779297,-0.007799999788403511,-0.020600000396370888,-0.05849999934434891,5.0549999528379885,0.6889999749192377,0.4089999984325616
-0.047242388129234314,0.07592492550611496,9.756237983703613,-0.005799999926239252,-0.02449999935925007,-0.058399997651576996,0.11099999887334903,0.5399999851447914,0.24399999704266945
-0.05051765590906143,0.06033388152718544,9.762845993041992,-0.013700000010430813,-0.03449999913573265,-0.04859999939799309,-4.313999986859298,-2.373000030176248,-1.0299999973573275
-0.04893748089671135,0.06333142518997192,9.767538070678711,-0.01850000023841858,-0.02539999969303608,-0.0486999973654747,-4.009999792846255,-2.289999998269076,0.18900000547284757
-0.0617225207388401,0.07509174197912216,9.75184154510498,-0.03519999980926514,-0.0030999998562037945,-0.05859999731183052,4.600999840028179,-0.43699998540905866,0.07300000130214508
-0.052950166165828705,0.07089710235595703,9.757818222045898,-0.02630000002682209,-0.0139999995008111,-0.05849999934434891,-1.3469999623516091,-0.19499999315337319,0.019000000453128628
-0.06306327134370804,0.08432378619909286,9.754897117614746,-0.036399997770786285,-0.00039999998989515007,-0.05849999934434891,-0.8029999943132761,0.8729999884349451,0.8119999958443843
-0.042003877460956573,0.07106947898864746,9.751086235046387,-0.036399997770786285,-0.00039999998989515007,-0.05849999934434891,0.9939999912328944,0.9359999457918502,1.0499999651858885
-0.057307612150907516,0.07481402158737183,9.766791343688965,-0.021399999037384987,-0.009399999864399433,-0.0486999973654747,0.7939999927821677,-0.3750000104353257,-0.1419999930303221
-0.0617225207388401,0.06756436824798584,9.765039443969727,-0.03219999745488167,-0.011699999682605267,-0.0486999973654747,-2.130000042197177,1.8099999166099674,1.9059999329417892
-0.05429091677069664,0.06281428039073944,9.76538372039795,-0.017899999395012856,-0.01640000008046627,-0.0486999973654747,0.2890000046982109,-0.22400000253368207,0.20099999417411205
-0.040509890764951706,0.07609730213880539,9.75778865814209,-0.008599999360740185,-0.0072999997064471245,-0.05849999934434891,0.8279999807794036,0.31999999218507735,0.6519999864116324
-0.04497268423438072,0.06177040562033653,9.754629135131836,-0.007400000002235174,-0.01979999989271164,-0.05849999934434891,6.36800008727492,-0.34800000584200086,-0.10299999973573276
-0.03583640977740288,0.07656657695770264,9.754131317138672,-0.01769999973475933,-0.03280000016093254,-0.04859999939799309,-4.921000179058801,0.8050000124404733,-1.304999955206437
-0.03583640977740288,0.07656657695770264,9.754131317138672,0.0023999998811632395,-0.01860000006854534,-0.05849999934434891,-4.921000179058801,0.8050000124404733,-1.304999955206437
-0.05477933585643768,0.06475836783647537,9.754532814025879,-0.015099999494850636,-0.016499999910593033,-0.05849999934434891,3.437000068891664,-0.3890000039235742,0.3819999938392367
-0.049914319068193436,0.07382760941982269,9.759857177734375,-0.016099998727440834,-0.01599999889731407,-0.0486999973654747,6.1509998547017375,-0.39599998732748526,0.18199999538851008
-0.05242343991994858,0.0796215757727623,9.763315200805664,-0.01730000041425228,-0.02709999866783619,-0.048499997705221176,-3.1049999412629767,0.20899999998183494,-1.0530000190571107
-0.04620809108018875,0.06424121558666229,9.7759370803833,-0.00699999975040555,-0.04010000079870224,-0.03869999945163727,0.6540000045388297,0.08200000283325337,-0.2289999944908223
-0.04943547770380974,0.0753694698214531,9.76302719116211,-0.01640000008046627,-0.03219999745488167,-0.048499997705221176,3.929999921532011,1.3269999945230482,-0.19999999845072666
-0.0434882827103138,0.06350380927324295,9.759254455566406,-0.0058999997563660145,-0.05079999938607216,-0.04839999973773956,8.66999966069865,1.5250000282074303,0.023000000021936765
-0.0434882827103138,0.06350380927324295,9.759254455566406,-0.0058999997563660145,-0.05079999938607216,-0.04839999973773956,8.66999966069865,1.5250000282074303,0.023000000021936765
-0.049588706344366074,0.07422982901334763,9.749094009399414,-0.010400000028312206,-0.07039999961853027,-0.06769999861717224,-6.651000010911113,-2.6539999890460964,1.443999961066603
-0.03511814773082733,0.06164590269327164,9.7623291015625,-0.006099999882280827,-0.04969999939203262,-0.048499997705221176,1.2249999771704876,-2.4169998953660583,1.3099999738440038
-0.03511814773082733,0.06164590269327164,9.7623291015625,-0.006099999882280827,-0.04969999939203262,-0.048499997705221176,1.2249999771704876,-2.4169998953660583,1.3099999738440038
-0.06073610857129097,0.07376056909561157,9.767577171325684,-0.04209999740123749,-0.0429999977350235,-0.048499997705221176,2.3980000166423756,2.076999908671994,-1.8120000948197235
-0.05208825320005417,0.07101202756166458,9.756621360778809,-0.03480000048875809,-0.05089999735355377,-0.038599997758865356,-8.546000137638009,1.2869999521442204,0.9860000254458112
-0.045231256633996964,0.04967489466071129,9.753479957580566,-0.029500000178813934,-0.08069999516010284,-0.05779999867081642,-10.92999997402915,2.4690000465080697,2.6980000676793185
-0.054616525769233704,0.06934566050767899,9.761102676391602,-0.015599999576807022,-0.07360000163316727,-0.05810000002384186,5.784999899158373,2.2380000605704766,2.409000036300681
-0.054827217012643814,0.06940311938524246,9.766427993774414,-0.013299999758601189,-0.0429999977350235,-0.04839999973773956,-15.143999588137115,-1.0780000055232384,-2.14899992092086
-0.054827217012643814,0.06940311938524246,9.766427993774414,-0.013299999758601189,-0.0429999977350235,-0.04839999973773956,-15.143999588137115,-1.0780000055232384,-2.14899992092086
-0.04686889424920082,0.060630764812231064,9.773801803588867,-0.0016999999061226845,0.04230000078678131,-0.03909999877214432,13.730000165782734,-2.6199999476880076,-2.4540000973170755
-0.049512092024087906,0.061291564255952835,9.763439178466797,-0.01850000023841858,0.004799999762326479,-0.048899997025728226,-20.23099983101026,0.8440000190752759,1.352999963372348
-0.05152321979403496,0.06492117047309875,9.771895408630371,-0.01640000008046627,0.053199999034404755,-0.03909999877214432,16.2260005904101,-0.8600000040102952,1.4460000325546531
-0.046955082565546036,0.06362830102443695,9.772192001342773,-0.008899999782443047,0.008700000122189522,-0.03909999877214432,6.473000158498703,3.242000089078504,4.369000085150826
-0.04133350029587746,0.07567592710256577,9.766283988952637,0.002099999925121665,-0.003599999938160181,-0.0486999973654747,17.473999095176488,-0.5200000173162305,-0.5260000183369693
-0.06269935518503189,0.07798393815755844,9.768533706665039,-0.008799999952316284,-0.045399997383356094,-0.05819999799132347,-25.903000653653116,0.3879999948599756,1.7339999748284125
-0.04473326355218887,0.0727454200387001,9.757492065429688,-0.006199999712407589,-0.05169999971985817,-0.05810000002384186,33.6920015340685,-0.8969999925179005,3.092999939221499
-0.04473326355218887,0.0727454200387001,9.757492065429688,-0.006199999712407589,-0.05169999971985817,-0.05810000002384186,33.6920015340685,-0.8969999925179005,3.092999939221499
-0.041764453053474426,0.07526411861181259,9.764301300048828,-0.01850000023841858,-0.1436000019311905,-0.027300000190734863,-26.243000640347184,1.9279999722584003,3.0459999134387603
-0.052452173084020615,0.06653007864952087,9.769243240356445,-0.022199999541044235,-0.21169999241828918,-0.0357000008225441,8.709000040859424,-1.4369999776626918,2.8580000237512175
-0.0383838415145874,0.07657615095376968,9.749964714050293,-0.014999999664723873,-0.20639999210834503,-0.0551999993622303,-0.0039999999856897995,2.3450000965606037,-0.12100000279794933
-0.04956955462694168,0.06781336665153503,9.773773193359375,-0.01939999870955944,-0.2052999883890152,-0.035599999129772186,6.634000096953774,-0.5149999986786638,-4.9900000307147385
-0.03293463960289955,0.06995857506990433,9.765910148620605,-0.0009999999310821295,-0.22689999639987946,-0.04479999840259552,17.451000140693765,2.3090000904361707,3.1999999752116266
-0.06555324792861938,0.07204631716012955,9.758862495422363,-0.02579999901354313,-0.2615000009536743,-0.043699998408555984,-16.195000069314705,0.48599997595814165,5.75300003601004
-0.042923249304294586,0.06855078041553497,9.763592720031738,-0.0050999997183680534,-0.21040000021457672,-0.04529999941587448,18.463999156876696,-2.448999971957803,-4.160000138529844
-0.061502255499362946,0.06947973370552063,9.752225875854492,-0.03019999898970127,-0.2533999979496002,-0.05379999801516533,-5.8649997704726164,0.4669999905127529,2.8859999573668613
-0.040720582008361816,0.07261135429143906,9.761524200439453,-0.009499999694526196,-0.23600000143051147,-0.044499997049570084,-9.582999584790718,1.8669999796678396,11.144999814949164
-0.048947058618068695,0.07280288636684418,9.766571044921875,-0.013899999670684338,-0.2020999938249588,-0.045499999076128006,2.9969999228896773,-0.8200000149923204,-2.400999963791892
-0.04800853505730629,0.06512228399515152,9.768420219421387,-0.01529999915510416,-0.21679998934268951,-0.035499997437000275,-9.052000188146417,0.38999998630674637,2.688000030404185
-0.06585970520973206,0.07255388796329498,9.757109642028809,-0.02410000003874302,-0.17799998819828033,-0.05590000003576279,-9.389999783187314,-2.267999958952465,1.332999995543787
-0.0634942278265953,0.07046613842248917,9.76223373413086,-0.029399998486042023,-0.15439999103546143,-0.04659999907016754,1.2950000246530096,-0.515999981061836,2.4869999428485805
-0.05606262758374214,0.0665971115231514,9.767184257507324,-0.0210999995470047,-0.16669999063014984,-0.04659999907016754,4.531999988372241,2.275000049078082,-28.324999393717977
-0.04353616386651993,0.06734410673379898,9.763660430908203,-0.0011999999405816197,-0.1711999922990799,-0.04619999974966049,1.0559999662066273,-0.9750000057875057,5.520000085306102
-0.052567094564437866,0.06946057826280594,9.774931907653809,-0.013199999928474426,-0.17239999771118164,-0.036399997770786285,-8.704000342386975,1.5490000322903859,12.488000274654908
-0.05364927276968956,0.06690356880426407,9.759235382080078,-0.009200000204145908,-0.15449999272823334,-0.046799998730421066,-11.10499966584863,4.829000092259667,-12.536000282820819
-0.05241386592388153,0.0731189176440239,9.754399299621582,0.002899999963119626,-0.11719999462366104,-0.057099997997283936,3.785000128094518,-5.618999835344029,4.7949998374581675
-0.05277778208255768,0.07462248206138611,9.760700225830078,-0.012600000016391277,-0.12680000066757202,-0.047199998050928116,-3.0030000306321223,5.0679999372626385,9.651000094393718
-0.04697423428297043,0.07869262248277664,9.769042015075684,0.013899999670684338,-0.10599999874830246,-0.03749999776482582,-6.713999968268018,-1.4210000460885255,2.2319999528280317
-0.05252878740429878,0.07990887761116028,9.762405395507812,0.0010999999940395355,-0.09160000085830688,-0.047599997371435165,6.170999929252004,-9.990000312148023,1.0230000139534166
-0.05316085368394852,0.0719122365117073,9.770755767822266,-0.029600000008940697,-0.11979999393224716,-0.03749999776482582,2.7340000738037515,-2.927000088850567,3.0520000211812053
-0.060429647564888,0.0763079971075058,9.76504898071289,-0.04639999940991402,-0.1256999969482422,-0.047199998050928116,-2.7159999640198293,-4.489000105565603,-4.0770001066226715
-0.053304508328437805,0.07994718104600906,9.753643035888672,-0.05159999802708626,-0.10589999705553055,-0.05719999969005585,-0.8709999703077478,3.1600000395545047,1.466000000383214
-0.048305410891771317,0.06525636464357376,9.748422622680664,-0.042799998074769974,-0.1224999949336052,-0.06709999591112137,0.7039999774710849,0.6059999963729188,0.7360000007019765
-0.05391742289066315,0.06983407586812973,9.776368141174316,-0.0414000004529953,-0.1136000007390976,-0.037699997425079346,3.33599992720057,-18.672000615218387,-3.00200004824895
-0.04646666720509529,0.05657019838690758,9.764971733093262,-0.08869999647140503,-0.1428000032901764,-0.0471000000834465,0.41300000800652964,-8.91900018330699,-2.8149999275011672
-0.043900080025196075,0.07315722852945328,9.764521598815918,-0.08169999718666077,-0.1264999955892563,-0.0471000000834465,1.3070000266944872,-15.042999873332842,-3.5869997742450184
-0.043900080025196075,0.07315722852945328,9.764521598815918,-0.08169999718666077,-0.1264999955892563,-0.0471000000834465,1.3070000266944872,-15.042999873332842,-3.5869997742450184
-0.05135083943605423,0.06802405416965485,9.761869430541992,-0.14229999482631683,-0.13040000200271606,-0.04659999907016754,-1.242999980232704,-4.203000021336482,1.5939999865850745
-0.051389146596193314,0.0686178207397461,9.763334274291992,-0.20559999346733093,-0.11569999903440475,-0.04600000008940697,-4.00799982807991,-7.899999992164556,-0.6410000201141798
-0.0514274537563324,0.0529693178832531,9.765795707702637,-0.22369998693466187,-0.1251000016927719,-0.045899998396635056,-3.8469998896248394,-17.61499981285494,-3.2159999067857927
-0.0514274537563324,0.0529693178832531,9.765795707702637,-0.22369998693466187,-0.1251000016927719,-0.045899998396635056,-3.8469998896248394,-17.61499981285494,-3.2159999067857927
-0.054492030292749405,0.07340622693300247,9.760910987854004,-0.26109999418258667,-0.09449999779462814,-0.054899998009204865,0.5219999820825748,-0.620999998924766,0.6600000055595685
-0.04961743578314781,0.07424898445606232,9.750885009765625,-0.22599999606609344,-0.10719999670982361,-0.05559999868273735,-4.672000083337285,-3.043999948672416,-0.23000000355442093
-0.038805220276117325,0.06241204962134361,9.756745338439941,-0.22450000047683716,-0.10209999978542328,-0.05570000037550926,2.9339999655327724,-0.07199999890865307,0.26300000916848465
-0.04931097850203514,0.07039910554885864,9.772662162780762,-0.23349998891353607,-0.09879999607801437,-0.035999998450279236,2.7669999193352566,-2.170999960237471,-0.369999991797759
-0.05583278089761734,0.07086837291717529,9.75784683227539,-0.23829999566078186,-0.10579999536275864,-0.055399999022483826,2.844000056943395,4.13299997385396,0.6450000030077214
-0.053543925285339355,0.06843586266040802,9.753546714782715,-0.2231999933719635,-0.11499999463558197,-0.05549999698996544,1.391000040984831,1.8860000718349341,0.44800000506736415
-0.05582320690155029,0.07175900787115097,9.775036811828613,-0.21819999814033508,-0.11729999631643295,-0.035999998450279236,3.65699982172754,4.766999903842523,1.7060000412127683
-0.05637866258621216,0.07784028351306915,9.765268325805664,-0.20260000228881836,-0.11809999495744705,-0.04580000042915344,-1.9220000779593671,-1.6530000144092907,-0.15200000362502902
-0.06304412335157394,0.07343494892120361,9.772795677185059,-0.21529999375343323,-0.12280000001192093,-0.03610000014305115,1.8890000189844505,1.1610000374304101,1.038999945527583
-0.053898271173238754,0.06843586266040802,9.758727073669434,-0.2013999968767166,-0.12729999423027039,-0.05570000037550926,2.714999981636657,2.116000075389355,0.6870000101528934
-0.04866933077573776,0.07716032862663269,9.754217147827148,-0.1931999921798706,-0.12619999051094055,-0.05559999868273735,-0.39200000443394367,-0.4889999764685111,-0.9380000172799003
-0.03872860595583916,0.0730997696518898,9.7501859664917,-0.18369999527931213,-0.13449999690055847,-0.05570000037550926,-2.0320000610990108,-0.7849999912510595,0.3890000039235742
-0.03736870363354683,0.07105990499258041,9.764205932617188,-0.17499999701976776,-0.12870000302791595,-0.04600000008940697,0.851000002479187,-0.17799999915475526,-0.901000028772295
-0.05268201604485512,0.07600153982639313,9.764368057250977,-0.19409999251365662,-0.13009999692440033,-0.045899998396635056,-1.021000049187072,-0.6969999940671738,0.5189999815722054
-0.05262455344200134,0.0644519105553627,9.771292686462402,-0.19509999454021454,-0.13650000095367432,-0.03619999811053276,2.665999991087574,0.969999987149939,0.8829999723492256
-0.05416642129421234,0.06529466807842255,9.765852928161621,-0.19089999794960022,-0.14499999582767487,-0.045899998396635056,-2.339999971201331,-1.4249999756212142,-0.59999999535218
-0.05382165685296059,0.068723164498806,9.770641326904297,-0.19339999556541443,-0.1289999932050705,-0.03619999811053276,-0.5810000099067912,-1.821999918651445,0.27500001120996237
-0.058475982397794724,0.07539819926023483,9.768094062805176,-0.20729999244213104,-0.12680000066757202,-0.045899998396635056,2.14000007947231,1.5490000322903859,0.6200000165415938
-0.04594951868057251,0.07366479188203812,9.775190353393555,-0.18310000002384186,-0.13130000233650208,-0.03610000014305115,-1.6299999927095075,-0.6360000014766131,0.21299999621558977
-0.05886863172054291,0.07231447100639343,9.755098342895508,-0.2035999894142151,-0.12619999051094055,-0.055799998342990875,1.297999971802526,1.3310000307774426,0.859000021627123
-0.0527203232049942,0.06771759688854218,9.76538372039795,-0.188400000333786,-0.12999999523162842,-0.04600000008940697,-0.42899999294154895,0.24299998797907083,0.4300000020051476
-0.03532884269952774,0.0719122365117073,9.748930931091309,-0.16740000247955322,-0.12839999794960022,-0.065700002014637,1.080999952672755,1.271000020570054,0.3660000089042174
-0.05021119862794876,0.0673058032989502,9.761706352233887,-0.1826999932527542,-0.13079999387264252,-0.04609999805688858,-1.2110000103626655,-0.9860000254458112,0.3989999878378547
-0.05137956887483597,0.06155013665556908,9.766599655151367,-0.1842999905347824,-0.1370999962091446,-0.04609999805688858,-1.4150000450677866,0.38400001196643396,-0.585999975183505
-0.053189586848020554,0.08193915337324142,9.752578735351562,-0.18239998817443848,-0.11309999972581863,-0.05609999969601631,1.492999951615686,2.9699999716572054,0.7039999774710849
-0.05540182814002037,0.06561069935560226,9.760193824768066,-0.17149999737739563,-0.1371999979019165,-0.046299997717142105,1.109999975393277,0.23199999500119176,0.41300000800652964
-0.03658340126276016,0.06449022144079208,9.761744499206543,-0.15060000121593475,-0.1388999968767166,-0.046299997717142105,0.5849999928003328,-0.25100000712700693,0.3600000078834786
-0.042262446135282516,0.06274724006652832,9.77175235748291,-0.17029999196529388,-0.12049999833106995,-0.05609999969601631,-0.4939999951060778,-0.1939999974299878,-0.2909999961449817
-0.04616020992398262,0.07047571986913681,9.742830276489258,-0.16009999811649323,-0.12700000405311584,-0.06599999964237213,1.1479999462840547,0.9219999789840281,-0.6450000030077214
-0.052385132759809494,0.07554185390472412,9.76036548614502,-0.16599999368190765,-0.13040000200271606,-0.046299997717142105,0.9589999674916334,1.080999952672755,-0.21299999621558977
-0.04914817586541176,0.07670064270496368,9.756669044494629,-0.1630999892950058,-0.13179999589920044,-0.056199997663497925,0.17400000292100043,0.13499999628619785,-0.01700000066872456
-0.05042188614606857,0.06903920322656631,9.76587200164795,-0.11979999393224716,-0.09539999812841415,-0.04739999771118164,0.22100000202331266,-0.8669999874142063,0.5540000053134664
-0.047453079372644424,0.07702626287937164,9.772048950195312,-0.12219999730587006,-0.094200000166893,-0.03739999979734421,-1.9539999411077,-0.9870000078289833,-0.28199999461387343
-0.030789434909820557,0.07105990499258041,9.76486587524414,-0.1314999908208847,-0.10610000044107437,-0.04699999839067459,0.9089999945593782,0.5630000068445746,0.36499999984061876
-0.030789434909820557,0.07105990499258041,9.76486587524414,-0.1314999908208847,-0.10610000044107437,-0.04699999839067459,0.9089999945593782,0.5630000068445746,0.36499999984061876
-0.047548845410346985,0.06337931007146835,9.773638725280762,-0.14350000023841858,-0.121799997985363,-0.03700000047683716,0.4759999920438612,0.7709999710823845,0.3600000078834786
-0.0408833883702755,0.07588662207126617,9.771215438842773,-0.14810000360012054,-0.11409999430179596,-0.03689999878406525,0.3100000082707969,0.021000000237532696,0.28499999512424284
-0.06123410537838936,0.07198885083198547,9.766303062438965,-0.1687999963760376,-0.1160999983549118,-0.046699997037649155,-0.3559999983095105,1.683000019512985,-0.11400000605382507
-0.046811431646347046,0.08259038627147675,9.751554489135742,-0.1501999944448471,-0.10409999638795853,-0.05649999901652336,0.5110000157851222,0.6810000091321545,0.26699999206202624
-0.050747498869895935,0.06472963839769363,9.76456069946289,-0.15850000083446503,-0.125,-0.046699997037649155,-0.551000004803097,-0.0429999995335041,-0.10400000212922476
-0.053543925285339355,0.07389463484287262,9.772700309753418,-0.15850000083446503,-0.1136000007390976,-0.03689999878406525,0.390999995370345,0.2039999946844815,-0.06200000165415938
-0.05359181389212608,0.06997773051261902,9.754294395446777,-0.1574999988079071,-0.11479999870061874,-0.05649999901652336,-0.4889999764685111,-0.16899999762364695,0.46900000863995017
-0.05229894071817398,0.07232404500246048,9.763717651367188,-0.15760000050067902,-0.1136000007390976,-0.046799998730421066,-0.7089999961086516,-0.24800000661663751,-0.2810000122307012
-0.05120718851685524,0.07190266251564026,9.76090145111084,-0.156700000166893,-0.11239999532699585,-0.046799998730421066,0.22100000202331266,0.2159999967259592,0.19600000221697184
-0.04618893936276436,0.06919243186712265,9.776119232177734,-0.14579999446868896,-0.11270000040531158,-0.03700000047683716,-0.5279999831033136,-0.325000010822644,0.10499999785261017
-0.05175306275486946,0.07113651931285858,9.760671615600586,-0.15619999170303345,-0.11050000041723251,-0.046799998730421066,-0.6009999777353522,-0.03899999996469596,-0.30700000776042746
-0.046840161085128784,0.07693048566579819,9.769702911376953,-0.14589999616146088,-0.09910000115633011,-0.03700000047683716,-0.3220000103122746,0.06800000267489824,-0.3759999928184979
-0.046121902763843536,0.08556877076625824,9.766580581665039,-0.14509999752044678,-0.09769999980926514,-0.04690000042319298,0.04500000098543482,1.15899996594236,0.007000000079177565
-0.046935927122831345,0.0649307444691658,9.762711524963379,-0.14180000126361847,-0.11699999868869781,-0.04690000042319298,-0.1199999937343507,-0.07300000130214508,-0.06099999926066736
-0.055392250418663025,0.07175900787115097,9.764052391052246,-0.11099999397993088,-0.07829999923706055,-0.04779999703168869,0.06299999737754478,0.13700000107318186,-0.19799999366374263
-0.048563987016677856,0.06585012376308441,9.749227523803711,-0.12029999494552612,-0.09519999474287033,-0.05739999935030937,0.3369999861836953,0.5219999820825748,-0.08899999957737763
-0.05006754770874977,0.07684429734945297,9.761102676391602,-0.12639999389648438,-0.08129999786615372,-0.04739999771118164,0.08200000283325337,0.15900000036915327,-0.13400000056281244
-0.048382025212049484,0.07275500148534775,9.759350776672363,-0.09209999442100525,-0.06689999997615814,-0.04800000041723251,0.3669999912873896,0.6159999802871993,-0.30100000673968863
-0.053448159247636795,0.07687303423881531,9.76423454284668,-0.10449999570846558,-0.06780000030994415,-0.04779999703168869,-0.12199999852133472,-0.1319999957758284,0.07699999753589991
-0.037809234112501144,0.07298484444618225,9.7642822265625,-0.06229999661445618,-0.056599996984004974,-0.04820000007748604,0.1529999993484144,0.13300000483942703,0.09300000248123906
-0.05816952511668205,0.07886500656604767,9.758794784545898,-0.06679999828338623,-0.034699998795986176,-0.04839999973773956,0.7660000058056707,0.1180000022875799,0.23399998644796255
-0.05381207540631294,0.07695922255516052,9.772135734558105,-0.0786999985575676,-0.051899999380111694,-0.03839999809861183,-0.12599999475508955,0.1800000039417393,-0.2039999946844815
-0.046246398240327835,0.07201758772134781,9.759982109069824,-0.08460000157356262,-0.07279999554157257,-0.0478999987244606,-0.3789999933288673,-0.10400000212922476,-0.23199999500119176
-0.04822879657149315,0.06779421120882034,9.75871753692627,-0.10659999400377274,-0.0802999958395958,-0.0575999990105629,0.1610000051561373,0.23399998644796255,-0.1319999957758284
-0.049397170543670654,0.07260177284479141,9.77082347869873,-0.11469999700784683,-0.08689999580383301,-0.03779999911785126,-0.25299999857377775,0.01700000066872456,-0.1800000039417393
-0.05348646640777588,0.07613561302423477,9.764800071716309,-0.120899997651577,-0.09049999713897705,-0.04749999940395355,-0.31600000929153577,-0.4870000117021667,0.11599999750059588
-0.050584692507982254,0.0745362862944603,9.758910179138184,-0.09239999949932098,-0.06759999692440033,-0.04800000041723251,-0.43400001157911566,-0.5390000027616192,0.21999999295971404
-0.050584692507982254,0.0745362862944603,9.758910179138184,-0.09239999949932098,-0.06759999692440033,-0.04800000041723251,-0.43400001157911566,-0.5390000027616192,0.21999999295971404
-0.04805641621351242,0.05988377332687378,9.771502494812012,-0.10559999942779541,-0.08489999920129776,-0.03799999877810478,-0.4999999961268166,-0.24800000661663751,-0.1319999957758284
-0.06156928837299347,0.06817728281021118,9.757089614868164,-0.12479999661445618,-0.07999999821186066,-0.057499997317790985,-0.28499999512424284,-0.15900000036915327,-0.019999999511567335
-0.05896440148353577,0.07068640738725662,9.772805213928223,-0.13159999251365662,-0.08349999785423279,-0.03779999911785126,-0.4010000059650519,-0.3849999943496062,0.13600000534979648
-0.04860229417681694,0.06654923409223557,9.761839866638184,-0.12729999423027039,-0.08590000122785568,-0.05729999765753746,-0.369999991797759,-0.2780000117203318,-0.2699999925723957
-0.044158656150102615,0.07362648844718933,9.752531051635742,-0.13130000233650208,-0.09699999541044235,-0.04749999940395355,0.15999999609253868,0.3019999891228608,0.006000000186975531
-0.04403415694832802,0.06711426377296448,9.759982109069824,-0.1233999952673912,-0.09019999951124191,-0.05719999969005585,-0.06500000216452881,-0.05099999867112037,0.01400000015835513
-0.04403415694832802,0.06711426377296448,9.759982109069824,-0.12409999966621399,-0.09179999679327011,-0.04739999771118164,-0.06500000216452881,-0.05099999867112037,0.01400000015835513
-0.04263594374060631,0.06675034016370773,9.769904136657715,-0.09519999474287033,-0.07539999485015869,-0.03819999843835831,-0.5540000053134664,-0.5240000002097721,0.10100000161885533
-0.05343858152627945,0.06049668788909912,9.751995086669922,-0.11479999870061874,-0.08079999685287476,-0.0575999990105629,-0.29800000622931916,-0.11400000605382507,-0.05499999823992851
-0.044043734669685364,0.06974788755178452,9.764551162719727,-0.11149999499320984,-0.07539999485015869,-0.04769999906420708,-0.03400000133744912,-0.03400000133744912,-0.13100000005244303
-0.05866751819849014,0.0667024627327919,9.768621444702148,-0.09059999883174896,-0.05889999866485596,-0.03849999979138374,0.024000000747902123,-0.015999999942759198,-0.05600000063342052
-0.04888959974050522,0.06764098256826401,9.77818775177002,-0.09059999883174896,-0.05889999866485596,-0.03849999979138374,0.024000000747902123,-0.015999999942759198,-0.05600000063342052
-0.056742578744888306,0.06115749105811119,9.75375747680664,-0.07369999587535858,-0.05469999834895134,-0.05819999799132347,0.21100000476881897,-0.05900000114378995,0.03899999996469596
-0.041955988854169846,0.06373365223407745,9.768295288085938,-0.047599997371435165,-0.04129999876022339,-0.048499997705221176,-0.16599999711327754,0.0269999995907449,-0.19999999845072666
-0.04592078924179077,0.07085879147052765,9.766858100891113,-0.06790000200271606,-0.045499999076128006,-0.04839999973773956,-0.2800000031671026,-0.06899999839828364,-0.19600000221697184
-0.043114785104990005,0.07086837291717529,9.74641227722168,-0.08329999446868896,-0.05549999698996544,-0.06780000030994415,-0.09000000197086964,-0.05499999823992851,-0.09300000248123906
-0.0618470199406147,0.07584831118583679,9.752321243286133,-0.07880000025033951,-0.04230000078678131,-0.05819999799132347,-0.16999999334703236,-0.014999999216793838,0.21200000049220435
-0.04071100801229477,0.0693265050649643,9.757214546203613,-0.07699999958276749,-0.05339999869465828,-0.057999998331069946,0.10999999647985702,-0.01400000015835513,-0.13100000005244303
-0.05031654238700867,0.07532158493995667,9.767970085144043,-0.06340000033378601,-0.03929999843239784,-0.048499997705221176,0.043999998591942806,0.11099999887334903,0.1079999983629796
-0.04604528844356537,0.06745903193950653,9.764741897583008,-0.039000000804662704,-0.02889999933540821,-0.04859999939799309,0.23499999551156117,0.2519999895101791,-0.04200000047506539
-0.05798756331205368,0.06632896512746811,9.756361961364746,-0.08020000159740448,-0.05389999970793724,-0.05819999799132347,-0.1180000022875799,-0.07300000130214508,0.04600000004387353
-0.05777687579393387,0.08046433329582214,9.762989044189453,-0.05889999866485596,-0.024899998679757118,-0.048499997705221176,0.09800000110848592,0.0269999995907449,0.049999999612681666
-0.04895663633942604,0.06546705216169357,9.757071495056152,-0.03739999979734421,-0.034199997782707214,-0.058399997651576996,-0.21700000578955783,-0.21899999723632863,0.04600000004387353
-0.04151545837521553,0.0737031027674675,9.76931095123291,-0.05350000038743019,-0.03959999978542328,-0.03869999945163727,-0.3439999962680328,-0.0539999991814898,0.20099999417411205
-0.04908113554120064,0.0723910853266716,9.767739295959473,-0.08179999887943268,-0.05040000006556511,-0.04829999804496765,-0.0269999995907449,0,0.11599999750059588
-0.05255751311779022,0.06746860593557358,9.759599685668945,-0.059699997305870056,-0.03680000081658363,-0.048499997705221176,-0.07699999753589991,-0.0969999987149939,-0.08499999667351618
-0.048688482493162155,0.07110778987407684,9.766437530517578,-0.04389999806880951,-0.026799999177455902,-0.04859999939799309,0.29999999767609,0.11099999887334903,0.029999998433587676
-0.049914319068193436,0.06304412335157394,9.758727073669434,-0.06659999489784241,-0.05139999836683273,-0.05819999799132347,0.03999999902313467,-0.23000000355442093,-0.057000003026912535
-0.04800853505730629,0.07187393307685852,9.75191879272461,-0.06390000134706497,-0.039799999445676804,-0.05829999968409538,0.019000000453128628,-0.13499999628619785,0.22100000202331266
-0.05542098358273506,0.07088752835988998,9.767280578613281,-0.08209999650716782,-0.05089999735355377,-0.04829999804496765,-0.007000000079177565,0.007999999971379599,-0.07399999702553048
-0.03587471693754196,0.07200801372528076,9.751755714416504,-0.04739999771118164,-0.03879999741911888,-0.05829999968409538,-0.1629999966029081,0.14600000260429016,-0.15399999507179982
-0.050249505788087845,0.06404010951519012,9.764809608459473,-0.04739999771118164,-0.03879999741911888,-0.05829999968409538,-0.03899999996469596,-0.1180000022875799,0.16899999762364695
-0.050249505788087845,0.06404010951519012,9.764809608459473,-0.08379999548196793,-0.05949999764561653,-0.04829999804496765,-0.03899999996469596,-0.1180000022875799,0.16899999762364695
-0.048142608255147934,0.07006391882896423,9.767289161682129,-0.06119999662041664,-0.043299999088048935,-0.048499997705221176,0.20899999998183494,0.11400000605382507,0.07099999651516105
-0.03843172639608383,0.0719122365117073,9.76538372039795,-0.05069999769330025,-0.03399999812245369,-0.048499997705221176,-0.014999999216793838,0.08799999718388561,0.07300000130214508
-0.05462610721588135,0.06981492042541504,9.74760913848877,-0.04739999771118164,-0.026899999007582664,-0.0681999996304512,-0.19499999315337319,-0.07600000181251451,-0.04500000098543482
-0.037426162511110306,0.07575254142284393,9.749801635742188,-0.0210999995470047,-0.020099999383091927,-0.05849999934434891,0.09800000110848592,0.10999999647985702,0.2379999960219306
-0.049224790185689926,0.0657639279961586,9.761926651000977,-0.06390000134706497,-0.04609999805688858,-0.048499997705221176,-0.12299999424472013,-0.05300000012305109,0.1629999966029081
-0.05006754770874977,0.08027279376983643,9.755250930786133,-0.04839999973773956,-0.019899999722838402,-0.058399997651576996,0.06700000028140622,-0.05900000114378995,-0.03899999996469596
-0.051456183195114136,0.07440221309661865,9.76073932647705,-0.03519999980926514,-0.021800000220537186,-0.04859999939799309,0.18199999538851008,-0.05600000063342052,0.2519999895101791
-0.04118026793003082,0.0644710585474968,9.753307342529297,-0.06659999489784241,-0.05810000002384186,-0.05810000002384186,0.12100000279794933,-0.13300000483942703,0.019000000453128628
-0.05327577516436577,0.07566635310649872,9.755644798278809,-0.058399997651576996,-0.03720000013709068,-0.05829999968409538,-0.09999999922536333,-0.1070000026395942,0.11400000605382507
-0.05204036831855774,0.06526593863964081,9.760845184326172,-0.0648999959230423,-0.051899999380111694,-0.04839999973773956,0.07900000232288394,0.1400000015835513,0.16500000138989213
-0.043804313987493515,0.06423164159059525,9.76401424407959,-0.0705999955534935,-0.06149999797344208,-0.04829999804496765,-0.11200000126684104,-0.04900000055424296,-0.05600000063342052
-0.037665579468011856,0.06087975949048996,9.74869155883789,-0.0478999987244606,-0.04829999804496765,-0.06809999793767929,-0.07099999651516105,0.0030000000934877653,0.15800000464576788
-0.06054457277059555,0.07363606989383698,9.767557144165039,-0.055799998342990875,-0.027699999511241913,-0.04859999939799309,-0.2570000081477458,0.1620000008795227,0.13000000432905762
-0.05566040053963661,0.07148128747940063,9.759560585021973,-0.06619999557733536,-0.04010000079870224,-0.04839999973773956,-0.2069999951948509,0.06399999977103679,-0.19799999366374263
-0.04685931280255318,0.06773675233125687,9.763323783874512,-0.07129999995231628,-0.04899999871850014,-0.04829999804496765,-0.07199999890865307,-0.12499999903170415,0.008999999863581633
-0.047692496329545975,0.07017884403467178,9.762088775634766,-0.052299998700618744,-0.035599999129772186,-0.048499997705221176,0.05600000063342052,0.1849999958988795,0.024000000747902123
-0.051293376833200455,0.07394252717494965,9.768447875976562,-0.044999998062849045,-0.019099999219179153,-0.04859999939799309,-0.11299999699022645,0.0329999989439571,0.08899999957737763
-0.040251318365335464,0.06258442997932434,9.764426231384277,-0.015699999406933784,-0.022199999541044235,-0.0486999973654747,-0.01400000015835513,0.07300000130214508,0.17599999436777122
-0.04582501947879791,0.07167281955480576,9.777009963989258,-0.015699999406933784,-0.022199999541044235,-0.0486999973654747,-0.01400000015835513,0.07300000130214508,0.17599999436777122
-0.05128380283713341,0.07012137770652771,9.772183418273926,-0.0142000000923872,-0.006399999838322401,-0.03889999911189079,-0.07900000232288394,-0.15500000413539844,-0.12400000330831876
-0.04952166602015495,0.06687483936548233,9.754188537597656,-0.01119999960064888,-0.01249999925494194,-0.05859999731183052,0.08899999957737763,0.06700000028140622,0.019000000453128628
-0.06485413014888763,0.06323565542697906,9.753786087036133,-0.01589999906718731,-0.009800000116229057,-0.05859999731183052,-0.021999999295971403,0.3280000113330135,0.007000000079177565
-0.04109407961368561,0.07733272016048431,9.756563186645508,-0.025100000202655792,-0.009399999864399433,-0.05849999934434891,-0.05499999823992851,0.048000001495804245,-0.2379999960219306
-0.04303817078471184,0.0773710235953331,9.764904975891113,-0.046799998730421066,-0.023399999365210533,-0.048499997705221176,-0.008999999863581633,0.021000000237532696,0.17799999915475526
-0.03789542242884636,0.06558196991682053,9.756975173950195,-0.0279999990016222,-0.03269999846816063,-0.058399997651576996,-0.03999999902313467,-0.007999999971379599,0.12799999954207358
-0.05903143808245659,0.07491935789585114,9.754839897155762,-0.036399997770786285,-0.011299999430775642,-0.05849999934434891,-0.12499999903170415,-0.16500000138989213,0.12100000279794933
-0.050364427268505096,0.07238151133060455,9.76215648651123,-0.05139999836683273,-0.027400000020861626,-0.04859999939799309,-0.14600000260429016,0.019999999511567335,-0.07900000232288394
-0.04853525385260582,0.06676950305700302,9.764752388000488,-0.03709999844431877,-0.02669999934732914,-0.0486999973654747,0.06200000165415938,-0.13799999679656727,-0.12499999903170415
-0.04747223109006882,0.08288726210594177,9.759705543518066,-0.02019999921321869,-0.005399999674409628,-0.0486999973654747,-0.24299998797907083,-0.019999999511567335,-0.19999999845072666
-0.046121902763843536,0.07717949151992798,9.772144317626953,-0.042799998074769974,-0.01939999870955944,-0.03879999741911888,-0.0329999989439571,-0.046999999102312236,0.023000000021936765
-0.045221682637929916,0.07424898445606232,9.767979621887207,-0.031300000846385956,-0.021399999037384987,-0.0486999973654747,0.14600000260429016,-0.03999999902313467,0.03999999902313467
-0.0464475117623806,0.07146213203668594,9.753326416015625,-0.023899998515844345,-0.016599999740719795,-0.05849999934434891,0.08700000146050021,0.046999999102312236,0.07699999753589991
-0.05983588844537735,0.0668078064918518,9.754868507385254,-0.03280000016093254,-0.02029999904334545,-0.05849999934434891,0.13799999679656727,0.038000000906257256,0.1419999930303221
-0.05436753109097481,0.0745171383023262,9.754111289978027,-0.01719999872148037,-0.008299999870359898,-0.05849999934434891,-0.1529999993484144,-0.10199999734224074,-0.05900000114378995
-0.057997141033411026,0.06511270999908447,9.756649017333984,-0.020399998873472214,-0.013499999418854713,-0.05849999934434891,-0.09000000197086964,-0.07900000232288394,-0.09000000197086964
-0.0457388311624527,0.08502288907766342,9.77094841003418,-0.000699999975040555,0.00419999985024333,-0.03889999911189079,0.18099999966512467,-0.013000000266153095,0.0859999990670082
-0.04936843737959862,0.07564719021320343,9.764473915100098,-0.007699999958276749,-0.004399999976158142,-0.0486999973654747,0.035000000395887826,-0.031999999885518396,0.03100000082707969
-0.06472963839769363,0.06405925750732422,9.760671615600586,-0.012799999676644802,-0.010499999858438969,-0.0486999973654747,0.05799999875029794,-0.015999999942759198,0.1509999945614304
-0.046907201409339905,0.07151959091424942,9.75992488861084,0.004900000058114529,-0.0007999999797903001,-0.0486999973654747,0.10299999973573276,0.12400000330831876,-0.10299999973573276
-0.05912720412015915,0.07010222971439362,9.770440101623535,-0.00989999994635582,-0.000699999975040555,-0.03889999911189079,0.04200000047506539,0.06399999977103679,-0.038000000906257256
-0.051341261714696884,0.07644207030534744,9.756610870361328,0.009800000116229057,-0.0008999999845400453,-0.0486999973654747,0.08400000095013078,0.07799999992939192,0.10600000024610218
-0.06163632869720459,0.06152140721678734,9.766322135925293,-0.00930000003427267,-0.011299999430775642,-0.0486999973654747,-0.0749999994190225,0.08400000095013078,0.046999999102312236
-0.06163632869720459,0.06152140721678734,9.766322135925293,-0.00930000003427267,-0.011299999430775642,-0.0486999973654747,-0.0749999994190225,0.08400000095013078,0.046999999102312236
-0.06157886981964111,0.07005434483289719,9.768420219421387,-0.008999999612569809,-0.0011999999405816197,-0.03889999911189079,0.0009999999964224499,-0.09099999769425504,-0.07099999651516105
-0.057221420109272,0.07213250547647476,9.75566291809082,-0.054899998009204865,-0.029199998825788498,-0.03879999741911888,-0.03999999902313467,0.12199999852133472,-0.04600000004387353
-0.05435795709490776,0.07495766133069992,9.760671615600586,-0.021199999377131462,-0.013899999670684338,-0.0486999973654747,0.06500000216452881,-0.13700000107318186,-0.1079999983629796
-0.03967671096324921,0.06675034016370773,9.754878044128418,-0.008599999360740185,-0.017799999564886093,-0.05849999934434891,0.03999999902313467,-0.05999999686717535,-0.0009999999964224499
-0.04684973880648613,0.06498821079730988,9.759378433227539,-0.008599999360740185,-0.017799999564886093,-0.05849999934434891,0.05099999867112037,-0.01400000015835513,-0.03599999945432653
-0.047261543571949005,0.07788816839456558,9.757932662963867,-0.004699999932199717,0.004799999762326479,-0.05859999731183052,0.18900000547284757,0.05999999686717535,-0.012000000373951061
-0.04823837801814079,0.07051403075456619,9.770651817321777,-0.00969999935477972,-0.0037999998312443495,-0.03889999911189079,0.0329999989439571,0.11500000177721047,0.043999998591942806
-0.05312254652380943,0.06948930770158768,9.775678634643555,-0.0064999996684491634,-0.00279999990016222,-0.03889999911189079,0.043999998591942806,-0.021000000237532696,0.041000001416626686
-0.050364427268505096,0.06298665702342987,9.769003868103027,-0.004600000102072954,-0.008999999612569809,-0.03889999911189079,0.06099999926066736,0.05300000012305109,0.09800000110848592
-0.055219866335392,0.07502470165491104,9.760834693908691,-0.0031999999191612005,0.00029999998514540493,-0.0486999973654747,-0.1729999938574018,-0.10600000024610218,-0.024999999806340833
-0.045461103320121765,0.0733487606048584,9.751947402954102,0.004900000058114529,0.00039999998989515007,-0.05859999731183052,0.0009999999964224499,-0.023000000021936765,0.02899999937514897
-0.05971139296889305,0.06490202248096466,9.758450508117676,-0.014699999243021011,-0.00930000003427267,-0.05859999731183052,-0.08400000095013078,0.019999999511567335,0.0039999999856897995
-0.04832456633448601,0.0710982158780098,9.772624015808105,-0.004900000058114529,0.0005999999702908099,-0.03889999911189079,-0.14099999730693671,0.008999999863581633,0.07000000079177565
-0.051982905715703964,0.06788040697574615,9.76810359954834,-0.004799999762326479,0.0010999999940395355,-0.04879999905824661,-0.10100000161885533,0.04500000098543482,-0.06899999839828364
-0.054108958691358566,0.06686526536941528,9.752167701721191,-0.004699999932199717,-0.008299999870359898,-0.05859999731183052,-0.0329999989439571,-0.18099999966512467,-0.007000000079177565
-0.056627657264471054,0.07410532981157303,9.766342163085938,-0.004699999932199717,0.0013000000035390258,-0.04879999905824661,0.0749999994190225,0.021999999295971403,-0.08200000283325337
-0.044512998312711716,0.08159439265727997,9.75822925567627,0.0050999997183680534,0.010900000110268593,-0.05859999731183052,0.06399999977103679,0.05099999867112037,-0.2740000021463637
-0.05215528979897499,0.06912539154291153,9.759819030761719,-0.054899998009204865,-0.03240000084042549,-0.048499997705221176,0.010999999647985701,-0.01700000066872456,0.04500000098543482
-0.05215528979897499,0.06912539154291153,9.759819030761719,-0.054899998009204865,-0.03240000084042549,-0.048499997705221176,0.010999999647985701,-0.01700000066872456,0.04500000098543482
-0.04707000404596329,0.07898949831724167,9.760614395141602,-0.018799999728798866,-0.0044999998062849045,-0.0486999973654747,-0.0009999999964224499,-0.21899999723632863,0.03899999996469596
-0.0350702665746212,0.07210377603769302,9.765288352966309,-0.006799999624490738,-0.010199999436736107,-0.0486999973654747,0.046999999102312236,-0.06200000165415938,-0.03400000133744912
-0.04130476713180542,0.07463205605745316,9.76362133026123,-0.012000000104308128,-0.007499999832361937,-0.0486999973654747,-0.1749999986443858,0.014999999216793838,-0.17100000241063099
-0.048640601336956024,0.07538862526416779,9.755308151245117,-0.04399999976158142,-0.02239999920129776,-0.05849999934434891,-0.09000000197086964,-0.1400000015835513,-0.16699999283666295
-0.06028600037097931,0.07683472335338593,9.767643928527832,-0.07039999961853027,-0.023499999195337296,-0.048499997705221176,-0.10999999647985702,-0.06800000267489824,-0.3379999952472939
-0.052739474922418594,0.06250781565904617,9.762070655822754,-0.07249999791383743,-0.050999999046325684,-0.04839999973773956,-0.1939999974299878,-0.1070000026395942,-0.012000000373951061
-0.04863102361559868,0.07303272932767868,9.76673412322998,-0.05299999937415123,-0.02969999983906746,-0.04859999939799309,-0.0269999995907449,-0.05999999686717535,0.06399999977103679
-0.05506663769483566,0.06979577243328094,9.761237144470215,-0.03869999945163727,-0.021699998527765274,-0.0486999973654747,0.0539999991814898,-0.057000003026912535,-0.15900000036915327
-0.05433880165219307,0.07071514427661896,9.760815620422363,-0.0284000001847744,-0.016099998727440834,-0.0486999973654747,-0.0030000000934877653,0.017999999727163266,0.0329999989439571
-0.05541140213608742,0.07296568900346756,9.761102676391602,-0.02070000022649765,-0.011799999512732029,-0.0486999973654747,0.14499999354069154,0.05600000063342052,0.07399999702553048
-0.060151923447847366,0.0823509618639946,9.757587432861328,-0.023099999874830246,-0.0018999999156221747,-0.05849999934434891,-0.0019999999928448997,0.06800000267489824,-0.004999999877891834
-0.05441541597247124,0.07573339343070984,9.766111373901367,-0.009399999864399433,-0.008499999530613422,-0.0486999973654747,-0.021999999295971403,0.05799999875029794,0.07000000079177565
-0.06201940029859543,0.0723910853266716,9.764196395874023,-0.013799999840557575,-0.006300000008195639,-0.0486999973654747,0.13000000432905762,0.029999998433587676,-0.04600000004387353
-0.05992208048701286,0.07597281038761139,9.757434844970703,-0.010400000028312206,-0.0050999997183680534,-0.05849999934434891,0.21100000476881897,-0.09999999922536333,0.0039999999856897995
-0.03066493570804596,0.0629100427031517,9.7633056640625,-0.00839999970048666,-0.030899999663233757,-0.04859999939799309,0.06299999737754478,-0.07699999753589991,-0.010999999647985701
-0.05938578024506569,0.07362648844718933,9.7672700881958,-0.02759999968111515,-0.01549999974668026,-0.0486999973654747,0.06099999926066736,0.1719999981340164,-0.0969999987149939
-0.04701254144310951,0.0679091364145279,9.768697738647461,-0.005200000014156103,-0.010900000110268593,-0.03889999911189079,0.024999999806340833,0.014999999216793838,0.128999995265459
-0.055555056780576706,0.06807194650173187,9.758880615234375,-0.0038999998942017555,-0.008499999530613422,-0.05849999934434891,0.0329999989439571,0.09899999683187131,0.12400000330831876
-0.055555056780576706,0.06807194650173187,9.758880615234375,-0.03689999878406525,-0.022599998861551285,-0.04859999939799309,0.0329999989439571,0.09899999683187131,0.12400000330831876
-0.051695603877305984,0.07119398564100266,9.75147819519043,-0.022199999541044235,-0.014699999243021011,-0.05849999934434891,-0.19099999691961836,-0.010999999647985701,0.07300000130214508
-0.05412811413407326,0.07848193496465683,9.757453918457031,-0.022199999541044235,-0.014699999243021011,-0.05849999934434891,0.1199999937343507,0.06399999977103679,0.06800000267489824
-0.06142564117908478,0.06047753617167473,9.757932662963867,-0.019899999722838402,-0.01759999990463257,-0.05849999934434891,0.13300000483942703,-0.021999999295971403,0.07000000079177565
-0.05202121287584305,0.06478710472583771,9.775506973266602,-0.006799999624490738,-0.012299999594688416,-0.03889999911189079,0.14499999354069154,0.20899999998183494,0.009999999755783667
-0.04114196076989174,0.0699106901884079,9.763267517089844,-0.006799999624490738,-0.012299999594688416,-0.03889999911189079,-0.02600000053230619,-0.0269999995907449,-0.008999999863581633
-0.05857175216078758,0.0781850516796112,9.769482612609863,-0.027499999850988388,-0.0058999997563660145,-0.03889999911189079,0.0009999999964224499,-0.16999999334703236,0.01400000015835513
-0.05395573005080223,0.07017884403467178,9.757473945617676,-0.027499999850988388,-0.0058999997563660145,-0.03889999911189079,-0.017999999727163266,-0.03899999996469596,-0.14399999781730613
-0.03588429465889931,0.07828081399202347,9.764933586120605,0.003999999724328518,-0.0017999999690800905,-0.0486999973654747,-0.07300000130214508,-0.12100000279794933,-0.1189999980109653
-0.046294283121824265,0.07111737132072449,9.758238792419434,-0.006099999882280827,-0.011399999260902405,-0.05849999934434891,0.12299999424472013,-0.01700000066872456,-0.009999999755783667
-0.0531991608440876,0.07217081636190414,9.757119178771973,-0.01589999906718731,-0.011799999512732029,-0.05849999934434891,0.041000001416626686,0.11299999699022645,-0.04200000047506539
-0.0451354905962944,0.07151001691818237,9.763879776000977,-0.0058999997563660145,-0.011899999342858791,-0.0486999973654747,0.0749999994190225,-0.19699999794035722,0.02600000053230619
-0.04320097714662552,0.06902962177991867,9.772269248962402,-0.0064999996684491634,-0.012199999764561653,-0.03889999911189079,-0.1610000051561373,-0.024999999806340833,-0.10999999647985702
-0.05855259671807289,0.0778307095170021,9.748173713684082,-0.026200000196695328,-0.001999999862164259,-0.06830000132322311,-0.08499999667351618,-0.05600000063342052,0.0659999978879142
-0.04918648302555084,0.057901374995708466,9.752732276916504,-0.016599999740719795,-0.021299999207258224,-0.05849999934434891,0.0009999999964224499,-0.06800000267489824,-0.09000000197086964
-0.05184883251786232,0.07417237013578415,9.766963958740234,-0.016699999570846558,-0.011500000022351742,-0.0486999973654747,0.09099999769425504,0.24800000661663751,-0.09899999683187131
-0.0517817959189415,0.07633672654628754,9.768669128417969,-0.01589999906718731,-0.011799999512732029,-0.03889999911189079,-0.012000000373951061,-0.22400000253368207,-0.09300000248123906
-0.04588248208165169,0.07546523958444595,9.758689880371094,-0.006799999624490738,-0.011699999682605267,-0.05849999934434891,0.0969999987149939,-0.03100000082707969,0.017999999727163266
-0.05618712678551674,0.08018659800291061,9.770421028137207,-0.016699999570846558,-0.002099999925121665,-0.03889999911189079,-0.07300000130214508,0.01700000066872456,-0.15800000464576788
-0.0412377305328846,0.0834139883518219,9.771062850952148,-0.006799999624490738,-0.0018999999156221747,-0.03889999911189079,0.12100000279794933,0.09099999769425504,0.048000001495804245
-0.04130476713180542,0.07766789942979813,9.768860816955566,-0.006599999964237213,-0.002099999925121665,-0.03889999911189079,-0.006000000186975531,0.08499999667351618,-0.019000000453128628
-0.04815218225121498,0.07231447100639343,9.750826835632324,-0.016200000420212746,-0.011899999342858791,-0.05849999934434891,-0.031999999885518396,-0.10299999973573276,0.05099999867112037
-0.057690683752298355,0.07480443269014359,9.756573677062988,-0.026200000196695328,-0.011799999512732029,-0.05849999934434891,0.038000000906257256,-0.01400000015835513,-0.14300000209392072
-0.035654451698064804,0.07310934364795685,9.754849433898926,0.0030999998562037945,-0.011899999342858791,-0.05849999934434891,-0.021999999295971403,0.05499999823992851,-0.02899999937514897
-0.051504068076610565,0.06745903193950653,9.758450508117676,-0.016300000250339508,-0.011899999342858791,-0.05849999934434891,0.03899999996469596,-0.02899999937514897,-0.06700000028140622
-0.043545741587877274,0.07021714746952057,9.75871753692627,-0.0064999996684491634,-0.011899999342858791,-0.05849999934434891,0.07999999804626934,0.10999999647985702,0.13600000534979648
-0.06253654509782791,0.07656657695770264,9.755959510803223,-0.02579999901354313,-0.012199999764561653,-0.05849999934434891,0.049999999612681666,-0.09099999769425504,-0.04900000055424296
-0.0462176688015461,0.0772465243935585,9.753413200378418,-0.006399999838322401,-0.0024999999441206455,-0.05849999934434891,0.02800000031671026,-0.13100000005244303,-0.19499999315337319
-0.06448063999414444,0.06993941962718964,9.772289276123047,-0.026399999856948853,-0.012399999424815178,-0.03889999911189079,-0.035000000395887826,0.2699999925723957,-0.019999999511567335
-0.03967671096324921,0.07532158493995667,9.757281303405762,-0.0058999997563660145,-0.012299999594688416,-0.05849999934434891,0.05900000114378995,0.07000000079177565,0.11500000177721047
-0.05588066950440407,0.06385814398527145,9.761495590209961,-0.01549999974668026,-0.022199999541044235,-0.0486999973654747,0.19900000272734125,0.23499999551156117,0.22800001210765014
-0.04157291725277901,0.06962338089942932,9.76335334777832,-0.004999999888241291,-0.012999999336898327,-0.0486999973654747,-0.010999999647985701,0.1070000026395942,-0.007999999971379599
-0.05702031031250954,0.0669323056936264,9.763957023620605,-0.014599999412894249,-0.02279999852180481,-0.0486999973654747,-0.1629999966029081,0.041000001416626686,-0.4270000014947782
-0.03762727230787277,0.06960423290729523,9.777450561523438,0.004999999888241291,-0.012600000016391277,-0.03889999911189079,0.21800000151294321,0.0749999994190225,0.0749999994190225
-0.05262455344200134,0.0639922246336937,9.753087043762207,-0.0044999998062849045,-0.023099999874830246,-0.05849999934434891,0.0269999995907449,0.2069999951948509,-0.13700000107318186
-0.05310339480638504,0.07575254142284393,9.774415016174316,-0.0142000000923872,-0.02319999970495701,-0.05849999934434891,0.02600000053230619,-0.04200000047506539,0.023000000021936765
-0.051743488758802414,0.06288131326436996,9.769166946411133,-0.013700000010430813,-0.02329999953508377,-0.03889999911189079,0.07000000079177565,0.10299999973573276,0.06099999926066736
-0.05114014819264412,0.06925946474075317,9.765393257141113,-0.013399999588727951,-0.013700000010430813,-0.0486999973654747,0.13100000005244303,0.03100000082707969,0.07099999651516105
-0.0437181256711483,0.07705498486757278,9.766082763671875,-0.013399999588727951,-0.013700000010430813,-0.0486999973654747,0.13100000005244303,0.03100000082707969,0.07099999651516105
-0.05337154492735863,0.07012137770652771,9.759723663330078,-0.013299999758601189,-0.013799999840557575,-0.0486999973654747,-0.0019999999928448997,-0.004999999877891834,-0.14799999405106096
-0.05843767523765564,0.07210377603769302,9.759809494018555,-0.023099999874830246,-0.013799999840557575,-0.0486999973654747,-0.02600000053230619,0.10100000161885533,-0.18199999538851008
-0.05552632361650467,0.07002561539411545,9.763036727905273,-0.012999999336898327,-0.013700000010430813,-0.0486999973654747,-0.10600000024610218,-0.03699999851276524,-0.13700000107318186
-0.0631398856639862,0.06944143027067184,9.771608352661133,-0.02290000021457672,-0.013399999588727951,-0.03889999911189079,-0.1199999937343507,0.14799999405106096,-0.014999999216793838
-0.049636587500572205,0.07485232502222061,9.75589370727539,-0.012600000016391277,-0.012999999336898327,-0.05849999934434891,0.07300000130214508,-0.1939999974299878,-0.09600000299160849
-0.043095629662275314,0.06840712577104568,9.78761100769043,-0.0031999999191612005,-0.013100000098347664,-0.0486999973654747,0.19200000598321698,0.08299999855663877,0.04200000047506539
-0.046907201409339905,0.07761044055223465,9.76401424407959,-0.003000000026077032,-0.003700000001117587,-0.0486999973654747,-0.04500000098543482,-0.010999999647985701,-0.29399999665535115
-0.04909071326255798,0.07732313871383667,9.764962196350098,-0.012899999506771564,-0.003599999938160181,-0.0486999973654747,0,0.06200000165415938,0.08299999855663877
-0.03386358916759491,0.06808152049779892,9.766523361206055,0.0066999997943639755,-0.013399999588727951,-0.0486999973654747,-0.09999999922536333,-0.10999999647985702,-0.09600000299160849
-0.05266286060214043,0.07965987920761108,9.766523361206055,-0.013100000098347664,-0.003399999812245369,-0.0486999973654747,-0.1509999945614304,-0.08299999855663877,0.01700000066872456
-0.059088896960020065,0.06540001928806305,9.752589225769043,-0.003999999724328518,-0.011899999342858791,-0.0486999973654747,0.21299999621558977,-0.1070000026395942,0.0969999987149939
-0.05379292368888855,0.0737031027674675,9.768333435058594,-0.004299999680370092,-0.012799999676644802,-0.0486999973654747,-0.11599999750059588,-0.019999999511567335,0.019000000453128628
-0.045346178114414215,0.0766623392701149,9.763152122497559,-0.00419999985024333,-0.00279999990016222,-0.0486999973654747,-0.12799999954207358,0.04200000047506539,-0.043999998591942806
-0.055152833461761475,0.07149086147546768,9.755002975463867,-0.013599999248981476,-0.012000000104308128,-0.05849999934434891,-0.0039999999856897995,-0.20200000323771067,-0.007999999971379599
-0.05492299050092697,0.07309018820524216,9.741881370544434,-0.013599999248981476,-0.011899999342858791,-0.06830000132322311,-0.04600000004387353,0.029999998433587676,0.03599999945432653
-0.04755842313170433,0.07018841803073883,9.763459205627441,-0.0038999998942017555,-0.011599999852478504,-0.0486999973654747,-0.06800000267489824,-0.03999999902313467,-0.08799999718388561
-0.052567094564437866,0.06694187968969345,9.761457443237305,-0.013599999248981476,-0.021299999207258224,-0.0486999973654747,0.03599999945432653,-0.10600000024610218,0.06399999977103679
-0.04983770474791527,0.0810580924153328,9.758928298950195,-0.013899999670684338,-0.0013000000035390258,-0.0486999973654747,0.014999999216793838,0.12100000279794933,0.16999999334703236
-0.04712746664881706,0.07553227245807648,9.761016845703125,-0.0038999998942017555,-0.010799999348819256,-0.0486999973654747,0.07199999890865307,0.03899999996469596,-0.12199999852133472
-0.042521022260189056,0.07166324555873871,9.760116577148438,-0.0038999998942017555,-0.010799999348819256,-0.0486999973654747,-0.019999999511567335,0.008999999863581633,-0.17599999436777122
-0.04820007085800171,0.08186253905296326,9.753833770751953,-0.013299999758601189,-0.0004999999655410647,-0.05849999934434891,-0.012000000373951061,0.07699999753589991,0.13000000432905762
-0.049943044781684875,0.06922116130590439,9.761887550354004,-0.012999999336898327,-0.010099999606609344,-0.0486999973654747,0.006000000186975531,0.08899999957737763,-0.048000001495804245
-0.048161763697862625,0.06388688087463379,9.768630027770996,-0.012799999676644802,-0.019099999219179153,-0.03889999911189079,0.06500000216452881,0.01700000066872456,0.004999999877891834
-0.05272989720106125,0.06912539154291153,9.772106170654297,-0.003000000026077032,-0.008999999612569809,-0.0486999973654747,-0.06700000028140622,-0.128999995265459,0.0539999991814898
-0.054300494492053986,0.08303091675043106,9.76668643951416,-0.01269999984651804,0.0008999999845400453,-0.0486999973654747,-0.2150000010025738,-0.12499999903170415,-0.04900000055424296
-0.054300494492053986,0.08303091675043106,9.76668643951416,-0.01269999984651804,0.0008999999845400453,-0.0486999973654747,-0.2150000010025738,-0.12499999903170415,-0.04900000055424296
-0.04853525385260582,0.07162494212388992,9.749734878540039,-0.013100000098347664,-0.00839999970048666,-0.0486999973654747,0.07399999702553048,0.1070000026395942,0.0030000000934877653
-0.05242343991994858,0.07377971708774567,9.74068546295166,-0.012600000016391277,-0.008299999870359898,-0.06830000132322311,-0.08700000146050021,-0.12400000330831876,0.021999999295971403
-0.028261156752705574,0.059136781841516495,9.773419380187988,0.01640000008046627,-0.017899999395012856,-0.03889999911189079,0.007999999971379599,-0.06399999977103679,-0.08100000043976135
-0.047548845410346985,0.06732495129108429,9.774950981140137,-0.0032999999821186066,-0.008100000210106373,-0.03889999911189079,0.04200000047506539,-0.05999999686717535,0.07300000130214508
-0.044493842869997025,0.0720367431640625,9.755759239196777,-0.003399999812245369,-0.008100000210106373,-0.05849999934434891,0.0009999999964224499,0.06899999839828364,0.16999999334703236
-0.051053959876298904,0.07051403075456619,9.75725269317627,-0.012999999336898327,-0.008100000210106373,-0.05849999934434891,-0.09399999820462447,-0.021999999295971403,-0.049999999612681666
-0.05467398837208748,0.06559155136346817,9.746268272399902,-0.013100000098347664,-0.01769999973475933,-0.06830000132322311,0.019999999511567335,0.2039999946844815,-0.30700000776042746
-0.05538267642259598,0.06698018312454224,9.76521110534668,-0.012600000016391277,-0.017799999564886093,-0.0486999973654747,-0.09800000110848592,-0.04200000047506539,-0.07699999753589991
-0.0454898327589035,0.07382760941982269,9.758966445922852,-0.002899999963119626,-0.007599999662488699,-0.0486999973654747,-0.05200000106461238,-0.05900000114378995,-0.029999998433587676
-0.037905003875494,0.07066725939512253,9.779719352722168,0.0066999997943639755,-0.007499999832361937,-0.029099998995661736,0.08700000146050021,0.021999999295971403,0.128999995265459
-0.04746265336871147,0.07037995010614395,9.777603149414062,-0.003000000026077032,-0.007699999958276749,-0.03889999911189079,-0.24800000661663751,0.024999999806340833,-0.021999999295971403
-0.050057969987392426,0.07459375262260437,9.763985633850098,-0.012799999676644802,-0.0071000000461936,-0.0486999973654747,-0.0039999999856897995,-0.09999999922536333,-0.057000003026912535
-0.04447469115257263,0.07172070443630219,9.762548446655273,-0.0032999999821186066,-0.0071000000461936,-0.0486999973654747,-0.04600000004387353,-0.15399999507179982,-0.08499999667351618
-0.05348646640777588,0.07340622693300247,9.76085376739502,-0.013599999248981476,-0.006899999920278788,-0.0486999973654747,-0.04500000098543482,-0.041000001416626686,-0.019000000453128628
-0.05552632361650467,0.07160577923059464,9.757243156433105,-0.013599999248981476,-0.006799999624490738,-0.05849999934434891,-0.029999998433587676,-0.09500000059811649,-0.05200000106461238
-0.06196194142103195,0.07612603902816772,9.763649940490723,-0.02369999885559082,-0.0066999997943639755,-0.0486999973654747,-0.04200000047506539,-0.19600000221697184,-0.14699999832767557
-0.05305550992488861,0.08689036220312119,9.760030746459961,-0.014399999752640724,0.012899999506771564,-0.0486999973654747,0.05499999823992851,0.1729999938574018,0.1509999945614304
-0.06613742560148239,0.0706193745136261,9.76504898071289,-0.023799998685717583,-0.006799999624490738,-0.0486999973654747,0.10999999647985702,-0.19999999845072666,-0.14600000260429016
-0.051791369915008545,0.06749733537435532,9.758890151977539,-0.014699999243021011,-0.007199999876320362,-0.0486999973654747,0.11400000605382507,-0.08299999855663877,0.1419999930303221
-0.046552855521440506,0.06827305257320404,9.762491226196289,-0.0050999997183680534,-0.007499999832361937,-0.0486999973654747,-0.03400000133744912,-0.01700000066872456,-0.09300000248123906
-0.03687070310115814,0.07326257228851318,9.76302719116211,0.0044999998062849045,-0.007400000002235174,-0.0486999973654747,0.057000003026912535,-0.05999999686717535,-0.12799999954207358
-0.05838021636009216,0.07223785668611526,9.774491310119629,-0.024899998679757118,-0.007499999832361937,-0.03889999911189079,0.05200000106461238,0.07099999651516105,0.02899999937514897
-0.043277591466903687,0.07548438757658005,9.765949249267578,-0.004999999888241291,-0.007599999662488699,-0.0486999973654747,0.07300000130214508,0.07600000181251451,0.03699999851276524
-0.05251920595765114,0.07950665056705475,9.755854606628418,-0.014599999412894249,0.0017999999690800905,-0.05849999934434891,0.0030000000934877653,0.03400000133744912,0.05300000012305109
-0.04049073904752731,0.07088752835988998,9.76695442199707,-0.014499999582767487,-0.007899999618530273,-0.0486999973654747,-0.012000000373951061,-0.01400000015835513,-0.10199999734224074
-0.04049073904752731,0.07088752835988998,9.76695442199707,-0.004299999680370092,-0.007999999448657036,-0.0486999973654747,-0.012000000373951061,-0.01400000015835513,-0.10199999734224074
-0.049636587500572205,0.0761834979057312,9.762779235839844,-0.0139999995008111,-0.008100000210106373,-0.0486999973654747,-0.0030000000934877653,-0.09800000110848592,0.09300000248123906
-0.047864880412817,0.073473259806633,9.75207233428955,-0.0044999998062849045,-0.008100000210106373,-0.05849999934434891,0.09899999683187131,0.024000000747902123,0.024999999806340833
-0.047213658690452576,0.07323384284973145,9.772106170654297,-0.004399999976158142,-0.008100000210106373,-0.03889999911189079,-0.1830000044521087,-0.03699999851276524,0.07999999804626934
-0.0407588891685009,0.075350321829319,9.765316009521484,-0.023799998685717583,-0.007400000002235174,-0.0486999973654747,0.10900000075647161,0.05999999686717535,0.1729999938574018
-0.0407588891685009,0.075350321829319,9.765316009521484,-0.003999999724328518,-0.007499999832361937,-0.0486999973654747,0.10900000075647161,0.05999999686717535,0.1729999938574018
-0.04647624120116234,0.06591715663671494,9.752445220947266,-0.0038999998942017555,-0.01759999990463257,-0.05849999934434891,-0.07999999804626934,-0.048000001495804245,-0.03400000133744912
-0.05207867547869682,0.0737031027674675,9.769683837890625,-0.014099999330937862,-0.007599999662488699,-0.03889999911189079,0.021999999295971403,-0.06399999977103679,-0.03999999902313467
-0.05366842821240425,0.07186435908079147,9.764205932617188,-0.014099999330937862,-0.007599999662488699,-0.03889999911189079,0.024999999806340833,-0.0030000000934877653,0.14499999354069154
-0.04943547770380974,0.07790732383728027,9.76432991027832,-0.0142000000923872,0.001999999862164259,-0.0486999973654747,0.024999999806340833,-0.03899999996469596,-0.01400000015835513
-0.05942408740520477,0.06594589352607727,9.759292602539062,-0.02410000003874302,-0.01759999990463257,-0.0486999973654747,0.07000000079177565,-0.13799999679656727,-0.05499999823992851
-0.05057511478662491,0.06633853912353516,9.769549369812012,-0.014699999243021011,-0.017799999564886093,-0.03889999911189079,-0.007999999971379599,0.11599999750059588,-0.0030000000934877653
-0.04059608280658722,0.06510313600301743,9.762893676757812,-0.004699999932199717,-0.01769999973475933,-0.0486999973654747,-0.021000000237532696,0.12199999852133472,-0.12499999903170415
-0.05541140213608742,0.06575435400009155,9.763832092285156,-0.014299999922513962,-0.01719999872148037,-0.0486999973654747,0.01700000066872456,0.008999999863581633,0.03699999851276524
-0.04390966147184372,0.06887639313936234,9.748863220214844,-0.004399999976158142,-0.007400000002235174,-0.06830000132322311,-0.01400000015835513,0.07099999651516105,-0.014999999216793838
-0.05822698771953583,0.07825209200382233,9.77077579498291,-0.02369999885559082,0.002300000051036477,-0.03889999911189079,0.22299999347008345,0.06200000165415938,0.05999999686717535
-0.05113057419657707,0.06676950305700302,9.764885902404785,-0.013899999670684338,-0.01769999973475933,-0.0486999973654747,-0.006000000186975531,-0.08299999855663877,0.05200000106461238
-0.06291962414979935,0.07129932194948196,9.763592720031738,-0.023899998515844345,-0.007799999788403511,-0.0486999973654747,-0.03999999902313467,0.0429999995335041,0.049999999612681666
-0.05791094899177551,0.06808152049779892,9.753039360046387,-0.02369999885559082,-0.007699999958276749,-0.05849999934434891,-0.01400000015835513,-0.041000001416626686,0.06500000216452881
-0.05523902177810669,0.07675810903310776,9.755041122436523,-0.0139999995008111,0.001999999862164259,-0.05849999934434891,-0.07900000232288394,0.08400000095013078,0.08299999855663877
-0.04863102361559868,0.07826166599988937,9.75338363647461,-0.013700000010430813,0.002300000051036477,-0.05849999934434891,-0.11200000126684104,-0.01400000015835513,0.04500000098543482
-0.041314344853162766,0.07137593626976013,9.75828742980957,-0.0038999998942017555,-0.007199999876320362,-0.05849999934434891,-0.05499999823992851,0.12499999903170415,0.008999999863581633
-0.04867890849709511,0.0643274113535881,9.76340103149414,-0.013299999758601189,-0.01679999940097332,-0.0486999973654747,0.17100000241063099,0.13000000432905762,0.16500000138989213
-0.046524129807949066,0.063973069190979,9.765172958374023,-0.0031999999191612005,-0.01719999872148037,-0.0486999973654747,0.0329999989439571,-0.06200000165415938,0
-0.057029884308576584,0.06993941962718964,9.752129554748535,-0.013199999928474426,-0.007400000002235174,-0.05849999934434891,-0.10299999973573276,-0.1800000039417393,-0.14600000260429016
-0.04350743442773819,0.0754939615726471,9.763726234436035,-0.003999999724328518,-0.0071000000461936,-0.0486999973654747,-0.06200000165415938,-0.14099999730693671,0
-0.045700524002313614,0.07543651014566422,9.76925277709961,-0.004299999680370092,-0.006899999920278788,-0.03889999911189079,-0.14699999832767557,0.05300000012305109,0.0659999978879142
-0.0460931695997715,0.06748775392770767,9.768677711486816,-0.004100000020116568,-0.0064999996684491634,-0.03889999911189079,-0.05799999875029794,-0.14699999832767557,0.057000003026912535
-0.05102522671222687,0.0726209282875061,9.765786170959473,-0.0142000000923872,-0.006300000008195639,-0.0486999973654747,0.10600000024610218,0.15200000362502902,0.128999995265459
-0.048832137137651443,0.07419151812791824,9.759111404418945,-0.013799999840557575,-0.006599999964237213,-0.0486999973654747,0.09000000197086964,-0.06700000028140622,0.06800000267489824
-0.05712565407156944,0.08204450458288193,9.755395889282227,-0.0139999995008111,0.00279999990016222,-0.05849999934434891,-0.07699999753589991,-0.13400000056281244,0.11699999322398127
-0.052145712077617645,0.07598238438367844,9.770612716674805,-0.0142000000923872,-0.0066999997943639755,-0.03889999911189079,0.1509999945614304,0.019000000453128628,-0.07199999890865307
-0.05021119862794876,0.0760589987039566,9.773303985595703,-0.014099999330937862,-0.007199999876320362,-0.03889999911189079,0.009999999755783667,-0.07399999702553048,0.009999999755783667
-0.04897578805685043,0.05521029233932495,9.758124351501465,-0.014299999922513962,-0.026799999177455902,-0.05849999934434891,-0.19200000598321698,0.16699999283666295,-0.06200000165415938
-0.046054862439632416,0.060439229011535645,9.754839897155762,-0.0038999998942017555,-0.016300000250339508,-0.05849999934434891,-0.03100000082707969,-0.12499999903170415,-0.13799999679656727
-0.0445513054728508,0.06838797777891159,9.754179000854492,-0.004299999680370092,-0.006399999838322401,-0.05849999934434891,0.07999999804626934,0.26900001018922354,0.23900000508552924
-0.053735461086034775,0.07338707149028778,9.754427909851074,-0.013499999418854713,-0.006599999964237213,-0.05849999934434891,0.03599999945432653,0.12700000381868817,0.07900000232288394
-0.048966214060783386,0.0675356462597847,9.757875442504883,-0.013100000098347664,-0.006599999964237213,-0.05849999934434891,0.04200000047506539,-0.004999999877891834,0.26500000061525547
-0.05725015327334404,0.07328172028064728,9.762022018432617,-0.013100000098347664,-0.0066999997943639755,-0.0486999973654747,-0.0039999999856897995,0.02899999937514897,0.26600000967885407
-0.04163037985563278,0.0774955227971077,9.755107879638672,-0.0032999999821186066,0.003000000026077032,-0.05849999934434891,0.14699999832767557,-0.0539999991814898,-0.07399999702553048
-0.05016331374645233,0.07020757347345352,9.753355026245117,-0.013199999928474426,-0.007199999876320362,-0.05849999934434891,0.057000003026912535,0.03899999996469596,0.06700000028140622
-0.039772480726242065,0.07031290978193283,9.757731437683105,-0.0032999999821186066,-0.0072999997064471245,-0.05849999934434891,0.0329999989439571,0.10999999647985702,-0.2140000052791884
-0.05239471048116684,0.06843586266040802,9.759780883789062,-0.012899999506771564,-0.007400000002235174,-0.0486999973654747,-0.11500000177721047,-0.009999999755783667,-0.1070000026395942
-0.043660663068294525,0.06635769456624985,9.75338363647461,-0.0030999998562037945,-0.016899999231100082,-0.05849999934434891,-0.10199999734224074,-0.021000000237532696,-0.12400000330831876
-0.04962701350450516,0.07000645250082016,9.761381149291992,-0.012899999506771564,-0.006799999624490738,-0.0486999973654747,0.04200000047506539,-0.05200000106461238,0.22199999774669807
-0.05045061931014061,0.06696103513240814,9.76113224029541,-0.0032999999821186066,0.00279999990016222,-0.0486999973654747,0.23099998593759313,-0.03999999902313467,-0.010999999647985701
-0.05414726585149765,0.06562986224889755,9.770880699157715,-0.013199999928474426,-0.01719999872148037,-0.0486999973654747,-0.11400000605382507,-0.07900000232288394,-0.08799999718388561
-0.04599740356206894,0.07755298167467117,9.765565872192383,-0.013199999928474426,-0.017099998891353607,-0.03889999911189079,-0.02600000053230619,-0.13700000107318186,-0.08100000043976135
-0.0580546036362648,0.07539819926023483,9.76002025604248,-0.023499999195337296,-0.00699999975040555,-0.0486999973654747,0.0009999999964224499,-0.10199999734224074,-0.02600000053230619
-0.0580546036362648,0.07539819926023483,9.76002025604248,-0.023499999195337296,-0.00699999975040555,-0.0486999973654747,0.0009999999964224499,-0.10199999734224074,-0.02600000053230619
-0.03924575448036194,0.07156747579574585,9.754656791687012,-0.004100000020116568,-0.006899999920278788,-0.05849999934434891,0.08700000146050021,-0.07099999651516105,-0.09200000008774706
-0.049540821462869644,0.06364745646715164,9.755184173583984,-0.014099999330937862,-0.016999999061226845,-0.05849999934434891,-0.0749999994190225,-0.014999999216793838,-0.13000000432905762
-0.04582501947879791,0.07086837291717529,9.763851165771484,-0.004299999680370092,-0.00699999975040555,-0.0486999973654747,0.03899999996469596,0.12599999475508955,0.05499999823992851
-0.05887820944190025,0.06630022823810577,9.755471229553223,-0.023599999025464058,-0.01679999940097332,-0.05849999934434891,-0.012000000373951061,0.0659999978879142,0.2519999895101791
-0.047864880412817,0.07062894850969315,9.755586624145508,-0.003700000001117587,-0.00699999975040555,-0.05849999934434891,-0.12199999852133472,-0.1199999937343507,-0.12199999852133472
-0.060467954725027084,0.06924030929803848,9.766629219055176,-0.023599999025464058,-0.006599999964237213,-0.0486999973654747,-0.16599999711327754,-0.10299999973573276,0.057000003026912535
-0.06296750903129578,0.07121313363313675,9.763152122497559,-0.023799998685717583,-0.006199999712407589,-0.0486999973654747,0.0539999991814898,-0.02600000053230619,0.05999999686717535
-0.04493437707424164,0.06559155136346817,9.759771347045898,-0.00419999985024333,-0.016099998727440834,-0.0486999973654747,-0.05200000106461238,0.06399999977103679,0.0659999978879142
-0.043564897030591965,0.06938396394252777,9.759206771850586,-0.003999999724328518,-0.006099999882280827,-0.0486999973654747,-0.07000000079177565,0.048000001495804245,0.13400000056281244
-0.05441541597247124,0.07647079974412918,9.775152206420898,-0.013599999248981476,-0.0058999997563660145,-0.03889999911189079,0.12700000381868817,0.0429999995335041,-0.06200000165415938
-0.057384226471185684,0.06203855574131012,9.76450252532959,-0.013499999418854713,-0.01589999906718731,-0.0486999973654747,-0.05300000012305109,-0.07799999992939192,0.04500000098543482
-0.0578247606754303,0.06938396394252777,9.754236221313477,-0.02319999970495701,-0.0052999998442828655,-0.05849999934434891,0.06899999839828364,-0.03699999851276524,-0.0030000000934877653
-0.04772122949361801,0.08039729297161102,9.741671562194824,-0.003700000001117587,0.00419999985024333,-0.06839999556541443,0.1419999930303221,-0.06399999977103679,0.03999999902313467
-0.04772122949361801,0.08039729297161102,9.741671562194824,-0.003700000001117587,0.00419999985024333,-0.06839999556541443,0.1419999930303221,-0.06399999977103679,0.03999999902313467
-0.05218401923775673,0.07060979306697845,9.765814781188965,-0.013700000010430813,-0.006199999712407589,-0.0486999973654747,-0.02800000031671026,-0.03699999851276524,-0.08400000095013078
-0.05621585622429848,0.06948930770158768,9.757884979248047,-0.013499999418854713,-0.006099999882280827,-0.05849999934434891,-0.2469999975530389,-0.2499999980634083,-0.08700000146050021
-0.0558040551841259,0.07202716171741486,9.759590148925781,-0.014699999243021011,-0.004699999932199717,-0.0486999973654747,-0.029999998433587676,-0.19600000221697184,-0.149999998838045
-0.05225105583667755,0.07890331000089645,9.757185935974121,-0.01489999983459711,0.005699999630451202,-0.05859999731183052,-0.13799999679656727,0.04600000004387353,-0.15800000464576788
-0.0494067445397377,0.0764324963092804,9.760796546936035,-0.014599999412894249,-0.0037999998312443495,-0.04879999905824661,0.09399999820462447,-0.019000000453128628,-0.03999999902313467
-0.0471561960875988,0.0668078064918518,9.765862464904785,-0.004999999888241291,-0.013700000010430813,-0.04879999905824661,0.03400000133744912,0.1620000008795227,-0.0009999999964224499
-0.03693774342536926,0.08404605835676193,9.752120018005371,0.005699999630451202,0.00559999980032444,-0.05859999731183052,-0.07199999890865307,0.05799999875029794,-0.10400000212922476
-0.048573561012744904,0.06418376415967941,9.76166820526123,-0.013799999840557575,-0.013700000010430813,-0.0486999973654747,0.0019999999928448997,-0.14900000311465958,0.1319999957758284
-0.04627513140439987,0.0636187270283699,9.769721984863281,-0.004299999680370092,-0.013100000098347664,-0.03889999911189079,0.13300000483942703,0.0969999987149939,-0.017999999727163266
-0.04691677540540695,0.07614518702030182,9.762663841247559,-0.003599999938160181,-0.0038999998942017555,-0.0486999973654747,-0.012000000373951061,0.0269999995907449,-0.1199999937343507
-0.04428315535187721,0.07533115893602371,9.762473106384277,-0.003000000026077032,-0.003399999812245369,-0.0486999973654747,-0.006000000186975531,-0.08200000283325337,-0.10499999785261017
-0.04303817078471184,0.07078217715024948,9.789268493652344,-0.01269999984651804,-0.012899999506771564,-0.04879999905824661,-0.09099999769425504,0.05200000106461238,-0.0019999999928448997
-0.0578247606754303,0.0774955227971077,9.770584106445312,-0.01209999993443489,-0.012399999424815178,-0.04879999905824661,0.04500000098543482,0.16800000190026157,0.1749999986443858
-0.04867890849709511,0.06933607906103134,9.764473915100098,-0.010900000110268593,-0.00279999990016222,-0.0486999973654747,0.006000000186975531,-0.13400000056281244,-0.20599999947146552
-0.04852567985653877,0.07230489701032639,9.761351585388184,-0.011299999430775642,-0.002699999837204814,-0.0486999973654747,0.14499999354069154,-0.22400000253368207,-0.13600000534979648
-0.05266286060214043,0.07421068102121353,9.781003952026367,-0.011899999342858791,-0.0030999998562037945,-0.029099998995661736,-0.0859999990670082,-0.2069999951948509,-0.007999999971379599
-0.0603051520884037,0.05905058979988098,9.75987720489502,-0.011899999342858791,-0.0030999998562037945,-0.029099998995661736,0.0269999995907449,0.05099999867112037,-0.035000000395887826
-0.05276820436120033,0.06942227482795715,9.751526832580566,-0.012299999594688416,-0.002899999963119626,-0.05859999731183052,0.013000000266153095,-0.05200000106461238,0.01400000015835513
-0.054300494492053986,0.06889554858207703,9.761687278747559,-0.01249999925494194,-0.002899999963119626,-0.04879999905824661,0.1070000026395942,-0.038000000906257256,0.0030000000934877653
-0.05883990228176117,0.07457458972930908,9.764694213867188,-0.022299999371170998,-0.0030999998562037945,-0.04879999905824661,-0.15699999558216926,0.012000000373951061,-0.20999999570522035
-0.05012500658631325,0.06694187968969345,9.761869430541992,-0.012399999424815178,-0.01249999925494194,-0.04879999905824661,0.007999999971379599,-0.05600000063342052,0.009999999755783667
-0.05204036831855774,0.0674111396074295,9.769376754760742,-0.012600000016391277,-0.002699999837204814,-0.03889999911189079,0.1189999980109653,-0.03999999902313467,0.0969999987149939
-0.04636131972074509,0.07259219139814377,9.760049819946289,-0.002899999963119626,-0.003000000026077032,-0.04879999905824661,0.024999999806340833,0.0749999994190225,-0.0019999999928448997
-0.04872678965330124,0.0751204788684845,9.751142501831055,-0.012399999424815178,-0.0030999998562037945,-0.05859999731183052,-0.0429999995335041,0.029999998433587676,0.06500000216452881
-0.04317224398255348,0.06336015462875366,9.751717567443848,-0.0024999999441206455,-0.01269999984651804,-0.05859999731183052,-0.05799999875029794,-0.02600000053230619,-0.23199999500119176
-0.056100934743881226,0.07392337173223495,9.750741004943848,-0.012399999424815178,-0.002699999837204814,-0.05859999731183052,0.03699999851276524,-0.029999998433587676,-0.03599999945432653
-0.04273171350359917,0.07778282463550568,9.75451374053955,-0.002699999837204814,0.006799999624490738,-0.05859999731183052,-0.09399999820462447,-0.16699999283666295,-0.015999999942759198
-0.04563348367810249,0.06542874127626419,9.765776634216309,-0.003000000026077032,-0.01249999925494194,-0.04879999905824661,-0.20099999417411205,-0.02600000053230619,0.0030000000934877653
-0.04463749751448631,0.06274724006652832,9.77307415008545,-0.0030999998562037945,-0.011799999512732029,-0.039000000804662704,0.05200000106461238,0.06099999926066736,0.12199999852133472
-0.05457821860909462,0.0632643848657608,9.767633438110352,-0.01269999984651804,-0.011899999342858791,-0.04879999905824661,0.0329999989439571,0.11200000126684104,-0.03599999945432653
-0.05104437842965126,0.07590577006340027,9.756027221679688,-0.012399999424815178,-0.002199999988079071,-0.05859999731183052,0.09200000008774706,0.06800000267489824,0.1830000044521087
-0.051149725914001465,0.060812726616859436,9.760403633117676,-0.01209999993443489,-0.012299999594688416,-0.04879999905824661,-0.08499999667351618,0.0539999991814898,-0.017999999727163266
-0.0674302950501442,0.07272627204656601,9.75207233428955,-0.03150000050663948,-0.002300000051036477,-0.05859999731183052,0.17400000292100043,0.1070000026395942,0.0659999978879142
-0.06114790961146355,0.0675356462597847,9.76538372039795,-0.021299999207258224,-0.00279999990016222,-0.04879999905824661,-0.07999999804626934,-0.01400000015835513,-0.041000001416626686
-0.04987601190805435,0.0790373831987381,9.759771347045898,-0.011500000022351742,0.0071000000461936,-0.04879999905824661,0.03100000082707969,-0.10199999734224074,0.08499999667351618
-0.050603847950696945,0.06945100426673889,9.772173881530762,-0.011799999512732029,-0.002699999837204814,-0.03889999911189079,-0.09099999769425504,-0.0030000000934877653,0.024999999806340833
-0.05384080857038498,0.06677907705307007,9.772441864013672,-0.011500000022351742,-0.011899999342858791,-0.03889999911189079,0.09099999769425504,-0.04200000047506539,0.014999999216793838
-0.04800853505730629,0.0700160339474678,9.761639595031738,-0.011299999430775642,-0.002199999988079071,-0.04879999905824661,-0.1070000026395942,-0.03599999945432653,0.1719999981340164
-0.042501870542764664,0.06685569137334824,9.758938789367676,-0.0015999999595806003,-0.011399999260902405,-0.04879999905824661,-0.023000000021936765,-0.06700000028140622,0.07999999804626934
-0.04966532066464424,0.06542874127626419,9.765440940856934,-0.011299999430775642,-0.011099999770522118,-0.04879999905824661,0.03899999996469596,-0.05799999875029794,-0.1729999938574018
-0.04389050602912903,0.07055233418941498,9.763736724853516,-0.0015999999595806003,-0.00139999995008111,-0.04879999905824661,0.01700000066872456,-0.07999999804626934,0.12299999424472013
-0.05386953800916672,0.07414364069700241,9.767557144165039,-0.011399999260902405,-0.011099999770522118,-0.05859999731183052,-0.03699999851276524,0.024000000747902123,-0.008999999863581633
-0.05265328288078308,0.07576211541891098,9.768745422363281,-0.010999999940395355,-0.00139999995008111,-0.04879999905824661,0.09399999820462447,0.09300000248123906,0.057000003026912535
-0.05612008646130562,0.07331045717000961,9.772700309753418,-0.010199999436736107,-0.00139999995008111,-0.03889999911189079,-0.04600000004387353,0.06099999926066736,0.05999999686717535
-0.04220498725771904,0.07184520363807678,9.758450508117676,-0.00019999999494757503,-0.0013000000035390258,-0.05859999731183052,-0.1509999945614304,0.24099999653230003,0.16500000138989213
-0.04220498725771904,0.07184520363807678,9.758450508117676,-0.00019999999494757503,-0.0013000000035390258,-0.05859999731183052,-0.1509999945614304,0.24099999653230003,0.16500000138989213
-0.04249228909611702,0.056196700781583786,9.771676063537598,0.0004999999655410647,-0.019899999722838402,-0.039000000804662704,0.10299999973573276,-0.12400000330831876,0.0009999999964224499
-0.04877467826008797,0.06304412335157394,9.760040283203125,-0.009599999524652958,-0.010400000028312206,-0.04879999905824661,0.010999999647985701,-0.009999999755783667,-0.029999998433587676
-0.06789956241846085,0.07730398327112198,9.778733253479004,-0.029099998995661736,0.009099999442696571,-0.029099998995661736,0.10299999973573276,-0.17599999436777122,0.019000000453128628
-0.058543018996715546,0.06309200078248978,9.764646530151367,-0.019700000062584877,-0.010699999518692493,-0.04879999905824661,-0.0039999999856897995,-0.015999999942759198,-0.10199999734224074
-0.057594917714595795,0.07394252717494965,9.763075828552246,-0.019899999722838402,-0.0007999999797903001,-0.04879999905824661,0.024000000747902123,-0.08700000146050021,-0.18600000496247812
-0.05136999115347862,0.07256346195936203,9.755212783813477,-0.019899999722838402,-0.0007999999797903001,-0.04879999905824661,0.029999998433587676,-0.0429999995335041,-0.08700000146050021
-0.05136999115347862,0.07256346195936203,9.755212783813477,-0.010400000028312206,-0.0008999999845400453,-0.05859999731183052,0.029999998433587676,-0.0429999995335041,-0.08700000146050021
-0.0432392843067646,0.08182423561811447,9.769109725952148,-0.000699999975040555,0.008700000122189522,-0.039000000804662704,0.10199999734224074,-0.16500000138989213,0.14499999354069154
-0.05371630936861038,0.06921158730983734,9.764789581298828,-0.010900000110268593,-0.0013000000035390258,-0.04879999905824661,-0.20099999417411205,-0.12499999903170415,-0.19900000272734125
-0.05606262758374214,0.07124187052249908,9.755854606628418,-0.011399999260902405,-0.0005999999702908099,-0.05859999731183052,0.18099999966512467,-0.14699999832767557,0.03899999996469596
-0.0584089420735836,0.07268796861171722,9.762385368347168,-0.021699998527765274,-0.0011999999405816197,-0.04879999905824661,-0.1189999980109653,-0.09099999769425504,-0.14799999405106096
-0.054233454167842865,0.06941269338130951,9.76401424407959,-0.012000000104308128,-0.0008999999845400453,-0.04879999905824661,0.021000000237532696,-0.0329999989439571,-0.12799999954207358
-0.06332184374332428,0.07115567475557327,9.759934425354004,-0.021900000050663948,-0.0008999999845400453,-0.04879999905824661,-0.019000000453128628,0.09500000059811649,-0.13499999628619785
-0.05199248343706131,0.07633672654628754,9.759215354919434,-0.011699999682605267,-0.0008999999845400453,-0.04879999905824661,0.01400000015835513,-0.11099999887334903,-0.06700000028140622
-0.039944861084222794,0.07673895359039307,9.773399353027344,-0.002099999925121665,0.008799999952316284,-0.039000000804662704,-0.06299999737754478,0.0429999995335041,0.049999999612681666
-0.05760449171066284,0.08345229178667068,9.762558937072754,-0.02149999886751175,0.008999999612569809,-0.04879999905824661,-0.07600000181251451,0.038000000906257256,0
-0.049397170543670654,0.05601474270224571,9.770075798034668,-0.011599999852478504,-0.020099999383091927,-0.039000000804662704,0.0329999989439571,-0.01700000066872456,-0.12299999424472013
-0.058830320835113525,0.08444827795028687,9.754342079162598,-0.021399999037384987,0.009099999442696571,-0.05859999731183052,0.1189999980109653,-0.09899999683187131,0.017999999727163266
-0.03736870363354683,0.07635588198900223,9.758306503295898,0.007599999662488699,-0.0009999999310821295,-0.05859999731183052,0.05900000114378995,-0.041000001416626686,0.10199999734224074
-0.05689580738544464,0.05967308580875397,9.760106086730957,-0.012000000104308128,-0.010900000110268593,-0.04879999905824661,-0.049999999612681666,-0.26000000865811523,-0.2050000037480801
-0.05499960482120514,0.06840712577104568,9.777632713317871,-0.01269999984651804,-0.0009999999310821295,-0.039000000804662704,-0.128999995265459,-0.06700000028140622,-0.09500000059811649
-0.05047934874892235,0.07273584604263306,9.764492988586426,-0.012799999676644802,-0.000699999975040555,-0.04879999905824661,0.013000000266153095,0.15399999507179982,-0.20099999417411205
-0.045317452400922775,0.06969042122364044,9.763995170593262,-0.0026000000070780516,-0.000699999975040555,-0.04879999905824661,-0.015999999942759198,-0.0030000000934877653,0.10999999647985702
-0.0460931695997715,0.06542874127626419,9.76819896697998,-0.0026000000070780516,-0.010400000028312206,-0.04879999905824661,-0.1070000026395942,-0.14399999781730613,0.11599999750059588
-0.060343459248542786,0.07076302170753479,9.777517318725586,-0.022499999031424522,-0.00029999998514540493,-0.039000000804662704,-0.128999995265459,0.006000000186975531,0.04900000055424296
-0.051456183195114136,0.06176082789897919,9.768533706665039,-0.012600000016391277,-0.009800000116229057,-0.039000000804662704,0.057000003026912535,-0.031999999885518396,-0.024999999806340833
-0.038757335394620895,0.07222828269004822,9.753355026245117,-0.002899999963119626,-0.00009999999747378752,-0.05859999731183052,0.0429999995335041,-0.19699999794035722,0.04900000055424296
-0.05718311294913292,0.06518932431936264,9.75632381439209,-0.013199999928474426,-0.009999999776482582,-0.05859999731183052,0.004999999877891834,0.07199999890865307,-0.09999999922536333
-0.055219866335392,0.07503427565097809,9.75338363647461,-0.012899999506771564,-0.00019999999494757503,-0.05859999731183052,0.024999999806340833,0.09099999769425504,-0.15800000464576788
-0.03458184748888016,0.06602250784635544,9.7581148147583,0.006799999624490738,-0.009999999776482582,-0.05859999731183052,0.014999999216793838,-0.0749999994190225,-0.07000000079177565
-0.05300762504339218,0.07588662207126617,9.75459098815918,-0.012899999506771564,-0.00029999998514540493,-0.05859999731183052,-0.12700000381868817,-0.019999999511567335,-0.08700000146050021
-0.04118984565138817,0.07895119488239288,9.767404556274414,-0.0030999998562037945,0.00969999935477972,-0.04879999905824661,-0.0039999999856897995,0.08899999957737763,0.05099999867112037
-0.04315309226512909,0.06635769456624985,9.764311790466309,-0.00279999990016222,-0.009800000116229057,-0.04879999905824661,-0.1180000022875799,0.10400000212922476,0.024000000747902123
-0.042655099183321,0.07167281955480576,9.766120910644531,-0.0023999998811632395,0.00029999998514540493,-0.04879999905824661,-0.038000000906257256,-0.035000000395887826,0.14600000260429016
-0.05702031031250954,0.06973830610513687,9.760231018066406,-0.0023999998811632395,0.009999999776482582,-0.05859999731183052,-0.09500000059811649,-0.15900000036915327,-0.16899999762364695
-0.04554729536175728,0.06995857506990433,9.767461776733398,-0.01209999993443489,0,-0.04879999905824661,-0.09500000059811649,-0.15900000036915327,-0.16899999762364695
-0.055842362344264984,0.0665971115231514,9.7516508102417,-0.002699999837204814,0.00029999998514540493,-0.04879999905824661,0.0019999999928448997,-0.043999998591942806,-0.04500000098543482
-0.055842362344264984,0.0665971115231514,9.7516508102417,-0.012799999676644802,-0.008999999612569809,-0.05859999731183052,0.0019999999928448997,-0.043999998591942806,-0.04500000098543482
-0.0590122826397419,0.06835924834012985,9.769683837890625,-0.022699998691678047,0.000699999975040555,-0.039000000804662704,0.06700000028140622,0.04900000055424296,0.02899999937514897
-0.04902367293834686,0.07058106362819672,9.771541595458984,-0.012799999676644802,0.0004999999655410647,-0.04879999905824661,0.08899999957737763,0.14099999730693671,0.40299999741182274
-0.041908107697963715,0.07398083806037903,9.770143508911133,-0.0023999998811632395,0.00009999999747378752,-0.039000000804662704,0.03599999945432653,-0.1509999945614304,0.1749999986443858
-0.05417599529027939,0.07459375262260437,9.767739295959473,-0.012600000016391277,0,-0.04879999905824661,0.09500000059811649,-0.1319999957758284,-0.15800000464576788
-0.04772122949361801,0.07670064270496368,9.751373291015625,-0.012600000016391277,0,-0.04879999905824661,0.04500000098543482,0.02800000031671026,0.06399999977103679
-0.05268201604485512,0.07398083806037903,9.76073932647705,-0.012899999506771564,-0.00029999998514540493,-0.04879999905824661,-0.10499999785261017,0.2140000052791884,-0.10100000161885533
-0.04659116268157959,0.07447882741689682,9.773849487304688,-0.0024999999441206455,0,-0.039000000804662704,0.05900000114378995,0.12799999954207358,-0.0009999999964224499
-0.039513904601335526,0.07017884403467178,9.771225929260254,-0.002199999988079071,-0.00009999999747378752,-0.039000000804662704,-0.2890000046982109,-0.01400000015835513,-0.10999999647985702
-0.05919424444437027,0.06950846314430237,9.767059326171875,-0.021800000220537186,0.0005999999702908099,-0.04879999905824661,0.023000000021936765,0.18199999538851008,-0.043999998591942806
-0.048468220978975296,0.07921934872865677,9.774826049804688,-0.011299999430775642,0.010300000198185444,-0.039000000804662704,-0.04200000047506539,0.021999999295971403,0.1800000039417393
-0.04611232504248619,0.0706193745136261,9.761907577514648,-0.001500000013038516,0.0004999999655410647,-0.04879999905824661,0.11299999699022645,0.05999999686717535,0.0030000000934877653
-0.043095629662275314,0.07064810395240784,9.768793106079102,-0.0013000000035390258,0.00019999999494757503,-0.039000000804662704,-0.02899999937514897,-0.01700000066872456,0.14300000209392072
-0.043967120349407196,0.07012137770652771,9.748336791992188,-0.0013000000035390258,0.00029999998514540493,-0.06839999556541443,0.007000000079177565,0.038000000906257256,0.02800000031671026
-0.04879382997751236,0.06515101343393326,9.764426231384277,-0.010999999940395355,-0.009399999864399433,-0.04879999905824661,-0.05099999867112037,0.019000000453128628,0.019000000453128628
-0.0445513054728508,0.0728507712483406,9.757071495056152,-0.0010999999940395355,0.00039999998989515007,-0.05859999731183052,0,0.013000000266153095,0.012000000373951061
-0.047663770616054535,0.07005434483289719,9.755979537963867,-0.0010999999940395355,0.00039999998989515007,-0.05859999731183052,-0.02600000053230619,0.08200000283325337,-0.0009999999964224499
-0.05731718987226486,0.05801629647612572,9.760796546936035,-0.010599999688565731,-0.009200000204145908,-0.04879999905824661,0.0659999978879142,-0.04500000098543482,-0.015999999942759198
-0.05274904891848564,0.0814124345779419,9.75801944732666,-0.010699999518692493,0.010199999436736107,-0.05859999731183052,0.08899999957737763,0.038000000906257256,0.07000000079177565
-0.0542621873319149,0.05874413251876831,9.749496459960938,-0.010499999858438969,-0.009599999524652958,-0.05859999731183052,-0.0329999989439571,0.04200000047506539,0.10900000075647161
-0.0511784553527832,0.06267062574625015,9.756133079528809,-0.010199999436736107,-0.00930000003427267,-0.05859999731183052,0.10299999973573276,0.021000000237532696,-0.012000000373951061
-0.04143884405493736,0.06472006440162659,9.761476516723633,-0.00029999998514540493,-0.009200000204145908,-0.04879999905824661,0.07900000232288394,-0.04200000047506539,0.024000000747902123
-0.04808514937758446,0.06689399480819702,9.770392417907715,-0.009999999776482582,-0.009200000204145908,-0.039000000804662704,0.12400000330831876,-0.004999999877891834,0.09999999922536333
-0.048305410891771317,0.0712227076292038,9.775372505187988,-0.00969999935477972,0.00019999999494757503,-0.039000000804662704,0.048000001495804245,-0.023000000021936765,0.08799999718388561
-0.06405925750732422,0.0728507712483406,9.755395889282227,-0.019199999049305916,0.00009999999747378752,-0.05859999731183052,-0.11699999322398127,0.07900000232288394,0.1400000015835513
-0.039561789482831955,0.06709510833024979,9.769559860229492,0.0005999999702908099,0.00039999998989515007,-0.039000000804662704,-0.007999999971379599,0.038000000906257256,0.0659999978879142
-0.0543866828083992,0.06435614079236984,9.770306587219238,-0.008799999952316284,-0.008999999612569809,-0.039000000804662704,-0.14399999781730613,-0.024999999806340833,-0.12100000279794933
-0.04974193498492241,0.06902004778385162,9.7499361038208,-0.008700000122189522,0.0010999999940395355,-0.05859999731183052,-0.06500000216452881,0.06200000165415938,-0.14699999832767557
-0.04563348367810249,0.07503427565097809,9.766916275024414,0.0010999999940395355,0.0011999999405816197,-0.04879999905824661,-0.1800000039417393,0.019999999511567335,-0.1400000015835513
-0.04697423428297043,0.06990111619234085,9.76069164276123,0.0011999999405816197,0.0016999999061226845,-0.04879999905824661,0.2140000052791884,-0.14799999405106096,0.057000003026912535
-0.042597636580467224,0.06719087809324265,9.7680082321167,0.000699999975040555,0.0009999999310821295,-0.04879999905824661,0.07300000130214508,0.10199999734224074,0.07799999992939192
-0.04993347078561783,0.05961562320590019,9.760566711425781,-0.008799999952316284,-0.008899999782443047,-0.04879999905824661,0.0429999995335041,0.08799999718388561,0.10900000075647161
-0.045087605714797974,0.07603026926517487,9.750779151916504,0.0008999999845400453,0.0005999999702908099,-0.05859999731183052,0.18600000496247812,-0.06399999977103679,-0.0269999995907449
-0.059443242847919464,0.07403828948736191,9.758238792419434,-0.018699999898672104,0.00009999999747378752,-0.05859999731183052,0.09200000008774706,-0.09999999922536333,-0.23199999500119176
-0.05427176132798195,0.06904877722263336,9.759590148925781,-0.00930000003427267,-0.00009999999747378752,-0.04879999905824661,0,0.31600000929153577,0.2150000010025738
-0.042118798941373825,0.07739975303411484,9.759072303771973,0.0011999999405816197,0.009599999524652958,-0.04879999905824661,-0.02600000053230619,-0.3409999957576634,-0.1199999937343507
-0.05286397039890289,0.06316861510276794,9.7600679397583,0.00029999998514540493,0.00969999935477972,-0.039000000804662704,-0.1390000058601659,-0.14600000260429016,0.03100000082707969
-0.04073973372578621,0.06626192480325699,9.749476432800293,-0.009599999524652958,-0.00969999935477972,-0.04879999905824661,-0.017999999727163266,-0.18099999966512467,-0.20999999570522035
-0.04073973372578621,0.06626192480325699,9.749476432800293,-0.00019999999494757503,-0.00930000003427267,-0.05859999731183052,-0.017999999727163266,-0.18099999966512467,-0.20999999570522035
-0.04801810905337334,0.07398083806037903,9.758220672607422,-0.0007999999797903001,0.010300000198185444,-0.05859999731183052,0.23000000355442093,-0.1319999957758284,0.0039999999856897995
-0.057786453515291214,0.07360734045505524,9.77120590209961,-0.010499999858438969,0.00029999998514540493,-0.05859999731183052,0.043999998591942806,0.046999999102312236,0.008999999863581633
-0.053754616528749466,0.06168421357870102,9.757176399230957,-0.02070000022649765,-0.00019999999494757503,-0.039000000804662704,0.024000000747902123,-0.05799999875029794,0.06200000165415938
