Accelerometer_Gx,Accelerometer_Gy,Accelerometer_Gz,Accelerometer_X,Accelerometer_Y,Accelerometer_Z,Gyroscope_Z,Gyroscope_X,Gyroscope_Y
0.008478635922074318,0.03425891324877739,9.888432502746582,-0.000023290514945983887,0.0013102032244205475,0.0031948089599609375,0.015815543147002533,-0.024207844604964803,0.05877714621179845
0.006803013384342194,0.03446359187364578,9.88534927368164,-0.003522575832903385,0.00858604907989502,0.0020971298217773438,-0.0055313059693731775,0.05817410854317376,-0.08123653576041272
0.008367659524083138,0.03131702542304993,9.8853178024292,-0.007626147009432316,0.007360201328992844,0.0019168853759765625,0.05550379806238967,-0.002860995488589091,-0.020599350278762606
0.0036963114980608225,0.036179088056087494,9.880526542663574,-0.007466183975338936,0.006339412182569504,-0.002994537353515625,-0.02698815848398312,-0.002860995488589091,-0.03872074261119897
0.008669346570968628,0.034494828432798386,9.878660202026367,-0.007081208750605583,0.005399778485298157,0.0017747879028320312,-0.04793709572035269,0.10057989829415327,0.0031771201888536192
0.011047732084989548,0.03431275114417076,9.880526542663574,0.002357734367251396,0.004478367045521736,-0.0029363632202148438,0.05318417510680343,-0.06389609952035194,-0.07467560545408655
0.01159396767616272,0.031530339270830154,9.877561569213867,0.0026266826316714287,0.00407768227159977,-0.00246429443359375,0.017737254222582644,0.020407564703366732,-0.04386789713050521
0.007798823527991772,0.02970387041568756,9.8853178024292,0.0025807302445173264,-0.0009885374456644058,0.002197265625,0.03132941071218735,-0.027035382838791408,-0.057460060290216525
0.008052009157836437,0.03095286712050438,9.884068489074707,-0.00209137424826622,-0.0009504631161689758,0.0020923614501953125,0.010380473475817777,0.013050783956601864,0.04043575375300024
0.010803183540701866,0.03409943729639053,9.87573528289795,0.0027492307126522064,0.003702845424413681,-0.007008552551269531,0.05046664027121105,0.0021761623025895313,-0.07659729651934684
0.01159396767616272,0.03520622476935387,9.877775192260742,0.0027763815596699715,-0.0015225093811750412,-0.0017290115356445312,0.05550379806238967,-0.002860995488589091,0.014449665395558656
0.004122938960790634,0.03506401553750038,9.87995719909668,-0.006063810549676418,0.008416080847382545,-0.005948066711425781,-0.012782538949120192,-0.002860995488589091,0.06732768927900816
0.006803013384342194,0.032423462718725204,9.87845516204834,-0.001283775083720684,-0.005666252225637436,-0.01024627685546875,0.07695619494578324,-0.002860995488589091,0.08827661984527113
0.006803013384342194,0.02909516543149948,9.8853178024292,-0.0010717883706092834,-0.0013199057430028915,0.0043239593505859375,0.09327482421383952,-0.002860995488589091,-0.06612506238687685
0.006803013384342194,0.034494828432798386,9.880526542663574,-0.0008478839881718159,0.003498874604701996,-0.0002880096435546875,0.0231723238937674,0.02947047868003318,0.008104277916851319
0.004478874616324902,0.02956118807196617,9.87573528289795,-0.0010599391534924507,-0.005812527611851692,-0.004279136657714844,0.05550379806238967,-0.06389609952035194,0.010827072131506738
0.006803013384342194,0.03531734272837639,9.870944023132324,-0.001391865313053131,0.008281078189611435,-0.008849143981933594,-0.0055313059693731775,-0.12493123023254124,0.09099230039122555
-0.0011353230802342296,0.030525660142302513,9.867796897888184,-0.011240812949836254,-0.001791577786207199,-0.0128173828125,0.03456518615105445,0.026766177335957705,0.029966444462279328
0.0021532876417040825,0.034494828432798386,9.880526542663574,-0.0017263693735003471,0.0024874769151210785,0.0016384124755859375,0.024086608747197074,-0.06389609952035194,-0.018800102360566708
0.006803013384342194,0.037031903862953186,9.873198509216309,-0.0021603014320135117,0.002263423055410385,-0.0028209686279296875,-0.06656641000113603,-0.002860995488589091,0.00811432976751461
0.01098438911139965,0.03388524800539017,9.871553421020508,0.0029383087530732155,0.002158217132091522,-0.0073070526123046875,-0.0055313059693731775,0.050408290178575045,-0.07386863594592674
0.007837739773094654,0.03721633180975914,9.87677001953125,-0.0021135294809937477,0.006215531378984451,-0.0019330978393554688,0.015957643098250533,-0.03753199621092585,0.027253702098287196
0.0046910857781767845,0.032950010150671005,9.874190330505371,-0.0017099631950259209,0.006666142493486404,0.002941131591796875,-0.03966122764339799,-0.002860995488589091,0.03321101777176678
0.0020120516419410706,0.0317448191344738,9.878485679626465,-0.005981072783470154,0.0018359161913394928,-0.0015268325805664062,-0.0055313059693731775,-0.07292934486281115,-0.02963257561090198
0.011197326704859734,0.03409818559885025,9.870944023132324,0.0035111838951706886,0.0020475871860980988,-0.005889892578125,0.05045073873704961,-0.002860995488589091,-0.010493204947656045
0.00647735083475709,0.02556423842906952,9.875409126281738,-0.006030170246958733,0.001715388149023056,-0.0060138702392578125,0.04720615875745555,-0.05974726652767166,-0.012301700968668566
0.006803013384342194,0.034494828432798386,9.873836517333984,-0.001350785605609417,0.0016564466059207916,-0.0009937286376953125,0.031311348063483846,-0.039703649521446116,-0.020599350278762606
0.008631021715700626,0.0285689327865839,9.866846084594727,0.0035891560837626457,0.0018781758844852448,-0.00051116943359375,-0.028819502955192786,0.04371539848305012,0.025977042025349957
0.0020120516419410706,0.034494828432798386,9.87573528289795,-0.005426801275461912,0.00225815549492836,-0.0000896453857421875,-0.12292084675966997,-0.05687509194040196,-0.02293968058032376
0.0018993262201547623,0.034494828432798386,9.866266250610352,-0.010323289781808853,0.0015885606408119202,-0.004107475280761719,-0.12329326549220755,-0.06533217347377357,0.0389996697944187
0.0035436328034847975,0.02970387041568756,9.864425659179688,-0.005511170718818903,-0.0024386942386627197,-0.012866020202636719,0.016480232611035844,-0.06389609952035194,-0.0010875675530856925
0.008363821543753147,0.034494828432798386,9.867768287658691,-0.00543068815022707,0.002110697329044342,-0.003017425537109375,0.015044158657614218,-0.002860995488589091,-0.000023893989408474783
0.006773781031370163,0.03925655409693718,9.870885848999023,-0.0003925696946680546,0.006486155092716217,-0.0026950836181640625,-0.06507676175141211,-0.003233400880913458,-0.08126204224809448
0.008246892131865025,0.03593870997428894,9.866382598876953,-0.005133289843797684,-0.0033631548285484314,0.0028810501098632812,-0.0055313059693731775,0.033928084247965645,0.0007209284679268292
0.003756569931283593,0.034494828432798386,9.86964225769043,-0.0051498133689165115,0.0016654133796691895,-0.005992889404296875,-0.06656641000113603,-0.04167157109562959,-0.05940992588580311
0.01019190065562725,0.034494828432798386,9.86136245727539,-0.0005693738348782063,0.0015792697668075562,-0.010416984558105469,0.07336564987647216,0.05817410854317376,-0.002737501799733426
0.006803013384342194,0.034494828432798386,9.861604690551758,-0.0003244103863835335,0.001058042049407959,-0.009435653686523438,-0.0024442205470860865,0.048912852276312486,-0.07854736888823836
0.007820547558367252,0.03551236540079117,9.868040084838867,-0.004567751195281744,-0.003573428839445114,0.000759124755859375,-0.06656641000113603,0.09517318991627995,-0.020599350278762606
0.006803013384342194,0.030579200014472008,9.866153717041016,-0.00024398509413003922,0.0011506862938404083,-0.003604888916015625,-0.0055313059693731775,-0.038954249703448775,0.004342511210827128
0.0007873600698076189,0.02970387041568756,9.866153717041016,0.004518820438534021,-0.0035229213535785675,-0.0034418106079101562,0.05550379806238967,-0.048751782541861834,-0.020599350278762606
0.007258647587150335,0.034039195626974106,9.861818313598633,-0.00021591922268271446,0.0014493726193904877,-0.007985115051269531,0.0002733142885062915,-0.05809147926247247,-0.020599350278762606
0.006803013384342194,0.034494828432798386,9.865562438964844,-0.0005551967769861221,0.0012302882969379425,0.0020589828491210938,-0.013059295012637934,-0.002860995488589091,-0.020599350278762606
0.0030585979111492634,0.03344828262925148,9.86136245727539,-0.0006768670864403248,-0.008451668545603752,-0.0067195892333984375,0.05550379806238967,-0.002860995488589091,0.0070600510489994646
0.00396302342414856,0.03733481466770172,9.866153717041016,-0.005635384935885668,0.005646079778671265,-0.0018453598022460938,-0.0055313059693731775,-0.015288337920442175,0.015581067221767424
0.0026808716356754303,0.03794814646244049,9.865485191345215,-0.005641440860927105,0.005071718245744705,-0.0016937255859375,0.09949784691923516,0.005659532098869589,0.0233947085832428
0.006967718247324228,0.03218170255422592,9.863840103149414,-0.005278394557535648,-0.004150431603193283,-0.006049156188964844,-0.03709802573457881,-0.002860995488589091,-0.018501024785274114
0.006780259311199188,0.03206522390246391,9.858978271484375,-0.005301023367792368,-0.009053325280547142,-0.005915641784667969,-0.03590394324901662,-0.002860995488589091,0.04043575375300024
0.010068870149552822,0.033732280135154724,9.862887382507324,0.004549433011561632,0.0006057694554328918,-0.005421638488769531,0.0041833041036476925,0.09978001910932131,-0.010884746875848348
0.01159396767616272,0.028822114691138268,9.86527156829834,0.004391835071146488,-0.00394749641418457,-0.00032806396484375,-0.01676456591566407,0.0083722644577018,0.04043575375300024
0.009329073131084442,0.027438975870609283,9.86336612701416,0.004034176003187895,-0.0030440539121627808,-0.009490966796875,-0.037712435934975835,0.0004661604108533703,0.04043575375300024
0.008996929042041302,0.034897953271865845,9.863959312438965,0.003869469277560711,-0.0031152479350566864,-0.004199028015136719,-0.06656641000113603,0.025088725564484885,0.012486026029819658
0.010494744405150414,0.038186561316251755,9.866703033447266,0.003742694854736328,0.006317708641290665,0.00039958953857421875,0.0014705450643890344,-0.11092752816501682,-0.07463259660665664
0.01159396767616272,0.030798563733696938,9.866153717041016,0.0037784064188599586,-0.0032032430171966553,0.00023746490478515625,0.027611786771717016,0.05817410854317376,-0.006653344633426278
0.006803013384342194,0.034494828432798386,9.873682975769043,-0.0009782714769244194,0.0016705654561519623,0.009397506713867188,0.020609935737954804,0.02328024621873889,-0.011846709651335885
0.006803013384342194,0.02574191242456436,9.867305755615234,-0.000986437313258648,-0.0131048783659935,0.009151458740234375,0.03026680936814791,0.022375993205652672,0.004637633412899197
0.01092061772942543,0.02524958923459053,9.870607376098633,0.004085485823452473,-0.007791182026267052,0.004269599914550781,-0.062277291326206026,0.0057172418612709075,0.04043575375300024
0.008110643364489079,0.034494828432798386,9.869636535644531,-0.00040739448741078377,0.002155464142560959,0.003920555114746094,-0.04990765865675426,-0.002860995488589091,0.023777004076145133
0.0020120516419410706,0.034494828432798386,9.864315032958984,-0.00490971002727747,0.0019877515733242035,-0.000774383544921875,0.008646832726251025,-0.017039134184213295,-0.020599350278762606
-0.0010108607821166515,0.03323995694518089,9.870944023132324,-0.004977545700967312,0.0067620351910591125,0.0038356781005859375,-0.10507727103770255,-0.002860995488589091,-0.020599350278762606
0.006926751229912043,0.03928578644990921,9.870697021484375,-0.00007036002352833748,0.006634615361690521,0.003810882568359375,-0.0055313059693731775,-0.002860995488589091,0.04043575375300024
0.006803013384342194,0.03444207087159157,9.870891571044922,0.00005214288830757141,-0.0027245357632637024,-0.00125885009765625,0.054831664759378104,0.05750197524016219,-0.021271476911667562
0.00360359949991107,0.0329032801091671,9.86776065826416,-0.00446432176977396,0.0019650496542453766,0.0032806396484375,-0.10732577731659869,0.05817410854317376,0.02016001370164674
0.006784792989492416,0.034494828432798386,9.866135597229004,0.00039860978722572327,0.002104010432958603,-0.0012969970703125,-0.0055313059693731775,-0.002628875778514439,-0.020831469988837257
0.008465537801384926,0.034494828432798386,9.869281768798828,0.0004732278175652027,0.0018309392035007477,0.0035905838012695312,-0.02671129569875959,-0.06389609952035194,-0.020599350278762606
0.003496179822832346,0.034494828432798386,9.864330291748047,-0.004472301807254553,0.0016714520752429962,-0.005732536315917969,-0.028751921435006683,-0.021768239771653763,0.02152850279982896
0.013558628037571907,0.034494828432798386,9.866153717041016,-0.00028244825080037117,0.0016519613564014435,-0.0005884170532226562,-0.0055313059693731775,-0.020863986758567543,-0.04562845176024872
0.006571855861693621,0.034494828432798386,9.861593246459961,-0.0008471510373055935,0.0014122091233730316,-0.00505828857421875,-0.0055313059693731775,-0.11904152609472751,0.04043575375300024
0.006803013384342194,0.037410322576761246,9.864277839660645,-0.0008685635402798653,0.006081856787204742,-0.00024509429931640625,-0.029424028057591804,-0.016110628663488242,0.04043575375300024
0.005531822331249714,0.03322364017367363,9.86263370513916,-0.00017842277884483337,0.0013451538980007172,-0.004628181457519531,-0.01798287422843865,0.045722540284108285,-0.004404838354530147
0.009203433990478516,0.027313336730003357,9.860161781311035,0.009455766528844833,0.001531742513179779,-0.00930023193359375,-0.06656641000113603,0.04288384963202752,-0.005309088032563061
0.004785591270774603,0.03651224821805954,9.868170738220215,-0.004691112786531448,0.006440222263336182,0.005042076110839844,-0.0055313059693731775,-0.002860995488589091,-0.020599350278762606
0.007417168002575636,0.034494828432798386,9.866153717041016,0.004861161578446627,0.001287311315536499,0.0007276535034179688,0.021074175158104107,-0.037290618392874654,-0.05502897985315478
0.004128557629883289,0.030762122943997383,9.86136245727539,-0.004323253873735666,-0.003319971263408661,-0.0038785934448242188,0.04202201849698942,0.05817410854317376,-0.020599350278762606
0.015397649258375168,0.034494828432798386,9.864178657531738,0.005317328963428736,0.0015308484435081482,-0.008623123168945312,-0.0055313059693731775,0.094054186150735,0.02785823553831948
0.010936936363577843,0.03318076580762863,9.860705375671387,0.004690076690167189,0.001607738435268402,-0.004055976867675781,-0.058196066534138294,-0.15248496039631315,0.0320654069509492
0.00891606044024229,0.03200520575046539,9.86136245727539,-0.0049269963055849075,-0.002901919186115265,-0.00373077392578125,-0.0055313059693731775,0.05577543148402991,0.04043575375300024
0.002857368439435959,0.026603545993566513,9.858262062072754,-0.004981424193829298,-0.007817396894097328,-0.008120536804199219,0.0339657570101065,-0.002860995488589091,0.029666726556752045
0.0075773498974740505,0.03372048959136009,9.870169639587402,0.004377753473818302,-0.0030375421047210693,0.0016870498657226562,0.03577423635585249,0.05817410854317376,-0.01073457276054732
0.0028820207808166742,0.02970387041568756,9.86136245727539,-0.004624989815056324,-0.0031220093369483948,-0.0032739639282226562,0.05550379806238967,0.04709103271734381,0.04043575375300024
0.0045263273641467094,0.034494828432798386,9.863877296447754,-0.0047476887702941895,0.0015597864985466003,-0.0030088424682617188,0.026499639875768533,-0.0348919413337308,-0.020599350278762606
0.0026444310788065195,0.03512720763683319,9.864889144897461,-0.005025038029998541,0.0017490573227405548,0.0018510818481445312,-0.013587594136682554,-0.018973571823207844,-0.020599350278762606
0.006803013384342194,0.035056229680776596,9.858817100524902,-0.00000719074159860611,0.006303992122411728,0.011603355407714844,0.05550379806238967,-0.010013030642812247,-0.020599350278762606
0.0041467794217169285,0.032360102981328964,9.863497734069824,0.000008144881576299667,0.001317594200372696,-0.0024785995483398438,-0.0055313059693731775,-0.03005664764903779,0.006596303549212747
0.006803013384342194,0.03243108093738556,9.86136245727539,-0.00030401209369301796,-0.0034209713339805603,-0.00228118896484375,0.0029209730872382655,-0.002860995488589091,0.014144347935531152
0.006803013384342194,0.03407538682222366,9.86178207397461,-0.000389820896089077,0.0013943910598754883,-0.0021677017211914062,-0.010874835097423895,-0.008204524616639808,0.04043575375300024
0.0064545501954853535,0.034494828432798386,9.856223106384277,-0.005101173184812069,0.0012875273823738098,-0.011503219604492188,-0.06212712054595831,-0.007300298283980035,0.031557164837484886
0.0029864630196243525,0.0316256582736969,9.86136245727539,-0.009941819123923779,-0.003252565860748291,-0.0016393661499023438,-0.030014225770989666,-0.051826835091822065,-0.05715154117901558
0.005713672377169132,0.034494828432798386,9.863213539123535,0.004513737745583057,0.0016671493649482727,0.0030641555786132812,-0.029109972757903446,-0.016738765943291406,0.04043575375300024
0.011387462727725506,0.034288324415683746,9.866153717041016,0.004718273412436247,0.0014589019119739532,0.0027341842651367188,-0.0029005092001546727,0.1113168222672811,-0.08163445431052546
0.006803013384342194,0.034494828432798386,9.87519359588623,-0.00011533405631780624,0.0018338114023208618,-0.006755828857421875,0.05550379806238967,0.05644756478704147,-0.07990790388428656
0.005094159860163927,0.03278597444295883,9.869235038757324,0.0003097471781075001,0.0018470324575901031,0.007002830505371094,-0.044796235898564976,0.0756688643697945,0.018665582985482498
0.008440885692834854,0.034494828432798386,9.869306564331055,0.004397073294967413,0.0018196329474449158,0.0020990371704101562,-0.06656641000113603,-0.004423668065493961,-0.0012960917610227273
0.01159396767616272,0.0344819650053978,9.861369132995605,0.0047744945622980595,0.0018805675208568573,-0.0029058456420898438,-0.00544937037975947,0.05817410854317376,-0.020599350278762606
0.009943231008946896,0.032844092696905136,9.864502906799316,-0.00036171963438391685,-0.002767551690340042,-0.0030994415283203125,0.015498499639552294,-0.06389609952035194,-0.020599350278762606
0.01159396767616272,0.02820795588195324,9.86136245727539,0.0038614082150161266,-0.0022880174219608307,-0.0030994415283203125,-0.024588734372898793,-0.021918423892114708,-0.06257702590699984
0.0005871164612472057,0.025821702554821968,9.873793601989746,-0.009941818192601204,0.007172990590333939,0.01586627960205078,0.05550379806238967,0.04002093315273436,0.01570701384232941
0.006583644077181816,0.030361978337168694,9.866153717041016,-0.0003269379958510399,-0.002163294702768326,0.0012159347534179688,0.049914435485071386,-0.12213656228409532,-0.0788397663517597
0.003075664397329092,0.03076747991144657,9.864290237426758,-0.00021270429715514183,0.002214711159467697,0.000988006591796875,0.031761233414205545,0.03443154389498963,-0.020599350278762606
0.01159396767616272,0.033211849629879,9.86487102508545,0.004463283345103264,0.0022593848407268524,0.0010089874267578125,0.02281443265342931,-0.04755140347565854,0.00774638167393327
0.01159396767616272,0.03328282758593559,9.867365837097168,0.004225453827530146,-0.0024028941988945007,0.0056915283203125,-0.020971749000980363,0.10376876954332942,-0.0051589105822087275
0.011161661706864834,0.034494828432798386,9.86136245727539,0.004169863648712635,0.0023698844015598297,-0.0038537979125976562,-0.06105898301343145,-0.00836842247629367,-0.020599350278762606
0.007440744433552027,0.037209175527095795,9.863439559936523,0.004208465106785297,0.00676070898771286,-0.0036706924438476562,0.0025932040483569894,0.03171881153615742,0.013980460081037208
0.00945388525724411,0.03342478722333908,9.862432479858398,0.004472472704946995,0.0021680109202861786,-0.0037832260131835938,0.04187186105695492,0.04454217153773901,-0.00696740660322125
0.013387735933065414,0.025911975651979446,9.86794662475586,-0.004832920152693987,-0.0026650838553905487,-0.008541107177734375,0.007196404703401794,-0.002860995488589091,-0.020599350278762606
0.01159396767616272,0.02970387041568756,9.866506576538086,0.00392482103779912,-0.0022964701056480408,-0.003955841064453125,-0.0055313059693731775,-0.09666742719935245,-0.020599350278762606
0.006803013384342194,0.03699623793363571,9.858860969543457,-0.0006609996780753136,0.007801562547683716,-0.008193016052246094,0.02633576869654112,0.05817410854317376,0.04043575375300024
0.0037262598052620888,0.036714475601911545,9.858285903930664,-0.00539492629468441,0.0077378712594509125,-0.008203506469726562,-0.0055313059693731775,0.03633569924996869,-0.04243775290186106
-0.00120665249414742,0.034494828432798386,9.865367889404297,-0.0004676780663430691,0.0028481818735599518,-0.003047943115234375,0.06551874969590599,0.04815915690965745,0.02040584548338766
0.00437150476500392,0.036998387426137924,9.861289978027344,-0.0048530856147408485,0.011894207447767258,-0.007714271545410156,0.02452726267036868,-0.03291956412833095,0.010377180110678428
0.006803013384342194,0.031992342323064804,9.865939140319824,-0.0001887306571006775,0.0021976977586746216,0.0063266754150390625,0.026349482435734036,-0.00013454939056396211,0.04043575375300024
0.0020120516419410706,0.03385066241025925,9.86486530303955,-0.004725991282612085,0.0021596401929855347,0.0017538070678710938,-0.013737751576717052,-0.06389609952035194,-0.028805809226319704
0.01102078054100275,0.03928578644990921,9.870370864868164,0.0007322323508560658,0.006556857377290726,0.0016918182373046875,-0.1129970888237439,-0.05659388024566784,0.03313354448347606
0.006803013384342194,0.03928578644990921,9.865082740783691,0.0005516032688319683,0.006234172731637955,0.0013914108276367188,0.04185814731776201,-0.016506646233216755,-0.020599350278762606
0.01159396767616272,0.027628321200609207,9.868868827819824,0.004553649574518204,-0.0030976273119449615,0.005896568298339844,-0.03197307600018172,-0.06389609952035194,-0.020599350278762606
0.01116263959556818,0.03056652657687664,9.865290641784668,0.004305675160139799,-0.0032014772295951843,0.001651763916015625,-0.011026273197927773,0.05267914131461916,-0.020599350278762606
0.01566397398710251,0.024912914261221886,9.86136245727539,-0.0003381236456334591,-0.00787271372973919,-0.0030536651611328125,0.05091148302133457,-0.007453310529644187,-0.020599350278762606
0.008086759597063065,0.03577857464551926,9.870944023132324,-0.00036399951204657555,0.0016839280724525452,0.006331443786621094,0.027177669553024527,0.05817410854317376,-0.020599350278762606
0.006803013384342194,0.0363578163087368,9.870944023132324,-0.0006981315091252327,0.001301746815443039,0.005784034729003906,-0.06656641000113603,-0.06389609952035194,-0.020599350278762606
0.0022308193147182465,0.03493236377835274,9.870725631713867,-0.0050401752814650536,0.001090213656425476,0.005696296691894531,-0.0055313059693731775,0.0637481565557124,-0.020599350278762606
0.011446054093539715,0.03898995742201805,9.87529182434082,-0.0006347293965518475,-0.003967661410570145,-0.0035924911499023438,-0.0055313059693731775,-0.004745353967145695,-0.020599350278762606
0.010097661055624485,0.034494828432798386,9.864355087280273,0.004053599201142788,0.0005769915878772736,-0.0036983489990234375,0.05550379806238967,-0.002860995488589091,-0.020599350278762606
0.0020120516419410706,0.034494828432798386,9.867643356323242,-0.005109630990773439,0.0005831532180309296,0.005640983581542969,-0.0055313059693731775,-0.0008190890918726228,0.04043575375300024
0.005170918069779873,0.034494828432798386,9.866100311279297,0.0040652030147612095,0.0006976015865802765,0.010201454162597656,0.015260963802909233,-0.022982412618329312,-0.00047793148149573354
0.00528844865038991,0.031342070549726486,9.872459411621094,0.004133481066673994,0.0007010214030742645,0.0004367828369140625,-0.0055313059693731775,-0.04302602962455485,-0.020599350278762606
0.006803013384342194,0.02970387041568756,9.867526054382324,-0.000501569826155901,-0.004209838807582855,0.005169868469238281,-0.02301779086379586,0.05817410854317376,0.01866143751422355
0.006803013384342194,0.02970387041568756,9.869028091430664,-0.0001742253080010414,-0.0038139335811138153,0.00007724761962890625,-0.04825348555735502,0.03986119743960598,0.022122832644272547
0.0054365163668990135,0.034494828432798386,9.867520332336426,-0.004516796208918095,0.0012373663485050201,0.004473686218261719,-0.0055313059693731775,-0.002860995488589091,-0.020599350278762606
0.0038631886709481478,0.03928578644990921,9.867241859436035,-0.00003661820665001869,0.005692396312952042,-0.0050792694091796875,-0.0055313059693731775,-0.11106173071003698,-0.058051645385789545
0.004880897235125303,0.02970387041568756,9.863285064697266,-0.00007940782234072685,-0.0041608139872550964,-0.0050373077392578125,0.04344280456605786,-0.014921988984920904,-0.020599350278762606
0.009144891053438187,0.03327029198408127,9.869719505310059,0.005009970627725124,0.0010831430554389954,0.004437446594238281,-0.05096623125640046,-0.002860995488589091,0.04043575375300024
0.01159396767616272,0.03886602073907852,9.870104789733887,0.004970047622919083,0.0004680939018726349,-0.0053501129150390625,-0.0055313059693731775,0.05817410854317376,0.04043575375300024
0.006140196695923805,0.031767942011356354,9.872345924377441,0.0050633493810892105,0.0008058808743953705,0.013585090637207031,0.029208236768501716,-0.002860995488589091,0.04043575375300024
0.013137182220816612,0.034494828432798386,9.873570442199707,-0.004638031590729952,0.0004495792090892792,-0.0007448196411132812,0.008260366749189953,-0.002860995488589091,-0.020599350278762606
0.00624128757044673,0.029142145067453384,9.861924171447754,-0.0003543281927704811,-0.00467141717672348,-0.005690574645996094,-0.012687476589695365,-0.04242756097895893,-0.013443169653280502
0.00900904182344675,0.03190990164875984,9.868359565734863,0.004933092277497053,0.0007031969726085663,0.003726959228515625,-0.010358328721868126,0.05334708579067881,-0.04387638150611483
0.0022489940747618675,0.03221781924366951,9.863639831542969,-0.0006047445349395275,0.0007368661463260651,-0.005486488342285156,-0.0055313059693731775,-0.0058795122149116015,0.04043575375300024
0.0020120516419410706,0.034494828432798386,9.865283966064453,-0.004677149001508951,0.0010438412427902222,-0.00061798095703125,-0.055487469641405114,0.019296885230872744,0.04043575375300024
0.006803013384342194,0.033720165491104126,9.865379333496094,0.00028884364292025566,0.0012090429663658142,-0.00069427490234375,0.04563486840280883,0.038436249224012065,-0.020599350278762606
0.009221979416906834,0.032122839242219925,9.870991706848145,0.004803755786269903,0.0015198737382888794,0.008691787719726562,0.024686998383497062,-0.002860995488589091,0.04103422906870278
0.0045020002871751785,0.03219381719827652,9.868453979492188,-0.004825382027775049,-0.0033483467996120453,0.003991127014160156,-0.03484537064937042,-0.0932101775405624,0.04043575375300024
0.01159396767616272,0.034494828432798386,9.86681079864502,0.0046796612441539764,0.0013995654881000519,-0.0009708404541015625,-0.06656641000113603,0.013871420513208318,0.04043575375300024
0.006803013384342194,0.03390910103917122,9.867324829101562,-0.0003681732341647148,-0.0033721923828125,0.008444786071777344,0.048041843074577185,0.004600959499223394,-0.02806130526657509
0.0024849066976457834,0.034494828432798386,9.86831283569336,-0.00009633740410208702,0.001135367900133133,-0.0011739730834960938,0.02197426602466485,-0.008884955532275883,0.006906223382802075
0.004714937414973974,0.02908906154334545,9.868241310119629,-0.004600487183779478,0.0006990469992160797,0.0034837722778320312,-0.0055313059693731775,0.0926078935939848,0.0060019753722958145
0.007246782071888447,0.034494828432798386,9.86180591583252,0.0004322705790400505,0.0006796419620513916,-0.00569915771484375,0.00012214299226686866,-0.002860995488589091,-0.014945891311962643
0.006803013384342194,0.02970387041568756,9.870198249816895,-0.00019140122458338737,-0.004018552601337433,-0.005599021911621094,0.0507545754334094,-0.05914687689137167,-0.01110092169606859
0.01159396767616272,0.034494828432798386,9.863308906555176,0.004344599321484566,0.0006671063601970673,-0.0055255889892578125,0.01926153366583264,0.03338126890796794,-0.020599350278762606
0.01159396767616272,0.034494828432798386,9.86136245727539,0.003918739967048168,0.0004352852702140808,-0.005199432373046875,0.018358107745966225,-0.040006685805012536,-0.033855626879846654
0.006803013384342194,0.04794377461075783,9.866153717041016,-0.000913694966584444,0.01472526416182518,-0.000370025634765625,-0.011416527795544086,0.0000816154244963633,0.03749313950486148
0.006963140796869993,0.03912565857172012,9.866153717041016,0.00398144219070673,0.0006467103958129883,-0.00045490264892578125,-0.12760151403289888,-0.002860995488589091,-0.020599350278762606
0.010109874419867992,0.033010732382535934,9.869460105895996,0.004366946406662464,0.0009066574275493622,0.0043792724609375,-0.04765957926468126,-0.02176783956525708,-0.0016925162072545317
0.008465654216706753,0.03302915394306183,9.872607231140137,0.004185164347290993,0.005514480173587799,0.008808135986328125,-0.0055313059693731775,-0.024042452641430002,0.0005821185467648734
0.006784592755138874,0.03447640687227249,9.875717163085938,-0.00013908185064792633,0.0010594166815280914,0.008121490478515625,-0.0055313059693731775,-0.002626314457575684,0.040670424778853735
0.008428812958300114,0.034494828432798386,9.867779731750488,0.004489752929657698,0.00139584019780159,0.0032224655151367188,-0.02624342774061372,-0.02247182929744441,-0.04131147872010976
0.005282077006995678,0.02970387041568756,9.870944023132324,0.0001601451076567173,-0.0030291154980659485,0.00321197509765625,0.0167514658262794,0.01651518396967927,-0.020599350278762606
0.003902850206941366,0.037835706025362015,9.864262580871582,-0.009239302948117256,0.0017262138426303864,0.0029954910278320312,0.012942221301395685,0.06378863076263003,-0.06316092703975659
0.006803013384342194,0.039091646671295166,9.871138572692871,0.000670737586915493,0.005916859954595566,0.0031843185424804688,-0.0055313059693731775,0.05817410854317376,-0.01812607474727752
0.007917175069451332,0.03154226765036583,9.866153717041016,-0.00410974258556962,0.0014946982264518738,-0.001804351806640625,-0.02895181118993534,-0.017055062398801175,-0.03479341718897469
0.006803013384342194,0.03352262079715729,9.869034767150879,0.0004092487506568432,-0.0036448799073696136,0.0030450820922851562,-0.0055313059693731775,0.009524592075877,0.0037254146249923845
0.002684149658307433,0.034494828432798386,9.86581802368164,-0.004278096836060286,0.0007684268057346344,-0.0016489028930664062,0.10797661963930685,0.053892967315750925,0.0361546091905241
0.0020120516419410706,0.03251447528600693,9.866153717041016,-0.0041271536611020565,0.0008319616317749023,-0.0012607574462890625,-0.0055313059693731775,-0.002860995488589091,-0.05640544306379086
0.006803013384342194,0.02970387041568756,9.866153717041016,0.00029825884848833084,-0.0037238672375679016,-0.0010004043579101562,-0.0055313059693731775,-0.12653344320143814,0.025577529319757104
0.007898331619799137,0.034494828432798386,9.870944023132324,0.004904031753540039,0.0012044794857501984,0.0038919448852539062,-0.052612426908292535,-0.002860995488589091,-0.05372649479494508
0.007351999171078205,0.03504381328821182,9.866703033447266,-0.00021135061979293823,0.001366782933473587,-0.0007982254028320312,-0.06656641000113603,-0.0499083256674154,-0.027593237205230877
0.00899630319327116,0.0318971611559391,9.866558074951172,-0.0005648136138916016,-0.0034016408026218414,0.0039272308349609375,0.017258847495990853,0.02508074811697772,0.012494000142273516
0.006803013384342194,0.034494828432798386,9.858477592468262,-0.0004201512783765793,0.0012151971459388733,-0.0099639892578125,-0.0055313059693731775,0.04602861813628949,0.04043575375300024
0.007685394957661629,0.02970387041568756,9.857453346252441,0.00452794274315238,-0.0034359395503997803,-0.0048694610595703125,0.04426256066859162,0.06941534593697181,0.07898838966727359
0.01159396767616272,0.03776194155216217,9.860600471496582,0.004422146826982498,0.005906868726015091,-0.0041027069091796875,-0.0055313059693731775,-0.10551796498151382,-0.010892720988302206
0.014000194147229195,0.034494828432798386,9.868537902832031,0.004407681059092283,0.001123175024986267,0.0054111480712890625,-0.03563801943863569,-0.002860995488589091,-0.08163445431052546
0.0020120516419410706,0.034494828432798386,9.870203971862793,-0.004857040476053953,0.001143287867307663,0.005336761474609375,-0.057133665293297185,0.11920921257493661,-0.06276897156495438
0.010924522764980793,0.03928578644990921,9.86136245727539,-0.00008696969598531723,0.005968369543552399,-0.004044532775878906,-0.0055313059693731775,-0.06389609952035194,-0.01207085524895668
0.009351197630167007,0.03928578644990921,9.863910675048828,-0.0004220237024128437,0.0056596435606479645,-0.00382232666015625,-0.0055313059693731775,-0.03143311752978048,0.04043575375300024
0.0020120516419410706,0.02970387041568756,9.864956855773926,-0.004717192146927118,-0.003959354013204575,0.0011234283447265625,-0.05894215797925641,0.10396070853117736,-0.012975101591936287
0.0062755257822573185,0.0350223146378994,9.860835075378418,-0.0041916100308299065,0.005748379975557327,-0.007939338684082031,-0.05984641099234262,-0.05717610051155854,-0.020599350278762606
0.0008953152573667467,0.030820608139038086,9.86136245727539,-0.003784168977290392,-0.0036523714661598206,-0.0028162002563476562,0.04127696758850268,0.04394727806928677,-0.020599350278762606
0.007533969823271036,0.036524828523397446,9.858601570129395,-0.003495042212307453,0.005502726882696152,-0.0025873184204101562,-0.0055313059693731775,-0.03803462876473003,0.005262117141806
0.00718879047781229,0.034494828432798386,9.86136245727539,0.0007936581969261169,0.0010943524539470673,-0.0020627975463867188,-0.06656641000113603,-0.002860995488589091,0.09655618983139513
0.0071179368533194065,0.02970387041568756,9.86646842956543,0.005075552500784397,-0.0033636540174484253,0.007595062255859375,-0.0015192902035047113,-0.11690719870080431,0.09344681958291955
0.007606075145304203,0.03795648738741875,9.864824295043945,0.004481976851820946,0.0058623552322387695,0.0027647018432617188,-0.02246609300575866,-0.019795782524974572,-0.020599350278762606
0.006803013384342194,0.032677389681339264,9.86136245727539,-0.0005000005476176739,-0.003451164811849594,-0.00199127197265625,-0.04341288246779938,-0.002860995488589091,-0.020599350278762606
-0.002432468580082059,0.029530653730034828,9.861536026000977,-0.009874790906906128,-0.002950012683868408,-0.0019092559814453125,0.05109034860022429,0.05376065908100837,0.04264247848408294
0.011491604149341583,0.03439246490597725,9.866153717041016,-0.0002809641882777214,-0.0029776617884635925,0.002696990966796875,0.0541997388590197,-0.0015569362852191175,-0.01929527773517941
0.005095768254250288,0.03295297175645828,9.864611625671387,-0.004982325714081526,0.0014930479228496552,0.0026636123657226562,0.03586108114393214,-0.002860995488589091,-0.0009566250226718128
0.006803013384342194,0.034494828432798386,9.86136245727539,-0.0003190552815794945,0.0015524402260780334,-0.0018253326416015625,0.014914278341678194,-0.10448564592148986,0.04043575375300024
0.011554623953998089,0.029743213206529617,9.856650352478027,0.004524733405560255,-0.0030051805078983307,-0.00628662109375,-0.06556395967851765,-0.0033622139797916673,-0.08113322914921627
0.00032848765840753913,0.02970387041568756,9.859679222106934,-0.009431752376258373,-0.0030874237418174744,-0.006367683410644531,-0.0055313059693731775,0.05817410854317376,0.018987729124490413
0.003766530891880393,0.03928578644990921,9.858325958251953,-0.004828554578125477,0.006340309977531433,-0.0059490203857421875,-0.0055313059693731775,-0.06389609952035194,0.07911943058175999
0.01159396767616272,0.03588700294494629,9.86136245727539,0.004163916688412428,0.0013927556574344635,-0.0009088516235351562,-0.023267119448927773,0.02270248158406457,-0.0028635367992080117
0.002264182548969984,0.033990565687417984,9.865397453308105,-0.00590128917247057,0.0011746063828468323,0.0036935806274414062,0.058715854602146844,-0.12171917369278407,-0.01738729373900544
0.0010139694204553962,0.034494828432798386,9.86136245727539,-0.0010402798652648926,0.0014178268611431122,-0.0007343292236328125,0.06821904897601466,-0.03973617296128301,-0.020599350278762606
0.003979468252509832,0.032527413219213486,9.862218856811523,-0.0050649759359657764,0.001202266663312912,0.00388336181640625,-0.030595485541528328,-0.052989354632899395,-0.045663516510704535
0.006803013384342194,0.033706650137901306,9.860968589782715,-0.0004662103019654751,0.0012811124324798584,-0.000728607177734375,0.05550379806238967,-0.002860995488589091,0.045456302978716626
0.01159396767616272,0.031742263585329056,9.865439414978027,0.004189387429505587,0.0013586655259132385,0.008661270141601562,0.02043709993544175,-0.002860995488589091,0.014467337843025401
0.006803013384342194,0.038177527487277985,9.85767936706543,-0.0003665643744170666,0.0058077313005924225,-0.005629539489746094,-0.0055313059693731775,0.05817410854317376,0.04043575375300024
0.010556688532233238,0.03242027014493942,9.865116119384766,-0.0005862987600266933,-0.008311500772833824,-0.0006160736083984375,-0.10117236384379899,0.0713886836377237,0.0272211786584503
0.006803013384342194,0.024912914261221886,9.86136245727539,-0.0002063787542283535,-0.007823852822184563,-0.0006742477416992188,-0.05883311507637421,0.09600932780065115,-0.012866058689054093
0.006803013384342194,0.034494828432798386,9.866153717041016,-0.00023039476945996284,0.0021775104105472565,0.003926277160644531,-0.06656641000113603,-0.002860995488589091,0.011754595479033273
0.01159396767616272,0.03359950706362724,9.86136245727539,0.0041979518719017506,0.0020555853843688965,-0.0007944107055664062,0.04409772899401217,-0.06389609952035194,-0.009193271205225185
0.009945282712578773,0.031352557241916656,9.856571197509766,-0.0054780724458396435,0.006669089198112488,-0.0056133270263671875,-0.0055313059693731775,0.03717044975216474,-0.020599350278762606
0.0028319857083261013,0.03285496309399605,9.86136245727539,-0.004994489718228579,0.0019705556333065033,-0.0006132125854492188,-0.06656641000113603,0.04772845478554996,-0.020599350278762606
0.004476208705455065,0.03695898503065109,9.866153717041016,-0.0000012051314115524292,0.006690163165330887,0.0042324066162109375,0.02586115059050457,0.026781651983296014,0.010793109616168445
0.0054378509521484375,0.031069032847881317,9.86136245727539,0.00021662050858139992,-0.002910386770963669,-0.0005140304565429688,-0.06656641000113603,0.005834849181042065,-0.0032076642745536006
0.006803013384342194,0.03867406025528908,9.86136245727539,0.0001096874475479126,0.002067171037197113,-0.0007162094116210938,0.04771060558025801,-0.002860995488589091,0.04043575375300024
0.01159396767616272,0.02970387041568756,9.86136245727539,0.004835193976759911,-0.002673894166946411,-0.0007658004760742188,-0.0055313059693731775,0.010292614831533198,0.027282148435457912
0.0046887691132724285,0.034494828432798386,9.860799789428711,-0.004691058769822121,0.002128586173057556,0.003954887390136719,0.02856910715300306,-0.002860995488589091,-0.020599350278762606
0.006332992110401392,0.03111393190920353,9.853191375732422,0.0001343805342912674,-0.0032257847487926483,-0.010195732116699219,-0.01151919407650584,-0.002860995488589091,-0.07564655953328618
0.007202180568128824,0.03090137243270874,9.860962867736816,0.004662392195314169,0.010737314820289612,-0.005462646484375,-0.010616568569432789,-0.053725601000659165,-0.020599350278762606
0.007648896891623735,0.024912914261221886,9.858543395996094,0.00486160721629858,-0.008043358102440834,-0.005274772644042969,0.05550379806238967,0.09407979936012255,0.004530051263364885
0.010937340557575226,0.030360497534275055,9.861034393310547,0.00493552116677165,-0.003346659243106842,-0.0004405975341796875,-0.0055313059693731775,-0.002860995488589091,-0.08163445431052546
0.015069015324115753,0.03581073507666588,9.860518455505371,0.009509389288723469,0.0016094222664833069,-0.004803657531738281,0.011232886420320658,0.024645697083359643,0.023671554693199797
0.0097631411626935,0.031534697860479355,9.864322662353516,0.004288888536393642,-0.0033763498067855835,0.004528045654296875,0.03217968922257461,-0.02618510432840416,0.04043575375300024
0.008562986738979816,0.035765837877988815,9.864882469177246,0.0038400404155254364,-0.00347818061709404,0.008951187133789062,-0.027952762621688745,0.03575265189085819,0.01801429876821133
0.00668726023286581,0.029588118195533752,9.85668659210205,-0.0005166069604456425,-0.002893023192882538,-0.005223274230957031,-0.008480613669496418,-0.0013863416385274708,0.038961099902938626
0.006803013384342194,0.034494828432798386,9.859833717346191,-0.0004875771701335907,0.0020198002457618713,-0.000396728515625,0.013940842982819151,-0.024951801615967283,0.02096360813586122
0.005184744484722614,0.031322136521339417,9.86136245727539,0.00026153912767767906,-0.002563692629337311,-0.00035858154296875,-0.0055313059693731775,0.07797690802030346,0.01981959647310371
0.006803013384342194,0.034494828432798386,9.86136245727539,0.00030494295060634613,0.0026256628334522247,-0.0005655288696289062,0.07711486344185381,-0.002860995488589091,0.04043575375300024
0.013044255785644054,0.034494828432798386,9.859691619873047,-0.00009209895506501198,0.0023492686450481415,-0.005177497863769531,-0.026810760328547904,-0.04261664516117721,0.04043575375300024
0.006803013384342194,0.031445182859897614,9.86571979522705,-0.00017125671729445457,-0.0021700821816921234,0.008966445922851562,-0.04438270262887508,-0.05838008143533196,-0.020599350278762606
0.01159396767616272,0.03168414905667305,9.86136245727539,0.004454007372260094,0.002413623034954071,-0.0006799697875976562,-0.0055313059693731775,0.022367055262793475,0.0046287088102532235
0.0033464131411165,0.034494828432798386,9.860028266906738,-0.00048689357936382294,0.0024363920092582703,-0.005265235900878906,0.03850452443528575,0.04117483491606984,0.04043575375300024
0.000987639999948442,0.026796184480190277,9.863245964050293,-0.009659279137849808,-0.007093546912074089,-0.0004482269287109375,-0.0055313059693731775,-0.06389609952035194,0.01644354702467347
0.008066393435001373,0.03096725232899189,9.86136245727539,-0.0004329318180680275,-0.0023521296679973602,-0.0009002685546875,0.05550379806238967,0.025984040634711908,0.008245692514645003
0.01159396767616272,0.034494828432798386,9.86577320098877,0.004344772547483444,0.0022681914269924164,0.0035762786865234375,-0.0055313059693731775,-0.002860995488589091,0.03073008162283857
0.004037282429635525,0.022887686267495155,9.866153717041016,-0.00031010666862130165,-0.011653155088424683,0.0031909942626953125,-0.0055313059693731775,0.03237341579899438,-0.01116565508073165
0.006803013384342194,0.03239861875772476,9.864057540893555,-0.00017261458560824394,0.0022644884884357452,0.0031061172485351562,0.0020939065478584795,-0.010486208005820749,0.013730803826918015
0.004112940281629562,0.02596335858106613,9.865102767944336,-0.004645015578716993,-0.006785949692130089,0.0029010772705078125,-0.0055313059693731775,-0.002860995488589091,0.05381804200818573
-0.0015912367962300777,0.034494828432798386,9.86496639251709,-0.009318910539150238,0.002536498010158539,0.0026693344116210938,-0.0055313059693731775,0.01226944766814943,0.032870532174630984
0.006488161161541939,0.030018720775842667,9.864230155944824,0.005185326561331749,-0.006815990433096886,-0.006564140319824219,-0.034043317009783164,-0.031373006528999076,0.011923732707430341
0.006803013384342194,0.034494828432798386,9.863497734069824,0.0007534069009125233,0.0024854354560375214,-0.006236076354980469,-0.06656641000113603,0.030965196210781715,0.008815317951726836
0.010756139643490314,0.033656999468803406,9.862200736999512,0.0006530028767883778,-0.002019323408603668,0.003208160400390625,-0.016204943970972597,0.007812642513010327,-0.009925715612216494
0.0036248385440558195,0.04725491255521774,9.857378005981445,-0.003892953973263502,0.016284264624118805,-0.006198883056640625,0.04523063326173514,-0.013134160289243621,-0.020599350278762606
0.01170423999428749,0.03204421326518059,9.85902214050293,0.009863456711173058,-0.003165818750858307,-0.0012540817260742188,-0.004126474795319071,0.05817410854317376,-0.05181931788167109
0.006803013384342194,0.02970387041568756,9.854049682617188,-0.00018542306497693062,-0.0036254562437534332,-0.005401611328125,0.023381178271981697,-0.06389609952035194,0.008313137297645573
0.0029601529240608215,0.02875577099621296,9.86136245727539,-0.005043168552219868,-0.0034086965024471283,-0.00031757354736328125,-0.017609775145026704,-0.03973916116904489,-0.020599350278762606
0.004604375921189785,0.02970387041568756,9.863561630249023,0.00022508995607495308,-0.003240961581468582,-0.00028705596923828125,0.022478526084482198,-0.03588626746649656,0.012425913361511604
0.007338402792811394,0.035030219703912735,9.86136245727539,-0.004296589642763138,-0.0031876079738140106,-0.00013446807861328125,-0.012352023587997826,0.017425493439568587,-0.020599350278762606
0.01050416100770235,0.034494828432798386,9.860272407531738,0.004887940362095833,0.0015032216906547546,-0.00012683868408203125,0.008352440900852897,0.024906524932289505,-0.06775069410008616
0.004746083170175552,0.0317608006298542,9.860685348510742,0.00016679195687174797,-0.003274250775575638,-0.0046539306640625,-0.031735860328656,0.005765026505034552,-0.0902604763041491
0.0063903057016432285,0.03490753471851349,9.85698413848877,0.0006905565969645977,0.0009676739573478699,-0.004657745361328125,0.0502460465053608,0.05817410854317376,0.1519904653725748
0.007144866976886988,0.030045723542571068,9.856912612915039,0.005036065820604563,0.0008140765130519867,0.00037860870361328125,-0.0055313059693731775,-0.007216094858118471,-0.02495444631323868
0.006803013384342194,0.02621528133749962,9.856571197509766,0.00039492780342698097,-0.00855923630297184,-0.004323005676269531,-0.038714712834822314,0.024990701677724624,0.0072523435524978015
0.004958643577992916,0.03928578644990921,9.856571197509766,0.0004989588633179665,0.005564987659454346,-0.0038633346557617188,-0.0055313059693731775,0.020635602308195243,0.04043575375300024
0.006803013384342194,0.025313207879662514,9.861162185668945,0.00046650785952806473,-0.008676724508404732,0.0011081695556640625,0.050404208073328904,-0.06389609952035194,-0.0231491486083463
0.006673744414001703,0.03436556085944176,9.852039337158203,-0.004231403581798077,-0.0034631676971912384,0.0009899139404296875,0.05385694874004968,-0.06389609952035194,0.04043575375300024
0.005417242180556059,0.034494828432798386,9.856571197509766,0.004976464901119471,0.0010724663734436035,-0.0034637451171875,0.016159160359192355,-0.10324073722354926,-0.020599350278762606
0.00674472376704216,0.03455311805009842,9.856687545776367,0.00008595641702413559,0.00048688799142837524,-0.0033540725708007812,-0.0055313059693731775,-0.002860995488589091,0.04043575375300024
0.0020120516419410706,0.034494828432798386,9.854985237121582,-0.0044519295915961266,0.0004785582423210144,-0.007531166076660156,-0.02573657967943117,-0.0024417125870002223,-0.00039407656870461263
0.005146017763763666,0.02656990848481655,9.86136245727539,0.0004845620132982731,-0.008372796699404716,0.0019540786743164062,-0.0055313059693731775,0.037064581820029543,-0.0017832896881282657
0.005313354078680277,0.03598448634147644,9.86136245727539,-0.004328430630266666,0.006075721234083176,0.001796722412109375,0.03242413528966701,-0.044918392231045066,-0.001621636319349121
0.002166698919609189,0.034494828432798386,9.851780891418457,-0.004261010326445103,0.001056671142578125,-0.007454872131347656,-0.06065596183176103,-0.006801294268172424,-0.022569499668554274
0.01159396767616272,0.034494828432798386,9.86136245727539,0.004898444749414921,0.0008968934416770935,0.0022716522216796875,-0.06656641000113603,0.020057010580301116,0.04043575375300024
0.0033597529400140047,0.034494828432798386,9.857918739318848,-0.004573021549731493,0.0009740926325321198,-0.0023193359375,0.02116534217526791,-0.002860995488589091,-0.003430129005308337
0.013831481337547302,0.022675398737192154,9.857848167419434,0.00018218066543340683,-0.0037764273583889008,0.0022115707397460938,-0.0055313059693731775,-0.002860995488589091,0.024170778822525583
0.007538181263953447,0.025648081675171852,9.86136245727539,-0.000399766955524683,-0.007676934823393822,0.002094268798828125,-0.061883514912298924,-0.06389609952035194,0.03575286199921645
0.006803013384342194,0.02970387041568756,9.86136245727539,-0.0007134946063160896,-0.0029975175857543945,0.0018720626831054688,0.0811344297684063,-0.002860995488589091,-0.020599350278762606
0.006803013384342194,0.0324120968580246,9.854488372802734,-0.0006683431565761566,0.001821320503950119,-0.002605438232421875,0.002437256955783847,-0.002860995488589091,0.005933921942066959
0.005739008542150259,0.02970387041568756,9.86136245727539,-0.0049834041856229305,-0.002837028354406357,0.0025186538696289062,0.05550379806238967,-0.07071110752771728,-0.020599350278762606
0.0020120516419410706,0.034494828432798386,9.861942291259766,-0.005485157482326031,0.001614551991224289,0.002124786376953125,-0.0055313059693731775,-0.002860995488589091,-0.035382887860751916
0.0020120516419410706,0.02970387041568756,9.86170482635498,-0.004489506129175425,-0.0031470730900764465,-0.0030107498168945312,-0.0055313059693731775,0.08651267013126245,-0.020599350278762606
0.007003381848335266,0.03219953551888466,9.86365795135498,0.00465818727388978,0.0012342780828475952,0.00197601318359375,-0.03732519622554784,-0.03465488574476376,0.042988423563480115
0.006803013384342194,0.034494828432798386,9.863065719604492,0.0001813606359064579,0.0012842528522014618,0.0015096664428710938,0.04465671060846895,0.007986091965331628,-0.07078736685660474
0.0035976083017885685,0.0320822037756443,9.85815715789795,-0.004606607835739851,-0.003354620188474655,-0.0031452178955078125,0.004568409378960052,-0.053796384172018714,-0.020599350278762606
0.00436601135879755,0.03684878721833229,9.858842849731445,-0.0045381090603768826,0.0007310584187507629,-0.008096694946289062,-0.036577824119960356,-0.002860995488589091,0.011505086801022855
0.006578260567039251,0.029928620904684067,9.859079360961914,0.004663812927901745,-0.008373865857720375,-0.0033388137817382812,-0.037480476307459855,-0.09584529653886506,-0.017736123639512023
0.010955085046589375,0.026190679520368576,9.857210159301758,0.0045142266899347305,-0.008107377216219902,-0.00323486328125,-0.0055313059693731775,-0.019139283951859987,-0.012460209382180464
0.0020120516419410706,0.03928578644990921,9.857139587402344,-0.005274620838463306,0.006135918200016022,0.0015125274658203125,-0.06656641000113603,0.05093762983925103,-0.013362861569679961
0.006803013384342194,0.034494828432798386,9.864011764526367,-0.0003356877714395523,0.0013323910534381866,0.006173133850097656,-0.0328119619684768,-0.030141651487692715,0.04043575375300024
0.006803013384342194,0.02970387041568756,9.868873596191406,0.00015697861090302467,-0.00331270694732666,0.0057621002197265625,0.02084669784223095,-0.002860995488589091,0.04043575375300024
0.0024383743293583393,0.034068506211042404,9.865727424621582,-0.004214397165924311,0.0014069005846977234,0.005156517028808594,0.05550379806238967,0.047311706524473404,-0.020599350278762606
0.011238498613238335,0.03342842310667038,9.860651969909668,0.0006232685409486294,-0.012769516557455063,-0.009368896484375,-0.057509312357434665,0.05364555972132308,-0.13361245402848032
0.003940890077501535,0.03256599232554436,9.86329174041748,-0.004125450737774372,0.0017230845987796783,0.00006580352783203125,0.006358399189179409,0.009028709669963495,0.04043575375300024
0.0038700364530086517,0.034494828432798386,9.86136245727539,0.00030032824724912643,0.0015016011893749237,-0.00031185150146484375,0.07917384531149531,0.020809051760516544,0.04043575375300024
0.006589251570403576,0.02534043788909912,9.86594009399414,0.0009944578632712364,-0.007960217073559761,0.004504203796386719,-0.010977794863076549,0.060897352990025445,-0.01787609916180431
0.0021549107041209936,0.034494828432798386,9.861505508422852,0.0009115030989050865,0.0014084018766880035,0.0040302276611328125,-0.06292646612226137,-0.002860995488589091,-0.01877937500427197
0.006803013384342194,0.034208208322525024,9.862863540649414,0.0007985867559909821,-0.0033936165273189545,-0.0008058547973632812,-0.04743851859136821,0.03904621713340594,-0.020599350278762606
0.008303554728627205,0.03134907782077789,9.869298934936523,0.0052841114811599255,-0.003840632736682892,0.008217811584472656,-0.0055313059693731775,-0.04293675691766867,0.01947640781526367
0.006803013384342194,0.03449572995305061,9.861364364624023,0.00066791707649827,0.0005753971636295319,-0.0016384124755859375,-0.005519833386001672,0.058162635959802256,-0.08162297505704734
0.006803013384342194,0.034494828432798386,9.863005638122559,0.0006794077344238758,0.00048479437828063965,0.0029458999633789062,0.013631029870935604,-0.0010869338929576152,-0.020599350278762606
-0.0027789026498794556,0.034494828432798386,9.866153717041016,-0.00896720215678215,0.0005070008337497711,0.00289154052734375,0.051017004107925985,0.05817410854317376,-0.025086150903332907
0.00008563586743548512,0.02970387041568756,9.86136245727539,-0.00834340788424015,-0.004045803099870682,-0.0018186569213867188,0.012715304274477878,0.039927498299322704,-0.038845953852507054
0.006803013384342194,0.02970387041568756,9.870519638061523,0.0011002961546182632,-0.003944210708141327,0.00751495361328125,-0.06386515022567532,0.05547284876771305,-0.017898087168248592
0.01159396767616272,0.038207508623600006,9.86507511138916,0.005171613767743111,0.010460451245307922,0.00746917724609375,-0.06656641000113603,-0.04024696972557947,0.0030497795160098636
0.006803013384342194,0.03256751969456673,9.86708927154541,0.0008703744970262051,0.0011683031916618347,0.0074214935302734375,-0.0055313059693731775,0.0336208591374473,-0.04515259968448907
0.005583586171269417,0.03806636109948158,9.860142707824707,0.0008139717392623425,0.005859304219484329,-0.0019254684448242188,-0.0055313059693731775,-0.07832604808076747,-0.020599350278762606
0.0043091969564557076,0.034494828432798386,9.860214233398438,0.005312436260282993,0.0015676096081733704,-0.0066375732421875,0.05800927686859431,-0.01999887393107667,-0.020599350278762606
0.00887202937155962,0.03514775261282921,9.859292984008789,0.0052570258267223835,-0.003512229770421982,-0.006354331970214844,-0.0055313059693731775,0.015179535141397986,0.04043575375300024
0.004151924047619104,0.03714591637253761,9.868293762207031,-0.004090305883437395,0.00560523197054863,0.003131866455078125,0.0009814128063662072,0.09194800660671165,0.04043575375300024
0.006803013384342194,0.0307107362896204,9.86514663696289,0.0007302425801753998,-0.003921493887901306,0.003055572509765625,-0.05373930139963886,-0.002860995488589091,0.027608645151503075
0.015448910184204578,0.03928578644990921,9.86708927154541,0.005361821968108416,0.0054673366248607635,0.007639884948730469,-0.0055313059693731775,-0.002860995488589091,0.02851129066889596
0.004749236162751913,0.03700421005487442,9.86113452911377,-0.009084530174732208,0.00019535422325134277,0.0028781890869140625,0.058405908088131064,0.026205488174208414,0.00846714005414151
0.00915544293820858,0.03684725984930992,9.863715171813965,0.00023039057850837708,0.0008522607386112213,-0.001712799072265625,-0.03659727415083903,-0.03283013133888609,0.010466614567649935
0.007597317919135094,0.03049817495048046,9.858160018920898,0.000040800776332616806,-0.004336826503276825,-0.0063152313232421875,0.04538463268317777,0.04805494316396186,0.030316588373788346
0.015661470592021942,0.030427321791648865,9.860638618469238,0.004409984219819307,-0.000055771321058273315,-0.0061435699462890625,0.06472031125410208,-0.012077508680301493,0.02200272069946883
0.006803013384342194,0.036988966166973114,9.868647575378418,-0.0005141007713973522,0.004564143717288971,0.007943153381347656,0.023729357837093675,0.028913444736706907,0.011175086611480086
0.006803013384342194,0.036720793694257736,9.86102294921875,-0.00010679708793759346,0.004417486488819122,0.0031948089599609375,0.027145786443422318,-0.002860995488589091,0.0077586696778380124
0.006803013384342194,0.02970387041568756,9.869780540466309,-0.00013686809688806534,-0.0049205198884010315,0.007885932922363281,-0.0055313059693731775,0.05076289972646035,-0.020599350278762606
0.002522943075746298,0.030214762315154076,9.865132331848145,-0.0003418535925447941,0.00007230415940284729,-0.006299018859863281,0.05550379806238967,0.045156968604319496,0.04043575375300024
0.007425449322909117,0.026997173205018044,9.864068984985352,0.004983588587492704,-0.008862564340233803,0.0031461715698242188,-0.06656641000113603,0.0926564786505418,0.013883031501292008
0.0020120516419410706,0.0372723788022995,9.86059856414795,-0.004816447850316763,0.0011252425611019135,0.0031909942626953125,-0.031181387706268486,-0.07363106675875063,0.014785678686211548
0.006803013384342194,0.03891660273075104,9.857309341430664,-0.0002027866430580616,0.005375586450099945,-0.006094932556152344,0.05550379806238967,-0.002860995488589091,0.04043575375300024
0.0020120516419410706,0.030002200976014137,9.8697509765625,-0.004562957212328911,0.0009323582053184509,-0.011101722717285156,0.05170317131524781,0.05817410854317376,-0.020599350278762606
0.00493131298571825,0.0334472693502903,9.859490394592285,0.0006460500881075859,-0.0038740113377571106,-0.0015192031860351562,-0.0055313059693731775,0.02098378187330722,0.003245427083133705
0.00381289841607213,0.03150471672415733,9.853581428527832,-0.004058948718011379,-0.0035525336861610413,-0.010621070861816406,0.04035294437942045,-0.025803120662985905,-0.035750197291625214
0.0020120516419410706,0.02506953850388527,9.870787620544434,-0.003967822529375553,-0.00802440382540226,0.008105278015136719,0.05151315331810394,-0.05990545477606621,-0.07963912526827598
0.016127612441778183,0.03902847692370415,9.86136245727539,-0.0039354111067950726,-0.007917484268546104,-0.0010671615600585938,0.0544111278777463,-0.001768325303945723,-0.08054177078566886
0.006803013384342194,0.02970387041568756,9.863021850585938,0.0004220358096063137,-0.0033921487629413605,-0.0011091232299804688,0.036742362309848904,-0.02399781628798691,0.0005374805257951293
0.010005701333284378,0.03928578644990921,9.859747886657715,0.0002505783922970295,0.0063535310328006744,0.0036602020263671875,-0.046332441492436045,0.017372986360324114,-0.04083331878746259
0.006803013384342194,0.029759908095002174,9.861418724060059,0.00008370261639356613,-0.0034504681825637817,-0.00101470947265625,-0.0055313059693731775,-0.0021471073181905317,0.04043575375300024
0.0020120516419410706,0.03758544474840164,9.856571197509766,-0.004351545125246048,0.0010769478976726532,-0.005808830261230469,0.012180281682969028,-0.04223434133064162,-0.020599350278762606
0.006803013384342194,0.032723505049943924,9.859591484069824,0.0004923972301185131,0.0008184574544429779,-0.0011892318725585938,-0.021434387595542944,0.04227102691700399,0.017869742550203703
0.01159396767616272,0.02970387041568756,9.866153717041016,0.0053711459040641785,-0.0037681497633457184,0.0034627914428710938,0.08149645647484344,-0.04637487671069739,-0.020599350278762606
0.011056018993258476,0.03395687788724899,9.870406150817871,0.005161270499229431,0.0008147098124027252,0.007752418518066406,-0.0021046587597159604,-0.006287642698246308,0.037009116548502946
0.003925332799553871,0.033530429005622864,9.863275527954102,0.0006486703641712666,0.00548211857676506,0.0028963088989257812,0.006754790284878157,0.08254862577214274,-0.09392055056477679
0.009609710425138474,0.03251057118177414,9.85937786102295,0.005080278962850571,0.000808320939540863,-0.0021963119506835938,-0.0055313059693731775,-0.002860995488589091,-0.020599350278762606
0.007965406402945518,0.03202865645289421,9.869781494140625,0.0050806705839931965,0.0054818615317344666,0.002765655517578125,0.009277184481449156,0.10440072212411428,0.02562726830475787
0.006321179214864969,0.02970387041568756,9.86136245727539,0.00007758103311061859,-0.004336275160312653,-0.0024385452270507812,0.04322701327696777,-0.008999387881300043,-0.014460957886051654
0.006803013384342194,0.032368771731853485,9.86136245727539,-0.000019540544599294662,-0.004096571356058121,-0.002429962158203125,-0.0055313059693731775,-0.03681090432538704,0.013350561059325323
0.006803013384342194,0.02970387041568756,9.866153717041016,0.00041012978181242943,-0.0036106333136558533,0.0023670196533203125,0.02245654141309122,0.025126851893875306,0.04043575375300024
0.0020120516419410706,0.03160352632403374,9.867103576660156,-0.003690829034894705,-0.0037943534553050995,0.0019855499267578125,-0.0055313059693731775,0.07027456239021826,-0.008498886426558185
0.013607345521450043,0.030398264527320862,9.864765167236328,0.010109014809131622,-0.003391306847333908,0.0018205642700195312,-0.057720074386139804,-0.0550497505651425,-0.07278811869552923
0.006803013384342194,0.031928762793540955,9.863700866699219,0.0005259593017399311,0.006079573184251785,0.0021257400512695312,-0.004082478772110668,-0.06389609952035194,-0.020599350278762606
0.0020120516419410706,0.03690429776906967,9.858981132507324,-0.004016531631350517,0.0014346465468406677,-0.007293701171875,-0.0055313059693731775,-0.0332003222558155,-0.11233025158538174
0.002749319188296795,0.03928578644990921,9.866153717041016,-0.004284863825887442,0.005924247205257416,0.002292633056640625,-0.06656641000113603,-0.06389609952035194,0.04043575375300024
0.007709967438131571,0.026726823300123215,9.85838508605957,0.0008141128346323967,-0.00864645279943943,-0.0073375701904296875,0.08187606558230805,0.08454637606309214,-0.020599350278762606
0.00711440434679389,0.03418343514204025,9.866153717041016,0.005129931028932333,-0.0037928447127342224,0.00200653076171875,0.0190356571755462,-0.10036426708762186,0.007934672113464804
0.009425041265785694,0.02970387041568756,9.86136245727539,0.0008602533489465714,-0.00334785133600235,-0.002620697021484375,-0.0055313059693731775,0.02477037471613882,-0.020599350278762606
0.007327719125896692,0.033970121294260025,9.865629196166992,0.00028012366965413094,0.0015467554330825806,0.0024423599243164062,-0.0055313059693731775,0.04480497373822583,-0.020599350278762606
-0.0016593881882727146,0.03337531164288521,9.862482070922852,-0.008811064064502716,0.0013521313667297363,-0.0021543502807617188,-0.0055313059693731775,0.011401239911190894,0.007925105513057487
0.009566748514771461,0.034494828432798386,9.866153717041016,0.0056374105624854565,0.0015666559338569641,0.0024824142456054688,-0.06656641000113603,-0.012243941180467663,-0.020599350278762606
0.006803013384342194,0.032538462430238724,9.860284805297852,0.0010611023753881454,-0.0031646303832530975,-0.011510848999023438,-0.04164298301869339,-0.002860995488589091,-0.020599350278762606
0.0023241976741701365,0.03897364065051079,9.86584186553955,-0.0036265342496335506,0.006266709417104721,0.0026865005493164062,-0.0015546684489712618,0.054197471022771844,-0.016622722763520607
0.011352675035595894,0.03928578644990921,9.86136245727539,0.0013387077488005161,0.006491068750619888,-0.001880645751953125,-0.008605291302275596,-0.002860995488589091,0.09839687912196729
0.01159396767616272,0.034494828432798386,9.86136245727539,0.0057164025492966175,0.0016274303197860718,-0.0015516281127929688,-0.023404123438724708,0.01501182198076244,-0.020599350278762606
0.006803013384342194,0.035798173397779465,9.857012748718262,0.0008041947148740292,0.006396949291229248,-0.010831832885742188,0.016684177790784193,-0.04168061576019457,-0.020599350278762606
0.006803013384342194,0.04387757182121277,9.86156177520752,0.0008508637547492981,0.011048909276723862,-0.0014085769653320312,-0.06656641000113603,-0.002860995488589091,0.09893349586895625
0.002040783641859889,0.03928578644990921,9.856599807739258,0.0007902123034000397,0.006256256252527237,-0.001132965087890625,-0.0055313059693731775,-0.0032270242589930165,0.03970368287197917
0.009978478774428368,0.034494828432798386,9.862977981567383,0.0005973721854388714,0.001123819500207901,0.0037927627563476562,0.03492302403053965,-0.002860995488589091,-0.020599350278762606
0.009907625615596771,0.03280848637223244,9.856571197509766,0.0003716857172548771,-0.003613438457250595,-0.0053958892822265625,-0.04508299712199973,0.03669068232382424,-0.0025310786753789632
0.005526445340365171,0.03321826457977295,9.856571197509766,-0.004544853698462248,-0.002919193357229233,-0.005328178405761719,-0.021794279867864436,-0.06389609952035194,0.0180496903538911
0.0034015923738479614,0.031093409284949303,9.864764213562012,-0.0047739106230437756,-0.0031448565423488617,0.004300117492675781,0.05550379806238967,-0.046193850017265614,0.005031273089620768
0.01291265245527029,0.03317614272236824,9.857890129089355,0.009077019989490509,-0.0031202174723148346,-0.00031375885009765625,-0.0055313059693731775,-0.03646019011976275,-0.020599350278762606
0.01126843225210905,0.02970387041568756,9.865828514099121,0.004421235527843237,-0.0031297989189624786,0.004496574401855469,-0.009678511456040295,-0.05974889403368482,-0.016452141457042182
0.012445410713553429,0.034494828432798386,9.86051082611084,0.008989635854959488,0.0017422959208488464,-0.004799842834472656,0.05550379806238967,-0.06389609952035194,0.0044946580101584595
0.006803013384342194,0.030880849808454514,9.862539291381836,-0.0006474889814853668,-0.003354474902153015,-0.00013256072998046875,0.009462986971214659,-0.048901806579764104,0.04043575375300024
0.01159396767616272,0.034494828432798386,9.856571197509766,0.003943300805985928,0.0017047896981239319,-0.004517555236816406,-0.06656641000113603,-0.045135944428280554,0.007583946235153946
0.0025501481723040342,0.038209594786167145,9.861900329589844,-0.005257145501673222,0.006637245416641235,0.000362396240234375,-0.05971126129218364,0.05131894649400815,-0.013744194899703608
0.004194370936602354,0.034068506211042404,9.860936164855957,-0.005174797028303146,-0.002709433436393738,-0.004450798034667969,-0.06113520899178585,-0.013723397507289448,-0.020599350278762606
0.002976470859721303,0.038321368396282196,9.86901569366455,-0.00470915948972106,0.006644673645496368,0.009244918823242188,0.006755057089142611,-0.01514735854710488,-0.00831300056046004
-0.003995597828179598,0.03839221969246864,9.867047309875488,0.004671804141253233,0.001654200255870819,0.008769989013671875,0.044120087191373385,-0.06389609952035194,0.029052049552090564
0.0027627088129520416,0.032993514090776443,9.862863540649414,-0.004608906805515289,0.0012975670397281647,-0.0008478164672851562,-0.0055313059693731775,-0.002860995488589091,0.030872655151655975
0.004408133216202259,0.034494828432798386,9.866153717041016,0.00018226495012640953,0.001572486013174057,0.003627777099609375,-0.005546620534152816,-0.002876310053368729,-0.020629959398002048
0.0027639102190732956,0.031207585707306862,9.862866401672363,-0.004594193771481514,-0.003518514335155487,-0.0014190673828125,0.09738208910211793,-0.0961960374249158,-0.03975615660069059
0.00748401740565896,0.03860478103160858,9.864791870117188,0.0043759639374911785,0.0009680241346359253,-0.0057964324951171875,0.05550379806238967,-0.055220345211834145,-0.06428293902338325
0.002975269453600049,0.03735935315489769,9.86136245727539,-0.005160975735634565,0.005269795656204224,-0.0012750625610351562,0.04323274956865352,0.05817410854317376,-0.020599350278762606
0.006803013384342194,0.02970387041568756,9.866153717041016,-0.0004560472443699837,-0.003940261900424957,0.0030117034912109375,-0.03334855870514593,-0.06389609952035194,-0.020599350278762606
0.006803013384342194,0.034494828432798386,9.866719245910645,-0.00007456401363015175,0.0010569281876087189,-0.0017156600952148438,-0.0055313059693731775,0.024053605059684163,0.006315260274670564
0.005698088090866804,0.03228497877717018,9.869839668273926,-0.00008001038804650307,0.001017250120639801,0.007434844970703125,-0.0055313059693731775,-0.002860995488589091,0.026359410889425016
0.004761199466884136,0.028996538370847702,9.863404273986816,-0.004388320259749889,0.0015710964798927307,0.0026884078979492188,-0.0055313059693731775,0.02315097955261111,-0.020599350278762606
0.006803013384342194,0.03489241749048233,9.870546340942383,0.0006632511503994465,0.0016532465815544128,0.0070552825927734375,-0.05643609220366997,0.002204176750357162,-0.020599350278762606
0.011267230845987797,0.024912914261221886,9.861035346984863,0.0006820387206971645,-0.0075025055557489395,-0.006907463073730469,0.05550379806238967,-0.007023515540035846,-0.01227432351608232
0.0039121429435908794,0.03639492020010948,9.857562065124512,-0.004170500673353672,0.00206553190946579,-0.0016851425170898438,-0.04235993943813316,-0.002860995488589091,-0.020599350278762606
0.0025236213114112616,0.034239042550325394,9.866153717041016,-0.003963479306548834,0.001853596419095993,0.0029802322387695312,0.05550379806238967,0.00691481948269744,-0.020599350278762606
0.006803013384342194,0.029519064351916313,9.856941223144531,0.0006231698207557201,-0.007800297811627388,0.002910614013671875,-0.0031769450985550717,0.05111102593071944,0.035727035346417337
0.0020120516419410706,0.02783191204071045,9.868024826049805,0.000682550948113203,-0.0028071999549865723,0.00771331787109375,0.03926464978471412,-0.041498121643308294,-0.004360205336140362
0.0020120516419410706,0.029817696660757065,9.870716094970703,-0.0031985528767108917,-0.0025562606751918793,0.00734710693359375,-0.0055313059693731775,0.11775910471720472,0.09857063539919271
-0.0026075120549649,0.034494828432798386,9.866110801696777,0.01008941326290369,0.0024723857641220093,-0.0022487640380859375,-0.06547468697163147,-0.002860995488589091,0.039889888903194656
0.0020120516419410706,0.03290678560733795,9.86613941192627,-0.0037284698337316513,-0.002061985433101654,0.007187843322753906,-0.04616440816668316,-0.023092095851446195,-0.041001352113215477
0.006803013384342194,0.02970387041568756,9.866153717041016,0.0011743414215743542,-0.0023754574358463287,0.0025129318237304688,0.035818552544178234,-0.022546241006800527,-0.020599350278762606
0.004960718099027872,0.03781145438551903,9.86136245727539,0.00523959007114172,0.002229340374469757,-0.0025348663330078125,0.03672131145338352,-0.06389609952035194,-0.08632211185548305
0.005059755407273769,0.036238085478544235,9.866592407226562,-0.00413069874048233,0.006613217294216156,0.011644363403320312,-0.02773977277737542,0.03596564173517152,0.04043575375300024
0.0020120516419410706,0.03647882491350174,9.86136245727539,-0.003914606291800737,-0.002886742353439331,-0.00270843505859375,-0.0055313059693731775,0.0402942741216671,0.01516032189930402
0.007043755147606134,0.03473557159304619,9.870222091674805,0.0008852123282849789,0.0014554299414157867,0.0067729949951171875,0.05550379806238967,0.00020597289215819702,0.04043575375300024
0.007824040949344635,0.035515859723091125,9.86717414855957,-0.004065030720084906,-0.0036644823849201202,-0.002773284912109375,0.007476255696387199,0.008145187348225323,0.0034144142341320186
0.0020120516419410706,0.03732996806502342,9.86331844329834,-0.004324412439018488,0.0057031139731407166,-0.0029821395874023438,-0.0055313059693731775,-0.038979676149851206,-0.031801627579843825
0.009212128818035126,0.03809486702084541,9.867344856262207,-0.004116586875170469,0.0007631853222846985,0.0064487457275390625,0.00964057188963499,-0.002860995488589091,-0.12749767381317353
0.006349710747599602,0.030157173052430153,9.870491027832031,0.0007206425070762634,-0.003769461065530777,0.006138801574707031,-0.060791498398103466,0.04662428533710864,0.046210665356032805
0.01159396767616272,0.03928578644990921,9.870348930358887,0.004525990691035986,0.005602449178695679,0.010645866394042969,-0.0055313059693731775,-0.11733952833092495,0.006122359123943942
0.008971389383077621,0.03187224641442299,9.858739852905273,-0.0001206500455737114,-0.003867063671350479,-0.00836944580078125,0.000255091557244109,0.05817410854317376,0.06806011367567964
0.001033693552017212,0.02970387041568756,9.860383987426758,-0.009671279229223728,-0.0035562030971050262,-0.008075714111328125,0.04303985008545355,0.03324621258930152,-0.06917050633358934
0.006137150339782238,0.021453682333230972,9.870944023132324,-0.00021208124235272408,-0.012776944786310196,0.005873680114746094,0.0029515488559446507,-0.055413244695034114,-0.0646687446598898
0.006803013384342194,0.034494828432798386,9.868634223937988,0.00021390197798609734,0.001166127622127533,0.0005903244018554688,0.023898351658198598,0.08977955494736484,0.04261154919972615
0.006803013384342194,0.02970387041568756,9.868505477905273,0.00043151993304491043,-0.002999313175678253,-0.004131317138671875,-0.03623411352627798,0.05817410854317376,0.01010345060803558
0.01159396767616272,0.026444511488080025,9.87017822265625,0.005088805686682463,-0.007533496245741844,0.005002021789550781,0.04574780664795205,0.006894995925848536,-0.020599350278762606
0.005046166945248842,0.03752893954515457,9.871822357177734,0.00013434048742055893,0.0062157101929187775,0.004718780517578125,-0.0167221173571895,0.00832981589922723,-0.07044365626292236
0.009325656108558178,0.037017472088336945,9.870944023132324,0.005317141767591238,0.006278418004512787,0.004344940185546875,-0.0055313059693731775,-0.0061010931565403355,0.01153825057109444
0.006803013384342194,0.034494828432798386,9.866153717041016,0.0005188737995922565,0.001275230199098587,-0.0005197525024414062,-0.06656641000113603,0.0021844065543611484,0.01244089775601398
0.006803013384342194,0.035048067569732666,9.8656005859375,0.00041047437116503716,0.0009436309337615967,-0.0005855560302734375,0.0015167555629924019,-0.009909057020954671,-0.020599350278762606
0.00789396557956934,0.033403877168893814,9.867244720458984,0.0005853688344359398,0.000993233174085617,-0.0007925033569335938,-0.06656641000113603,-0.01675933655208078,0.026537399349295332
0.00406792014837265,0.034494828432798386,9.866832733154297,-0.004065620247274637,0.000862419605255127,0.003956794738769531,0.09900095065711674,0.11055613662889736,-0.020599350278762606
0.0039971922524273396,0.03168901056051254,9.863348007202148,0.0007866527885198593,0.0010552220046520233,-0.0008745193481445312,-0.03082128199053543,-0.002860995488589091,0.015145787736997908
0.006803013384342194,0.034494828432798386,9.866153717041016,0.0009379503317177296,0.001001466065645218,-0.0009107589721679688,-0.0011870655334070598,0.05382986810720764,0.03609152332219404
0.0054998756386339664,0.034494828432798386,9.872247695922852,0.0009945235215127468,0.0005573518574237823,0.0039501190185546875,0.03890230291315966,-0.0917282399340812,0.04043575375300024
0.00864669494330883,0.03339123725891113,9.870944023132324,0.0008361847139894962,-0.004224363714456558,0.0036573410034179688,-0.0055313059693731775,0.02062687780874761,0.016947887125770156
0.0037850080989301205,0.03147682547569275,9.866153717041016,0.0008826637640595436,0.0005664713680744171,-0.0012569427490234375,0.017055515966050747,0.03558728660774983,0.0019874699891346648
0.0018832840723916888,0.03436606004834175,9.8660249710083,-0.003437033388763666,0.0007904917001724243,-0.0009927749633789062,-0.0038908599493800763,0.05653366252318066,-0.018958897588662895
0.0004965988337062299,0.024912914261221886,9.86136245727539,-0.0035474603064358234,-0.008664334192872047,-0.005570411682128906,0.05550379806238967,0.07748046532543461,-0.06232811086847783
0.009962686337530613,0.032966434955596924,9.864624977111816,0.006316687446087599,-0.004008766263723373,-0.0053615570068359375,0.03472182693471517,0.056863325872339554,0.019653795965538966
0.006912682205438614,0.03293440118432045,9.862922668457031,-0.00753483222797513,-0.0040173716843128204,-0.0002613067626953125,0.07678029089422897,-0.002860995488589091,0.04043575375300024
0.00671922042965889,0.03441103547811508,9.86136245727539,0.0022447393275797367,0.0010139718651771545,-0.004513740539550781,0.05550379806238967,0.11707421817035227,0.03936826322081469
0.006803013384342194,0.03755777329206467,9.86136245727539,0.0017049829475581646,0.000717654824256897,-0.004033088684082031,0.011475224733723883,-0.10792469952944418,-0.020599350278762606
0.006803013384342194,0.02970387041568756,9.863316535949707,0.0015532290562987328,-0.0038421228528022766,0.0010814666748046875,-0.0055313059693731775,-0.002860995488589091,-0.020599350278762606
0.006803013384342194,0.03928578644990921,9.862709999084473,0.0008176872506737709,0.0057899244129657745,0.0015878677368164062,-0.0055313059693731775,-0.04672473714267543,0.06712812635930346
0.011297614313662052,0.03419847413897514,9.851780891418457,0.005371590610593557,0.0012343712151050568,-0.012048721313476562,-0.11627520609937979,-0.00663643591316653,0.04043575375300024
0.01159396767616272,0.034494828432798386,9.862272262573242,0.005439387168735266,0.0013201013207435608,0.002513885498046875,0.01919093725745821,0.07130570751147862,-0.020599350278762606
0.009181644767522812,0.02611907571554184,9.860156059265137,0.0055131190456449986,-0.008167123422026634,-0.0016565322875976562,0.04013774005971216,0.042808050540496245,-0.020599350278762606
0.01159396767616272,0.03083917871117592,9.86136245727539,0.005638081580400467,0.0012595690786838531,-0.00122833251953125,0.008932126526231285,0.0437106760475693,-0.006135931123371367
0.005785185843706131,0.033985912799835205,9.852798461914062,0.0007363976910710335,0.0008629374206066132,-0.010282516479492188,0.049020427755740184,-0.002860995488589091,-0.02708273059057201
0.006803013384342194,0.032341692596673965,9.86136245727539,0.0007818099111318588,0.0008467696607112885,-0.000644683837890625,-0.0055313059693731775,-0.06389609952035194,0.04043575375300024
0.006803013384342194,0.034494828432798386,9.856571197509766,0.0004842146299779415,0.0011391304433345795,-0.005229949951171875,-0.018189434089978643,-0.05123797139974647,0.0530938752034991
0.006803013384342194,0.033572081476449966,9.86430835723877,0.0011689416132867336,-0.003347877413034439,-0.005169868469238281,0.0437483221292837,-0.04038514765414,0.028680277819894275
0.006803013384342194,0.03856431320309639,9.86136245727539,0.0008851061575114727,0.006120204925537109,-0.0008420944213867188,-0.057375083131988046,-0.10654857649424528,-0.020599350278762606
0.006803013384342194,0.02970387041568756,9.858996391296387,0.0007697651162743568,-0.003281485289335251,-0.005157470703125,0.056262642751348665,-0.002102150799630096,-0.020599350278762606
0.00602197227999568,0.04329570010304451,9.865372657775879,0.0006220005452632904,0.010627154260873795,0.004195213317871094,0.03560345494617573,-0.06389609952035194,0.030485578859839962
0.0020120516419410706,0.034494828432798386,9.864733695983887,-0.0044388840906322,0.0010296925902366638,-0.00518798828125,-0.0055313059693731775,-0.11588368418150731,0.03138822437723285
0.00886271521449089,0.03427097946405411,9.861138343811035,0.009468570351600647,0.005649384111166,0.004154205322265625,-0.0055313059693731775,-0.031952665473951015,0.0113440737624784
0.006803013384342194,0.03321616351604462,9.862001419067383,0.00022763805463910103,0.0011566802859306335,-0.0005769729614257812,-0.05027664895449362,0.005283871694518888,-0.020599350278762606
0.01159396767616272,0.02970387041568756,9.856571197509766,0.00517285754904151,-0.0035766176879405975,-0.0056705474853515625,-0.0055313059693731775,0.05817410854317376,0.03319352208212523
0.007878754287958145,0.030779613181948662,9.857646942138672,0.00019539054483175278,-0.003439091145992279,-0.005706787109375,-0.052861835534703784,-0.03648695058748745,0.026731184289147957
0.006803013384342194,0.02970387041568756,9.863433837890625,0.00003674579784274101,-0.003421768546104431,0.0036869049072265625,-0.013798929794556268,-0.03751235941706206,0.06681948718618351
0.002438824623823166,0.03406805545091629,9.865726470947266,-0.004733991343528032,0.0017241202294826508,0.0035457611083984375,0.05006686076135374,0.047300233941101895,-0.07076058637856021
0.011238048784434795,0.03342707082629204,9.865442276000977,0.00003238208591938019,-0.011959429830312729,-0.0055217742919921875,-0.0055313059693731775,-0.05936181440681551,0.04043575375300024
0.01159396767616272,0.027489518746733665,9.866153717041016,0.0045515079982578754,-0.006803011521697044,0.0040130615234375,-0.0055313059693731775,0.04176159085445624,0.012225678428565812
0.008661446161568165,0.031562305986881256,9.86987018585205,0.004297826439142227,0.0026825331151485443,0.013002395629882812,-0.06656641000113603,0.034498325002382375,0.054119277362967094
0.0020120516419410706,0.030132295563817024,9.856785774230957,-0.004798133857548237,-0.0022382736206054688,-0.0058803558349609375,0.05004580990488835,-0.05570913062431318,0.03770676634435619
0.006803013384342194,0.0391424261033535,9.866010665893555,0.000028511974960565567,0.002540241926908493,-0.001216888427734375,-0.007357634520411119,-0.06572242807138988,0.03860941186174908
0.008303875103592873,0.03270559757947922,9.862863540649414,0.00004556216299533844,-0.002709224820137024,-0.001079559326171875,0.07829798027214695,0.01993318672116819,0.0823503968737603
0.003511266317218542,0.03464148938655853,9.86136245727539,-0.009608861058950424,0.011099554598331451,-0.001377105712890625,-0.0055313059693731775,-0.0429282458616326,-0.020599350278762606
0.0020120516419410706,0.034494828432798386,9.870941162109375,-0.00471549853682518,0.0015108473598957062,0.007959365844726562,-0.005510255112907787,-0.12491020605650228,-0.020557265241098355
0.01159396767616272,0.03764321655035019,9.863004684448242,0.004603762645274401,0.001014210283756256,0.0032138824462890625,0.09561315014836397,-0.002860995488589091,-0.020599350278762606
0.005438898224383593,0.034494828432798386,9.85999870300293,-0.004807870835065842,0.0006967857480049133,-0.0060672760009765625,-0.0055313059693731775,-0.06389609952035194,0.0012290555220521016
0.003445365699008107,0.0325704962015152,9.857514381408691,-0.005130109377205372,-0.004000522196292877,-0.010709762573242188,-0.030046615808694336,-0.002860995488589091,0.015920447248732393
0.006803013384342194,0.034283921122550964,9.856992721557617,-0.00022572465240955353,0.0009513981640338898,-0.005953788757324219,-0.06387950429510293,-0.008234806900655296,-0.023286252649742403
0.009738839231431484,0.03155900165438652,9.864298820495605,-0.0007369439117610455,0.001043573021888733,-0.0011653900146484375,0.008236407726242017,-0.06389609952035194,-0.020599350278762606
0.0020120516419410706,0.03256884589791298,9.86230182647705,-0.005432839039713144,0.0012543722987174988,0.003360748291015625,-0.054604014020733053,-0.03935973882456539,-0.020599350278762606
0.008023764938116074,0.034494828432798386,9.864933013916016,-0.0007718559354543686,0.001596704125404358,0.00350189208984375,-0.05101445612720045,-0.07944806673450074,-0.03615130415269818
0.002435521222651005,0.034071359783411026,9.857418060302734,-0.005145648960024118,0.0014428943395614624,-0.0059680938720703125,0.17217917053781023,0.05817410854317376,-0.020599350278762606
0.006803013384342194,0.02970387041568756,9.86136245727539,-0.00024252478033304214,-0.003268655389547348,-0.0011730194091796875,-0.0055313059693731775,-0.002860995488589091,0.1014708577847631
0.00945542473345995,0.02970387041568756,9.864014625549316,0.004941488150507212,-0.0029588304460048676,0.0036211013793945312,-0.03932211942327743,0.08541839912103236,0.04043575375300024
0.00781120453029871,0.03550301864743233,9.867161750793457,0.004746428225189447,0.006494253873825073,0.00836944580078125,-0.0055313059693731775,0.093521191271636,-0.06879044365887516
0.007439042441546917,0.035130858421325684,9.862634658813477,0.0000040405429899692535,0.0016855746507644653,-0.001079559326171875,-0.0055313059693731775,-0.010963787639192733,-0.012496558128158964
0.004522760398685932,0.03700553625822067,9.858851432800293,-0.0045943064615130424,0.0012897290289402008,-0.001331329345703125,-0.0055313059693731775,0.0261885994642685,-0.023535271074916885
0.004363158252090216,0.034494828432798386,9.863713264465332,-0.004719465970993042,0.001285787671804428,-0.0010595321655273438,-0.06656641000113603,-0.003991605239637764,-0.05055159074901308
0.010002704337239265,0.034494828432798386,9.865358352661133,-0.004352612886577845,0.0013047084212303162,-0.0013580322265625,-0.05643034257177099,-0.012997049577740904,-0.010463289519504182
0.007651602849364281,0.037588607519865036,9.86136245727539,0.0003837798722088337,0.005828794091939926,-0.001590728759765625,-0.0449449392553582,0.018760475257188734,0.029625015045058024
0.006803013384342194,0.03200201690196991,9.868451118469238,0.0003680530935525894,-0.003465622663497925,0.0027256011962890625,-0.06656641000113603,0.05817410854317376,0.008678215577857383
0.004575718659907579,0.031931161880493164,9.86136245727539,-0.004247992765158415,0.0014450699090957642,-0.001972198486328125,-0.0055313059693731775,-0.035521172511018224,-0.05325953397129835
-0.001612760708667338,0.03870271518826485,9.861945152282715,-0.00914122723042965,0.006037276238203049,-0.0018911361694335938,0.001896818237706588,-0.056467975313272176,0.03300763621602709
0.002524269511923194,0.03398261219263077,9.866153717041016,0.0002502887509763241,-0.003510124981403351,0.0029659271240234375,0.0075196380697873585,-0.00938646750816936,-0.020599350278762606
0.006803013384342194,0.03702177852392197,9.866153717041016,0.000027203001081943512,0.006069093942642212,0.0027761459350585938,-0.05214507921846235,-0.12828101113360937,-0.006178019496088926
0.0020120516419410706,0.02970387041568756,9.858586311340332,-0.0041048964485526085,-0.002548813819885254,-0.006457328796386719,-0.10193435682307854,0.03250695133335342,-0.020599350278762606
0.0020120516419410706,0.03539774939417839,9.862265586853027,-0.0034546181559562683,-0.0021715015172958374,-0.006150245666503906,0.03073769221448211,-0.03912999367244438,0.015669644570039377
0.008076542057096958,0.034494828432798386,9.86136245727539,0.0011818152852356434,0.002163998782634735,-0.0014142990112304688,0.039279484101817745,-0.015223157638636154,0.02421144312748162
0.008676302619278431,0.034494828432798386,9.86136245727539,0.0009043300524353981,0.0018696598708629608,-0.0013895034790039062,0.01833374851662161,-0.026726049974583877,-0.020599350278762606
0.011364814825356007,0.03882748261094093,9.861591339111328,0.0061196149326860905,0.006564661860466003,-0.0014057159423828125,-0.00845062487017183,0.05817410854317376,0.04043575375300024
0.002170476596802473,0.02986229583621025,9.8707857131958,0.0012608752585947514,0.0012941062450408936,0.0031518936157226562,-0.001494744211174978,0.17620776818871448,0.04043575375300024
0.006803013384342194,0.03746625408530235,9.856571197509766,0.0018625021912157536,0.0016645267605781555,-0.006873130798339844,-0.0055313059693731775,-0.021788463534899348,-0.024852073516967825
0.0036731595173478127,0.033026084303855896,9.864684104919434,0.0017569717019796371,0.005864053964614868,0.0071392059326171875,-0.0055313059693731775,-0.02402289588884555,0.04043575375300024
0.0020120516419410706,0.02973780781030655,9.875718116760254,-0.0029516038484871387,-0.003419153392314911,0.011281013488769531,-0.0055313059693731775,-0.002860995488589091,0.04043575375300024
0.0020120516419410706,0.034494828432798386,9.869407653808594,-0.0031537823379039764,0.0013339892029762268,0.010334014892578125,-0.045835785354155625,-0.002860995488589091,-0.020599350278762606
0.006803013384342194,0.03758767992258072,9.869549751281738,0.001636406872421503,0.006027068942785263,0.0002918243408203125,-0.02716456946363985,-0.002860995488589091,0.05820431078590991
0.0053543820977211,0.03304619714617729,9.867602348327637,-0.0030079674907028675,-0.0032997243106365204,0.004673004150390625,0.03704876032714745,-0.002860995488589091,0.021980721020337976
0.002207643585279584,0.034494828432798386,9.861557960510254,-0.0029481123201549053,0.0014694370329380035,-0.0048923492431640625,-0.0055313059693731775,0.05319057840915031,-0.020599350278762606
0.0038518665824085474,0.0326550155878067,9.87573528289795,0.001736740581691265,-0.0030847638845443726,0.008840560913085938,0.008626662323858331,0.02057757238067658,-0.020599350278762606
0.00777263380587101,0.03546445444226265,9.868063926696777,0.006097610108554363,0.006132274866104126,-0.00128936767578125,-0.04222518994437086,0.03383288848640859,-0.020599350278762606
0.0032481220550835133,0.034494828432798386,9.876971244812012,-0.0033086994662880898,0.0011607706546783447,0.007527351379394531,0.010215775203370556,0.08771505022944914,-0.020599350278762606
0.006803013384342194,0.03887763246893883,9.871352195739746,0.0012160036712884903,0.00575435534119606,0.002643585205078125,-0.05172196767567857,0.011983433496655144,0.04043575375300024
0.007489219773560762,0.03723341226577759,9.868206024169922,-0.0035245059989392757,0.000659450888633728,0.0023698806762695312,0.0467617162137287,0.023285528943175073,0.04043575375300024
0.006803013384342194,0.032371602952480316,9.868821144104004,0.0013707377947866917,0.0008634403347969055,0.001995086669921875,0.028454648123552456,-0.029910145427426305,-0.05458529103147502
-0.0007318846182897687,0.03826227784156799,9.869224548339844,-0.008207529783248901,0.0053858682513237,-0.0031375885009765625,0.05550379806238967,-0.05085694822968025,-0.06859530968996039
0.012546622194349766,0.03738047555088997,9.871896743774414,0.01049160584807396,-0.0038330145180225372,0.00576019287109375,-0.06656641000113603,-0.014997494591761279,0.016162772221922396
0.006803013384342194,0.03196880593895912,9.87573528289795,0.0006990930996835232,0.0009081028401851654,0.005419731140136719,0.02664934374855346,-0.006187190892679519,-0.02392553234263981
0.004347841255366802,0.03203965723514557,9.866272926330566,-0.0036821854300796986,-0.0035897530615329742,0.00043201446533203125,-0.0055313059693731775,-0.0326181019899248,0.041956641447038374
0.010783019475638866,0.03928578644990921,9.870944023132324,0.005442804656922817,0.005760129541158676,0.0006303787231445312,0.03484140860604329,0.03751171908682737,-0.050640863455899264
0.007636285852640867,0.030537143349647522,9.867819786071777,0.0007133809849619865,-0.003581412136554718,-0.003948211669921875,-0.016146914043453933,0.047558500469093004,-0.009983745539735156
0.0018480237340554595,0.029867902398109436,9.87573528289795,-0.008915891870856285,0.0015971548855304718,0.005032539367675781,-0.03500401246501455,-0.002860995488589091,0.010963053927465487
0.0017063163686543703,0.034494828432798386,9.87573528289795,0.0007293997332453728,0.0018076151609420776,0.0048656463623046875,0.023038734998555473,-0.03922108064832885,0.03654074833236122
0.003208827693015337,0.034494828432798386,9.879928588867188,-0.004324262496083975,0.001452125608921051,0.009004592895507812,0.04788055989671497,-0.05627286135467724,-0.020599350278762606
0.003067120909690857,0.034494828432798386,9.866681098937988,0.005353814456611872,0.001500297337770462,-0.000392913818359375,0.007909892667403672,-0.043734288224973446,-0.007158144971879145
0.0008953653159551322,0.02970387041568756,9.870944023132324,-0.003721467684954405,-0.0034556128084659576,-0.00009822845458984375,0.10231271195050022,0.07240029868682606,0.026209555271714677
0.004772963002324104,0.0317339189350605,9.868914604187012,-0.0030159270390868187,0.0012834668159484863,-0.0047473907470703125,-0.04070431225549265,-0.002860995488589091,-0.020599350278762606
0.006031262222677469,0.030475622043013573,9.870944023132324,0.0015984466299414635,-0.0035121701657772064,0.00003910064697265625,-0.010447227902784073,-0.012692839355410884,0.04043575375300024
0.006803013384342194,0.034494828432798386,9.87062931060791,0.0014594369567930698,0.001829400658607483,-0.0045013427734375,-0.12358664346140076,-0.06791097009185006,-0.024614217515207423
0.0039006106089800596,0.03348098695278168,9.87006950378418,-0.0037270919419825077,-0.0027873963117599487,0.0051822662353515625,-0.029590860764154656,-0.08795568099555987,0.0034602011809655663
0.009776139631867409,0.03152170032262802,9.875073432922363,0.00038487324491143227,0.0018130168318748474,-0.00406646728515625,-0.0055313059693731775,0.011857101677436354,0.017277251987658195
0.002359434962272644,0.0343211367726326,9.870770454406738,-0.004490894265472889,0.0020117834210395813,0.0006561279296875,-0.12096321048988118,-0.002860995488589091,0.038222985905327675
0.0067000496201217175,0.034597791731357574,9.866256713867188,-0.004922807682305574,0.006235525012016296,0.0009632110595703125,-0.0055313059693731775,0.05686239205741397,-0.020599350278762606
0.005261837970465422,0.031245045363903046,9.870944023132324,0.00006263237446546555,-0.003308873623609543,0.0009851455688476562,0.03586977896295333,0.038540089443737414,0.001167723891760825
0.006803013384342194,0.03130951523780823,9.864547729492188,0.00006781797856092453,0.0012897700071334839,-0.008280754089355469,-0.0055313059693731775,-0.10447588088541086,-0.020599350278762606
0.002050544135272503,0.034494828432798386,9.870905876159668,-0.004802481271326542,0.00196152925491333,0.0015430450439453125,-0.06558565086521773,-0.0023706092505233318,-0.08065369517460716
0.006803013384342194,0.03306913003325462,9.867578506469727,-0.000028078444302082062,0.006607234477996826,-0.007814407348632812,-0.0055313059693731775,0.036737986719911866,-0.04203546543191789
0.006803013384342194,0.03321058675646782,9.85960865020752,0.0001421854831278324,-0.0030140019953250885,-0.0074825286865234375,-0.02786847915454785,-0.0802568838621919,-0.020599350278762606
0.010200549848377705,0.02970387041568756,9.872337341308594,0.00021329475566744804,-0.0027962327003479004,0.0072231292724609375,0.0632839171355631,-0.02061265714145223,-0.0028476886258994665
0.015883317217230797,0.02995467372238636,9.870944023132324,0.009465540759265423,-0.002551194280385971,0.0025577545166015625,-0.0055313059693731775,-0.002860995488589091,-0.07843931316113464
0.001011146348901093,0.0325998030602932,9.868048667907715,-0.0001573357731103897,-0.002816908061504364,0.00254058837890625,0.031361854110744915,-0.02700293944023385,0.003542588670302192
0.008768890053033829,0.037319909781217575,9.862221717834473,0.0003834059461951256,0.0067031607031822205,-0.0021390914916992188,-0.030575902108517433,0.05817410854317376,0.02948982865931268
0.007983870804309845,0.033313971012830734,9.872124671936035,0.0003396631218492985,0.001964222639799118,0.0024805068969726562,0.025416361201233934,0.08912177571378087,0.07138342759371397
-0.001668898737989366,0.03338482230901718,9.873164176940918,-0.004632861819118261,-0.0028526894748210907,0.011910438537597656,0.022750826516783566,0.029891976057017013,0.026294687509921873
0.004695426672697067,0.02970387041568756,9.868261337280273,-0.004379599820822477,-0.0027231909334659576,0.0022687911987304688,-0.012866635653275973,-0.06389609952035194,-0.020599350278762606
0.006368928588926792,0.03406074643135071,9.86658763885498,-0.003963537979871035,-0.0023834779858589172,0.0021486282348632812,0.022221220051843123,-0.002860995488589091,-0.020599350278762606
0.005834714509546757,0.0354631245136261,9.869976043701172,0.0007281219586730003,0.0022641047835350037,0.0021677017211914062,-0.06656641000113603,-0.002860995488589091,-0.008263578405523313
0.010696523822844028,0.03539227321743965,9.866153717041016,0.000625003594905138,0.00705767422914505,-0.0024690628051757812,-0.05513328698034293,-0.014294118509382192,-0.020599350278762606
0.0020120516419410706,0.034494828432798386,9.8638334274292,-0.004192936699837446,0.002407260239124298,-0.006926536560058594,-0.06656641000113603,-0.03433826912413664,0.010877923356784946
0.0028386430349200964,0.035321418195962906,9.8701171875,0.0004566744901239872,0.006879914551973343,-0.002147674560546875,0.05550379806238967,-0.002860995488589091,-0.020599350278762606
0.006803013384342194,0.034494828432798386,9.866153717041016,0.0006142468191683292,0.0019099526107311249,-0.002162933349609375,-0.056150078032175685,-0.03410999139547012,-0.07121812901167172
0.006803013384342194,0.034494828432798386,9.866286277770996,0.00034555094316601753,0.0014123953878879547,0.0028543472290039062,0.08517576732293823,0.025119834941720178,0.04043575375300024
0.00173762789927423,0.03928578644990921,9.868412017822266,0.00028607482090592384,0.005863111466169357,0.0024271011352539062,0.023238197866661,-0.002860995488589091,-0.020599350278762606
0.006803013384342194,0.034494828432798386,9.866153717041016,0.0009577707387506962,0.0008147768676280975,-0.0021715164184570312,-0.05091888683967316,-0.002860995488589091,-0.020599350278762606
0.007833023555576801,0.03346481919288635,9.866153717041016,0.0009955842979252338,0.0007550939917564392,-0.0023212432861328125,0.02925986339367349,0.031930173874457575,-0.00747737960935121
0.004686202388256788,0.03237801790237427,9.870944023132324,0.0007602451369166374,0.0010287575423717499,0.0025806427001953125,-0.032498707081581805,0.011339608126102107,0.04753606223045245
0.006803013384342194,0.036540910601615906,9.872990608215332,0.00034335581585764885,0.005390152335166931,0.0068378448486328125,0.020535043780922673,-0.07279853073194954,-0.011696939077484845
0.0016101086512207985,0.03409288451075554,9.861763954162598,-0.009278735145926476,-0.004182141274213791,-0.00264739990234375,0.05550379806238967,-0.007981609653688807,-0.020599350278762606
0.0007698578992858529,0.03804359212517738,9.867395401000977,-0.0039491369388997555,0.005305130034685135,-0.002109527587890625,-0.06656641000113603,0.04234898712307734,-0.049984218140439234
0.006803013384342194,0.031608495861291885,9.870944023132324,0.0010509504936635494,-0.004165772348642349,0.0023946762084960938,-0.0055313059693731775,0.033909861516703464,-0.03310595358747825
0.005679846275597811,0.034494828432798386,9.866153717041016,0.005479993298649788,0.001044582575559616,-0.0018815994262695312,-0.043203214336578505,0.011447717214058715,-0.0349080563113038
0.0023915700148791075,0.03909602761268616,9.86596393585205,0.005626453086733818,0.0012812018394470215,-0.006258964538574219,0.05308633798302828,0.05333918838445098,0.09905339103529509
0.00492080906406045,0.02970387041568756,9.868035316467285,-0.0035197194665670395,-0.003723863512277603,0.0033502578735351562,-0.04803814783551451,0.05817410854317376,-0.03912761911449074
0.01300004217773676,0.034494828432798386,9.866153717041016,0.010507533326745033,0.0012768134474754333,-0.0012912750244140625,-0.027092398910105148,0.03661301560244179,-0.04216044988960119
0.00835054088383913,0.03125140070915222,9.869322776794434,-0.0035871355794370174,-0.008471714332699776,-0.00153350830078125,0.015128735609446017,0.03751406696435457,-0.020599350278762606
0.00041276696720160544,0.032895538955926895,9.870944023132324,0.0013187858276069164,0.005735374987125397,0.0029926300048828125,0.035173419832729376,0.017513378764279608,-0.0002689820542622258
0.0034698706585913897,0.04095235839486122,9.866153717041016,0.0015559005551040173,0.005539786070585251,-0.0014772415161132812,-0.0453348870280704,0.03960205045754217,-0.03917139502418097
0.006803013384342194,0.03301466256380081,9.866153717041016,0.0019288687035441399,0.0006132237613201141,-0.001445770263671875,0.03664703314615963,-0.002860995488589091,0.02157897883161028
0.005393700674176216,0.03111318126320839,9.864744186401367,-0.003618004731833935,0.0003989115357398987,-0.0059452056884765625,-0.023485445378530173,-0.020815134897746085,0.04043575375300024
0.006568103097379208,0.0347297377884388,9.86591911315918,0.0015000789426267147,0.0005563162267208099,-0.0010309219360351562,-0.0055313059693731775,-0.06090343612725499,0.09548551098824935
0.0020120516419410706,0.03158300369977951,9.870944023132324,-0.003040616400539875,-0.004044611006975174,0.0039653778076171875,-0.018687450930007777,-0.03995663332500104,-0.020599350278762606
0.0020120516419410706,0.034494828432798386,9.85910701751709,-0.002764030359685421,0.000614117830991745,-0.010175704956054688,-0.05041757496697803,-0.015449621098304389,-0.020599350278762606
0.01039721816778183,0.03808903694152832,9.866153717041016,0.0020750858820974827,0.00039761513471603394,-0.0005340576171875,-0.0055313059693731775,0.01238518735806941,0.04043575375300024
0.007250483613461256,0.034494828432798386,9.865706443786621,0.0012570219114422798,0.0002739913761615753,-0.000728607177734375,-0.055165170089945134,-0.05819547956475649,0.034735133797404796
0.004103745799511671,0.02970387041568756,9.866153717041016,-0.003611080814152956,-0.004346247762441635,-0.0002841949462890625,-0.03217872872722257,-0.002860995488589091,0.006048069144033484
0.008428837172687054,0.025967957451939583,9.858681678771973,0.005748860538005829,-0.008639546111226082,-0.009569168090820312,0.021350450973945834,-0.09804947328922223,-0.06819356916875934
0.005818822421133518,0.03830159455537796,9.868975639343262,-0.003921904135495424,0.0007469356060028076,-0.004260063171386719,0.05550379806238967,-0.05135787323619193,0.027897517463680317
0.002672083443030715,0.03036390244960785,9.865493774414062,-0.003765498287975788,-0.004014890640974045,0.0003490447998046875,0.04709522154429573,-0.002860995488589091,0.032027190575119525
0.004316244274377823,0.02721710503101349,9.863849639892578,-0.0036293850280344486,-0.008449273183941841,0.000446319580078125,0.026149219154835146,0.026493583418965436,-0.052279882073077544
0.007645641919225454,0.02970387041568756,9.86304759979248,0.0009859050624072552,-0.0034606195986270905,-0.004014015197753906,0.044769008523377486,0.007873794050423098,0.04043575375300024
0.006803013384342194,0.03774198517203331,9.86136245727539,0.0007894583977758884,-0.0036249831318855286,-0.0037126541137695312,-0.046898920306723976,-0.012694733665688504,0.03060200890579422
0.007675249595195055,0.03928578644990921,9.857443809509277,0.0011619902215898037,0.005574159324169159,-0.008230209350585938,0.03327982992662268,-0.09159526468867751,-0.031711341016752714
-0.0005043212440796196,0.03701120242476463,9.861604690551758,-0.007997073233127594,0.0054957009851932526,0.0017147064208984375,-0.03758902562245281,0.055093773268777346,0.04043575375300024
0.006803013384342194,0.03865534067153931,9.869683265686035,0.0017399918287992477,0.004879936575889587,0.006488800048828125,0.05550379806238967,0.05817410854317376,-0.020599350278762606
0.010474532842636108,0.034494828432798386,9.866713523864746,-0.0027928659692406654,0.00003917887806892395,0.00605010986328125,0.048373187290602145,-0.03537370979405471,-0.013468749512134993
0.003096473403275013,0.03078829124569893,9.868322372436523,-0.0029823333024978638,-0.00452505424618721,0.0011243820190429688,-0.0055313059693731775,-0.05008097470694334,-0.020599350278762606
0.006803013384342194,0.035160988569259644,9.868882179260254,0.0017471746541559696,-0.004386588931083679,0.000782012939453125,0.02922955442923156,0.031899864910015646,0.0489223871937134
0.006384751759469509,0.034494828432798386,9.865317344665527,0.0014654393307864666,-0.0002660825848579407,0.00070953369140625,-0.00020279792141119892,-0.11427421413661729,-0.015270852235960544
-0.002083836356177926,0.038590721786022186,9.870596885681152,0.001138146035373211,-0.004801090806722641,0.0007534027099609375,0.10325655871643136,0.001566461197460112,-0.0250268002947052
0.005506407469511032,0.02970387041568756,9.866153717041016,0.0014744256623089314,-0.004806090146303177,0.00029277801513671875,-0.033529852202842166,-0.019379274387736022,-0.037117635848016146
0.00495279673486948,0.03155408427119255,9.863212585449219,-0.0029535614885389805,0.00017462298274040222,0.00052642822265625,-0.029102395516792962,0.04428118360625048,-0.0067064153366794095
0.011387890204787254,0.03428875282406807,9.870944023132324,0.006478423718363047,0.0003441907465457916,0.004994392395019531,-0.0029059520071495265,0.055548754580950106,0.04043575375300024
0.006938362494111061,0.02983921952545643,9.86149787902832,0.006243620067834854,0.0005338005721569061,0.00006103515625,-0.06311780480051428,-0.002860995488589091,-0.020599350278762606
0.0005032640183344483,0.034494828432798386,9.862871170043945,-0.0033365264534950256,0.0007395036518573761,-0.0044765472412109375,-0.0055313059693731775,-0.002860995488589091,-0.020599350278762606
0.006803013384342194,0.03928578644990921,9.864638328552246,0.001955691259354353,0.004841931164264679,0.005190849304199219,-0.04569847453945457,0.018006939973092367,-0.001300120505415977
0.0020120516419410706,0.034494828432798386,9.861356735229492,-0.003031003288924694,0.00037342682480812073,-0.0037937164306640625,-0.005452545350506468,-0.06389609952035194,0.04043575375300024
0.00515260873362422,0.03135427460074425,9.858222007751465,-0.00297037186101079,0.0005277656018733978,-0.0032634735107421875,-0.024515309839321157,0.05817410854317376,0.01941019866951285
0.008151453919708729,0.034494828432798386,9.866153717041016,0.006451884750276804,0.0004311688244342804,0.0017423629760742188,0.05550379806238967,-0.002860995488589091,-0.003420654118866928
0.005377532914280891,0.02970387041568756,9.86136245727539,-0.003019356168806553,-0.0042567178606987,-0.0029287338256835938,-0.041851503891577116,-0.08861100562991085,0.02227565145684497
0.01093774102628231,0.03471357002854347,9.861580848693848,0.00611167773604393,0.0008571110665798187,-0.002872467041015625,-0.0027446154684344208,-0.002860995488589091,-0.020599350278762606
0.006803013384342194,0.024912914261221886,9.867218017578125,0.0012058187276124954,-0.008345982059836388,-0.0029478073120117188,-0.0055313059693731775,-0.06389609952035194,-0.020599350278762606
0.003945870790630579,0.032561011612415314,9.86043930053711,-0.003710768185555935,0.0010764338076114655,-0.007544517517089844,-0.03016745146006538,-0.06389609952035194,-0.020599350278762606
0.008015931583940983,0.034494828432798386,9.858997344970703,0.0003975639119744301,0.0010871663689613342,-0.007494926452636719,-0.0055313059693731775,-0.06389609952035194,-0.020599350278762606
0.0024433548096567392,0.03492613136768341,9.866153717041016,-0.004105248022824526,0.0012415684759616852,0.0017881393432617188,0.05000915099895242,0.04718481441629926,-0.020599350278762606
0.0020120516419410706,0.031779393553733826,9.858646392822266,-0.004033603239804506,0.0011546388268470764,-0.0028018951416015625,0.002620898331007276,-0.02930244535428029,0.03228354278251318
0.00730143440887332,0.034494828432798386,9.861861228942871,0.005290546920150518,0.0008770599961280823,0.0020294189453125,-0.0055313059693731775,-0.009210750219600203,0.013093077435097722
0.013383262790739536,0.038285233080387115,9.866153717041016,0.010209722444415092,0.0056721121072769165,0.0020580291748046875,-0.018278013105777247,-0.05114939238394787,-0.020599350278762606
0.003871702356263995,0.034494828432798386,9.857501029968262,0.00551747577264905,0.000918947160243988,-0.0030612945556640625,0.043658142287898376,0.046328452768682464,0.028590107983668865
0.009306246414780617,0.03242262080311775,9.861146926879883,0.000848609022796154,-0.008670071139931679,0.0020999908447265625,-0.0055313059693731775,0.026283768545399107,-0.05248967693632404
0.004296447616070509,0.034494828432798386,9.859004020690918,-0.008718118071556091,0.000882171094417572,-0.0022859573364257812,0.025457982666488698,-0.0038044420481235476,0.010389928351939352
0.01159396767616272,0.025701282545924187,9.862151145935059,0.005052490625530481,-0.008558118715882301,-0.0020494461059570312,0.004512247081292564,-0.06389609952035194,-0.020599350278762606
0.0037235890049487352,0.03363905847072601,9.856571197509766,0.004888669587671757,-0.004253163933753967,-0.0064849853515625,0.016273059099687605,0.008041187045941301,-0.009697161074125603
0.016176071017980576,0.02970387041568756,9.856363296508789,0.004341050982475281,-0.004299107939004898,-0.010870933532714844,0.023655879942663147,-0.034708913608315614,-0.04978652952069232
0.006803013384342194,0.034494828432798386,9.863933563232422,-0.0006506158970296383,0.000649765133857727,-0.0011444091796875,-0.0055313059693731775,0.0016018394429266622,-0.01613650867714024
0.0025882376357913017,0.02970387041568756,9.865577697753906,-0.005490396171808243,-0.00391542911529541,0.003387451171875,0.04082300013253484,-0.06389609952035194,-0.02793974924369002
0.00629755575209856,0.031220242381095886,9.86564826965332,-0.005105912685394287,0.010224208235740662,-0.001377105712890625,0.05550379806238967,-0.10561316074307088,0.09503151018174845
-0.0016402228502556682,0.02970387041568756,9.860223770141602,-0.009451068006455898,-0.003768373280763626,-0.0014810562133789062,-0.0055313059693731775,-0.017367383470770586,-0.020599350278762606
0.004020192660391331,0.02970387041568756,9.856571197509766,0.000135837122797966,-0.0035654492676258087,-0.005763053894042969,-0.040983429536750805,0.032591128078788535,0.04043575375300024
0.006803013384342194,0.038557782769203186,9.85766315460205,0.00008826516568660736,0.006235338747501373,-0.005661964416503906,-0.06192916512194694,-0.11101946891454753,-0.015962102064520214
0.0023053251206874847,0.0252061877399683,9.8526611328125,-0.00043545663356781006,-0.0034077614545822144,0.0038881301879882812,-0.0055313059693731775,0.10426441182540493,-0.07789825412314254
0.00014536973321810365,0.03741910308599472,9.856571197509766,-0.004497078247368336,0.006411004811525345,-0.005108833312988281,-0.08003974521156632,-0.016334344039232604,-0.03407268548919289
0.003808008274063468,0.030902918428182602,9.862561225891113,0.0007306677289307117,-0.007316293194890022,-0.0050640106201171875,-0.06656641000113603,-0.018136446763058155,-0.020599350278762606
0.006651195697486401,0.03898215293884277,9.86136245727539,0.0010119862854480743,0.006814628839492798,-0.000492095947265625,-0.0055313059693731775,-0.00479508628203985,0.03656755215577889
0.011512878350913525,0.034494828432798386,9.865991592407227,0.0007803551852703094,0.0018588043749332428,-0.005227088928222656,-0.06656641000113603,-0.002860995488589091,0.04043575375300024
0.0035751014947891235,0.03293177857995033,9.86136245727539,-0.003872800152748823,0.0019218921661376953,-0.00025653839111328125,-0.0466537271876911,-0.002860995488589091,0.0006103864585837348
0.010010197758674622,0.03291105851531029,9.856532096862793,0.0007558763027191162,-0.002843741327524185,0.004422187805175781,0.034822065296870396,-0.002355961696404828,0.020259068119878456
0.006803013384342194,0.034494828432798386,9.861422538757324,0.0005501308478415012,0.001903630793094635,-0.000217437744140625,-0.004761922511968265,0.11613173210616985,-0.020599350278762606
0.0037166664842516184,0.034494828432798386,9.864448547363281,0.0003189612179994583,0.0016131103038787842,-0.000446319580078125,-0.0055313059693731775,-0.002860995488589091,0.018719580833554603
0.0032520790118724108,0.026688380166888237,9.86136245727539,0.00042788637802004814,-0.007299473509192467,-0.0010251998901367188,-0.06656641000113603,0.07397156236104634,-0.04321816871560113
0.004956691525876522,0.03634114935994148,9.859516143798828,0.00002093939110636711,0.0022329241037368774,-0.0009012222290039062,0.03198233410815826,-0.01685317161188912,-0.08163445431052546
0.01159396767616272,0.04017549380660057,9.857872009277344,0.004538116045296192,0.011653196066617966,-0.005341529846191406,-0.0944678394823439,-0.10836439295726374,0.04043575375300024
0.005573450122028589,0.032162994146347046,9.863694190979004,-0.004457519855350256,0.006447292864322662,-0.005278587341308594,-0.0055313059693731775,0.012803189599188901,0.009107376907337646
0.0024267113767564297,0.03408017009496689,9.86136245727539,-0.004388000350445509,0.0019622743129730225,-0.0008134841918945312,-0.010813923683849133,-0.058613481805875986,0.029870524994154945
-0.001393215381540358,0.031762752681970596,9.866826057434082,0.0006305919960141182,0.0016119033098220825,-0.00098419189453125,0.04692750838366019,-0.037666679003622035,0.07524144393813981
0.013192182406783104,0.03662455081939697,9.866153717041016,0.0012324033305048943,0.001271851360797882,0.003910064697265625,0.0894069894724818,0.06494536065116871,0.04043575375300024
0.001622000359930098,0.024912914261221886,9.868353843688965,-0.008596749044954777,-0.008374722674489021,0.0035190582275390625,-0.0055313059693731775,0.025171968494994413,-0.05360148365683534
0.007749381475150585,0.038339417427778244,9.862308502197266,0.0008498160168528557,0.006241336464881897,-0.0017614364624023438,-0.042453614415382826,-0.05183969505736873,-0.020599350278762606
0.007678653113543987,0.03057951107621193,9.864402770996094,0.005334145855158567,0.0016766823828220367,-0.006488800048828125,0.033193091860248804,0.04701875544210332,0.07916015825272883
0.0035490465816110373,0.030472368001937866,9.862131118774414,-0.004098571836948395,-0.0027801766991615295,-0.0016431808471679688,0.05550379806238967,0.05817410854317376,-0.010808964459583601
0.010754742659628391,0.03138232231140137,9.866153717041016,0.005110705271363258,-0.00302886962890625,0.0033626556396484375,0.005160127876665297,-0.013552429334627566,0.019052886060923292
0.009286374785006046,0.034494828432798386,9.86136245727539,0.00450892373919487,0.0014686845242977142,-0.0013990402221679688,-0.06656641000113603,-0.06165689137007202,-0.049997284879290844
0.006803013384342194,0.034494828432798386,9.86359977722168,0.00015830714255571365,0.0016251839697360992,0.0030231475830078125,0.02700691482377421,0.05413277098864184,-0.05313757107190999
0.006803013384342194,0.03187000751495361,9.865694999694824,0.00016183732077479362,0.001946140080690384,0.0076541900634765625,-0.03312713784607587,-0.06389609952035194,-0.020599350278762606
0.012194103561341763,0.03239941596984863,9.860762596130371,0.00006162375211715698,-0.003173418343067169,0.002864837646484375,-0.0055313059693731775,-0.03720131900556203,0.006095438573660571
-0.0018763573607429862,0.034494828432798386,9.86091136932373,-0.009294185787439346,0.00138174369931221,-0.0017194747924804688,0.0002177389602206018,0.05242506361357998,0.046184805352700635
0.0023925965651869774,0.034114282578229904,9.86136245727539,0.000592818483710289,-0.0030219033360481262,-0.0016622543334960938,-0.010379299537054182,-0.054200085704563486,-0.020599350278762606
0.006803013384342194,0.030013686046004295,9.86136245727539,0.0006437571719288826,0.0017059706151485443,-0.0014438629150390625,-0.0055313059693731775,-0.12098428802677301,-0.020599350278762606
0.010259647853672504,0.044076740741729736,9.85923957824707,0.004678728524595499,0.011358272284269333,-0.0056896209716796875,-0.04956762996192134,0.02417654846474439,-0.0036005702395479227
0.008208061568439007,0.03589987754821777,9.86136245727539,-0.0003078305162489414,0.001846451312303543,-0.0012731552124023438,0.019704135260134755,0.04027429048225952,-0.020599350278762606
0.012901383452117443,0.03928578644990921,9.860054969787598,0.009002070873975754,0.006155341863632202,-0.005925178527832031,-0.0055313059693731775,0.03598455815752128,0.001590188434203303
0.009922926314175129,0.03282378613948822,9.859691619873047,-0.00048368098214268684,-0.0038013607263565063,-0.0055446624755859375,0.05550379806238967,-0.10364270452837508,-0.0418878426323957
0.009993653744459152,0.03289451450109482,9.864553451538086,-0.00027715181931853294,-0.0038161277770996094,-0.0005321502685546875,-0.0055313059693731775,-0.023248443150416017,-0.00021190928704229014
0.006715366616845131,0.02500056102871895,9.86136245727539,-0.0002587316557765007,-0.008283643051981926,-0.0007266998291015625,-0.006089593892742384,-0.002860995488589091,-0.020599350278762606
-0.004193936940282583,0.034494828432798386,9.86136245727539,-0.0038516265340149403,0.0011659301817417145,-0.0007753372192382812,0.012495751045258992,0.05817410854317376,-0.020599350278762606
0.006803013384342194,0.03625351935625076,9.856571197509766,0.0007947091944515705,0.005767472088336945,-0.005324363708496094,0.05550379806238967,0.03576903367269564,-0.04300442514924072
0.0038414704613387585,0.034494828432798386,9.854742050170898,-0.0034274347126483917,0.0011861957609653473,-0.005005836486816406,0.03219767182999878,-0.002860995488589091,-0.006176502046834846
0.0020120516419410706,0.034494828432798386,9.860045433044434,-0.0030043059960007668,0.0008730888366699219,0.0004329681396484375,-0.0055313059693731775,0.04139086632899794,-0.003816104729533477
0.005752074997872114,0.034494828432798386,9.860116004943848,-0.0033953418023884296,0.0007000826299190521,0.0006313323974609375,0.03962160721012663,-0.04801390866808889,-0.004717156091446253
0.007978915236890316,0.034494828432798386,9.856571197509766,0.006158250384032726,0.0005949065089225769,-0.0038461685180664062,-0.036605238258132965,0.013232344258562555,-0.020599350278762606
0.003117101965472102,0.041866641491651535,9.860257148742676,0.0015737544745206833,0.001107141375541687,-0.0032014846801757812,-0.0196092329832686,-0.049818172506456516,0.04043575375300024
0.0030903962906450033,0.03024304285645485,9.852319717407227,-0.0032475097104907036,-0.003817874938249588,-0.007636070251464844,-0.012400181757731703,-0.05702722373199341,-0.020599350278762606
0.006803013384342194,0.03231143578886986,9.856147766113281,0.0011071176268160343,-0.003734555095434189,0.0021200180053710938,0.05550379806238967,-0.030676647398775122,0.007216313304109993
0.014130676165223122,0.02716716006398201,9.86136245727539,0.0048721604980528355,-0.00373217836022377,0.002330780029296875,0.05550379806238967,-0.035177795422666414,0.011717441317681453
0.006803013384342194,0.029844626784324646,9.84931468963623,0.00022527342662215233,0.001172080636024475,-0.011635780334472656,-0.0055313059693731775,-0.0010678040271962902,-0.050220313234054244
0.004408007953315973,0.029704822227358818,9.851780891418457,-0.004649851005524397,-0.007737914100289345,-0.006312370300292969,-0.0055313059693731775,-0.033372491047667416,-0.020599350278762606
0.019530711695551872,0.034494828432798386,9.851780891418457,0.014097834005951881,0.0018629245460033417,-0.0059661865234375,-0.056086952143205956,-0.002860995488589091,-0.010119892420832536
0.006660351529717445,0.034494828432798386,9.854104995727539,-0.004974476061761379,0.0016755536198616028,-0.005585670471191406,-0.036957566629557195,0.02856526517159493,-0.08163445431052546
0.009056420996785164,0.034494828432798386,9.854034423828125,-0.00026965420693159103,0.0013827644288539886,-0.005471229553222656,-0.03061912439935892,0.03308629011318802,0.00810828998597804
0.00898569356650114,0.032312147319316864,9.851780891418457,0.004716373514384031,-0.003610614687204361,-0.004891395568847656,-0.06656641000113603,0.024945585076605516,0.01262916318264572
0.014769290573894978,0.03395628556609154,9.857110023498535,0.009031308814883232,0.0013099387288093567,-0.00009822845458984375,0.04178208142196628,-0.1112094869116914,-0.020599350278762606
0.0024798677768558264,0.03928578644990921,9.851312637329102,-0.005281420890241861,0.006032396107912064,-0.0046062469482421875,0.00042851432913896403,0.04625449462657592,-0.07567464735222654
0.006405925378203392,0.03928578644990921,9.85617446899414,-0.004991957452148199,0.005505368113517761,-0.004237174987792969,-0.00047253703277381185,-0.002860995488589091,-0.020599350278762606
0.008050062693655491,0.034494828432798386,9.855324745178223,-0.00004085758700966835,0.00042542070150375366,0.0006160736083984375,0.01035566067922359,-0.002860995488589091,-0.03648632359746599
0.0046476079151034355,0.03102164901793003,9.851780891418457,-0.005041731987148523,-0.003985155373811722,-0.0034961700439453125,-0.06656641000113603,-0.06389609952035194,-0.020599350278762606
0.006106843706220388,0.03562770411372185,9.852912902832031,0.004006333649158478,0.005534317344427109,0.0016632080078125,0.0322024476263325,-0.06389609952035194,-0.011730423012673774
0.0037703667767345905,0.031462185084819794,9.851780891418457,-0.0004968945868313313,0.0008421465754508972,-0.0030412673950195312,0.01686899310477122,-0.04149580044620754,-0.05923416190648767
0.006803013384342194,0.034494828432798386,9.85346794128418,-0.00042914971709251404,0.0008912235498428345,0.0020160675048828125,0.03400455035015805,-0.04239685180812032,-0.020599350278762606
0.013325000181794167,0.031233832240104675,9.853310585021973,0.008903765119612217,-0.003692757338285446,-0.0026226043701171875,-0.06912799774415526,0.038682936446925886,-0.020599350278762606
0.008392587304115295,0.02970387041568756,9.856571197509766,0.004559970926493406,-0.0030555203557014465,0.0018854141235351562,-0.04631575288569447,0.05817410854317376,0.020043530294839598
0.010047839023172855,0.026459043845534325,9.851780891418457,0.004646384157240391,-0.007318062707781792,-0.0027189254760742188,-0.025228450957779248,-0.02255814047699516,-0.020599350278762606
0.0005366508848965168,0.02970387041568756,9.848830223083496,-0.00963651854544878,-0.0024300217628479004,-0.011622428894042969,-0.10880542040640559,0.039378014916680464,-0.020599350278762606
0.006803013384342194,0.03589950129389763,9.853185653686523,0.0003253817558288574,0.006952229887247086,0.00301361083984375,0.03760875579780915,0.04027906627859324,-0.020599350278762606
