Accelerometer_Gx,Accelerometer_Gy,Accelerometer_Gz,Accelerometer_X,Accelerometer_Y,Accelerometer_Z,Gyroscope_Z,Gyroscope_X,Gyroscope_Y
0.0098961740732193,0.02630828320980072,9.888562202453613,-0.00836909655481577,-0.012190807610750198,0.007404327392578125,0.016098008821779582,0.06200776565825498,-0.04541391111614825
0.011665484867990017,0.03132469579577446,9.886938095092773,-0.007669699378311634,-0.0027192533016204834,0.001796722412109375,0.016098008821779582,0.10242890520766977,-0.004992774901786763
0.014861270785331726,0.032971177250146866,9.888364791870117,0.0016022929921746254,0.0021385736763477325,0.00047969818115234375,-0.025526297898402047,0.0034832630745742763,-0.08452760638308782
0.013043376617133617,0.026362324133515358,9.88342571258545,0.0020952271297574043,-0.0024062059819698334,0.004792213439941406,0.058668149999662536,-0.00026528348014623744,-0.0651168090715066
0.014615613967180252,0.028451532125473022,9.888855934143066,-0.0027635302394628525,0.0027601122856140137,0.00940704345703125,-0.006442362491202965,-0.04127064432743513,-0.04257643442347075
0.01748877950012684,0.026756465435028076,9.887161254882812,0.007295155897736549,-0.006261222064495087,-0.00015163421630859375,0.03958420125225023,0.04230485769773671,-0.04163060663587605
0.016384921967983246,0.03100479580461979,9.894899368286133,0.002960076555609703,-0.0015010945498943329,0.008762359619140625,0.043986471615735004,0.08676664111059584,-0.004081705039743753
0.0071485694497823715,0.03004942648112774,9.890108108520508,-0.006513625383377075,-0.0015879422426223755,0.0039043426513671875,0.020500279185264366,0.04230485769773671,-0.12174964273978467
0.014392885379493237,0.02410603128373623,9.8853178024292,-0.001417648047208786,-0.0010559260845184326,-0.0009164810180664062,-0.04493709520998326,0.10333996172949957,-0.004081705039743753
0.01159396767616272,0.025571482256054878,9.890108108520508,-0.001163547858595848,-0.0007060151547193527,0.0035867691040039062,0.042420597387656696,0.07701737316362245,-0.004081705039743753
0.015306556597352028,0.024912914261221886,9.889029502868652,-0.0009921705350279808,-0.005128085613250732,-0.0012311935424804688,-0.04493709520998326,0.13689905567972585,-0.004081705039743753
0.015816891565918922,0.03335876762866974,9.881094932556152,0.004279803484678268,0.004730088636279106,-0.006008148193359375,-0.030464057760858473,0.1643750657612624,-0.0651168090715066
0.014170494861900806,0.027489442378282547,9.8853178024292,-0.0001261075958609581,-0.004758115857839584,-0.0009613037109375,0.016098008821779582,0.04230485769773671,-0.008694737431933674
0.004300599452108145,0.02991773746907711,9.8853178024292,-0.009167824871838093,0.004712952300906181,-0.001495361328125,0.016098008821779582,0.03958027922956276,-0.0332369678215382
0.016384921967983246,0.033638812601566315,9.893187522888184,0.005442967638373375,0.00010197609663009644,-0.0012445449829101562,0.07713311285354243,0.01398571946010025,-0.05421149158686888
0.007593395654112101,0.025703296065330505,9.88210678100586,-0.004054490476846695,-0.005012398585677147,-0.006014823913574219,0.016098008821779582,-0.01873024633402614,-0.0651168090715066
0.01159396767616272,0.034494828432798386,9.882963180541992,0.0006325328722596169,0.0040075816214084625,-0.0010843276977539062,0.015045679441921605,-0.04872163365997857,-0.06616913845136459
0.016384921967983246,0.029934708029031754,9.880526542663574,0.005764853209257126,-0.005619432777166367,-0.0058727264404296875,0.045145175855830645,0.13238712876355063,-0.06805758570527394
0.01159396767616272,0.030337532982230186,9.890108108520508,0.001072736456990242,0.0037883874028921127,0.003917694091796875,-0.0287918086725425,0.04230485769773671,-0.012154348308464135
0.01159396767616272,0.028691137209534645,9.889095306396484,0.0011042160913348198,-0.0008027330040931702,0.0036258697509765625,0.016098008821779582,0.04230485769773671,-0.0651168090715066
0.015857620164752007,0.02970387041568756,9.89063549041748,0.0007719965651631355,-0.00047613121569156647,0.008400917053222656,0.016098008821779582,0.008428453435795735,0.029794692552090614
0.015899494290351868,0.025398341938853264,9.894413948059082,0.005550366826355457,-0.005524905398488045,0.008227348327636719,0.022282184826270778,0.09715578572500837,-0.05274843371715108
0.007625635713338852,0.03928578644990921,9.881349563598633,0.005279826931655407,0.00872655026614666,0.0031957626342773438,0.010858053109189763,0.04230485769773671,-0.014561629805136618
0.009273183532059193,0.030938956886529922,9.888873100280762,-0.0044035036116838455,-0.001036275178194046,0.0033550262451171875,-0.015371100603275688,0.08760539367675871,-0.049382254358978965
0.011931161396205425,0.034494828432798386,9.8853178024292,0.00037673767656087875,0.003796318545937538,-0.0013570785522460938,-0.049232830630671715,0.04230485769773671,-0.06082107365081815
0.0011487058363854885,0.02839466743171215,9.888798713684082,-0.013777569867670536,-0.0005363617092370987,0.003284454345703125,-0.011579518520698804,-0.01873024633402614,-0.07611556140955598
0.009758612141013145,0.027868513017892838,9.883481979370117,0.0007084924727678299,-0.0007813815027475357,-0.0012159347534179688,0.07713311285354243,0.004651545587763801,-0.0651168090715066
0.009832728654146194,0.03273358941078186,9.88658618927002,-0.003974005579948425,-0.00082387775182724,-0.005618095397949219,0.07713311285354243,0.04230485769773671,-0.0651168090715066
0.007147541269659996,0.02970387041568756,9.880756378173828,0.01014733873307705,-0.000854121521115303,0.0037708282470703125,0.07274394257944232,0.10333996172949957,-0.0636537545368421
0.016384921967983246,0.02970387041568756,9.8853178024292,0.005427824333310127,-0.0008646789938211441,-0.00040340423583984375,0.03560945804212593,0.022793408477390364,-0.0651168090715066
0.01320698857307434,0.02809084765613079,9.8853178024292,0.0005501462146639824,-0.0007146820425987244,-0.0002346038818359375,0.016098008821779582,0.1643750657612624,-0.024631039524081223
0.006803013384342194,0.024912914261221886,9.888395309448242,-0.00396015215665102,-0.0053737349808216095,0.00936126708984375,-0.00572367184404424,0.022698159354980423,-0.004081705039743753
0.01495317742228508,0.023233309388160706,9.883638381958008,0.010211098939180374,-0.009479325264692307,-0.004860877990722656,-0.023539526602934922,-0.01873024633402614,-0.08651437767855495
0.01159396767616272,0.026666510850191116,9.883563995361328,0.0005479166284203529,-0.004550021141767502,0.0005750656127929688,0.03843819689514258,0.04230485769773671,-0.0651168090715066
0.010202920995652676,0.0229040514677763,9.880526542663574,0.0006665168330073357,-0.009195955470204353,-0.0038919448852539062,-0.0272156491400695,0.02458339828760972,-0.04739535633148623
0.012911022640764713,0.02970387041568756,9.882683753967285,0.005501424893736839,0.00007454678416252136,-0.0035772323608398438,0.07062911857725068,-0.015478249195880263,-0.0651168090715066
0.006803013384342194,0.03069167025387287,9.882428169250488,-0.0037446366623044014,-0.004625273868441582,0.0014581680297851562,0.004456751794286211,0.04230485769773671,0.056953398992019094
0.008778583258390427,0.02688848413527012,9.883341789245605,-0.0034917062148451805,-0.005119172856211662,0.0015621185302734375,-0.009070064330953807,0.0888708196226358,-0.0651168090715066
0.01159396767616272,0.028534797951579094,9.87935733795166,0.0011198613792657852,-0.0004952028393745422,-0.0028810501098632812,0.04734596419202925,0.057198432028493305,-0.0651168090715066
0.011116727255284786,0.02059919945895672,9.880526542663574,0.0010404502972960472,-0.009729381650686264,-0.0026445388793945312,0.07105323063602616,0.03622497548022044,-0.010161587257260025
0.0190522912889719,0.027580279856920242,9.879982948303223,0.005501159466803074,-0.004551619291305542,0.0025501251220703125,0.00917048945609415,0.04923237706342214,-0.038063016738467896
0.011198426596820354,0.027506163343787193,9.880130767822266,-0.00354852806776762,-0.0004059206694364548,-0.006404876708984375,-0.006860951701704253,0.13637705313632234,-0.03207972766984375
0.016384921967983246,0.025859765708446503,9.8853178024292,0.006078961305320263,-0.000033799558877944946,0.0029191970825195312,0.016098008821779582,0.00539488894895804,-0.0899642235190064
0.012293512001633644,0.026312004774808884,9.879826545715332,0.0009037284180521965,-0.004086723551154137,-0.0020475387573242188,0.016098008821779582,-0.06194146479853825,-0.0740287651953452
0.01403898186981678,0.02970387041568756,9.887762069702148,0.000527573749423027,0.0003277827054262161,0.002567291259765625,0.0447223177770981,-0.04987887047661972,-0.0651168090715066
0.014014025218784809,0.022542016580700874,9.885366439819336,0.0010921787470579147,-0.009157322347164154,-0.0026235580444335938,0.076506816523164,0.04167856136735828,-0.09594750925257725
0.01159396767616272,0.02970387041568756,9.881251335144043,0.0006552403792738914,0.0006685405969619751,0.001995086669921875,-0.04493709520998326,0.02384507084658721,-0.004081705039743753
0.015463026240468025,0.02970387041568756,9.876657485961914,0.005191098898649216,0.0004911161959171295,-0.007282257080078125,0.016098008821779582,0.03056021401776756,-0.07686143941126253
0.009371304884552956,0.03227216377854347,9.880181312561035,0.0006603728979825974,0.005247171968221664,-0.007138252258300781,-0.012217954445109879,0.009585716932863324,-0.09783596317659321
0.014236376620829105,0.02177663892507553,9.887466430664062,0.0005130190402269363,0.0004663858562707901,-0.0022830963134765625,0.016098008821779582,-0.06508249804309786,-0.004081705039743753
0.02446039579808712,0.02541506290435791,9.884815216064453,0.0005106441676616669,0.00036003999412059784,-0.0025396347045898438,0.02249520135101055,-0.06057377277809609,-0.004081705039743753
0.017529170960187912,0.02970387041568756,9.892610549926758,0.004705888219177723,0.00024125725030899048,0.011585235595703125,0.016098008821779582,0.04230485769773671,-0.03323633082635682
0.012384300120174885,0.03170418366789818,9.880526542663574,0.004286414012312889,0.0006574727594852448,-0.002613067626953125,-0.04493709520998326,-0.01873024633402614,-0.0651168090715066
0.011947955936193466,0.020829934626817703,9.881234169006348,-0.0006104651838541031,-0.00866481103003025,-0.0027856826782226562,0.016098008821779582,0.0377951719373829,-0.06962649483186041
0.003132039215415716,0.02970387041568756,9.885037422180176,0.008765997365117073,0.0009867623448371887,-0.0027399063110351562,-0.04137002891594411,0.04230485769773671,-0.0076487646636763
0.010227651335299015,0.028337553143501282,9.8853178024292,-0.000540001317858696,0.0011006779968738556,0.0017061233520507812,0.03350439907601329,-0.01873024633402614,-0.004081705039743753
0.01460659597069025,0.02970387041568756,9.882305145263672,0.0046771736815571785,0.001036928966641426,-0.0031337738037109375,-0.006557248407476695,0.10333996172949957,-0.004081705039743753
0.011461954563856125,0.029571857303380966,9.876131057739258,0.0003279661759734154,0.0012287013232707977,-0.007922172546386719,-0.04157349384801644,0.04230485769773671,-0.005763505720727166
0.002128095366060734,0.020179979503154755,9.8853178024292,0.00045335572212934494,-0.003460979089140892,0.001476287841796875,0.07639393163887367,0.04378322012707424,-0.004820886254412515
0.01159396767616272,0.02811557985842228,9.875709533691406,0.0005641337484121323,0.0015928782522678375,-0.012526512145996094,-0.004468544542775061,-0.03896452166763024,-0.0651168090715066
0.008359364233911037,0.028147518634796143,9.880526542663574,0.00036111287772655487,-0.0032405592501163483,-0.0032176971435546875,-0.003729363328106298,-0.01873024633402614,-0.08649716213339108
0.01620499975979328,0.02509283646941185,9.889838218688965,0.0056085726246237755,-0.003171568736433983,0.0064373016357421875,-0.04379102415180951,0.09990173521476506,-0.005227782768024125
0.014648647978901863,0.026231320574879646,9.877471923828125,0.0007147854194045067,-0.008199736475944519,-0.0024318695068359375,0.07713311285354243,0.025508808878867112,-0.08723633667795323
0.016384921967983246,0.02672317996621132,9.888298034667969,0.005758266896009445,-0.003394443541765213,0.006764411926269531,0.039160169234754086,0.057215640903550566,-0.04205465199358541
0.014262722805142403,0.026247290894389153,9.883194923400879,0.009987308643758297,0.001138642430305481,0.006342887878417969,-0.027937594799254558,-0.06276588997569994,0.012917788700878344
0.016384921967983246,0.02970387041568756,9.880526542663574,0.004718552343547344,0.000957714393734932,-0.0027637481689453125,0.07713311285354243,-0.01873024633402614,-0.11820400082818114
0.012468424625694752,0.027745621278882027,9.877694129943848,-0.005022683180868626,-0.0037693288177251816,-0.0024662017822265625,0.002290888136304589,0.017357458352132912,-0.12615191310326945
0.006803013384342194,0.028977395966649055,9.881253242492676,-0.004916997626423836,-0.00392768532037735,0.0027103424072265625,0.05124306736119754,0.007159799158318757,-0.039226770249268315
0.012706369161605835,0.02970387041568756,9.87573528289795,0.0050483932718634605,0.0003301165997982025,-0.0064449310302734375,0.016098008821779582,0.07064808836045333,-0.018253320371102066
0.016384921967983246,0.02970387041568756,9.867755889892578,0.004706970416009426,0.0004759654402732849,-0.015203475952148438,0.022899836698480915,-0.07296352248908766,-0.004081705039743753
0.009413744322955608,0.02534342184662819,9.87834644317627,-0.0049721840769052505,-0.008982868865132332,-0.0052738189697265625,-0.04493709520998326,0.014529573272762514,0.0014028168018574822
0.016384921967983246,0.02547796443104744,9.871227264404297,0.00499627273529768,0.005094807595014572,-0.0049591064453125,0.016098008821779582,0.13205789230121484,-0.036398891840004534
0.015494494698941708,0.02970387041568756,9.880526542663574,0.0004925839602947235,0.000577954575419426,0.0003528594970703125,-0.03359336495799535,0.04230485769773671,-0.0651168090715066
0.009265760891139507,0.02970387041568756,9.882989883422852,0.00037428736686706543,0.0005921628326177597,0.0049915313720703125,-0.013562541216250359,0.010930303704003804,-0.03545626570358327
0.010777532123029232,0.0288874339312315,9.872576713562012,0.0003789057955145836,0.0007743891328573227,-0.008886337280273438,0.016098008821779582,-0.008329148888566095,-0.0651168090715066
0.010851523838937283,0.03375238552689552,9.877220153808594,-0.004848741926252842,0.00048642978072166443,0.0056514739990234375,0.016098008821779582,0.09388148375035417,-0.022998660998034538
0.01374731119722128,0.027227679267525673,9.873420715332031,-0.004768112674355507,-0.0043106842786073685,-0.0034847259521484375,-0.017504294079074962,0.010759068727077468,-0.09460611079239699
0.00904378667473793,0.02012195810675621,9.87828540802002,-0.00044784974306821823,-0.008736617863178253,-0.0032472610473632812,0.016098008821779582,0.0137581887833742,-0.004081705039743753
0.01159396767616272,0.024912914261221886,9.87632942199707,-0.00013989023864269257,-0.0035093333572149277,-0.0031518936157226562,0.061986661440936695,-0.05704571326752005,-0.0651168090715066
0.012114436365664005,0.024912914261221886,9.880526542663574,0.005116635002195835,-0.0039344169199466705,0.0014677047729492188,0.02272860172155458,0.04230485769773671,-0.11952132020349446
0.01159396767616272,0.02551828883588314,9.873037338256836,0.0004041651263833046,0.0009881239384412766,-0.007837295532226562,0.058183953620532095,0.007931183647707072,-0.004081705039743753
0.013612765818834305,0.02970387041568756,9.877754211425781,0.0051751816645264626,0.0011578872799873352,0.0016775131225585938,0.07713311285354243,0.10333996172949957,-0.09083560624671194
0.007175499573349953,0.025657886639237404,9.880526542663574,-0.004471812397241592,-0.003803076222538948,0.0017480850219726562,0.12393218166429465,-0.023475600301171833,-0.004081705039743753
0.007101507857441902,0.029106881469488144,9.876033782958984,0.00023103691637516022,-0.008841468021273613,0.0019369125366210938,0.07713311285354243,0.09953725390909496,-0.0651168090715066
0.012941786088049412,0.024912914261221886,9.877082824707031,0.0005358122289180756,-0.004220174625515938,-0.0025472640991210938,-0.027766359822328224,0.025134108969868445,-0.0651168090715066
0.008599837310612202,0.02790704555809498,9.874537467956543,-0.004123329184949398,0.0005533657968044281,-0.0071849822998046875,0.06949546725758723,0.04230485769773671,-0.04222589364061836
0.013316799886524677,0.02798103727400303,9.878803253173828,0.005558854900300503,-0.004334148019552231,-0.0022563934326171875,-0.022988815920676198,0.0032180329552809295,-0.026029990999157433
0.01630840264260769,0.02970387041568756,9.86630630493164,0.0007173093035817146,0.0003382023423910141,-0.0021991729736328125,0.016098008821779582,-0.017755423592991936,-0.0060313772022386036
0.013245336711406708,0.02970387041568756,9.877305030822754,0.005282551050186157,0.00009968876838684082,-0.00159454345703125,0.016098008821779582,0.021266994600024743,-0.0651168090715066
0.00837786216288805,0.026487763971090317,9.88216781616211,-0.004129938781261444,-0.004789728671312332,0.007769584655761719,-0.04578310485213926,-0.05885630036695523,-0.0659628187136626
0.0163134578615427,0.02498437836766243,9.875663757324219,0.005283326841890812,-0.0047779381275177,-0.0019235610961914062,0.07531228047035224,0.04230485769773671,-0.12433108072007926
0.01159396767616272,0.02798609435558319,9.877090454101562,0.00041119009256362915,-0.004551129415631294,-0.0065097808837890625,-0.04493709520998326,-0.05788150430634747,-0.025965577779611716
0.014593154191970825,0.024912914261221886,9.87573528289795,0.005414649844169617,-0.004552947357296944,-0.0014123916625976562,0.05430662064735982,-0.01873024633402614,-0.042290310195217375
0.015032047405838966,0.03240962326526642,9.87708854675293,0.0008816132321953773,0.0095816720277071,0.0033597946166992188,0.016098008821779582,-0.0014950910567187677,-0.004081705039743753
0.01159396767616272,0.02911699377000332,9.87514877319336,0.00116785429418087,-0.00020289048552513123,-0.0010194778442382812,0.01983631009274508,0.034828255155805725,-0.004081705039743753
0.017296379432082176,0.026852665469050407,9.87767505645752,0.0005477452650666237,-0.00007700175046920776,0.004119873046875,0.040809766641017944,0.005981511485212221,-0.028793459523928807
0.01159396767616272,0.024912914261221886,9.880526542663574,0.0006680795922875404,-0.004549240693449974,0.004302978515625,-0.009556368463773427,0.04230485769773671,0.01184633612536565
0.015254022553563118,0.03223302960395813,9.880526542663574,0.0053302086889743805,0.005268542096018791,0.003971099853515625,0.030505279019716558,0.027897587499799738,-0.05070953887356963
0.015869509428739548,0.028673043474555016,9.880526542663574,0.005041730590164661,0.0006145723164081573,0.0035228729248046875,-0.038370908859647376,0.04230485769773671,-0.05855062272117071
0.013755693100392818,0.027542144060134888,9.87573528289795,0.00517784059047699,-0.0037722252309322357,-0.0013818740844726562,-0.017397465651587733,0.014765214799127955,-0.07107264731637178
0.016384921967983246,0.03225911036133766,9.88084602355957,0.005082274787127972,0.0056227706372737885,0.007709503173828125,0.04458027118670299,0.04230485769773671,0.02847113662709569
0.01729384809732437,0.024912914261221886,9.88143539428711,0.009436625987291336,-0.003964010626077652,0.007335662841796875,0.09185064973061252,0.09176057661093298,-0.0766962008601798
0.016384921967983246,0.03044125810265541,9.880526542663574,0.004797671921551228,0.0001589544117450714,0.0022754669189453125,0.016098008821779582,0.03291078626803042,-0.013475769799343429
0.004419309552758932,0.027320168912410736,9.882957458496094,-0.009150778874754906,-0.004634147509932518,-0.0028848648071289062,-0.04463702045375228,0.042004782941505725,-0.0651168090715066
0.01159396767616272,0.029579441994428635,9.882984161376953,0.0002083824947476387,0.0051159001886844635,0.0017023086547851562,0.01768319967860434,0.012579901110267664,-0.0056668892264618975
0.016384921967983246,0.02970387041568756,9.87573528289795,0.004926585592329502,0.00035136938095092773,-0.00308990478515625,0.05962955248619472,-0.009978479490565503,-0.05636502888783274
0.01159396767616272,0.027444535866379738,9.877994537353516,-0.00006257276982069016,-0.004478104412555695,0.0017375946044921875,0.016098008821779582,0.013521720163788954,-0.004081705039743753
0.010980862192809582,0.03326861560344696,9.880526542663574,0.00024620164185762405,0.0048907846212387085,0.0019273757934570312,0.031719505227244996,0.034494109495004005,-0.0651168090715066
0.01105472818017006,0.0291646309196949,9.879987716674805,-0.004347795620560646,-0.0048323702067136765,-0.0028104782104492188,0.016098008821779582,0.08960050260549,-0.0651168090715066
0.012161717750132084,0.027592267841100693,9.875167846679688,0.0053961146622896194,-0.00008667074143886566,-0.007495880126953125,0.04299908239384504,0.008170827238039316,-0.0651168090715066
0.014347185380756855,0.028988389298319817,9.87777328491211,0.00044323503971099854,0.004351217299699783,0.0022420883178710938,0.016098008821779582,-0.04469032794579011,-0.03915675414016908
0.0035780833568423986,0.02970387041568756,9.87573528289795,-0.009173410013318062,-0.0004465170204639435,-0.0022783279418945312,0.07214544725341995,0.10333996172949957,-0.004081705039743753
0.020858241245150566,0.029386227950453758,9.880208969116211,0.004789534956216812,-0.004537409171462059,-0.0025320053100585938,0.07308646589414788,-0.1286605668802211,-0.0651168090715066
0.014494918286800385,0.02781386487185955,9.880526542663574,0.004226355813443661,0.00018724054098129272,0.0020771026611328125,0.016098008821779582,0.031105962140707447,-0.028159706014358892
0.013410105369985104,0.03152000904083252,9.872759819030762,0.00458178948611021,0.00507071428000927,-0.0026769638061523438,0.016098008821779582,0.019167885369009416,-0.02721867736847105
0.006803013384342194,0.024912914261221886,9.889598846435547,-0.004992630332708359,-0.0042562298476696014,0.011956214904785156,0.016098008821779582,-0.01873024633402614,-0.006246294707362608
0.01628887839615345,0.029799913987517357,9.880430221557617,-0.0002643885090947151,0.004853805527091026,-0.00240325927734375,-0.04248997983662786,-0.017506681977241822,-0.0651168090715066
0.016384921967983246,0.026463108137249947,9.87573528289795,0.004645663313567638,-0.004361890256404877,-0.002269744873046875,0.057384181157405914,0.10333996172949957,-0.0651168090715066
0.006803013384342194,0.024912914261221886,9.885324478149414,-0.004544992931187153,-0.0038852468132972717,-0.002086639404296875,0.056820397066188966,-0.03913991879108205,-0.0651168090715066
0.011645832099020481,0.029755733907222748,9.880526542663574,0.00009260699152946472,0.0010583866387605667,0.0022983551025390625,-0.043615627028357695,-0.018069505573106742,-0.004742439130556539
0.008501189760863781,0.02970387041568756,9.879132270812988,0.0004905685782432556,0.0007518120110034943,0.0070934295654296875,0.016098008821779582,0.024538121603931942,-0.025715889008722792
0.013366135768592358,0.02793170139193535,9.882298469543457,0.00019828509539365768,0.0007716678082942963,0.0021829605102539062,0.0002165383410305605,-0.01873024633402614,-0.0876936191769069
0.006803013384342194,0.026285387575626373,9.880526542663574,-0.004490690305829048,0.000993039458990097,0.0018796920776367188,-0.018871665934399783,0.08585513102151648,-0.0651168090715066
0.011867806315422058,0.029156193137168884,9.87546157836914,0.00013675261288881302,0.0009445901960134506,-0.0029783248901367188,-0.10248358674166955,0.03881623185744692,-0.0651168090715066
0.010643316432833672,0.0268330667167902,9.873814582824707,0.00443289615213871,0.0011117588728666306,-0.0070705413818359375,0.016098008821779582,0.05465594747080895,-0.028543770753039883
0.008797156624495983,0.028512395918369293,9.871747016906738,-0.0052067674696445465,0.005569301545619965,-0.0017881393432617188,0.061533521078188665,-0.01873024633402614,-0.09495274289277514
0.016384921967983246,0.02970387041568756,9.874585151672363,0.0047189705073833466,0.0013152454048395157,-0.006180763244628906,0.001441063193166909,0.025240617232238333,-0.05045985343773401
0.015393294394016266,0.03779834508895874,9.881022453308105,0.004954125732183456,0.010131897404789925,0.0035419464111328125,0.00978152458254584,0.15805858152202867,-0.01039820261919072
0.013736093416810036,0.029197169467806816,9.875228881835938,0.0055626267567276955,0.005294710397720337,0.0033006668090820312,0.016098008821779582,0.1370851249737558,-0.037826861613893384
0.015382361598312855,0.03170899301767349,9.876737594604492,0.005303879268467426,0.00005255267024040222,-0.0016241073608398438,0.0643608458686037,-0.031502513318964864,-0.07788908272655194
0.014527533203363419,0.0258416086435318,9.872801780700684,-0.003806550055742264,0.00016218237578868866,0.0035848617553710938,-0.02127459852156167,-0.01873024633402614,-0.09065817474074367
0.012311502359807491,0.030421406030654907,9.868306159973145,0.0008068112656474113,0.00009462982416152954,-0.010011672973632812,0.016098008821779582,0.04230485769773671,-0.1170107721162652
0.013894306495785713,0.024912914261221886,9.873371124267578,0.010511613450944424,-0.005090314894914627,-0.005415916442871094,0.07794115624886667,0.07322643141128025,-0.0651168090715066
0.011509663425385952,0.02970387041568756,9.87573528289795,0.00128928292542696,-0.005207302048802376,-0.005484580993652344,0.02604719320410808,0.09339077734717106,-0.0651168090715066
0.01567782647907734,0.024912914261221886,9.879112243652344,0.001431756652891636,-0.00529930554330349,-0.005406379699707031,0.02510617456338015,0.04230485769773671,-0.0651168090715066
0.012533100321888924,0.028764737769961357,9.87573528289795,0.0014587091282010078,-0.00036935508251190186,-0.00042057037353515625,0.016098008821779582,0.030340634108122228,-0.0651168090715066
0.011214199475944042,0.027118507772684097,9.873529434204102,-0.003434079699218273,-0.0048486702144145966,-0.00012111663818359375,0.04903462174260912,0.009368244776907177,0.0007564101000458555
0.012153332121670246,0.02659100852906704,9.87573528289795,0.0013266131281852722,-0.0050509050488471985,0.0000152587890625,0.023224110601497847,0.08908773148963658,-0.004081705039743753
0.015899423509836197,0.03352383151650429,9.87670612335205,0.0015011858195066452,-0.0046231430023908615,0.009830474853515625,0.0709480297145521,0.08478471231252856,-0.004081705039743753
0.01159396767616272,0.024912914261221886,9.874574661254883,0.0012897206470370293,-0.004697959870100021,0.00022125244140625,0.016098008821779582,-0.003942940141801424,-0.0651168090715066
0.019191885367035866,0.027719873934984207,9.873750686645508,0.01046366523951292,0.0003627203404903412,0.0005741119384765625,-0.019661686701660182,0.08854884023629316,-0.0651168090715066
0.013504096306860447,0.03161400184035301,9.87573528289795,0.005302067846059799,0.004939114674925804,0.0007610321044921875,-0.020602718682601332,0.029938506720737727,-0.0651168090715066
0.00706691388040781,0.020649759098887444,9.870944023132324,0.00027933530509471893,0.00005210191011428833,-0.003958702087402344,0.01946000935815969,-0.01873024633402614,-0.0007197045033636482
0.012976296246051788,0.02970387041568756,9.869562149047852,0.00010018609464168549,0.00011568516492843628,-0.0035400390625,0.07713311285354243,0.024694468902901764,-0.07332074671876461
0.014622525312006474,0.029207635670900345,9.874468803405762,0.004622221924364567,0.0048470813781023026,-0.0032978057861328125,0.05468078694782958,-0.07344350336083973,0.03450107308630625
0.016384921967983246,0.02970387041568756,9.870944023132324,0.004487008787691593,0.00020048022270202637,-0.0030307769775390625,-0.043457158635485466,0.10038008858050396,-0.0651168090715066
0.011636270210146904,0.02495521679520607,9.866153717041016,0.004428236745297909,0.00008105859160423279,-0.0074977874755859375,0.01555909088800971,-0.01873024633402614,-0.06457789113773672
0.014780995436012745,0.024912914261221886,9.874131202697754,0.0042871832847595215,-0.0042023807764053345,0.00197601318359375,-0.04493709520998326,0.001703225063419039,-0.04468333767406143
0.009884611703455448,0.026622271165251732,9.874025344848633,0.004533629864454269,-0.008402833715081215,0.0067291259765625,0.05750386955043981,0.020528240272179105,-0.04548756243335068
0.0070138731971383095,0.024912914261221886,9.870838165283203,-0.0044225649908185005,-0.0038070008158683777,-0.0025491714477539062,0.07713311285354243,0.040961711669624284,-0.004081705039743753
0.01463326346129179,0.026664573699235916,9.872232437133789,0.00035714171826839447,0.000741107389330864,-0.007065773010253906,0.016098008821779582,0.06462039305706418,-0.004081705039743753
0.016384921967983246,0.02673843875527382,9.871630668640137,0.004930657334625721,-0.004023384302854538,-0.006554603576660156,0.05387655885348702,0.06556141169779212,-0.0651168090715066
0.018537480384111404,0.02970387041568756,9.877054214477539,0.009605848230421543,0.0008099991828203201,0.0025787353515625,-0.028130934509490876,-0.04615305564523065,-0.02088786574023614
0.007130041252821684,0.021103043109178543,9.875408172607422,-0.003942345269024372,-0.008620761334896088,0.0024919509887695312,0.011931780191056923,0.0991737330987769,-0.060950587110890554
0.009620711207389832,0.02970387041568756,9.872917175292969,-0.0036221127957105637,0.0007266215980052948,0.0026035308837890625,0.016098008821779582,0.06744347565967443,-0.0651168090715066
0.009546845220029354,0.024912914261221886,9.868200302124023,0.0009981738403439522,-0.0042342618107795715,-0.006733894348144531,0.016098008821779582,0.09446413090306799,-0.09119644567417225
0.01309211179614067,0.02601051703095436,9.86984634399414,-0.007930085994303226,0.0007897131145000458,-0.006701469421386719,0.0021149307238974248,0.00923590986173818,-0.01806478313762591
0.01159396767616272,0.0339462012052536,9.878880500793457,0.001008991152048111,0.005133641883730888,0.007483482360839844,0.016098008821779582,-0.011740935100693246,-0.011071009602970033
0.01419006660580635,0.02710776962339878,9.873539924621582,0.001368737779557705,0.0003262031823396683,-0.0017557144165039062,0.005874576336019209,0.07026655826228466,-0.09819021920882812
0.011847480200231075,0.027435148134827614,9.871197700500488,0.006110432557761669,0.00028534047305583954,0.002956390380859375,0.016098008821779582,0.010172472871249732,-0.03621408653117743
0.01463291235268116,0.02970387041568756,9.879650115966797,-0.002881745807826519,0.0003368966281414032,0.0028390884399414062,-0.02261710421943941,0.003589744656517717,-0.0651168090715066
0.016384921967983246,0.02970387041568756,9.874964714050293,0.0059240516275167465,0.000348089262843132,0.00215911865234375,0.06732071901759931,-0.008917852498083016,-0.013894098875686876
0.01159396767616272,0.02970387041568756,9.880484580993652,0.0009660143405199051,0.00042703188955783844,0.002044677734375,0.016632444443906637,0.012054536833132035,0.026168622494967535
0.006803013384342194,0.034494828432798386,9.87573528289795,-0.003329572267830372,0.004515523090958595,0.0018787384033203125,0.07713311285354243,0.10333996172949957,-0.04656092932946082
0.01224837452173233,0.02970387041568756,9.876389503479004,0.006735863164067268,-0.00012096390128135681,0.00646209716796875,0.06879619996088074,-0.010393333441364443,-0.0734537219641683
0.010602145455777645,0.033503007143735886,9.874743461608887,0.001816614530980587,0.004330899566411972,0.001491546630859375,-0.0807012463646394,0.029669381259183357,-0.052481335968006554
0.01423201896250248,0.027550965547561646,9.873581886291504,0.006409673020243645,-0.0004813931882381439,0.0015850067138671875,0.016098008821779582,-0.01873024633402614,-0.09254405400360766
0.015371573157608509,0.02970387041568756,9.875228881835938,0.0066036656498909,-0.0003977213054895401,0.0014600753784179688,0.02255285775255898,-0.0058205217920409055,0.0023731505611422525
0.0072358218021690845,0.03362921252846718,9.880526542663574,0.001312796026468277,-0.004799682646989822,0.006335258483886719,0.07161928256349097,0.09231230114939663,0.04592573841191617
0.015171501785516739,0.02369949407875538,9.879313468933105,0.006161119788885117,-0.0051142144948244095,0.0060405731201171875,0.0006394497806159984,0.07242284364717239,-0.03499881978701762
0.013525272719562054,0.024912914261221886,9.881455421447754,0.006027448922395706,-0.004556288942694664,0.0011491775512695312,0.016098008821779582,0.04230485769773671,-0.07694358844428781
0.01159396767616272,0.03392467647790909,9.88081169128418,0.0012782420963048935,0.005009923130273819,0.004929542541503906,0.07350134652537327,0.03867309136956755,-0.06874858206978238
0.025544423609972,0.02470170333981514,9.885107040405273,0.005877028219401836,-0.009757313877344131,0.004656791687011719,0.0744423651661012,-0.016039498646584903,-0.12077041772838698
0.01589902862906456,0.031138889491558075,9.870944023132324,0.0006524752825498581,-0.00033275969326496124,-0.0051517486572265625,0.07713311285354243,0.06058649934151053,-0.0651168090715066
0.008512720465660095,0.024912914261221886,9.87573528289795,0.0002969522029161453,-0.0048623476177453995,-0.0002079010009765625,-0.06671816826675725,-0.07545723522722989,-0.004081705039743753
0.020985448732972145,0.02964039146900177,9.875862121582031,0.009595396928489208,0.00010846927762031555,-0.0005702972412109375,0.07551574540242458,-0.017921562608467206,-0.004890395435409296
0.014802171848714352,0.028078416362404823,9.880526542663574,-0.00006949063390493393,0.0047053005546331406,0.0038967132568359375,0.07713311285354243,0.022141152092080594,-0.024245400640239955
0.0148229468613863,0.02803686633706093,9.8789644241333,0.004823797382414341,-0.005019675940275192,0.0037097930908203125,0.07713311285354243,0.0011687627608655412,0.01581731739536115
0.01126734260469675,0.037797678261995316,9.882341384887695,0.009840642102062702,0.00404190830886364,-0.0008440017700195312,-0.0028599816323841673,0.061262848151900466,-0.0651168090715066
0.01159396767616272,0.027973387390375137,9.882257461547852,0.00041170045733451843,-0.0011219196021556854,0.00360107421875,0.05508736996643046,-0.04077598922113811,-0.026127454596962342
0.013008210808038712,0.026327157393097878,9.879112243652344,0.00022893864661455154,-0.005542131140828133,0.0032243728637695312,-0.0019189629916562386,0.060321829511172535,-0.022098670183072964
0.011825953610241413,0.024912914261221886,9.87573528289795,-0.00000321120023727417,-0.005949340760707855,-0.001567840576171875,0.07417769533576321,0.04230485769773671,-0.007037122557522981
0.016384921967983246,0.034494828432798386,9.881561279296875,0.0042466334998607635,0.003611413761973381,-0.001659393310546875,-0.021009288360988986,-0.042658079863446864,-0.08904461592050088
0.02117588371038437,0.032542746514081955,9.879639625549316,0.008712555281817913,0.003290163353085518,-0.0018548965454101562,0.0048005824498875945,0.00613857915569607,-0.08998564123133543
0.007182731293141842,0.02970387041568756,9.87573528289795,-0.005700278095901012,-0.0014690570533275604,-0.0020122528076171875,-0.04493709520998326,-0.013892764854364607,-0.008919179849298672
0.016384921967983246,0.02362602762877941,9.878500938415527,0.0035971691831946373,-0.01539517566561699,-0.0019254684448242188,0.051323242042665855,-0.02814563542446227,-0.07453219149183613
0.014147364534437656,0.02715047262609005,9.874616622924805,0.004097694531083107,-0.005387492477893829,-0.0016412734985351562,0.0018451649321083665,0.12161650741182231,0.010171152190140687
0.01159396767616272,0.02865895815193653,9.874690055847168,-0.00047293771058321,-0.005408218130469322,-0.0066280364990234375,0.002786183572836295,-0.01873024633402614,-0.0651168090715066
0.0121952835470438,0.02910255454480648,9.880526542663574,-0.0006009452044963837,-0.0008627362549304962,0.003147125244140625,0.11518655131891645,-0.01873024633402614,-0.05745625165934145
0.00905055832117796,0.027160460129380226,9.87573528289795,-0.005252812057733536,-0.005304440855979919,-0.0013780593872070312,0.012328784936563914,0.07470700831601275,-0.0364838623281264
0.013388331048190594,0.034494828432798386,9.87573528289795,-0.0007295897230505943,0.004004053771495819,-0.0012311935424804688,-0.033507320582709055,-0.05690580111124057,-0.04225725981695819
0.0076263281516730785,0.021768588572740555,9.88449478149414,-0.0002700192853808403,-0.0006351657211780548,0.0038099288940429688,0.05615562756087632,0.0022472389586399764,-0.02505919700251648
0.015562008135020733,0.03052678517997265,9.880526542663574,0.004812618717551231,-0.0006917677819728851,0.0035371780395507812,0.06664946616866044,0.03182121101285472,-0.0651168090715066
0.013915779069066048,0.02985120378434658,9.873266220092773,0.004589985124766827,-0.005368715152144432,-0.0012788772583007812,-0.01535802719431746,0.04230485769773671,-0.004081705039743753
0.019824717193841934,0.029028287157416344,9.872970581054688,0.009504464454948902,-0.0006179828196763992,-0.0059375762939453125,0.02470468750623034,0.04230485769773671,-0.07372350109617058
0.01518148835748434,0.02252882532775402,9.866755485534668,-0.004338529892265797,0.008538242429494858,-0.0059375762939453125,-0.04493709520998326,-0.01873024633402614,-0.004081705039743753
0.009419888257980347,0.02970387041568756,9.878352165222168,0.0005326820537447929,-0.0006898548454046249,0.0038557052612304688,0.016098008821779582,0.04794592694150611,-0.0651168090715066
0.01369422022253275,0.03239457309246063,9.87304401397705,0.005922169424593449,-0.0007323846220970154,-0.000957489013671875,0.016098008821779582,0.0005040999772586755,-0.038360320065401875
0.006348905153572559,0.0292497631162405,9.87573528289795,-0.0035017821937799454,-0.0008290298283100128,-0.000606536865234375,0.12659787643130369,-0.012945076107025338,-0.0651168090715066
0.0167652890086174,0.02970387041568756,9.880146026611328,0.01076348964124918,-0.0006972383707761765,-0.00067138671875,0.020943761233639176,-0.01873024633402614,-0.004081705039743753
0.006803013384342194,0.024027502164244652,9.870944023132324,-0.0036596916615962982,-0.009935840964317322,-0.00527191162109375,-0.008779621208669593,-0.01873024633402614,-0.004081705039743753
0.009714936837553978,0.034494828432798386,9.878647804260254,-0.003221830353140831,0.003852507099509239,-0.00030994415283203125,0.0029393025402062295,0.055463563979310064,-0.0651168090715066
0.01159396767616272,0.034494828432798386,9.881866455078125,0.0017223497852683067,0.0037893056869506836,0.004235267639160156,-0.04493709520998326,0.04230485769773671,-0.0651168090715066
0.015204551629722118,0.034494828432798386,9.877540588378906,0.0016811247915029526,0.0037291571497917175,-0.0007457733154296875,-0.021938314150029725,0.05734239960959248,-0.08015435765346898
0.014653371647000313,0.03143542259931564,9.869213104248047,0.0015263352543115616,0.0035732965916395187,-0.010232925415039062,-0.0008183954007850435,0.04230485769773671,-0.043057459166907494
0.0068884179927408695,0.029618466272950172,9.8710298538208,0.0013549793511629105,-0.005629995837807655,-0.00047206878662109375,0.016098008821779582,0.04230485769773671,-0.06620483686194847
0.013263441622257233,0.028034396469593048,9.87573528289795,0.006110508926212788,-0.005414627492427826,-0.0002956390380859375,-0.0037852855019357774,0.06357337308206884,0.015801589283971608
0.008387082256376743,0.02649698406457901,9.874112129211426,-0.003056170418858528,-0.005247751250863075,-0.005051612854003906,-0.004082478772110668,0.021630728853754364,-0.004081705039743753
0.01171812042593956,0.02976594679057598,9.875673294067383,0.001901119016110897,-0.0006334222853183746,-0.000244140625,0.07713311285354243,0.1009674581686986,-0.06432597455123962
0.01467661652714014,0.02970387041568756,9.874027252197266,0.001237005926668644,-0.0010137669742107391,-0.004878997802734375,0.0553698890020604,-0.01873024633402614,-0.02584492555617248
0.009811796247959137,0.031486041843891144,9.87573528289795,0.0008055297657847404,-0.0009264368563890457,-0.0000782012939453125,0.016098008821779582,0.03522720757244323,-0.0651168090715066
0.011384159326553345,0.029913678765296936,9.87573528289795,0.0008325697854161263,-0.001058340072631836,-0.0000743865966796875,0.016098008821779582,0.04230485769773671,-0.06244392392957054
0.01159396767616272,0.031559910625219345,9.872023582458496,0.0007878048345446587,0.0033872704952955246,-0.009507179260253906,0.0534878250401781,0.05604941278319733,-0.0651168090715066
0.01159396767616272,0.024912914261221886,9.87573528289795,0.0007402682676911354,-0.006048291921615601,-0.0001850128173828125,0.016098008821779582,-0.05517904391169672,-0.053254311277821674
0.010379145853221416,0.03206518292427063,9.87573528289795,-0.0038664937019348145,-0.0058958325535058975,-0.00017070770263671875,-0.07501936940862183,0.04230485769773671,-0.019558119956305898
0.015953514724969864,0.024912914261221886,9.870944023132324,0.005196654237806797,-0.005878059193491936,-0.0046863555908203125,0.07713311285354243,-0.007738310844933548,-0.015073647198942955
0.010958284139633179,0.02762623503804207,9.873022079467773,0.005317493341863155,-0.006028288975358009,0.00022029876708984375,0.04256637923775415,0.01583648728176214,-0.03864845199574526
0.00944246631115675,0.031855374574661255,9.870944023132324,0.0009907251223921776,-0.0011615734547376633,0.00007343292236328125,0.07713311285354243,0.1371863505116895,-0.05152245144672015
0.015391698107123375,0.025906138122081757,9.87193775177002,0.0009605316445231438,-0.0013579260557889938,0.00031375885009765625,-0.03228376956613797,0.04230485769773671,-0.05246347675755469
0.016384921967983246,0.03035687655210495,9.871597290039062,0.006050741299986839,-0.0010972507297992706,-0.0046405792236328125,0.03273610951609264,0.04230485769773671,-0.10119474872158665
0.01159396767616272,0.034494828432798386,9.878034591674805,0.001505051739513874,0.003266656771302223,0.0047931671142578125,-0.013193430856591994,0.06914408604130182,-0.03582536605808172
0.01159396767616272,0.034494828432798386,9.87573528289795,0.0015202416107058525,0.0030757002532482147,-0.0002498626708984375,0.026869270503742583,0.03153359601577371,-0.05434553404933038
0.01159396767616272,0.03526655212044716,9.87573528289795,0.0012347325682640076,0.007458049803972244,-0.00035190582275390625,0.06730164251269087,-0.06993390670536388,-0.12615191310326945
0.004635322373360395,0.02970387041568756,9.871818542480469,-0.008253333158791065,-0.0017902888357639313,-0.0048427581787109375,-0.03379724343667759,0.02002515415112535,-0.05397696063325423
0.01229194924235344,0.03788982331752777,9.879828453063965,0.0010675843805074692,0.00767245888710022,0.0046100616455078125,-0.03604505602448614,0.02452075264631601,-0.004081705039743753
0.01159396767616272,0.03160019963979721,9.870944023132324,0.0013120612129569054,-0.0019346289336681366,-0.004566192626953125,0.06505384326509554,-0.01873024633402614,-0.004081705039743753
0.011991631239652634,0.02970387041568756,9.87573528289795,0.005717145279049873,-0.0018248818814754486,0.00032329559326171875,0.016098008821779582,0.009254265995132589,-0.032066210698795866
0.016384921967983246,0.02970387041568756,9.87573528289795,0.005438671447336674,-0.001475384458899498,0.00004100799560546875,0.05008804501995136,-0.025675214698606837,-0.031126782878494744
0.01590816117823124,0.02970387041568756,9.870467185974121,0.0051987310871481895,-0.0016438327729701996,-0.0044879913330078125,0.022171754541213423,0.04230485769773671,-0.0651168090715066
0.015215536579489708,0.03204264119267464,9.87935733795166,0.004813469015061855,-0.001715872436761856,0.0046787261962890625,-0.015141969100962917,-0.01873024633402614,-0.004081705039743753
0.008778437040746212,0.022097382694482803,9.87573528289795,-0.004459054209291935,-0.011292722076177597,0.0000247955322265625,0.05196688065023377,0.0567684235954734,-0.09028302793460204
0.015470829792320728,0.03069145977497101,9.880526542663574,-0.004840538837015629,-0.0060353949666023254,0.0049381256103515625,0.052906325145801424,-0.042957060722193595,-0.12615191310326945
0.01159396767616272,0.02970387041568756,9.875479698181152,-0.00041768886148929596,-0.001114116981625557,-0.004389762878417969,0.012842543228195811,0.03904939210415294,-0.0651168090715066
0.01159396767616272,0.02970387041568756,9.877745628356934,-0.00016340427100658417,-0.0011020470410585403,0.005146980285644531,0.03381386534235305,0.04230485769773671,-0.08283265225186684
0.00808556005358696,0.026667118072509766,9.878771781921387,-0.000011416152119636536,-0.005936210975050926,0.004971504211425781,0.016098008821779582,-0.04107817173105829,-0.02642964044193582
0.014704459346830845,0.025163346901535988,9.87430477142334,0.00025863200426101685,0.003431890159845352,0.005074501037597656,0.016098008821779582,-0.03694836188243355,-0.025490212621634697
0.01159396767616272,0.034460511058568954,9.87573528289795,0.00012536626309156418,-0.0011060889810323715,0.0005159378051757812,0.016098008821779582,-0.07889100611074802,-0.003644519572010046
0.014773094095289707,0.02495744451880455,9.870944023132324,0.00514555349946022,-0.010496458038687706,-0.0038166046142578125,0.016098008821779582,0.04230485769773671,-0.024615838351113976
0.008335994556546211,0.02970387041568756,9.878993034362793,-0.0042471447959542274,-0.001361088827252388,0.0055255889892578125,0.016098008821779582,-0.06023573177503335,0.015447946901544943
0.016384921967983246,0.031163113191723824,9.869484901428223,0.005453970283269882,0.0034403838217258453,-0.008652687072753906,-0.0024922186342612933,0.04230485769773671,-0.046526584950519034
0.014625612646341324,0.02843153476715088,9.877494812011719,0.0001613367348909378,0.003566676750779152,0.00563812255859375,-0.022524109593064102,-0.0959744831637135,-0.004081705039743753
0.0075113819912076,0.032661717385053635,9.87573528289795,-0.009090064093470573,0.0039025023579597473,0.000766754150390625,0.06280436315063416,0.07998677122485905,0.03360022182759181
0.01159396767616272,0.02970387041568756,9.877046585083008,0.000372384674847126,-0.0013791993260383606,0.0004329681396484375,0.049517083894020604,0.08663041085316583,-0.020791242575864264
0.011259355582296848,0.024912914261221886,9.87573528289795,0.0005181813612580299,-0.005970776081085205,0.00039768218994140625,0.011835170366898266,0.04656769615261803,0.04842770874204324
0.01159396767616272,0.030533144250512123,9.881356239318848,0.001018000766634941,-0.0057288724929094315,-0.00002956390380859375,0.016098008821779582,0.04230485769773671,-0.004081705039743753
0.013648674823343754,0.02970387041568756,9.87299919128418,0.0010382551699876785,-0.001112302765250206,-0.00467681884765625,0.08581569735123025,0.007446026773224604,-0.12615191310326945
0.015902576968073845,0.025395259261131287,9.87573528289795,0.005650551989674568,-0.0057627297937870026,0.0001087188720703125,0.016098008821779582,0.03615995528097309,-0.12615191310326945
0.009465394541621208,0.03129863739013672,9.870944023132324,-0.003263171762228012,0.008376626297831535,-0.0044307708740234375,0.016098008821779582,0.07622266998152089,-0.09223410081948527
0.017111271619796753,0.03246252238750458,9.873992919921875,0.011158088222146034,0.0035773422569036484,-0.00458526611328125,-0.03199165891720092,0.05525028065030584,-0.017027134662419494
0.009629873558878899,0.03740121051669121,9.878642082214355,0.010895385406911373,-0.0015081092715263367,-0.00421905517578125,0.028102413133620784,0.05430926200957791,-0.004081705039743753
0.006803013384342194,0.02970387041568756,9.879822731018066,-0.0031592100858688354,-0.0018964633345603943,0.005047798156738281,0.07713311285354243,-0.00976327517085721,-0.013048689543125902
0.006803013384342194,0.02970387041568756,9.87181282043457,-0.002743788994848728,-0.001945044845342636,-0.0044155120849609375,0.02716291527720024,0.09227505527407891,-0.1150870066478488
0.012371571734547615,0.036952972412109375,9.872499465942383,0.0022142473608255386,0.00751928985118866,-0.004309654235839844,0.016098008821779582,0.03239844203900013,-0.0651168090715066
0.011537423357367516,0.02970387041568756,9.875791549682617,-0.0029513873159885406,-0.001821085810661316,0.005222320556640625,0.015377663988181247,-0.0180099015004278,-0.034239077968719396
0.01409145724028349,0.024912914261221886,9.871148109436035,0.00114471185952425,-0.00649588368833065,-0.008559226989746094,0.04531595726550741,0.013086909254008884,-0.12615191310326945
0.01159396767616272,0.024912914261221886,9.87508773803711,0.0008306130766868591,-0.005918990820646286,-0.003849029541015625,0.016098008821779582,-0.02697687266359673,-0.07336343540107719
0.01438727043569088,0.024912914261221886,9.87573528289795,0.005554470233619213,-0.005316473543643951,0.0009670257568359375,-0.03221239942539662,0.01685546612856342,-0.05239211328691996
0.016384921967983246,0.02970387041568756,9.880526542663574,0.004993201233446598,-0.0007477439939975739,0.005267143249511719,0.07713311285354243,-0.01873024633402614,0.029614312859000128
0.00952172465622425,0.029057402163743973,9.871590614318848,0.00003280770033597946,-0.005201566964387894,-0.0040912628173828125,0.016098008821779582,-0.01873024633402614,-0.004081705039743753
0.016384921967983246,0.03406872972846031,9.871796607971191,0.0045583294704556465,-0.00040347687900066376,0.005527496337890625,0.016098008821779582,-0.0743370308424949,-0.01493838410697158
0.015164874494075775,0.034494828432798386,9.876955032348633,0.004342462867498398,0.004101084545254707,0.0010309219360351562,0.06272693655308972,0.0267618817873,-0.0651168090715066
0.00872777495533228,0.026837676763534546,9.874794006347656,-0.0049821240827441216,-0.00555899553000927,-0.0039882659912109375,0.016098008821779582,0.0057905596731427636,-0.0651168090715066
0.013444988988339901,0.02970387041568756,9.87573528289795,0.0048549240455031395,-0.0007282327860593796,0.0008392333984375,0.016098008821779582,0.004851141858001557,-0.02766308322661153
0.011389091610908508,0.034289952367544174,9.875325202941895,-0.00458805076777935,-0.0007175486534833908,-0.0082855224609375,-0.04232704247232603,-0.07454524489047451,-0.06250675633384936
0.013035235926508904,0.028262600302696228,9.872385025024414,0.0001998692750930786,-0.0008779186755418777,-0.0034961700439453125,0.058771856817255656,0.04230485769773671,-0.022442967746137143
0.013297508470714092,0.024912914261221886,9.870944023132324,-0.00019787438213825226,-0.004943298175930977,-0.00312042236328125,-0.005604517059539252,-0.04043277221534498,-0.04341428986029438
0.013223768211901188,0.0312352254986763,9.870944023132324,0.0045763710513710976,-0.0044512562453746796,-0.002410888671875,-0.04493709520998326,0.021541776311985526,-0.024844796430654854
0.011610312387347221,0.029720215126872063,9.880494117736816,-0.00015129707753658295,0.00022199563682079315,0.0069103240966796875,0.07713311285354243,-0.01873024633402614,-0.06490858168331377
0.009931477718055248,0.026575405150651932,9.87573528289795,-0.00022664852440357208,-0.004784751683473587,0.0022029876708984375,0.016098008821779582,-0.01873024633402614,-0.025261254542093818
0.016384921967983246,0.02970387041568756,9.870944023132324,0.004647428169846535,-0.00016753748059272766,-0.002559661865234375,0.03498225457724835,-0.01873024633402614,-0.004081705039743753
0.01159396767616272,0.02970387041568756,9.872918128967285,-0.0004329094663262367,-0.00023979507386684418,-0.00719451904296875,0.016098008821779582,-0.01873024633402614,0.02106378980211025
0.013403939083218575,0.02672288566827774,9.872754096984863,0.0042679691687226295,-0.00026855990290641785,0.0023221969604492188,0.054074714380696734,0.01924645922489101,-0.02714011018269607
0.006803013384342194,0.028917429968714714,9.867487907409668,-0.004901103675365448,-0.005338612943887711,-0.006926536560058594,0.016098008821779582,0.0252994742529768,-0.0651168090715066
0.016384921967983246,0.020744573324918747,9.875112533569336,0.004790305159986019,-0.009774463251233101,0.0025691986083984375,0.02006394749117691,-0.014764307664628813,-0.0651168090715066
0.012470018118619919,0.0268703680485487,9.868110656738281,-0.004662260413169861,-0.00031222403049468994,-0.0017337799072265625,0.04103526960533414,0.06724211848129127,-0.029018969158351622
0.012322536669671535,0.024912914261221886,9.873703956604004,0.004687925800681114,-0.005011487752199173,0.003101348876953125,-0.009778669776916184,0.00714643226466963,-0.004081705039743753
0.015467345714569092,0.025371702387928963,9.875276565551758,0.004829867742955685,-0.004793053492903709,0.0030603408813476562,0.07713311285354243,0.03646005671763053,-0.11446231114305708
0.014279988594353199,0.022226892411708832,9.873048782348633,0.00033651385456323624,-0.004921896383166313,0.0029859542846679688,0.04291413191604301,0.06912098079200013,-0.038300689312296486
0.014206248335540295,0.029270263388752937,9.878347396850586,0.005078509449958801,-0.005126332864165306,0.0075740814208984375,0.016098008821779582,0.04230485769773671,-0.0651168090715066
0.007769149262458086,0.024912914261221886,9.87573528289795,0.0007026642560958862,-0.005170658230781555,0.0024280548095703125,0.06482487184534144,0.10333996172949957,-0.016389939377838128
0.01413250807672739,0.02970387041568756,9.870944023132324,0.005690234713256359,-0.0003817752003669739,-0.0023632049560546875,0.016098008821779582,0.09969480182725483,-0.09381178780637227
0.01248636282980442,0.02970387041568756,9.87573528289795,0.000860198400914669,-0.0005621258169412613,0.00241851806640625,-0.04493709520998326,-0.06839658053358211,-0.05374800588876666
0.01159396767616272,0.02970387041568756,9.87573528289795,0.0009737778455018997,-0.000918043777346611,0.0024175643920898438,0.016098008821779582,-0.008300867636534013,-0.11572253440577733
0.01159396767616272,0.029712706804275513,9.875726699829102,0.0010056225582957268,0.003765728324651718,-0.0025653839111328125,0.046559265137861294,0.04230485769773671,-0.03465553941521167
0.01159396767616272,0.027230234816670418,9.873261451721191,0.0008294368162751198,-0.001039985567331314,0.0019884109497070312,0.016098008821779582,-0.01873024633402614,-0.035594967235512795
0.010692737065255642,0.02880263887345791,9.876636505126953,0.000722966156899929,-0.0008049532771110535,0.0020093917846679688,-0.033455720637963725,0.015713864041819257,-0.05363543783454037
0.013533751480281353,0.03000766970217228,9.87573528289795,-0.003990462981164455,0.0039909519255161285,0.0016727447509765625,0.016098008821779582,-0.02260053567461684,0.02837098497632641
0.009424116462469101,0.027534017339348793,9.870944023132324,-0.004095488227903843,-0.005594847723841667,-0.0029087066650390625,0.016098008821779582,0.04230485769773671,-0.12615191310326945
0.01159396767616272,0.029180079698562622,9.86989688873291,0.0003898516297340393,-0.00550590455532074,-0.011988639831542969,-0.038264187153865925,-0.0120573382779088,-0.010754613095861093
0.017507195472717285,0.0212442297488451,9.870944023132324,0.00488656759262085,-0.00993386097252369,-0.0021467208862304688,0.016098008821779582,-0.03302759317500822,-0.050819458895471216
0.014362300746142864,0.02970387041568756,9.872966766357422,0.004294749349355698,-0.0005179494619369507,-0.0020456314086914062,0.016098008821779582,0.026037454848455523,-0.10038441080958811
0.016384921967983246,0.02970387041568756,9.866153717041016,0.004174910485744476,-0.00095411017537117,-0.0064067840576171875,0.13337096948872337,-0.01873024633402614,-0.06031956167492468
0.0071059586480259895,0.03479777276515961,9.87573528289795,-0.0004913238808512688,0.00845879316329956,0.0032100677490234375,0.019957412548380578,0.09948055800289857,-0.06897622613832081
0.010832363739609718,0.02970387041568756,9.870944023132324,-0.005357659421861172,-0.0013191848993301392,-0.0014085769653320312,-0.02782625737969806,-0.0016194218439541561,-0.0651168090715066
0.019374104216694832,0.027902092784643173,9.869142532348633,0.008911354467272758,-0.001149926334619522,-0.0007524490356445312,0.0009709273987731797,0.11846704315250596,-0.049989727648500196
0.014656759798526764,0.026641076430678368,9.879191398620605,-0.00027603283524513245,-0.0010676607489585876,0.013428688049316406,0.016098008821779582,0.020288676723126196,-0.0651168090715066
0.011511942371726036,0.029785895720124245,9.875653266906738,-0.004599563777446747,0.0037239622324705124,-0.0007352828979492188,0.016098008821779582,0.10333996172949957,-0.004081705039743753
0.01159396767616272,0.031366586685180664,9.870944023132324,0.0006604772061109543,0.0038260556757450104,-0.0010347366333007812,-0.02501075201819831,0.0011960835175455922,-0.0651168090715066
0.01159396767616272,0.034494828432798386,9.8677339553833,0.0006668940186500549,0.003486858680844307,-0.005581855773925781,0.05699566078750855,0.021544631117615183,-0.04435659249654499
0.0098169120028615,0.02970387041568756,9.872721672058105,0.0046043917536735535,-0.001176450401544571,-0.0051059722900390625,0.038737097712609976,-0.06056736947574921,-0.08431482331207944
0.013305568136274815,0.03278322517871857,9.870944023132324,0.004522219300270081,-0.0015867538750171661,-0.0004138946533203125,0.07713311285354243,0.03792435856223134,-0.0869220079038938
0.012814239598810673,0.03270948678255081,9.869158744812012,0.004563743248581886,0.003145761787891388,-0.000244140625,0.06158725545704962,0.06504949435558495,-0.011280484301099184
0.012953436002135277,0.031063340604305267,9.862722396850586,-0.0002113673835992813,-0.0018929019570350647,-0.009281158447265625,0.042494795653601244,-0.03604941827420995,-0.07419443730335767
0.012167321518063545,0.02970387041568756,9.861649513244629,-0.00022317096590995789,-0.0018183067440986633,-0.009038925170898438,0.016098008821779582,-0.0724610233374157,-0.0651168090715066
0.012519278563559055,0.02970387041568756,9.869011878967285,-0.0053609032183885574,-0.0015967823565006256,-0.004050254821777344,-0.008525463466351073,-0.07976537704621543,-0.04049332677821603
0.014378359541296959,0.024135084822773933,9.870166778564453,0.004456193186342716,-0.010751497000455856,-0.003993034362792969,0.016098008821779582,0.016741940914038404,-0.11624264263890322
0.014108427800238132,0.02970387041568756,9.869806289672852,-0.004881330765783787,-0.0011511258780956268,-0.00405120849609375,0.048131355905301376,0.010271510614214918,-0.0651168090715066
0.01536912564188242,0.02062985673546791,9.879002571105957,0.004792855121195316,-0.010735990479588509,0.01023101806640625,0.0706626558732925,0.04230485769773671,-0.004081705039743753
0.01207683514803648,0.037131741642951965,9.875252723693848,-0.004694159142673016,0.003509785979986191,0.010271072387695312,0.009946436298404623,-0.04617205210885975,-0.0987101473490755
0.01159396767616272,0.02457752823829651,9.870944023132324,0.00025321077555418015,-0.010134441778063774,0.0004911422729492188,-0.01655589830043489,0.04230485769773671,-0.036735612161958225
0.009554090909659863,0.02970387041568756,9.8739013671875,-0.004518202506005764,-0.0003720428794622421,0.005352973937988281,0.004415423813722345,0.004634923682088341,-0.015764290047800993
0.010864848271012306,0.028974751010537148,9.870944023132324,0.00038502737879753113,-0.000543517991900444,0.0003910064697265625,-0.03564835810388327,0.023727383485536716,-0.11686317599716946
0.009178278036415577,0.024953339248895645,9.868528366088867,0.0006741480901837349,-0.009653780609369278,0.00047969818115234375,-0.014677035989726034,0.012044798477479478,-0.003566712778388758
0.016384921967983246,0.02970387041568756,9.868494987487793,0.005108741112053394,0.0002795029431581497,0.0006771087646484375,0.016098008821779582,-0.01873024633402614,-0.0651168090715066
0.015689117833971977,0.024912914261221886,9.870944023132324,0.0005076201632618904,-0.004380498081445694,0.00087738037109375,0.016098008821779582,0.05116916257994388,-0.05625250418929943
0.009071221575140953,0.029958408325910568,9.872958183288574,0.00038846489042043686,-0.004295680671930313,0.010145187377929688,0.04499419132257634,0.013408675196939954,-0.03297789754570043
0.01159396767616272,0.024912914261221886,9.870944023132324,0.0005725286900997162,-0.0043145958334207535,0.000499725341796875,0.06128336539983695,-0.010805385947386618,-0.05719193534465386
0.006803013384342194,0.033946432173252106,9.87039566040039,-0.00397321954369545,0.0005533080548048019,-0.00408935546875,0.11720911440646002,-0.011743869947602237,-0.12615191310326945
0.012691633775830269,0.023815248161554337,9.878331184387207,0.0010278550907969475,-0.004834681749343872,0.009814262390136719,0.06314923434286691,0.05628873620841223,-0.0651168090715066
0.016384921967983246,0.03175109997391701,9.864106178283691,0.005262047052383423,-0.00042393431067466736,-0.004189491271972656,0.10321408347753035,-0.05368440642222753,-0.07398999186561347
0.010750236921012402,0.026886526495218277,9.87573528289795,0.005629110150039196,-0.000606512650847435,0.004810333251953125,0.041241135775786565,0.006412880619980839,-0.0651168090715066
0.011921517550945282,0.029048768803477287,9.87573528289795,0.005336767062544823,-0.009952537715435028,0.004550933837890625,0.011925136764872028,0.04230485769773671,-0.060943930344492435
0.014230991713702679,0.03317631781101227,9.867471694946289,0.0006549563258886337,0.004421522840857506,-0.004868507385253906,-0.011342329529599534,-0.01873024633402614,-0.031522053396282786
0.014558539725840092,0.026739297434687614,9.873908996582031,0.0050742896273732185,-0.0048580896109342575,0.004588127136230469,-0.04493709520998326,0.004537219960445423,-0.0651168090715066
0.007163654081523418,0.02970387041568756,9.870763778686523,-0.004513109102845192,-0.00006778724491596222,-0.00018310546875,-0.04263988381261113,0.04230485769773671,-0.004081705039743753
0.0069097187370061874,0.02970387041568756,9.870944023132324,0.0003299219533801079,-0.0003740135580301285,-0.00004863739013671875,-0.040858925326743525,0.1616562769456271,-0.0651168090715066
0.013306209817528725,0.031416114419698715,9.869232177734375,0.005330086685717106,0.004668340086936951,-0.0048313140869140625,-0.06454795569926504,-0.02093276889794369,-0.0651168090715066
0.013173848390579224,0.02809833362698555,9.870944023132324,0.005556152202188969,0.00035163573920726776,-0.0002841949462890625,0.016098008821779582,-0.01873024633402614,-0.1056979244578878
0.01159396767616272,0.02016248181462288,9.866193771362305,0.000750785693526268,-0.009173085913062096,-0.005299568176269531,0.07610058035010692,0.04230485769773671,0.055920866488583576
0.013280612416565418,0.03139051795005798,9.872631072998047,0.005603354424238205,0.005036534741520882,0.004077911376953125,0.055645844652784784,0.08185269352874192,-0.043629537535695644
0.01159396767616272,0.03146425634622574,9.873974800109863,0.0010599205270409584,0.00014900416135787964,0.0036439895629882812,0.03852472151810489,0.019878145001411406,-0.04893510708702122
0.010209543630480766,0.02629733830690384,9.878504753112793,-0.0035485243424773216,-0.000163959339261055,0.012660980224609375,0.05949601695183568,-0.036367342235732895,-0.04747972317495976
0.006803013384342194,0.025174636393785477,9.889846801757812,-0.0034683067351579666,-0.004752699285745621,0.016597747802734375,0.012763782609329102,0.038970631485286227,-0.061782569518842895
0.01159396767616272,0.030679093673825264,9.880526542663574,0.0011735521256923676,-0.0049932729452848434,0.0060214996337890625,0.07713311285354243,-0.11649493275137057,-0.028387263371511387
0.01283091027289629,0.03325788304209709,9.881763458251953,0.0008377796038985252,0.004194837063550949,0.0055294036865234375,0.06137487926254454,0.056065287636932325,-0.11039368618237817
0.006803013384342194,0.033331625163555145,9.880526542663574,-0.0038827070966362953,-0.001041235402226448,0.005063056945800781,-0.030118292774339802,0.04230485769773671,-0.004081705039743753
0.009538620710372925,0.024912914261221886,9.881206512451172,-0.0036948146298527718,-0.005491392686963081,-0.00013446807861328125,-0.010086401815536994,-0.010063990257322889,-0.030266119012113638
0.01159396767616272,0.03236573934555054,9.877864837646484,0.0011259615421295166,0.00407274067401886,-0.0005006790161132812,0.02288542926820042,0.015181002564852481,-0.0651168090715066
0.004043496213853359,0.03827006369829178,9.886333465576172,-0.008225207217037678,0.008210845291614532,0.007981300354003906,0.06419315938839461,0.07746008147963035,-0.01702164516467836
0.015442941337823868,0.02302895113825798,9.889165878295898,0.0009233122691512108,-0.015585409477353096,0.007384300231933594,0.06513260388396226,-0.01873024633402614,-0.05311629343181982
0.014108365401625633,0.029941711574792862,9.882802963256836,0.0006049973890185356,-0.005851820111274719,0.006789207458496094,-0.015934551189162073,0.010272311027008279,-0.0651168090715066
0.011684577912092209,0.03928578644990921,9.8828763961792,0.005212767980992794,0.007828474044799805,0.0017852783203125,-0.04493709520998326,0.04230485769773671,-0.0950571834220955
0.010799246840178967,0.024912914261221886,9.88132095336914,-0.00391016062349081,-0.006505949422717094,0.006043434143066406,0.02622248360585411,0.13400164140903884,-0.04486786617346416
0.015533581376075745,0.025764254853129387,9.881378173828125,0.0062857866287231445,-0.006271474063396454,0.0008640289306640625,0.016098008821779582,0.02061329747168692,-0.0651168090715066
0.01159396767616272,0.03678838163614273,9.887611389160156,0.0014318283647298813,0.002798061817884445,0.004797935485839844,0.07973007884202822,0.10593692771798535,-0.09433587809314513
0.011242888867855072,0.025263993069529533,9.890460014343262,0.006036733277142048,-0.011103363707661629,0.0046672821044921875,0.020570635469800785,-0.014257646366431382,-0.12615191310326945
0.016384921967983246,0.024912914261221886,9.8853178024292,0.005672981031239033,-0.006228461861610413,0.0040378570556640625,-0.04493709520998326,0.027682890108193907,-0.011392688834515155
0.01159396767616272,0.02970387041568756,9.87680721282959,0.0008388543501496315,-0.0012738816440105438,-0.005579948425292969,0.07713311285354243,0.04230485769773671,-0.0651168090715066
0.006803013384342194,0.037213075906038284,9.8853178024292,-0.0037404661998152733,0.007877636700868607,0.0039501190185546875,0.042503600194328216,-0.026954194301118173,-0.004081705039743753
0.012020613998174667,0.02970387041568756,9.885744094848633,0.0008170576766133308,-0.0016417503356933594,0.0035009384155273438,-0.03406643559929807,0.0368695212222875,0.0013536247655988455
0.01159396767616272,0.030056901276111603,9.8853178024292,0.0005582813173532486,0.003178942948579788,0.0031280517578125,0.020595501627247863,-0.01423275352855786,-0.0651168090715066
0.01159396767616272,0.03099690191447735,9.8853178024292,0.00040510017424821854,-0.001445520669221878,0.0026693344116210938,-0.028464333118352125,0.10333996172949957,-0.048644053649982075
0.013445830903947353,0.036346692591905594,9.882378578186035,0.005032872781157494,0.007884979248046875,0.002582550048828125,0.02994891208705142,-0.01873024633402614,-0.0651168090715066
0.01138816587626934,0.02970387041568756,9.894487380981445,0.0002029910683631897,-0.0020608827471733093,0.011870384216308594,0.018719840967712446,0.03968302555180385,-0.1209082354711905
0.011726154014468193,0.020386330783367157,9.8853178024292,0.0046580079942941666,-0.0018593817949295044,0.0024242401123046875,0.017782023978157962,-0.07639734673345867,-0.0651168090715066
0.01468028873205185,0.02970387041568756,9.881908416748047,0.004549829289317131,-0.0016351118683815002,0.0024862289428710938,0.037814435205276456,0.04230485769773671,-0.025798138093347234
0.01159396767616272,0.02807285077869892,9.88062858581543,0.00015143770724534988,-0.006160987541079521,0.00738525390625,0.1173896074913629,-0.05898676765227305,-0.02486031109863283
0.016369879245758057,0.034479785710573196,9.880541801452637,0.004199041053652763,0.003572685644030571,-0.0017118453979492188,-0.10558890823543204,-0.01873024633402614,-0.0651168090715066
0.01159396767616272,0.026381660252809525,9.88365650177002,-0.0005224775522947311,-0.010405689477920532,-0.0019073486328125,-0.005063891578476876,-0.01873024633402614,-0.025243605440000212
0.014650202356278896,0.02970387041568756,9.880526542663574,0.004498372785747051,-0.0007702931761741638,-0.0017070770263671875,-0.04493709520998326,0.04230485769773671,-0.02618143576976792
0.013564575463533401,0.034494828432798386,9.877145767211914,0.005020660348236561,0.00363185815513134,-0.006434440612792969,0.05916798110868995,0.04230485769773671,-0.022046823444383013
0.006803013384342194,0.02970387041568756,9.87573528289795,-0.004319443367421627,-0.0006873011589050293,-0.00629425048828125,-0.03892682222506295,-0.0157251231817792,0.05094312600709878
0.01159396767616272,0.02970387041568756,9.890108108520508,0.0005543427541851997,-0.001238049939274788,0.007837295532226562,0.11419283883595892,0.0052451317153202216,-0.10217652171370988
0.01159396767616272,0.030779611319303513,9.880526542663574,0.000695512630045414,-0.005896830931305885,-0.0015544891357421875,0.04101123054110688,0.031096197104628444,-0.028994923424017736
0.014006265439093113,0.024912914261221886,9.882939338684082,0.005766069516539574,-0.00583256222307682,0.0032720565795898438,0.016098008821779582,-0.01873024633402614,-0.04996517832111716
0.015269208699464798,0.021237671375274658,9.880526542663574,0.0008163405582308769,-0.00571863166987896,-0.0013513565063476562,-0.030723284784201613,0.04230485769773671,-0.05090300531583156
0.013696761801838875,0.03239203244447708,9.883214950561523,0.005390378646552563,-0.0008119139820337296,-0.0013713836669921875,0.05034423047467973,0.008058636044836568,-0.0651168090715066
0.01377037726342678,0.034494828432798386,9.882702827453613,0.00023197848349809647,0.003855491057038307,-0.0014801025390625,0.04382470819019678,0.04230485769773671,-0.004081705039743753
0.01159396767616272,0.028735386207699776,9.87573528289795,0.000059300102293491364,-0.001098552718758583,-0.0060977935791015625,0.04077430835427206,-0.01873024633402614,-0.016419848135883378
0.017596406862139702,0.026702651754021645,9.876629829406738,0.009642970748245716,-0.006433071568608284,-0.0055446624755859375,0.016098008821779582,-0.01873024633402614,-0.004081705039743753
0.01159396767616272,0.033743638545274734,9.880526542663574,-0.00015748944133520126,0.002874460071325302,-0.0009469985961914062,0.02566790426176081,0.03273496225775549,-0.045977031531757376
0.01398775540292263,0.029700491577386856,9.878129005432129,-0.0003119204193353653,-0.006798578426241875,-0.00537872314453125,0.04663709194180242,0.07280087860947673,-0.03457773262159038
0.009123311378061771,0.032174527645111084,9.87573528289795,-0.0005524074658751488,-0.0017741471529006958,-0.0050601959228515625,-0.015377303802424235,0.012745052949964458,-0.03555701099384096
0.01159396767616272,0.026261556893587112,9.872292518615723,-0.00042042508721351624,-0.006726721301674843,-0.009432792663574219,0.016098008821779582,-0.0015490388789912903,-0.0651168090715066
0.006803013384342194,0.03352317214012146,9.876707077026367,-0.004934193566441536,0.0027036741375923157,-0.004519462585449219,0.016098008821779582,0.04230485769773671,-0.0651168090715066
0.01159396767616272,0.02970387041568756,9.882699966430664,0.00007091928273439407,-0.002094317227602005,0.00011348724365234375,-0.005928897684261967,0.03664441846436798,-0.03742947000220293
0.008902843110263348,0.029112577438354492,9.878426551818848,0.0002339594066143036,0.0023314431309700012,-0.0044269561767578125,0.05038200995852636,0.015553754802720638,-0.030832814604866438
0.01593106985092163,0.029250018298625946,9.880980491638184,0.0004482921212911606,-0.006939979270100594,0.005122184753417969,-0.03337325143982111,0.0975580465145251,-0.07089873095658768
0.009567626751959324,0.03173021227121353,9.877761840820312,-0.004021873697638512,0.002672344446182251,0.00031280517578125,0.016098008821779582,0.06811974442878502,-0.0909316891324483
0.01600455865263939,0.025293277576565742,9.884937286376953,0.005567196756601334,-0.006105218082666397,0.005059242248535156,-0.04493709520998326,0.10333996172949957,-0.0651168090715066
0.00710988650098443,0.03001074306666851,9.880833625793457,0.001040157862007618,0.0033130738884210587,0.004900932312011719,0.07322365664692994,0.04621431390434921,-0.12224245689665696
0.008142199367284775,0.03104305826127529,9.8853178024292,0.0014907624572515488,-0.0017319321632385254,0.00010204315185546875,0.06398182373052089,0.10333996172949957,-0.1022100056488988
0.008608720265328884,0.03567437082529068,9.88469123840332,0.0017962316051125526,-0.0019062794744968414,-0.0048160552978515625,0.016098008821779582,0.027277907915179752,-0.0270857821643467
0.011753613129258156,0.02475326880812645,9.875894546508789,0.0018783016130328178,-0.00642378069460392,-0.004924774169921875,0.018131831049283106,0.10130613950199603,-0.00814935616485741
0.008289429359138012,0.03267670422792435,9.877222061157227,-0.00273092370480299,-0.0016813203692436218,-0.004399299621582031,0.05819668018394653,0.01914261900516566,-0.0651168090715066
0.00698748417198658,0.02970387041568756,9.882000923156738,-0.007265549153089523,-0.0018501728773117065,0.005263328552246094,0.016098008821779582,0.06343327416280424,-0.04398838927138577
0.016384921967983246,0.02808263897895813,9.877320289611816,0.007026643492281437,0.003124561160802841,0.0004253387451171875,0.05694251337802939,0.10380329401514972,-0.04492621960115348
0.021114684641361237,0.02964267134666443,9.8853178024292,0.011978271417319775,-0.0016941018402576447,0.005034446716308594,-0.04415742644818366,0.10333996172949957,-0.12537224434146985
0.009886706247925758,0.026620175689458847,9.881902694702148,0.002482418902218342,-0.006368985399603844,0.004366874694824219,0.05538320253485664,0.10333996172949957,-0.0651168090715066
0.01015633624047041,0.031619563698768616,9.873819351196289,0.0030550453811883926,0.003072686493396759,-0.009572982788085938,0.07713311285354243,0.02398991888175908,-0.04680188026068889
0.012957984581589699,0.03313080966472626,9.87709903717041,0.0082124387845397,-0.001445738598704338,-0.0001201629638671875,-0.027559986723773345,0.016023970638393704,-0.0651168090715066
0.007367102894932032,0.024912914261221886,9.87573528289795,-0.0012946976348757744,-0.005853034555912018,-0.004261970520019531,0.008911716000000583,0.09615366890772056,-0.057930502909514375
0.008731119334697723,0.02205006405711174,9.880526542663574,-0.0012568067759275436,-0.01028021052479744,0.0008697509765625,0.016098008821779582,0.09068484849708242,-0.004081705039743753
0.014027543365955353,0.030920658260583878,9.87573528289795,0.002863203175365925,-0.000833636149764061,-0.0037508010864257812,0.046130217200193425,0.11787073562145212,-0.08061825022807449
0.015241656452417374,0.030847137793898582,9.87687873840332,0.002888314425945282,0.004034612327814102,0.0009298324584960938,-0.09140738112564928,-0.01873024633402614,-0.01864651648573398
0.014309721998870373,0.033213719725608826,9.870304107666016,0.0024101296439766884,0.013522202149033546,-0.0032911300659179688,0.016098008821779582,0.007707094745992474,-0.03867947799664791
0.01159396767616272,0.02970387041568756,9.873586654663086,0.0027426043525338173,-0.0011884644627571106,-0.003063201904296875,-0.011275548422206792,0.10333996172949957,-0.004081705039743753
0.016384921967983246,0.0372932106256485,9.871940612792969,0.006824745796620846,0.008045865222811699,-0.00727081298828125,0.06444075374580757,-0.01873024633402614,-0.0651168090715066
0.0038576486986130476,0.02970387041568756,9.879603385925293,0.001552646979689598,-0.0016947276890277863,-0.0023403167724609375,0.02785412508512024,-0.056253144519534115,-0.1026396605662683
0.00909868162125349,0.027208583429455757,9.87343978881836,0.0016182288527488708,-0.0016087926924228668,-0.0069332122802734375,0.04534402507412793,-0.01618720148738643,-0.03587078614905164
0.016384921967983246,0.02733471244573593,9.875787734985352,0.006373451091349125,-0.001536492258310318,0.0027446746826171875,-0.04493709520998326,0.012122598600994154,-0.09596966067663351
0.012369786389172077,0.03294318914413452,9.874958992004395,0.0012383516877889633,0.003529852256178856,-0.0015773773193359375,0.006214351566800898,-0.008846589079047453,-0.004081705039743753
0.01089163776487112,0.02561524510383606,9.87573528289795,-0.0031093424186110497,-0.001555461436510086,-0.0015277862548828125,0.016098008821779582,-0.0008353641520042939,-0.013029139460648063
0.011352648958563805,0.032220009714365005,9.87573528289795,-0.003230554051697254,0.0033775418996810913,-0.0014047622680664062,-0.015956695943111724,0.013324471771078391,-0.062042490233273614
0.01159396767616272,0.034494828432798386,9.873534202575684,0.001226542517542839,0.0031398721039295197,-0.006031990051269531,0.04908894309085188,0.037358093191354975,-0.0651168090715066
0.015274221077561378,0.029148519039154053,9.870944023132324,0.006163220852613449,-0.0017671473324298859,-0.0053863525390625,0.07005813077089348,0.09626497964685062,-0.058041833658964266
0.016384921967983246,0.034494828432798386,9.879435539245605,0.005762035027146339,0.0024477727711200714,0.0038595199584960938,0.016098008821779582,-0.004836040736633481,-0.01797591730724302
0.01570267044007778,0.027649519965052605,9.87573528289795,0.0006626788526773453,-0.0020880699157714844,-0.000957489013671875,-0.01876538445565468,0.04230485769773671,-0.0738084982647189
0.014404062181711197,0.027723008766770363,9.880526542663574,0.0008178101852536201,-0.007202884182333946,0.004179954528808594,0.07713311285354243,-0.01873024633402614,-0.039881334491465616
0.01605003885924816,0.02970387041568756,9.87540054321289,0.0006346255540847778,-0.0020640119910240173,-0.005347251892089844,0.07286683262364967,0.09480740126971403,-0.008347991939743133
0.009425204247236252,0.023601818829774857,9.879215240478516,-0.004171844571828842,-0.0066734980791807175,0.004283905029296875,0.032800916271928424,0.008899042797439034,-0.092746111543185
0.01271715946495533,0.03632871061563492,9.877569198608398,0.005300435237586498,0.0028901994228363037,-0.0005826950073242188,0.016098008821779582,0.018941848796164305,-0.10278889753159044
0.012864137999713421,0.031464263796806335,9.878766059875488,-0.00424534734338522,0.003067605197429657,-0.0005197525024414062,0.016098008821779582,0.08091316899189492,-0.0651168090715066
0.01159396767616272,0.02970387041568756,9.87562084197998,0.0005825711414217949,-0.0014282222837209702,-0.005260467529296875,0.013183439036888206,-0.07539352236887836,-0.12469462821082376
0.01332157850265503,0.03123554401099682,9.870944023132324,0.005068506114184856,-0.0011275596916675568,-0.00482177734375,0.0576201428488887,0.04230485769773671,-0.10663894309861573
0.01002945564687252,0.028090648353099823,9.872557640075684,-0.0040395380929112434,-0.0009057298302650452,-0.004437446594238281,-0.02438521607997357,0.10333996172949957,-0.08504814817314345
0.011561127379536629,0.034429147839546204,9.87573528289795,0.0007654577493667603,0.0038613714277744293,0.00070953369140625,0.13733146535112584,-0.018311870566936412,-0.06469843997452349
0.010160816833376884,0.026591816917061806,9.87573528289795,0.005868002772331238,-0.0007519647479057312,0.000759124755859375,0.05574448218935329,0.08195133106531041,-0.0651168090715066
0.01159396767616272,0.03145638853311539,9.873982429504395,0.0010017743334174156,-0.0005556438118219376,0.0008029937744140625,0.016098008821779582,0.04230485769773671,-0.026408159363594
0.0069830832071602345,0.029883939772844315,9.871124267578125,-0.0033673597499728203,-0.0007077381014823914,-0.0037698745727539062,0.016098008821779582,0.15749298316181343,-0.004081705039743753
0.016384921967983246,0.034494828432798386,9.872770309448242,0.005984143353998661,0.003699919208884239,0.001293182373046875,0.016098008821779582,0.013291761568256377,-0.04185252441788865
0.009440535679459572,0.022759482264518738,9.87441635131836,-0.0034520672634243965,-0.010276751592755318,0.0013179779052734375,0.06033255504260357,0.059105415508675575,-0.004081705039743753
0.015139731578528881,0.033249638974666595,9.868643760681152,0.0009232508018612862,-0.0008237771689891815,0.0014333724975585938,-0.05838232259115337,-0.03459354744436587,-0.08098009684163311
0.01159396767616272,0.025714490562677383,9.871344566345215,0.0008506951853632927,-0.005508409813046455,-0.0030088424682617188,0.07202722628384056,0.03209305787790651,-0.0651168090715066
0.010244622826576233,0.03040129505097866,9.870944023132324,0.005757040344178677,0.003995051607489586,-0.0030202865600585938,-0.01886200762002656,0.08614981633160551,-0.004081705039743753
0.016384921967983246,0.028605658560991287,9.86984634399414,0.005907529033720493,-0.0005655325949192047,-0.0025682449340820312,0.04915145533001336,0.009251411189502935,-0.0180725404716149
0.010569245554506779,0.0259376373142004,9.869919776916504,-0.003957765176892281,-0.0004778597503900528,-0.0066967010498046875,0.07713311285354243,-0.005675647076442588,-0.05206220647886975
0.016788391396403313,0.02970387041568756,9.873541831970215,0.0004194546490907669,-0.0007914546877145767,-0.0018796920776367188,0.10508064611164789,-0.023870283849578077,-0.0651168090715066
0.013861201703548431,0.022389192134141922,9.866153717041016,0.00044363178312778473,-0.010254057124257088,-0.005833625793457031,0.04824933675104277,0.03903730587097319,-0.03296547780719011
0.006803013384342194,0.03058161400258541,9.871821403503418,-0.004218410700559616,-0.00035484135150909424,-0.0009393692016601562,-0.04493709520998326,-0.05740109654777228,-0.015263851959071944
0.006803013384342194,0.030508125200867653,9.865349769592285,-0.004039950668811798,0.004747910425066948,-0.009899139404296875,0.016098008821779582,0.032058933612482896,-0.014327615784784345
0.006803013384342194,0.03208061307668686,9.8685302734375,-0.003604901023209095,-0.0003466848284006119,-0.0048236846923828125,0.046376877742680796,0.012025988776835498,-0.0646394495516528
0.01159396767616272,0.027216168120503426,9.870944023132324,0.0016172798350453377,-0.00037594325840473175,0.00022029876708984375,-0.013244630594940644,0.03995503249941432,-0.12615191310326945
0.01572764664888382,0.03383755311369896,9.869629859924316,0.006279244087636471,0.0044930558651685715,0.0005817413330078125,0.024471473898671426,0.033931392620844866,-0.0651168090715066
0.006803013384342194,0.03028765693306923,9.870360374450684,-0.0029906658455729485,0.004531601443886757,-0.0043926239013671875,0.02353523105427722,-0.011293024101528505,-0.05767958683900897
0.014228648506104946,0.02706918865442276,9.86830997467041,0.006446566432714462,-0.0049748532474040985,-0.004291534423828125,0.016098008821779582,0.008739920734118894,-0.03764662866314835
0.016384921967983246,0.027621084824204445,9.873652458190918,0.006164480932056904,-0.005269259214401245,0.0007038116455078125,0.008130806598371274,0.06883880860191398,-0.07308401129491492
0.011157161556184292,0.030140677466988564,9.879216194152832,0.0017608068883419037,-0.0007675886154174805,0.009952545166015625,0.07713311285354243,0.04786962092187237,-0.05398728262323528
0.015175750479102135,0.030913041904568672,9.867362976074219,0.00670287199318409,-0.001113617792725563,-0.0040607452392578125,0.1073593679734934,0.012078602577785752,-0.0651168090715066
0.009658162482082844,0.028687410056591034,9.86900806427002,0.00212861318141222,0.0035728365182876587,0.00090789794921875,0.0043858885816473285,-0.01873024633402614,-0.0897783009673219
0.014522605575621128,0.02970387041568756,9.869081497192383,0.0023311469703912735,-0.0009606368839740753,-0.003589630126953125,-0.04493709520998326,-0.056040127994794346,-0.0651168090715066
0.01159396767616272,0.020770972594618797,9.870511054992676,0.0016512712463736534,-0.009890016168355942,0.00145721435546875,-0.04493709520998326,0.034036620222745374,-0.0623607343599139
0.009662292897701263,0.024912914261221886,9.869012832641602,-0.002807753160595894,-0.004991963505744934,-0.0031881332397460938,0.040706886916644626,-0.01873024633402614,-0.04050793431169487
0.008518350310623646,0.02970387041568756,9.866153717041016,-0.0031323228031396866,-0.0002654753625392914,-0.0030918121337890625,0.055280296130056875,-0.05791256032272987,-0.025934508423016093
0.009952119551599026,0.028196612372994423,9.874093055725098,-0.0027970410883426666,0.00431094691157341,0.00164794921875,0.037014582700870935,0.023102901424156566,-0.0651168090715066
0.009956249967217445,0.02812725119292736,9.86451530456543,0.006429959088563919,-0.004952758550643921,0.0016469955444335938,-0.02485152323317239,-0.05967981840961778,-0.02416727701655463
0.013162326067686081,0.024912914261221886,9.870944023132324,0.0015866486355662346,-0.004563294351100922,0.0015125274658203125,0.016098008821779582,0.06337927297967882,-0.08509715344641697
0.006880632601678371,0.02962625026702881,9.870944023132324,-0.0028992369771003723,-0.00007047690451145172,0.0015192031860351562,0.07713311285354243,0.04131600105239225,-0.06610565237663785
0.00718284584581852,0.024912914261221886,9.8648099899292,0.0068552251905202866,-0.0044359080493450165,0.0016155242919921875,0.011259006557810668,0.08138191740411349,-0.0651168090715066
0.012790748849511147,0.02970387041568756,9.866153717041016,0.006173110567033291,0.0004019737243652344,-0.0028371810913085938,-0.00679625166757425,0.06519911818709055,-0.08801106956086044
0.01159396767616272,0.02970387041568756,9.866153717041016,0.0015973234549164772,0.0004144776612520218,-0.0027360916137695312,0.07713311285354243,-0.01873024633402614,-0.0479451565441925
0.007101100869476795,0.025211002677679062,9.870645523071289,-0.0025115814059972763,-0.004376484081149101,0.0022125244140625,-0.041139563392309064,0.04230485769773671,-0.007879236857417952
0.014440856873989105,0.026856981217861176,9.869000434875488,0.0023069363087415695,0.00007255375385284424,-0.0028095245361328125,0.08863477788987367,0.07857324223178376,-0.004081705039743753
0.010393056087195873,0.02850295789539814,9.869743347167969,0.0021532177925109863,-0.00013412348926067352,0.002201080322265625,0.016098008821779582,-0.06446618019221,-0.019380901893749188
0.01159396767616272,0.02970387041568756,9.87573528289795,0.0023105842992663383,-0.00030492059886455536,0.00637054443359375,0.07713311285354243,0.027941903688125484,0.028227470962476808
0.01159396767616272,0.02970387041568756,9.8704252243042,0.0023393062874674797,-0.0004996061325073242,0.0014142990112304688,0.022704242492209963,0.05551729835817103,-0.004081705039743753
0.011132081039249897,0.03016575798392296,9.871406555175781,0.007011880166828632,-0.005532385781407356,-0.0035257339477539062,0.04367343017225157,0.014729436347264724,0.023493709640621623
0.012574410997331142,0.02970387041568756,9.858531951904297,0.0019501540809869766,-0.0008886903524398804,-0.012681961059570312,0.02858850382302884,-0.006239751332776883,-0.0651168090715066
0.013664059340953827,0.033587872982025146,9.86796760559082,-0.007518736645579338,-0.0006798319518566132,0.006417274475097656,-0.033382816372701775,0.030750578860455218,-0.0651168090715066
0.01159396767616272,0.034494828432798386,9.87573528289795,0.0016595711931586266,0.0038842298090457916,0.006488800048828125,0.11933839919978505,-0.009315337491266023,-0.0651168090715066
0.0020120516419410706,0.027318866923451424,9.873350143432617,-0.007784603163599968,-0.0012387316673994064,0.006092071533203125,0.10751720937634415,-0.01873024633402614,-0.0651168090715066
0.006803013384342194,0.024912914261221886,9.870183944702148,-0.002803295850753784,-0.005482276901602745,0.0015439987182617188,0.006416188992860064,-0.07008358389772236,-0.004081705039743753
0.01159396767616272,0.026285884901881218,9.875048637390137,0.0022734859958291054,0.0043178703635931015,0.0017528533935546875,0.016098008821779582,0.04230485769773671,-0.11740633611874414
0.018297404050827026,0.030656855553388596,9.874775886535645,0.011523209512233734,0.004152001813054085,0.0059719085693359375,0.052685918142936286,0.030081247002220417,-0.174963406439516
0.013779452070593834,0.027518386021256447,9.868759155273438,0.006577041931450367,-0.00485028512775898,-0.0033130645751953125,0.016098008821779582,0.014462552041531766,-0.0651168090715066
0.01159396767616272,0.033955320715904236,9.870944023132324,0.0018704375252127647,0.004431774839758873,0.0014467239379882812,0.06338685022078931,0.04917797567390005,-0.0651168090715066
0.0029440864454954863,0.030169887468218803,9.870944023132324,0.002013459801673889,0.004350164905190468,0.00103759765625,0.02203491063397516,-0.012793344521830563,-0.05917991392941764
0.00798297394067049,0.035674791783094406,9.872123718261719,-0.0023098373785614967,0.00429210439324379,0.001056671142578125,-0.029904809342137233,-0.01873024633402614,-0.0651168090715066
0.008768029510974884,0.032529812306165695,9.870083808898926,0.0022207340225577354,-0.0008908063173294067,0.005373954772949219,0.0411316393056548,0.05327272744217559,-0.07918257648104955
0.01159396767616272,0.03385675325989723,9.866472244262695,0.0022505195811390877,0.00369303859770298,-0.0038890838623046875,0.07306867004970884,0.04230485769773671,-0.12208747029943585
0.011839516460895538,0.025158463045954704,9.87118911743164,0.0068693580105900764,-0.0016011632978916168,0.0055904388427734375,-0.038680681950891256,0.10021176177006016,0.10547567650559793
0.01159396767616272,0.02970387041568756,9.870944023132324,0.0022213421761989594,-0.0014406070113182068,0.0008440017700195312,-0.027096107489381054,0.024463869977134498,-0.021922686090239354
0.01159396767616272,0.025084974244236946,9.870944023132324,0.00203833170235157,-0.00607268325984478,0.000797271728515625,0.016098008821779582,-0.01873024633402614,-0.006273682165108773
0.011495397426187992,0.03429768979549408,9.880329132080078,-0.002257782965898514,-0.005530785769224167,0.0007085800170898438,0.017353749772857006,0.04104911674665929,-0.0651168090715066
0.013042805716395378,0.026583973318338394,9.866153717041016,0.007222502492368221,-0.005544891580939293,-0.004128456115722656,0.0345556879192399,0.021016145230585447,-0.004081705039743753
0.01159396767616272,0.03130143880844116,9.862959861755371,0.002326555550098419,0.004186965525150299,-0.004059791564941406,0.056780643230785376,0.06265732732049377,-0.04476433277864293
0.016239695250988007,0.02970387041568756,9.870944023132324,0.007100568152964115,-0.000934721902012825,0.0010194778442382812,0.07651639479625788,0.04230485769773671,0.05510325816037867
0.009899580851197243,0.03280043974518776,9.867555618286133,-0.002401254139840603,-0.0012929439544677734,-0.0085296630859375,0.055547207116216274,0.020718951960410556,-0.08298011496883036
0.008570889011025429,0.02365771122276783,9.870944023132324,-0.002255847677588463,-0.010817071422934532,0.0009365081787109375,0.00010717527303102039,0.003791875567267782,-0.004081705039743753
0.01159396767616272,0.026949668303132057,9.867530822753906,0.002318219281733036,-0.0011495109647512436,-0.0038204193115234375,0.10308065466487709,0.05984865214816403,-0.12615191310326945
0.01159396767616272,0.024912914261221886,9.866153717041016,0.0018926030024886131,-0.005976440384984016,-0.0035247802734375,0.016098008821779582,-0.03533779794005925,-0.0651168090715066
0.009679112583398819,0.02970387041568756,9.870944023132324,-0.00290729571133852,-0.0009431876242160797,0.0012884140014648438,-0.02054250096011415,0.005664334575629754,-0.028476295954559562
0.00960562378168106,0.03051813691854477,9.868142127990723,0.001887892372906208,0.0033401809632778168,-0.00363922119140625,-0.019606271455933164,0.06763568145178682,-0.029412525458740547
0.015228289179503918,0.036972519010305405,9.870944023132324,0.006516585126519203,0.007942236959934235,0.0009031295776367188,0.016098008821779582,0.07386977653415729,-0.004081705039743753
0.01159396767616272,0.03341168537735939,9.874651908874512,0.0021362854167819023,-0.0016913935542106628,0.0008068084716796875,-0.031138232116493112,-0.0049313699003227605,-0.159589290948052
0.01159396767616272,0.03235950320959091,9.87573528289795,0.0018741926178336143,-0.0016903653740882874,0.0051441192626953125,-0.01110527394063249,-0.01873024633402614,-0.12615191310326945
0.009385155513882637,0.02749505639076233,9.86136245727539,0.0021061738952994347,-0.0017095878720283508,-0.008996963500976562,0.048993613927162595,0.04230485769773671,-0.09325632133809966
0.008675341494381428,0.03741345554590225,9.865217208862305,-0.00237925723195076,0.007807042449712753,-0.003631591796875,0.016098008821779582,0.09141354430415816,-0.0770432198267414
0.007665708661079407,0.02970387041568756,9.86308765411377,0.0019376352429389954,-0.0018242374062538147,0.0015354156494140625,0.016098008821779582,-0.01873024633402614,-0.026062581140060444
0.00923823844641447,0.02726864442229271,9.861283302307129,-0.002745751291513443,-0.001625649631023407,-0.0026073455810546875,0.016098008821779582,0.013306435802801326,-0.0641040534341737
0.013955828733742237,0.0320657342672348,9.863791465759277,0.006563534960150719,0.003261663019657135,-0.007109642028808594,-0.04579360359994551,0.012215553206729797,-0.09606260861226254
0.015668954700231552,0.03377886116504669,9.874303817749023,0.006447283551096916,0.0032494235783815384,0.00711822509765625,0.016098008821779582,0.04230485769773671,-0.0651168090715066
0.015742318704724312,0.0338522233068943,9.871586799621582,0.0021063005551695824,-0.0015995725989341736,0.007110595703125,0.016098008821779582,-0.06339229302778417,-0.0651168090715066
0.006803013384342194,0.03191900625824928,9.873519897460938,-0.003007076680660248,-0.001704774796962738,0.006789207458496094,-0.012122038312038803,-0.05154532991239705,-0.06971183217584591
0.01159396767616272,0.035002242773771286,9.868295669555664,0.0013521108776330948,-0.0014965124428272247,0.0016546249389648438,0.04984770773853153,-0.08622967084795649,-0.0651168090715066
0.01159396767616272,0.03399895131587982,9.870944023132324,0.0008992878720164299,0.0029459148645401,0.0017261505126953125,0.016098008821779582,-0.06713080774216122,-0.07143409372353371
0.006803013384342194,0.029281381517648697,9.866998672485352,-0.0036518005654215813,-0.006578607484698296,0.0062007904052734375,0.02148038465073475,-0.013347870505070972,-0.0651168090715066
0.009598989970982075,0.03169884905219078,9.868948936462402,0.0012117810547351837,-0.0019499734044075012,0.0015506744384765625,0.041513329486382144,-0.01873024633402614,-0.05491235303905549
0.013515455648303032,0.02970387041568756,9.866153717041016,0.006072908639907837,-0.0015293899923563004,-0.0031538009643554688,0.016098008821779582,0.04230485769773671,-0.04063771457603172
0.01159396767616272,0.03421931713819504,9.870944023132324,0.0014411946758627892,0.00338900089263916,0.0014581680297851562,-0.04493709520998326,-0.015220329513432945,-0.06160690559112663
0.012273517437279224,0.02970387041568756,9.872994422912598,0.00586202647536993,-0.0009166281670331955,0.0061244964599609375,0.016098008821779582,-0.01873024633402614,-0.004081705039743753
0.009819458238780499,0.03147837892174721,9.870944023132324,0.0015063853934407234,-0.001046186313033104,0.0014400482177734375,-0.02233046305792366,0.026483017970093073,-0.042510176919446994
0.009892947971820831,0.026613933965563774,9.869243621826172,-0.0032743802294135094,-0.001339571550488472,-0.0029878616333007812,0.05943881411753682,0.020634455049858093,-0.10845761436726384
0.016384921967983246,0.025022998452186584,9.870999336242676,0.006459255702793598,0.0031465142965316772,0.006186485290527344,-0.10456976930607209,0.04300607266557372,-0.0047829200075807645
0.01159396767616272,0.02970387041568756,9.86940860748291,0.0013140244409441948,-0.0013704635202884674,-0.0035047531127929688,0.03683219530569044,-0.039464432817937,-0.04555005132713902
0.016384921967983246,0.029685422778129578,9.866190910339355,0.00612775981426239,-0.0015961676836013794,-0.0033502578735351562,0.015863007625648833,-0.07929537465395393,-0.12591689856692548
0.006803013384342194,0.029501549899578094,9.872406959533691,-0.002984125167131424,-0.01073463074862957,-0.0037479400634765625,0.03730219769795194,0.10333996172949957,-0.02270840463873544
0.009856052696704865,0.027965955436229706,9.867891311645508,0.002043801359832287,-0.0012261196970939636,-0.0037326812744140625,0.06037887226291272,0.03691866656779986,0.012672535550885962
0.014977860264480114,0.02970387041568756,9.874327659606934,0.002249983139336109,-0.0011733528226613998,0.001102447509765625,0.016098008821779582,0.060230342328891386,-0.039932674302053106
0.011832883581519127,0.025151830166578293,9.87525749206543,0.002162965014576912,-0.005776653066277504,0.005646705627441406,0.016098008821779582,0.03926115464884978,-0.06207310602261967
0.006803013384342194,0.02781897597014904,9.869059562683105,-0.002644633874297142,-0.005746625363826752,-0.0038957595825195312,0.07713311285354243,-0.01873024633402614,-0.10213902237434092
0.010719778947532177,0.027745487168431282,9.867027282714844,-0.0026075178757309914,-0.0007648058235645294,0.0006656646728515625,0.041047142395102335,0.00621888723929661,-0.10120279287015993
0.015198328532278538,0.0333082340657711,9.870944023132324,0.001886473037302494,-0.0006529167294502258,0.0008630752563476562,0.016098008821779582,0.02718804823891177,-0.0651168090715066
0.011134583503007889,0.025372298434376717,9.866613388061523,0.0013157026842236519,-0.005242092534899712,-0.0036306381225585938,0.027802791944639364,-0.01873024633402614,-0.0651168090715066
0.01696515642106533,0.034494828432798386,9.865572929382324,0.0009228065609931946,0.0035106949508190155,0.0012960433959960938,0.042919601403464305,0.01548326511605199,-0.0651168090715066
0.008981864899396896,0.02709176577627659,9.868765830993652,-0.0034717293456196785,-0.006239790469408035,0.0014467239379882812,0.07713311285354243,0.09009563795946304,-0.0651168090715066
0.01159396767616272,0.03352870047092438,9.87573528289795,0.0015678005293011665,-0.0011104121804237366,0.005948066711425781,0.003789901215710825,0.04230485769773671,-0.028697913581774658
0.007482865359634161,0.03381497412919998,9.871623992919922,-0.0025886138901114464,0.0031854547560214996,0.0010404586791992188,0.016098008821779582,0.14705290561331671,-0.10882975295532375
0.01159396767616272,0.03216899558901787,9.868339538574219,0.0020731016993522644,-0.0016670376062393188,0.0058498382568359375,0.016098008821779582,0.010900021419988318,-0.033711976128811515
0.01159396767616272,0.032856535166502,9.870124816894531,0.002312854863703251,0.0032702554017305374,0.0011014938354492188,0.02653365741948637,0.10333996172949957,-0.11571626450556266
0.00829432811588049,0.02565857209265232,9.869452476501465,0.006675138138234615,-0.002104010432958603,-0.008330345153808594,-0.01643885126961909,-0.01873024633402614,-0.11665249400974365
0.019375242292881012,0.028803549706935883,9.86914348602295,0.011396730318665504,-0.002118956297636032,0.0011148452758789062,0.016098008821779582,0.03083507577100768,-0.05364703714993749
0.01159396767616272,0.031646888703107834,9.863607406616211,0.0018988586962223053,-0.007042502984404564,-0.007945060729980469,0.016098008821779582,0.07090099212272892,-0.0651168090715066
0.01159396767616272,0.024464471265673637,9.873563766479492,0.00163973867893219,-0.002086389809846878,0.0013437271118164062,0.04947207401460728,0.020356818532267652,-0.09849086759422769
0.01159396767616272,0.02169804275035858,9.866153717041016,0.0015098769217729568,0.0031778551638126373,-0.0034198760986328125,0.009405090445828221,0.03561193932178535,-0.05842389069555524
0.007923546247184277,0.03225376084446907,9.874614715576172,-0.003234836272895336,0.00335497222840786,0.006137847900390625,0.030373210908812016,-0.01873024633402614,-0.050841613654580786
0.01159396767616272,0.024912914261221886,9.870944023132324,0.0015114620327949524,-0.005936110392212868,0.0012731552124023438,-0.03342050247505585,0.03654655466016639,-0.05935851937414951
0.010400071740150452,0.02970387041568756,9.868541717529297,0.0016920408234000206,-0.0012237094342708588,-0.0032320022583007812,0.016098008821779582,0.0727245192289901,0.011128125725882943
0.01159396767616272,0.03538345545530319,9.868992805480957,0.0019913939759135246,0.008049434050917625,0.0015249252319335938,0.04095517496514517,0.006126919809339446,-0.0651168090715066
0.00971616804599762,0.02782606892287731,9.86906623840332,-0.002970772795379162,-0.0056687649339437485,-0.0032911300659179688,-0.06885961933454136,0.04230485769773671,-0.014814173381655195
0.01159396767616272,0.02970387041568756,9.866153717041016,0.0018015699461102486,-0.0007216110825538635,-0.0031890869140625,0.010189201498630975,0.04230485769773671,-0.0651168090715066
0.011276883073151112,0.029862413182854652,9.861520767211914,-0.007675320841372013,0.003942921757698059,-0.0030975341796875,0.016098008821779582,0.03624554608900982,-0.0651168090715066
0.009777717292308807,0.031191224232316017,9.866153717041016,-0.0030114082619547844,-0.0011887867003679276,-0.002899169921875,0.016098008821779582,0.00021811248619083687,-0.0651168090715066
0.006803013384342194,0.02970387041568756,9.86928653717041,-0.00305945985019207,-0.0013629943132400513,0.0019426345825195312,0.07713311285354243,-0.03984836415448576,-0.08391570414277666
0.0131781455129385,0.024912914261221886,9.867737770080566,0.0063209692016243935,-0.006193829700350761,0.001621246337890625,-0.004083866154285827,0.0014516286420392724,-0.024263580015809163
0.016384921967983246,0.029765671119093895,9.86609172821045,0.006227059289813042,-0.0011290255934000015,-0.00308990478515625,-0.04414978250600707,-0.01873024633402614,-0.0651168090715066
0.014677143655717373,0.02832847274839878,9.867860794067383,0.0008105579763650894,0.0033222995698451996,0.0020198822021484375,0.020332405942070145,-0.040486773398470385,-0.04759470580777936
0.006803013384342194,0.02970387041568756,9.873953819274902,-0.0038879085332155228,-0.0015147868543863297,0.0062122344970703125,0.0387907520501916,0.04230485769773671,-0.10345918321507067
0.016384921967983246,0.02970387041568756,9.874371528625488,0.00583178736269474,-0.0015505552291870117,0.006053924560546875,0.016098008821779582,0.08596678860619034,-0.0651168090715066
0.007085281889885664,0.02970387041568756,9.861644744873047,-0.003212142735719681,-0.0012781228870153427,-0.008281707763671875,0.07713311285354243,0.03870884314100433,-0.0651168090715066
0.006803013384342194,0.026841161772608757,9.866153717041016,-0.0031613903120160103,-0.001180177554488182,-0.0034942626953125,0.06447263685540977,0.04230485769773671,-0.05321208616791858
0.01159396767616272,0.02970387041568756,9.868155479431152,0.0017254212871193886,-0.0006053280085325241,-0.0035076141357421875,-0.05496936244026262,-0.00869800578417323,-0.03961538733571155
0.007946254685521126,0.0271993987262249,9.869800567626953,0.0018303664401173592,0.004152556881308556,-0.0036077499389648438,0.016098008821779582,0.10333996172949957,-0.05055231112052711
0.016384921967983246,0.025415651500225067,9.87144660949707,0.0067480215802788734,-0.005179909989237785,0.001186370849609375,0.022502698550841697,0.04230485769773671,-0.0651168090715066
0.0142362080514431,0.030197396874427795,9.870944023132324,0.00173871498554945,-0.0055564995855093,0.0009374618530273438,0.049759235444438714,0.04230485769773671,-0.004081705039743753
0.01159396767616272,0.034494828432798386,9.873513221740723,0.0017495276406407356,0.00399627722799778,0.005236625671386719,-0.012212111431718345,0.013994737444238783,-0.004081705039743753
0.007725785952061415,0.03154941648244858,9.877758026123047,0.0013875095173716545,0.008480308577418327,-0.004248619079589844,0.00434221272355627,-0.01873024633402614,-0.0651168090715066
0.010870763100683689,0.030427075922489166,9.87573528289795,0.0016341730952262878,-0.0011629778891801834,0.0045166015625,0.058706356370332294,0.04230485769773671,-0.055903427494848223
0.016384921967983246,0.03207305446267128,9.873366355895996,0.00641267467290163,0.0035105235874652863,-0.0004968643188476562,0.04628058808363949,0.010782334058937824,-0.0651168090715066
0.006803013384342194,0.034494828432798386,9.873292922973633,-0.0030842795968055725,0.003286687657237053,0.003962516784667969,0.016098008821779582,-0.04864767551787203,-0.0651168090715066
0.010891491547226906,0.03308987617492676,9.871646881103516,-0.0024922676384449005,-0.0062173157930374146,0.0038957595825195312,0.07713311285354243,0.10333996172949957,-0.0651168090715066
0.01159396767616272,0.034494828432798386,9.870944023132324,0.0019994257017970085,0.0029374025762081146,-0.0010519027709960938,0.02811682056390128,0.04230485769773671,-0.01610052345197206
0.011206298135221004,0.02970387041568756,9.87573528289795,-0.0030553434044122696,-0.0017745047807693481,0.0034627914428710938,-0.04493709520998326,-0.01873024633402614,-0.037068647250009155
0.01159396767616272,0.02546866238117218,9.86670970916748,0.0016732411459088326,-0.0063672419637441635,-0.005877494812011719,0.016098008821779582,0.03522480633406314,-0.0651168090715066
0.01159396767616272,0.033530060201883316,9.875252723693848,0.0011009527370333672,-0.006174115464091301,-0.0010890960693359375,0.009952599476913501,0.09719455238463348,-0.12000650375840337
0.0056395018473267555,0.03216780722141266,9.87210750579834,-0.0036383364349603653,0.0028749220073223114,-0.001094818115234375,0.016098008821779582,0.025737887020326995,-0.018904416157861464
0.01159396767616272,0.03251327574253082,9.868962287902832,0.0016560843214392662,0.003061104565858841,-0.0009717941284179688,0.016098008821779582,-0.04397454546511393,-0.0651168090715066
0.01604926586151123,0.02970387041568756,9.870944023132324,0.006413263268768787,-0.001971263438463211,-0.0008916854858398438,0.13389206489762773,0.03802870571005916,-0.0651168090715066
0.006803013384342194,0.02970387041568756,9.866678237915039,-0.0025989264249801636,-0.0017753317952156067,0.0034885406494140625,0.01943951879064965,0.15435050917422577,-0.06177528576242331
0.012977568432688713,0.0317276231944561,9.87232780456543,0.0027013784274458885,0.003067485988140106,-0.00078582763671875,0.016098008821779582,0.04230485769773671,-0.0474902085825528
0.012087393552064896,0.02667437307536602,9.869182586669922,-0.0023530516773462296,-0.00615505687892437,-0.0005693435668945312,0.054692739778877106,0.04230485769773671,-0.10371153335849752
0.01159396767616272,0.024912914261221886,9.8662691116333,0.002345212735235691,-0.005659673362970352,-0.005306243896484375,-0.04493709520998326,-0.0172579937223446,-0.0651168090715066
0.011551791802048683,0.02970387041568756,9.870944023132324,-0.002410636283457279,-0.0007842760533094406,-0.0003376007080078125,-0.043862474333830184,0.10280264462131641,-0.12507729222711636
0.01159396767616272,0.028100067749619484,9.867756843566895,0.0025922199711203575,-0.00048198923468589783,-0.004574775695800781,0.016098008821779582,0.04230485769773671,0.016350172202221316
0.009885363280773163,0.02970387041568756,9.866153717041016,-0.0022259652614593506,-0.0007624123245477676,-0.0042095184326171875,0.035732054601642374,0.0619389034775995,-0.10651787399351328
0.009738384746015072,0.02784828655421734,9.870944023132324,0.006756344810128212,0.003746597096323967,0.000518798828125,0.016098008821779582,-0.07843023514603661,-0.0651168090715066
0.01592354103922844,0.03099326603114605,9.869193077087402,-0.002777966670691967,-0.005796156823635101,-0.004180908203125,0.016098008821779582,0.04230485769773671,-0.0651168090715066
0.00862728338688612,0.029022017493844032,9.865011215209961,-0.0025162650272250175,0.003725944086909294,-0.008394241333007812,-0.021696536125581853,0.06554543012235135,-0.10291134734876142
0.015064215287566185,0.026233620941638947,9.866153717041016,0.006708166562020779,-0.005243461579084396,-0.0033416748046875,-0.0007273351053270219,0.04230485769773671,-0.048291458474293385
0.01159396767616272,0.02109776996076107,9.87061882019043,0.0018489379435777664,-0.009710494428873062,0.0017156600952148438,0.020241852574714586,0.09919611797656457,-0.008225542122572142
0.005954551510512829,0.0364660769701004,9.868124961853027,0.0020173462107777596,0.008877746760845184,0.0016584396362304688,0.016098008821779582,-0.04034835534607185,-0.07592586357752945
0.01842966303229332,0.02970387041568756,9.8716459274292,0.006634313613176346,-0.0008109249174594879,0.006396293640136719,0.0860696950109901,-0.009793664176578478,-0.0651168090715066
0.00790325179696083,0.034494828432798386,9.870944023132324,0.0013549095019698143,0.003833940252661705,0.0016012191772460938,0.016098008821779582,0.02828818894295984,-0.0651168090715066
0.015839211642742157,0.029158158227801323,9.870944023132324,0.006292435340583324,-0.0010808631777763367,0.0014333724975585938,0.02305018090150053,0.035352685618015765,-0.0651168090715066
0.01159396767616272,0.034494828432798386,9.870944023132324,0.0017363084480166435,0.0031612813472747803,0.0012807846069335938,0.07713311285354243,0.014384565155031972,-0.03719651652880186
0.009328998625278473,0.034494828432798386,9.870944023132324,0.0021103322505950928,0.0028433725237846375,0.0013952255249023438,0.016098008821779582,0.013449923136224484,-0.036261884515154295
0.007683104835450649,0.025793006643652916,9.87270450592041,0.0018751928582787514,-0.001966603100299835,0.010468482971191406,-0.02251297051502316,-0.01873024633402614,-0.015293767387223805
0.005271406844258308,0.03372902423143387,9.8797607421875,-0.002709311433136463,0.002688571810722351,0.00984954833984375,0.035610125052787066,0.07407177404277512,-0.0651168090715066
0.01159396767616272,0.027292173355817795,9.870944023132324,0.002185950055718422,-0.006800355389714241,-0.00000858306884765625,0.046408920934841676,0.04230485769773671,-0.0651168090715066
0.009288073517382145,0.02739797532558441,9.87573528289795,-0.002384595572948456,-0.006680196151137352,0.0041408538818359375,-0.010995750790074277,-0.016447735851625393,-0.06739933289412058
0.014404922723770142,0.025572914630174637,9.871603965759277,-0.0065662553533911705,-0.0019113793969154358,0.0038051605224609375,-0.03652893223849923,0.10333996172949957,-0.020898037652818436
0.012579862028360367,0.024912914261221886,9.872916221618652,0.0029712924733757973,-0.006634743884205818,-0.0011320114135742188,0.0035380646704930505,0.04230485769773671,-0.029201613352636654
0.009434801526367664,0.031390417367219925,9.866153717041016,0.002511562779545784,-0.006352493539452553,-0.005784034729003906,0.010076956944575336,-0.01873024633402614,-0.0651168090715066
0.00888881552964449,0.030323222279548645,9.878440856933594,0.0022064847871661186,-0.005997693166136742,0.0035190582275390625,0.016098008821779582,0.06887725509642174,-0.03854441167282156
0.007242921274155378,0.038405969738960266,9.866593360900879,0.0022583268582820892,-0.0016437806189060211,-0.0015506744384765625,-0.03372854133858078,0.036700580762035466,-0.11494335923186697
0.01159396767616272,0.024912914261221886,9.873323440551758,0.001982811838388443,-0.006483627483248711,0.0033960342407226562,0.03146185234906213,-0.003366402806743589,-0.004081705039743753
0.01159396767616272,0.032555751502513885,9.86809253692627,0.0019208593294024467,0.003196440637111664,-0.0059070587158203125,0.016098008821779582,0.06700799773923322,-0.0898199424428965
0.007096193730831146,0.02970387041568756,9.870944023132324,-0.0022918637841939926,-0.0018680095672607422,-0.0010242462158203125,0.023568047978805014,0.10333996172949957,-0.0613817961631005
0.0070228297263383865,0.03427501022815704,9.866373062133789,0.002624788321554661,-0.001988239586353302,-0.0010480880737304688,-0.04213671765027804,0.0977392066100891,-0.062316424841694765
0.01302004512399435,0.03306875005364418,9.867579460144043,0.002256386913359165,0.002557717263698578,-0.0053462982177734375,-0.002069734081498981,0.024137114794458146,-0.040417180841140966
0.021029431372880936,0.02970387041568756,9.870944023132324,0.011258814483880997,-0.002065218985080719,-0.0005254745483398438,0.014232246600455398,-0.01873024633402614,-0.12615191310326945
0.01159396767616272,0.020268134772777557,9.861581802368164,0.0014445818960666656,-0.0023719146847724915,0.004314422607421875,0.017029129024296284,0.1615817051537123,-0.0651168090715066
0.01002116221934557,0.02970387041568756,9.871016502380371,0.001554899848997593,-0.0021039098501205444,0.0046100616455078125,0.016098008821779582,0.002230857176802524,-0.04507980881103951
0.01159396767616272,0.02813161537051201,9.869297981262207,0.001568485051393509,-0.006642373278737068,0.004742622375488281,0.07713311285354243,0.12431509914463848,-0.08609194648664553
0.021028604358434677,0.029851149767637253,9.870944023132324,0.011150426231324673,-0.001728452742099762,-0.0000476837158203125,0.0761949756988706,0.10240182457482773,-0.0651168090715066
0.01159396767616272,0.03621436282992363,9.864434242248535,0.0015742303803563118,0.007396001368761063,-0.009102821350097656,-0.005808248795876039,0.05952744649418832,-0.0651168090715066
0.013019494712352753,0.02970387041568756,9.869518280029297,0.000999712385237217,-0.0021867863833904266,0.0008211135864257812,0.04081166095129556,-0.061604651095092,-0.12615191310326945
0.00950733944773674,0.03179050236940384,9.876469612121582,0.005839182063937187,-0.006814153864979744,-0.0035390853881835938,0.016098008821779582,0.04230485769773671,-0.004081705039743753
0.007390474900603294,0.029410138726234436,9.870944023132324,-0.0033966712653636932,-0.0020600557327270508,0.0011234283447265625,0.012355972291111739,0.04604689422840456,-0.004081705039743753
0.008742637932300568,0.03255520388484001,9.864213943481445,-0.0032955314964056015,0.003040444105863571,-0.00362396240234375,-0.02022693821633163,0.053919647742196285,-0.004081705039743753
0.015179486945271492,0.02970387041568756,9.866153717041016,0.006175035610795021,-0.0015711002051830292,-0.0032415390014648438,0.016098008821779582,0.05766168427286413,-0.034795364860105205
0.010461915284395218,0.02857181802392006,9.8734712600708,-0.002888547256588936,-0.006458783522248268,-0.0032739639282226562,0.030519979934687955,0.010113669211364154,-0.11172995533057431
0.007316938601434231,0.02594076469540596,9.866153717041016,-0.0027789250016212463,-0.006380310282111168,-0.003421783447265625,0.07058586960598275,0.04230485769773671,-0.11305745328857653
0.009434064850211143,0.02970387041568756,9.868313789367676,0.001725388690829277,-0.0014943145215511322,-0.0032749176025390625,0.01009573996479287,0.03630258884075,-0.037600391484118534
0.01159396767616272,0.028718797490000725,9.876720428466797,0.0023298906162381172,-0.0018582232296466827,0.0057544708251953125,0.11306921935663894,0.13927606823259606,-0.07766630783583978
0.01159396767616272,0.03358324244618416,9.866153717041016,0.0022755907848477364,-0.0019533149898052216,-0.003922462463378906,0.016098008821779582,-0.030343515594178326,-0.0651168090715066
0.008271800354123116,0.030438264831900597,9.874266624450684,-0.0025455038994550705,-0.0015210788697004318,0.0055561065673828125,-0.04493709520998326,0.023593020857957874,-0.0651168090715066
0.009183384478092194,0.02970387041568756,9.868563652038574,-0.002474782057106495,-0.00147276371717453,0.0008287429809570312,0.015713116989878786,0.042689749529637507,-0.0651168090715066
0.015620316378772259,0.02970387041568756,9.870944023132324,0.006811671890318394,-0.0014164689928293228,0.000988006591796875,0.016098008821779582,0.052045667949526926,-0.004081705039743753
0.010211542248725891,0.02970387041568756,9.86684513092041,-0.007238464429974556,-0.001264527440071106,0.0010080337524414062,0.06832731814652994,-0.01873024633402614,-0.01288751308696947
0.00775769492611289,0.026822278276085854,9.869989395141602,-0.0020775962620973587,-0.005927678197622299,0.001018524169921875,0.06497078709757113,-0.00656792057805484,-0.0651168090715066
0.008993391878902912,0.02710329368710518,9.866153717041016,0.002673371694982052,-0.0011501088738441467,-0.0034656524658203125,0.016098008821779582,0.03707909597201582,-0.0598910406756791
0.01584043726325035,0.03395034372806549,9.866153717041016,0.007019621320068836,0.0037751849740743637,-0.0032215118408203125,0.016098008821779582,-0.01873024633402614,-0.05818026505157602
0.011122846975922585,0.02970387041568756,9.861833572387695,-0.0024008722975850105,-0.0013628602027893066,-0.0033740997314453125,0.02209993083322251,0.04230485769773671,-0.12615191310326945
0.006803013384342194,0.02970387041568756,9.868197441101074,-0.0022266432642936707,-0.0012321416288614273,-0.0031042098999023438,-0.009937391633839646,0.007305154121593091,-0.0651168090715066
0.01159396767616272,0.02970387041568756,9.870094299316406,0.0022732624784111977,-0.001450963318347931,0.006793022155761719,0.03036523346130485,-0.007896712536739663,-0.004081705039743753
0.011918360367417336,0.02970387041568756,9.866153717041016,0.0021944232285022736,-0.0014050789177417755,-0.002490997314453125,0.020230673476033977,-0.01873024633402614,-0.008214363023891537
0.016384921967983246,0.02970387041568756,9.870944023132324,0.006946878507733345,-0.0014859065413475037,0.0020608901977539062,0.07713311285354243,0.09694391645860574,-0.06831483170695352
0.012737803161144257,0.027880311012268066,9.869120597839355,0.006843837909400463,-0.001309143379330635,0.0020227432250976562,-0.02170558079014683,0.0045012814260235205,-0.04188529131661686
0.014634726569056511,0.02666310966014862,9.86440372467041,0.0017485544085502625,-0.0017167627811431885,-0.007390022277832031,-0.0003433237274989222,0.02000797195649454,-0.0651168090715066
0.016176318749785423,0.025121517479419708,9.875422477722168,0.006201867945492268,-0.006304880604147911,0.0071239471435546875,0.016098008821779582,-0.01873024633402614,-0.005410470318002132
0.008510779589414597,0.0281622763723135,9.872486114501953,0.0010501425713300705,-0.0016046203672885895,0.0022726058959960938,0.03785440248409161,0.0009091088506992753,-0.001964679902370367
0.01159396767616272,0.028119850903749466,9.86773681640625,0.0014795837923884392,-0.006183858960866928,0.002166748046875,0.07713311285354243,0.0016973820500275048,-0.08554443078545364
0.013124071061611176,0.0266436617821455,9.864623069763184,0.006342841312289238,-0.011006120592355728,-0.0071315765380859375,-0.04493709520998326,0.022811871332490557,-0.10665892006791669
0.01159396767616272,0.02970387041568756,9.870712280273438,-0.007577265612781048,-0.0015198476612567902,0.0023775100708007812,0.055624500311628494,0.045795617972142134,-0.10464329389124889
0.006803013384342194,0.0314655564725399,9.860095024108887,-0.002564576454460621,-0.0011448077857494354,-0.011597633361816406,0.032246603732099574,0.06474811225845814,-0.0651168090715066
0.01159396767616272,0.028320493176579475,9.864129066467285,0.0021744510158896446,-0.0010227467864751816,-0.006712913513183594,-0.009689637193868011,-0.06214162135773136,-0.0651168090715066
0.01724584586918354,0.02970387041568756,9.867463111877441,-0.0022939778864383698,-0.0010874401777982712,0.00244140625,0.03278712249145617,-0.0020411326643495526,-0.09277371244434272
0.014476509764790535,0.030678002163767815,9.871918678283691,0.0018202848732471466,-0.006066126748919487,-0.0024175643920898438,0.07713311285354243,-0.006320166138083205,-0.004081705039743753
0.01159396767616272,0.034494828432798386,9.868135452270508,0.0017136139795184135,0.0034171845763921738,-0.0022916793823242188,-0.04493709520998326,0.07809280779278212,-0.0651168090715066
0.015221637673676014,0.03216825798153877,9.866153717041016,0.006393986754119396,0.0034572873264551163,-0.0020437240600585938,0.016098008821779582,0.04230485769773671,-0.05029696943428508
0.01159396767616272,0.030186479911208153,9.866153717041016,0.0015716049820184708,-0.0013765301555395126,-0.0017518997192382812,0.022246299652701765,-0.01873024633402614,-0.010229982530452712
0.01425641868263483,0.028109313920140266,9.866153717041016,0.0017564799636602402,-0.010889878496527672,-0.0014410018920898438,-0.04493709520998326,0.13045637302340554,-0.0651168090715066
0.01418305467814207,0.02970387041568756,9.863564491271973,0.006402483209967613,-0.0014638006687164307,-0.005934715270996094,0.02103103290854196,0.04230485769773671,-0.03213273834213738
0.01159396767616272,0.03355163335800171,9.863248825073242,0.001861688680946827,0.0034659821540117264,-0.005809783935546875,0.016098008821779582,-0.006714289397534097,0.008889597926477377
0.0075057148933410645,0.024912914261221886,9.865450859069824,-0.0028981463983654976,-0.0061551108956336975,-0.0009355545043945312,0.06818094932705068,-0.01873024633402614,-0.11719973623656448
0.004548178054392338,0.02970387041568756,9.866059303283691,-0.012098054401576519,-0.000878969207406044,0.003947257995605469,-0.015016797880294499,0.07222514168721225,-0.09384259035870345
0.01159396767616272,0.027387838810682297,9.870997428894043,0.0025596357882022858,-0.010743455961346626,-0.0010089874267578125,0.04695293483006262,0.07248503572121653,-0.0651168090715066
0.006803013384342194,0.02970387041568756,9.866153717041016,-0.0022030556574463844,-0.0013710930943489075,-0.001178741455078125,-0.07833602656025804,-0.07976537704621543,-0.0651168090715066
0.01159396767616272,0.03062666393816471,9.86707592010498,0.002439415082335472,-0.000988757237792015,-0.00118255615234375,0.06537704995105467,-0.10553226569008854,-0.053360746169018834
