Accelerometer_Gx,Accelerometer_Gy,Accelerometer_Gz,Accelerometer_X,Accelerometer_Y,Accelerometer_Z,Gyroscope_Z,Gyroscope_X,Gyroscope_Y
0.00359568209387362,0.03291120007634163,9.883733749389648,0.016165737062692642,-0.007822751998901367,-0.0011053085327148438,-0.008201616450157264,0.03371704207478283,0.03032681364722353
-0.0010871710255742073,0.034494828432798386,9.886724472045898,0.004086225293576717,-0.0014248192310333252,0.007328033447265625,-0.008201616450157264,0.05302518644561551,-0.009156212092892576
0.0020120516419410706,0.03288539871573448,9.883708000183105,0.0072275083512067795,-0.005899462848901749,-0.0025081634521484375,0.012064141786652365,0.03380791560725573,-0.03070829038453932
-0.0010885739466175437,0.033084530383348465,9.886727333068848,0.005966258700937033,0.0039131417870521545,-0.0024890899658203125,0.049265967720316856,0.11407816636309676,-0.009174084643557665
0.0020120516419410706,0.034494828432798386,9.885271072387695,0.00541047565639019,-0.0008824244141578674,0.0019855499267578125,-0.06805764573623344,0.013542157370446102,-0.03129782775738266
0.005205233581364155,0.0360926054418087,9.878931045532227,0.0051732962019741535,0.004364322870969772,0.0024709701538085938,-0.028556754115558858,-0.006782698010940006,0.0099716843194552
0.0020120516419410706,0.034494828432798386,9.887009620666504,0.004805447533726692,-0.00045606493949890137,0.0074558258056640625,0.05466267093827318,-0.0061931406277768355,-0.03070829038453932
0.005324489902704954,0.03928578644990921,9.877213478088379,0.004674649331718683,0.004270907491445541,-0.0021533966064453125,-0.008201616450157264,0.09794067051017803,0.0725260702170895
-0.002613371005281806,0.03466036170721054,9.880692481994629,-0.0001675277017056942,-0.0004050210118293762,-0.0019311904907226562,-0.006092795543915827,0.011433336464204665,0.028217999411088705
0.006803013384342194,0.03630441427230835,9.877545356750488,0.008852250874042511,0.003936983644962311,-0.0018444061279296875,0.02977999830722583,0.036595646644825855,-0.09174339441630217
0.004686687141656876,0.034494828432798386,9.880526542663574,0.0033939338754862547,-0.0007447116076946259,-0.0015697479248046875,-0.008201616450157264,0.07457726140220895,-0.06478219650324209
0.0032787679228931665,0.03576154261827469,9.877001762390137,0.007752751465886831,0.003993552178144455,-0.0016431808471679688,-0.053099211288788174,0.07457726140220895,0.0015667179965646485
0.0020120516419410706,0.030081208795309067,9.884563446044922,0.003128793789073825,-0.005428757518529892,0.0033121109008789062,0.043219142551166385,0.06977008888698935,-0.03070829038453932
0.0020120516419410706,0.031725265085697174,9.87775707244873,0.003183096181601286,-0.0001682676374912262,-0.0010700225830078125,-0.008201616450157264,0.06504583913716194,-0.00495645450376136
0.0020120516419410706,0.030829381197690964,9.876860618591309,0.0031525692902505398,-0.0003332458436489105,-0.001140594482421875,0.006136978330109347,0.013542157370446102,-0.016369687266639444
0.006803013384342194,0.030740957707166672,9.876254081726074,0.007568349130451679,-0.005327172577381134,-0.00555419921875,0.046227413993733875,0.06797118781433724,-0.07853126058077198
0.009431370534002781,0.031866468489170074,9.878363609313965,0.006945011205971241,0.000006906688213348389,-0.005089759826660156,-0.06330308702196409,0.04702651944619893,-0.06419265913039876
0.004245254211127758,0.034494828432798386,9.873501777648926,0.0023223834577947855,0.00030501559376716614,-0.004039764404296875,0.020248576042178817,0.07871198044929964,-0.06742794098137661
0.00292575522325933,0.03358112648129463,9.87573528289795,0.006936184596270323,-0.004560571163892746,-0.0034570693969726562,0.07894783541907664,0.0862175045734974,-0.03070829038453932
0.0020120516419410706,0.02970387041568756,9.871674537658691,0.0019387935753911734,-0.004482179880142212,-0.008001327514648438,-0.06923672048192012,0.02284658256729597,-0.02140387019026941
0.004344125743955374,0.036869172006845474,9.87573528289795,0.0116789685562253,0.004875414073467255,-0.00286865234375,0.05283348758160559,0.044328968250014124,0.00007852216255535411
0.009247832000255585,0.03214868903160095,9.87573528289795,0.006811207626014948,-0.004241712391376495,-0.0023069381713867188,-0.008201616450157264,0.013542157370446102,0.0004378541459214937
0.0020120516419410706,0.02970387041568756,9.870944023132324,0.001848028157837689,-0.004084371030330658,-0.0067157745361328125,0.0007437435675909197,0.07457726140220895,0.03032681364722353
0.0020120516419410706,0.034494828432798386,9.879584312438965,0.001592680113390088,0.0008159391582012177,0.0032749176025390625,0.0037966246831750566,-0.023496464394652108,0.018328570846364557
0.004597828257828951,0.03190905228257179,9.87573528289795,0.006259286776185036,-0.003946244716644287,-0.001354217529296875,0.02474022583425556,-0.014551104376903923,0.002233558569980117
0.0014905104180797935,0.03501637279987335,9.870944023132324,0.0056886011734604836,-0.003460831940174103,-0.0059986114501953125,-0.06259242718316542,0.07457726140220895,0.003131411615772755
0.0025027880910784006,0.030194606631994247,9.880035400390625,0.0009755321079865098,-0.00334366038441658,0.0035762786865234375,-0.014453427335687451,0.055821855426044835,-0.03070829038453932
0.006382754072546959,0.0340745709836483,9.888847351074219,0.0007460413035005331,0.0013461969792842865,-0.0009870529174804688,-0.039853126610606256,0.07457726140220895,0.03032681364722353
0.004005806054919958,0.03250107541680336,9.873741149902344,0.0007899752818048,0.0011129789054393768,-0.001129150390625,0.07823320019673762,0.049177548787076926,0.004927112704778073
0.005858602933585644,0.034494828432798386,9.87573528289795,0.009889865294098854,0.0012438297271728516,-0.00113677978515625,-0.05720531557851621,-0.047492946661316746,0.005824965750570711
0.0020120516419410706,0.034215524792671204,9.880526542663574,0.0005598589777946472,0.001317054033279419,0.003513336181640625,0.04927525250871984,0.017100392443331846,-0.023591798560921345
0.00543834688141942,0.034494828432798386,9.881891250610352,0.00523789506405592,0.0010915659368038177,0.0036134719848632812,0.009183749628037497,0.013542157370446102,0.012941460909241993
-0.0009965823264792562,0.02970387041568756,9.87573528289795,-0.004299966152757406,-0.003891892731189728,-0.0014209747314453125,0.05991682063773193,-0.009163979432041483,-0.008002143576891819
0.006803013384342194,0.03415025398135185,9.87573528289795,0.005033266264945269,-0.008548891171813011,-0.0016355514526367188,-0.030009903541905518,0.07457726140220895,0.03032681364722353
0.006735139060765505,0.03928578644990921,9.88045883178711,0.004733888898044825,0.005384583026170731,0.00319671630859375,-0.06750733526037139,-0.046628260720649004,0.03032681364722353
0.0035881493240594864,0.03127996623516083,9.87415885925293,0.004547732416540384,0.000928245484828949,-0.005839347839355469,0.03275457237119283,0.11633183530451006,-0.009831005100915417
0.0003654793545138091,0.03284825384616852,9.866153717041016,-0.0001733275130391121,0.0009021684527397156,-0.009989738464355469,0.05283348758160559,0.05360049648105686,-0.03070829038453932
0.005302598234266043,0.03270469978451729,9.873945236206055,-0.00006578117609024048,0.005457114428281784,0.004534721374511719,-0.05012198252238986,-0.07029860145444554,0.011212075687693276
-0.0024916373658925295,0.04378947615623474,9.880382537841797,-0.004681896883994341,0.00968373566865921,0.004807472229003906,0.049173840207801016,0.07457726140220895,0.02849698662526794
0.0020120516419410706,0.03628251701593399,9.877523422241211,-0.000045192427933216095,0.004889529198408127,0.004673957824707031,0.014572875604883339,0.006253758556660698,-0.03070829038453932
0.0020120516419410706,0.03263653814792633,9.880526542663574,-0.0002671303227543831,0.00007284432649612427,0.0049304962158203125,0.039146268732576046,0.013542157370446102,0.006652866887040241
0.006803013384342194,0.03799717128276825,9.87573528289795,0.004151706583797932,0.004581864923238754,0.00000286102294921875,0.00821487662210061,-0.0028743357018117723,0.002124689089869816
-0.002423462923616171,0.03005930967628956,9.866864204406738,-0.00511625362560153,-0.004873484373092651,-0.009182929992675781,-0.0036734411542768187,0.013542157370446102,0.02579863501628978
0.004803517367690802,0.031703364104032516,9.87573528289795,-0.0006832587532699108,0.00004110485315322876,0.0001049041748046875,0.02736064391758682,-0.022020102997297984,-0.005235440050413944
0.004732914734631777,0.034494828432798386,9.877805709838867,0.003786996705457568,-0.0003241822123527527,0.0003509521484375,0.018170677750187554,0.013542157370446102,0.003954516111825405
0.0020120516419410706,0.033418022096157074,9.87573528289795,-0.0010877838358283043,-0.00488000363111496,0.0001964569091796875,-0.06923672048192012,-0.047492946661316746,-0.06430711815984935
0.009892309084534645,0.035062048584222794,9.876302719116211,0.008305422961711884,0.00006665661931037903,0.00030422210693359375,-0.015427796509472083,-0.04026676660200193,-0.03070829038453932
0.004223243799060583,0.03412625193595886,9.868364334106445,0.0031966993119567633,0.005227003246545792,-0.004250526428222656,-0.06923672048192012,-0.10383253576253385,-0.05887807159493464
0.004521344322711229,0.03221316263079643,9.86866283416748,0.003994408063590527,0.0008125118911266327,-0.0041790008544921875,-0.008201616450157264,-0.012625631361195015,0.0012591860611421799
0.0028773723170161247,0.034494828432798386,9.874870300292969,0.0034691444598138332,0.0010115168988704681,-0.00371551513671875,-0.008201616450157264,0.052529517483113575,-0.03070829038453932
0.006803013384342194,0.034494828432798386,9.874956130981445,0.003459750209003687,0.001015879213809967,0.0009613037109375,0.0017181127413755512,-0.047492946661316746,-0.07190392936312993
0.004434674978256226,0.029649587348103523,9.870944023132324,0.0034682867117226124,-0.008452063426375389,-0.00354766845703125,0.021970157238992264,0.014233714023909893,-0.0005365183629164435
0.004505151882767677,0.034494828432798386,9.875930786132812,-0.0013198493979871273,0.0008139386773109436,-0.0035467147827148438,0.05532077033697449,0.013542157370446102,-0.0014343714087090816
0.006803013384342194,0.03384093940258026,9.862016677856445,0.0032830671407282352,-0.00406266376376152,-0.008037567138671875,0.044503164754275897,0.00521183454311641,-0.022377972559789586
0.0020120516419410706,0.034494828432798386,9.870944023132324,-0.0018705357797443867,0.0007444471120834351,-0.0027818679809570312,-0.06923672048192012,-0.07068818904140071,-0.03070829038453932
0.004646105691790581,0.03018101677298546,9.870467185974121,0.00314297410659492,0.0009948797523975372,-0.007271766662597656,0.05283348758160559,0.04709903684527742,0.03640548857544315
-0.0027789026498794556,0.03658125922083855,9.868858337402344,-0.006269730627536774,0.005753602832555771,-0.007381439208984375,-0.04265635897594114,0.05587126757582165,-0.03070829038453932
0.006803013384342194,0.024912914261221886,9.87964153289795,0.003574586706236005,-0.007729442790150642,0.006999969482421875,-0.013838390145268959,-0.03058265225640811,0.07445162994418435
0.0044150762259960175,0.034494828432798386,9.869742393493652,-0.0010213647037744522,0.0017661415040493011,-0.002498626708984375,0.03752663344521033,0.013542157370446102,-0.09174339441630217
0.002912063617259264,0.02970387041568756,9.872889518737793,0.003197312355041504,-0.0029246583580970764,-0.0023660659790039062,-0.03298626519444436,-0.047492946661316746,0.05511147573172384
0.006200004834681749,0.03419332578778267,9.866455078125,-0.006419802084565163,-0.0027648545801639557,-0.0021076202392578125,-0.012042664043363849,0.009701109777239517,-0.08406127921956917
0.0041180807165801525,0.034494828432798386,9.872286796569824,0.0030725484248250723,0.001991257071495056,-0.0017604827880859375,-0.0179290864887248,0.03064471092832002,-0.057538307310874164
0.004998490680009127,0.02970387041568756,9.867958068847656,0.0032469637226313353,-0.0029806867241859436,-0.00647735595703125,-0.008201616450157264,0.051588312079400525,-0.053697246377454357
0.005068968050181866,0.034494828432798386,9.870944023132324,-0.0011858900543302298,0.0014842785894870758,-0.001636505126953125,-0.008201616450157264,0.07457726140220895,-0.008617184102363616
0.0020120516419410706,0.03467497602105141,9.870944023132324,-0.0010248511098325253,0.001119859516620636,-0.0013360977172851562,-0.008201616450157264,0.07342976294122036,-0.08944839082421839
0.006822609808295965,0.03922699764370918,9.875676155090332,0.008326340466737747,-0.00802573375403881,-0.010256767272949219,-0.06848776089095912,0.013292508620196847,0.09061295808802539
-0.0027789026498794556,0.03295261785387993,9.869319915771484,-0.005841836798936129,-0.0032372623682022095,-0.0005931854248046875,-0.008201616450157264,-0.007151795030385148,0.00963286374768226
0.0020120516419410706,0.03928578644990921,9.866153717041016,-0.001052669482305646,0.006080068647861481,-0.005062103271484375,-0.09147672355398077,-0.047492946661316746,-0.05010584086439041
0.0049163238145411015,0.034494828432798386,9.874282836914062,0.00830820295959711,0.00150395929813385,-0.0001201629638671875,0.03433378681249382,0.013542157370446102,-0.03070829038453932
0.0037773812655359507,0.03928578644990921,9.869178771972656,0.0033535361289978027,0.005551125854253769,-0.0048923492431640625,0.0753231394039155,-0.047492946661316746,-0.07568760069926576
0.006803013384342194,0.036330632865428925,9.86982536315918,0.0032955766655504704,0.005059659481048584,0.0048236846923828125,0.05283348758160559,0.013542157370446102,0.006939307945357651
0.005491830408573151,0.03318364545702934,9.870944023132324,-0.001624440774321556,-0.004478849470615387,-0.00009822845458984375,0.05283348758160559,-0.014084970646476997,-0.03070829038453932
0.0020120516419410706,0.03036944754421711,9.870611190795898,-0.0019081938080489635,-0.004195261746644974,-0.00021648406982421875,-0.012441216253604672,-0.047492946661316746,0.02608720717366951
0.0039888122119009495,0.033657390624284744,9.868130683898926,0.0024016285315155983,0.005541462451219559,0.00005817413330078125,-0.03338481740468518,-0.011641043584081811,-0.09174339441630217
0.004059289116412401,0.031751107424497604,9.872991561889648,-0.0024011130444705486,-0.0032478421926498413,-0.00007534027099609375,0.01787943421510998,-0.047492946661316746,-0.06566233708092832
0.005703261122107506,0.03339507803320885,9.870944023132324,0.0025557023473083973,0.001592639833688736,-0.00031566619873046875,-0.008201616450157264,0.07457726140220895,-0.0777329555411003
0.0020120516419410706,0.02970387041568756,9.870944023132324,-0.001844607526436448,-0.0030334927141666412,-0.00016689300537109375,-0.008201616450157264,0.12249978960972248,0.017214226150287636
0.0026267485227435827,0.034494828432798386,9.879911422729492,-0.001458173617720604,0.001739509403705597,0.00942230224609375,0.0450024622547744,0.07457726140220895,0.03032681364722353
0.0020120516419410706,0.027171580120921135,9.870944023132324,-0.001141723245382309,-0.0027686692774295807,-0.00026607513427734375,0.020573010027754423,0.04231678384835779,-0.059482903522237784
0.0020120516419410706,0.03203301504254341,9.873272895812988,-0.0008760909549891949,-0.0021771490573883057,-0.00024700164794921875,-0.10059936166524516,-0.047492946661316746,0.0006543474637324277
0.0020120516419410706,0.03846794366836548,9.868607521057129,-0.0011137181427329779,0.007396537810564041,-0.005385398864746094,-0.058817680449675565,-0.03707391996928542,0.03032681364722353
0.006803013384342194,0.035242196172475815,9.879032135009766,0.003985059447586536,0.007503833621740341,-0.0007867813110351562,0.05283348758160559,-0.028450592698732763,-0.03070829038453932
0.0020120516419410706,0.02970387041568756,9.87573528289795,-0.0008481552358716726,-0.0026351064443588257,0.0037107467651367188,0.05283348758160559,-0.036070522491528235,0.018904394480014977
0.00005186575072002597,0.02970387041568756,9.868403434753418,-0.010157421231269836,-0.0027065426111221313,-0.0011186599731445312,-0.008201616450157264,0.045908182691315115,-0.059377369095433154
0.0020120516419410706,0.03570765256881714,9.867366790771484,-0.000781551469117403,0.00175442174077034,-0.005915641784667969,-0.06151124292210679,-0.047492946661316746,-0.09174339441630217
0.003083922201767564,0.034494828432798386,9.872015953063965,0.008639128878712654,0.0014125928282737732,0.008063316345214844,0.005453639247990728,0.06092200570406096,0.03715444149629753
0.0031200877856463194,0.03338679298758507,9.870944023132324,-0.0007187428418546915,0.0010868869721889496,-0.0013570785522460938,0.05283348758160559,0.04634531479819593,0.016210838677690367
0.004051005467772484,0.037246834486722946,9.870944023132324,-0.0009032434318214655,0.005934976041316986,-0.00121307373046875,-0.0341771460288331,0.004458112496034924,0.004351290738654305
0.0020120516419410706,0.034099847078323364,9.875340461730957,-0.0007053709123283625,0.0011804252862930298,0.0034189224243164062,-0.003169688022561933,0.013542157370446102,0.03032681364722353
0.0020120516419410706,0.0303528793156147,9.870944023132324,-0.0003792503848671913,0.005734831094741821,-0.0016078948974609375,0.10146638214322688,0.0176762360873021,0.026192743268000796
0.0020120516419410706,0.034494828432798386,9.869625091552734,-0.000449606915935874,0.0007041729986667633,-0.0014314651489257812,-0.03561911635649915,0.030350959433156584,-0.047517092447249804
0.004975350107997656,0.04111344739794731,9.8775634765625,0.004857650026679039,0.005013681948184967,0.003116607666015625,0.006265978191972674,0.06010966676007901,0.007043053949827116
0.0002547426847741008,0.036252137273550034,9.8770112991333,-0.004343460779637098,0.004403442144393921,-0.0019989013671875,-0.04684921467225627,0.03592967652032317,-0.03070829038453932
0.006689589936286211,0.034381404519081116,9.87573528289795,0.005313975736498833,-0.00016973912715911865,0.002246856689453125,-0.006756657914729332,0.01643210112172841,0.027436873230994526
0.007002578116953373,0.03602529317140579,9.87746524810791,0.009778553619980812,0.000013347715139389038,0.0068531036376953125,0.011295958948437494,0.055079686003614195,-0.03070829038453932
0.003628660226240754,0.03455369174480438,9.872560501098633,-0.00009669666178524494,-0.00506262481212616,-0.002567291259765625,-0.04864171244256149,-0.027647858708271147,-0.03070829038453932
0.010047713294625282,0.03928578644990921,9.870944023132324,0.004528055898845196,0.004533987492322922,-0.0024261474609375,0.013435995953620005,-0.006156588443546689,-0.05234589611820998
0.006803013384342194,0.0298015009611845,9.871041297912598,0.004130911082029343,-0.0053061023354530334,-0.00229644775390625,-0.008201616450157264,-0.04500537042125695,-0.02946450226450942
0.010286115109920502,0.034494828432798386,9.869202613830566,0.013436466455459595,-0.0007262565195560455,-0.0070819854736328125,-0.008201616450157264,-0.025306197720441032,-0.03070829038453932
-0.0027789026498794556,0.03928578644990921,9.87573528289795,-0.0057684313505887985,0.003995377570390701,0.0026111602783203125,-0.05437084043381381,-0.0244083480097017,0.00724220582421189
0.0033470108173787594,0.03315987065434456,9.872279167175293,0.00395157840102911,-0.0054803267121315,0.002529144287109375,0.03582658335253829,0.013542157370446102,-0.0747365035274481
0.006494000554084778,0.025839950889348984,9.87573528289795,0.003896568203344941,-0.009837908670306206,0.0023832321166992188,-0.061363299957467254,-0.04355624973930354,-0.03070829038453932
0.003965036477893591,0.03165685385465622,9.87573528289795,0.003825700143352151,-0.0002627857029438019,0.0021295547485351562,-0.008201616450157264,0.03842248212396626,0.01905233577712786
0.0047795516438782215,0.026936374604701996,9.870944023132324,0.0036793870385736227,-0.008992882445454597,-0.0028781890869140625,-0.008201616450157264,-0.031193580661154015,-0.04018706549810302
0.0031355798710137606,0.033371299505233765,9.879403114318848,-0.0007433649152517319,0.0009479112923145294,0.006489753723144531,0.05283348758160559,0.0602639329857861,0.01601347689316741
0.005749962292611599,0.032388728111982346,9.874682426452637,-0.00035029835999011993,-0.008137205615639687,-0.0031366348266601562,0.005213862255526257,0.04037314146223959,-0.0649124236647219
0.006340879946947098,0.034494828432798386,9.876197814941406,0.008931721560657024,0.0012684427201747894,-0.0032663345336914062,0.02525961369586743,0.01942951363073264,0.002752948099118638
0.0020120516419410706,0.03672971948981285,9.880205154418945,-0.00020492379553616047,0.0012034140527248383,0.001247406005859375,0.0243617639851281,0.07048560456340108,0.0018550950533259998
0.00589091656729579,0.03358273208141327,9.871855735778809,0.004653372801840305,0.0012605711817741394,-0.003662109375,-0.008201616450157264,0.03971792354959438,-0.08012361513209731
0.0020120516419410706,0.0353364460170269,9.878843307495117,-0.00033912528306245804,0.006154492497444153,-0.0036497116088867188,-0.05851479090845459,-0.058214876234782276,-0.03070829038453932
0.005198310595005751,0.02970387041568756,9.879724502563477,0.004549811594188213,-0.0033917948603630066,0.005940437316894531,0.032390144426375625,0.09472567912351187,0.03032681364722353
-0.002880588872358203,0.03439314290881157,9.87573528289795,-0.009734850376844406,-0.0031638890504837036,0.0009012222290039062,-0.06923672048192012,0.01224671594481798,0.03032681364722353
0.0020120516419410706,0.034494828432798386,9.865910530090332,-0.00003445753827691078,0.0011774487793445587,-0.003719329833984375,0.05283348758160559,-0.01542982422188193,-0.09174339441630217
0.006803013384342194,0.035125017166137695,9.87989616394043,0.004584830719977617,0.0008491948246955872,0.005982398986816406,0.03677672669911053,0.013542157370446102,-0.022679911610818445
0.004775448702275753,0.03348104655742645,9.871957778930664,0.004565143026411533,0.0007303282618522644,-0.0040740966796875,-0.06923672048192012,0.07457726140220895,-0.03070829038453932
-0.0027789026498794556,0.02970387041568756,9.875210762023926,-0.0044243792071938515,-0.003660675138235092,-0.004146575927734375,-0.04206045165128397,0.04071843954129547,0.0031505406477707536
0.007468282710760832,0.026975756511092186,9.87573528289795,-0.0002197145950049162,-0.00314272940158844,0.000202178955078125,-0.034481489653295345,0.022017488315506338,-0.056988170257784014
0.0024310073349624872,0.03491378203034401,9.87573528289795,-0.0007125022821128368,0.00158696249127388,0.00030612945556640625,-0.01887629498838805,0.002867478832215314,-0.09174339441630217
0.0020120516419410706,0.03893718123435974,9.876084327697754,-0.00023748213425278664,0.0012685060501098633,0.005306243896484375,0.10942750122940566,0.07457726140220895,0.03032681364722353
0.009671829640865326,0.034494828432798386,9.87668228149414,0.00922736432403326,0.0007851310074329376,0.005261421203613281,0.028346112148772723,0.02596917963718184,-0.05519566581737218
0.006803013384342194,0.03264303877949715,9.873883247375488,0.0042778803035616875,-0.0040542930364608765,-0.004364013671875,-0.03179274299783752,0.013542157370446102,-0.007117165504385721
0.006803013384342194,0.03428692743182182,9.870944023132324,0.0037399339489638805,0.0010384730994701385,-0.004146575927734375,-0.06658814120847578,0.008244998823557424,0.027678231038725885
-0.0027789026498794556,0.034494828432798386,9.87573528289795,-0.005347328260540962,0.0007882528007030487,0.00057220458984375,-0.06573205970533666,0.013542157370446102,0.03032681364722353
0.005434221588075161,0.034494828432798386,9.878815650939941,-0.0005780730862170458,0.0007615834474563599,0.005184173583984375,0.013597012327217767,0.013542157370446102,-0.03070829038453932
0.005162278655916452,0.032854095101356506,9.877376556396484,0.0042145587503910065,0.0009034685790538788,0.00020885467529296875,0.05283348758160559,-0.04582096437726523,0.009424451264030964
-0.0027757491916418076,0.034497980028390884,9.880523681640625,-0.005151892080903053,0.0007703155279159546,0.0045909881591796875,-0.008161435727930549,-0.047412611897289764,0.09128156957474617
0.0036590932868421078,0.02970387041568756,9.877232551574707,-0.00003973161801695824,-0.004132196307182312,0.004474639892578125,-0.008201616450157264,0.055507586682944914,-0.009725577395816566
0.005302981473505497,0.034494828432798386,9.86915397644043,-0.00013184547424316406,0.0006663165986537933,-0.000164031982421875,0.030018094432824244,-0.028383091219825993,-0.07263353897481142
-0.0027789026498794556,0.03928578644990921,9.875447273254395,-0.0051347422413527966,0.005338713526725769,0.00047969818115234375,-0.008201616450157264,-0.04382758967625287,0.026661456662159657
0.003799805650487542,0.03149162232875824,9.869729042053223,0.004528410732746124,0.00035072118043899536,0.0010576248168945312,0.06831792663642117,0.013542157370446102,-0.03070829038453932
0.00866124127060175,0.032636597752571106,9.878667831420898,0.004388070665299892,0.0005560219287872314,0.005603790283203125,-0.008201616450157264,-0.02381975112189056,-0.007035101515219745
0.003300810232758522,0.03320607170462608,9.872232437133789,-0.0005426604766398668,0.000923987478017807,-0.003931999206542969,0.019996846218666823,0.08635741672977688,0.03032681364722353
-0.006351577118039131,0.03806750476360321,9.87573528289795,-0.005078769288957119,0.000815417617559433,0.0007677078247070312,-0.008201616450157264,0.059056803771692125,0.03032681364722353
-0.0019275227095931768,0.03406913951039314,9.867005348205566,-0.004396302625536919,0.0006917901337146759,-0.008632659912109375,-0.0027784729295935854,0.008119013849882423,-0.03070829038453932
-0.002127266488969326,0.02970387041568756,9.876386642456055,-0.009092356078326702,-0.003829270601272583,-0.003940582275390625,-0.008201616450157264,0.013542157370446102,0.003960073144395978
-0.0006387667963281274,0.02919318899512291,9.870944023132324,0.0005525039741769433,0.0013002119958400726,-0.0035371780395507812,0.046327572314609766,-0.04098703139432093,-0.0034436960021558037
0.003018902149051428,0.03550167754292488,9.87573528289795,0.00034572556614875793,0.0010062865912914276,0.00115203857421875,0.004625292048141564,0.0007152488721472727,-0.03070829038453932
0.005866639781743288,0.034494828432798386,9.874798774719238,0.00021522992756217718,0.0007239505648612976,-0.0036249160766601562,0.04090442879404609,0.0254712161580056,-0.03070829038453932
0.0020120516419410706,0.02970387041568756,9.880526542663574,-0.0001402660273015499,-0.00398809090256691,0.005955696105957031,0.043818998578937465,0.013542157370446102,-0.03070829038453932
0.002100051147863269,0.03928578644990921,9.870944023132324,-0.0050153909251093864,0.005750369280576706,-0.00348663330078125,-0.06811568900396532,0.012421125892491313,-0.0007512541076352892
0.0020120516419410706,0.03928578644990921,9.871739387512207,-0.00016146013513207436,0.005353767424821854,-0.0034589767456054688,-0.008201616450157264,0.07457726140220895,-0.061336799623900394
-0.0020536647643893957,0.030429108068346977,9.875009536743164,-0.00047623319551348686,0.0004890561103820801,-0.0032196044921875,0.05283348758160559,0.05609869153084192,-0.03070829038453932
0.004965716041624546,0.0383671373128891,9.870025634765625,0.0045896004885435104,0.004901550710201263,-0.0035114288330078125,0.029426962904500795,-0.03578968432276435,-0.019005033048566884
0.00234616850502789,0.030037984251976013,9.873172760009766,0.004714145325124264,0.0006993599236011505,-0.0032701492309570312,-0.03659092420934503,-0.019103638902128985,0.03032681364722353
0.006803013384342194,0.02970387041568756,9.880526542663574,0.004998132586479187,-0.004430416971445084,0.006266593933105469,-0.008201616450157264,0.047084202528173795,-0.0032152298429775138
0.0020120516419410706,0.034494828432798386,9.867181777954102,0.000051227398216724396,0.00017564371228218079,-0.007994651794433594,-0.0016510915101448011,0.013542157370446102,-0.07864235120638385
0.006359180435538292,0.031035367399454117,9.87529182434082,-0.00015503843314945698,0.009230460971593857,-0.0032367706298828125,-0.002547340395297412,0.0689229853473491,-0.03070829038453932
0.004785643890500069,0.03852956369519234,9.87371826171875,0.004756098613142967,-0.0005179457366466522,0.0015583038330078125,0.027132926477875654,0.08421126990693838,-0.005007735950915999
0.006803013384342194,0.03254781290888786,9.872891426086426,0.004736876115202904,-0.004906795918941498,0.0016489028930664062,-0.019628122725191915,-0.07229723219946763,-0.03070829038453932
0.006499883718788624,0.030006999149918556,9.871247291564941,0.004282025620341301,-0.004819028079509735,-0.0028104782104492188,0.10614506172468562,-0.043631195057188564,-0.022984765498436463
-0.0025461246259510517,0.030169427394866943,9.871176719665527,-0.0009057582356035709,0.004452262073755264,0.0023946762084960938,-0.0052361137311816896,0.013542157370446102,0.027361304258141345
0.0020120516419410706,0.03505245968699455,9.874323844909668,-0.0004985020495951176,0.004184260964393616,0.00264739990234375,-0.06923672048192012,0.013542157370446102,0.09136191767898638
0.0020120516419410706,0.032758865505456924,9.877054214477539,-0.00045032287016510963,-0.004725519567728043,-0.0019702911376953125,0.008602409816219497,0.07457726140220895,0.03032681364722353
-0.0025947524700313807,0.029795944690704346,9.875642776489258,-0.004909986164420843,-0.00484161451458931,0.0026540756225585938,0.05283348758160559,0.014715162319116456,-0.03070829038453932
0.016319751739501953,0.02972559444606304,9.870965957641602,0.0002751690335571766,0.00010365992784500122,0.0027456283569335938,-0.008201616450157264,-0.04693943453428126,0.03032681364722353
0.0036342162638902664,0.03132603317499161,9.875659942626953,0.00016218831297010183,-0.004267532378435135,0.007485389709472656,0.011501905160169246,0.034207935240951046,-0.07107760987569062
0.0020120516419410706,0.02970387041568756,9.874210357666016,0.00019817915745079517,-0.004110131412744522,0.0029077529907226562,0.011225175777077948,-0.028066154434081537,-0.05288982997215158
0.0053484560921788216,0.03304027393460274,9.872398376464844,-0.000006259651854634285,-0.003873080015182495,0.0031042098999023438,0.03430297091994943,-0.004988359291210055,-0.012177762050196593
0.0066136824898421764,0.034305498003959656,9.87573528289795,0.004823414143174887,0.0008302144706249237,0.0028924942016601562,0.10904458374906181,0.13078835756966517,0.027914808047543566
0.00792753230780363,0.034494828432798386,9.870944023132324,-0.0005413847975432873,0.0006246902048587799,-0.0019435882568359375,0.029478936375216362,-0.07084752454813242,-0.007353745848256707
0.00010848382953554392,0.03547864779829979,9.87671947479248,-0.0007865105289965868,0.004922483116388321,0.007328033447265625,-0.020735120298836444,0.0010086535217669222,-0.03070829038453932
0.009106963872909546,0.03573833033442497,9.870944023132324,0.008913736790418625,0.0004896298050880432,-0.0020151138305664062,-0.03988515646255391,-0.002299612635752223,0.014485043641025206
0.006803013384342194,0.03888539969921112,9.875334739685059,0.0043027363717556,0.0051807984709739685,0.0028066635131835938,-0.008201616450157264,0.018642921298270467,0.025226049719399162
0.0020120516419410706,0.03245055675506592,9.870944023132324,-0.0004064294043928385,-0.004461001604795456,-0.0020236968994140625,0.04388497927353685,0.013542157370446102,-0.0657000898843485
0.004126676823943853,0.034494828432798386,9.875173568725586,-0.00026997574605047703,0.0003520697355270386,-0.002185821533203125,-0.06923672048192012,0.08173324525954602,-0.037864280911983
0.006803013384342194,0.030736317858099937,9.866153717041016,0.00412044208496809,-0.004488945007324219,-0.006850242614746094,0.004951406900583228,-0.034339923310576254,-0.03070829038453932
0.0020120516419410706,0.03353273123502731,9.86711597442627,-0.0007266697939485312,-0.004405401647090912,-0.0017185211181640625,-0.044723198231170797,0.013542157370446102,-0.03070829038453932
0.0020120516419410706,0.034494828432798386,9.870664596557617,-0.000845789909362793,0.0003885924816131592,-0.006152153015136719,0.024101416383874252,0.006400180736992847,-0.03070829038453932
0.0029037967324256897,0.042293254286050797,9.87484359741211,-0.0008067253511399031,0.009364843368530273,0.003444671630859375,0.0031588824498515614,0.002181658470437276,0.03032681364722353
0.006803013384342194,0.03045601211488247,9.874982833862305,0.0037278858944773674,-0.004514448344707489,0.0034198760986328125,-0.11110776778586846,0.023124192404459967,-0.10132542945031603
0.00440808292478323,0.032097697257995605,9.868548393249512,0.003860155586153269,-0.009116148576140404,-0.006008148193359375,-0.008201616450157264,-0.016968377693280193,0.03032681364722353
0.004336630459874868,0.03928578644990921,9.868619918823242,0.0037384903989732265,0.00488043949007988,-0.005871772766113281,-0.03781590262873095,0.013542157370446102,0.0007125291361764986
-0.002098213182762265,0.035175517201423645,9.874374389648438,-0.005537737160921097,0.00008182600140571594,0.003947257995605469,-0.06923672048192012,0.022213909614997095,-0.0743998965973068
0.006192674394696951,0.03388448804616928,9.870944023132324,-0.0005710211116820574,-0.004168801009654999,-0.0008802413940429688,-0.015977119809555646,0.07457726140220895,-0.022932792027720895
-0.0017453549662604928,0.034494828432798386,9.873668670654297,-0.0049916841089725494,0.00036866962909698486,0.0036182403564453125,0.14856960781545622,-0.08219401622425743,-0.03070829038453932
0.004689489025622606,0.03928578644990921,9.867703437805176,-0.0003774284850805998,0.0048411935567855835,0.0038356781005859375,-0.008201616450157264,-0.020567407138200898,-0.010966809197487671
-0.0018396317027509212,0.030643140897154808,9.871413230895996,-0.005346876569092274,-0.004902902990579605,-0.0008630752563476562,-0.06325372823304018,0.06261127690444908,0.03032681364722353
-0.0023796188179403543,0.03409554436802864,9.87573528289795,-0.00037439214065670967,-0.004380408674478531,0.004006385803222656,-0.06923672048192012,-0.09835461732647784,-0.02562155202339195
-0.0002896969090215862,0.02970387041568756,9.8626070022583,-0.004813578445464373,-0.004402916878461838,-0.009502410888671875,0.021121879760588415,0.013542157370446102,-0.014852491476610694
0.00391452107578516,0.037383317947387695,9.869041442871094,0.00014166685286909342,0.005398862063884735,0.0004482269287109375,-0.008201616450157264,0.07457726140220895,0.018651612447185044
0.0038441696669906378,0.03745367005467415,9.869817733764648,0.005234075244516134,0.0007377006113529205,0.00505828857421875,-0.03154213375223623,-0.0008119120571588205,-0.06840288378432982
0.0020120516419410706,0.029892100021243095,9.866341590881348,0.000389311695471406,-0.004167646169662476,-0.004422187805175781,-0.005803633082100991,0.013542157370446102,-0.028310307016483047
0.006803013384342194,0.034494828432798386,9.87239933013916,0.005279233679175377,0.000478547066450119,0.00008392333984375,0.07677946380100915,0.07457726140220895,-0.04925284762061235
0.005111598409712315,0.034494828432798386,9.868127822875977,0.00482578668743372,0.0004856623709201813,-0.009368896484375,-0.0476887142903596,-0.047492946661316746,-0.027099360833880735
0.0035608892794698477,0.036115892231464386,9.870944023132324,-0.004593837074935436,0.004718344658613205,0.00032711029052734375,-0.007281461902909609,0.03419390133664079,-0.01005653307813141
0.006803013384342194,0.03921731188893318,9.866153717041016,0.004899000748991966,0.004838265478610992,-0.0042400360107421875,-0.008492406417985269,-0.04691139340608719,-0.03070829038453932
0.006803013384342194,0.02970387041568756,9.867819786071777,0.004552123136818409,-0.004221249371767044,0.0006170272827148438,-0.008201616450157264,-0.007691166531404592,0.009093498916769426
0.00018181589257437736,0.03301446884870529,9.869463920593262,-0.0050095608457922935,0.0003926493227481842,0.0009489059448242188,0.07615009922158951,-0.005317088825443364,-0.03070829038453932
-0.001368895871564746,0.0311138778924942,9.870944023132324,-0.000133162597194314,0.0006192326545715332,0.0009737014770507812,-0.05127372317118326,0.11764936812323494,-0.04867128769527618
0.006569210439920425,0.02970387041568756,9.870710372924805,0.0050326064229011536,-0.0038425400853157043,0.0009918212890625,-0.005223040322223461,0.013542157370446102,-0.02772972259423878
0.0020120516419410706,0.03158147633075714,9.871980667114258,0.0006325320573523641,0.001060638576745987,-0.0037784576416015625,-0.045316677637021435,0.11169232258907312,-0.043903322066718035
0.00006422097067115828,0.03644265979528427,9.866153717041016,0.00040130852721631527,0.0011266879737377167,-0.00350189208984375,0.0032041057726764502,-0.02267825575685218,-0.0669287035118376
0.006803013384342194,0.03808646276593208,9.87453556060791,0.004869055934250355,0.005592044442892075,0.00580596923828125,-0.008201616450157264,-0.032214000250983345,-0.03070829038453932
0.006803013384342194,0.030832966789603233,9.866153717041016,0.004634764976799488,0.0007618144154548645,-0.0038690567016601562,0.05283348758160559,-0.004340078289440641,-0.06297481772508697
0.006288306321948767,0.03124799020588398,9.866153717041016,0.004010212607681751,-0.004025444388389587,-0.0035829544067382812,-0.008201616450157264,0.12249800202115065,0.03032681364722353
0.006803013384342194,0.03712727501988411,9.865679740905762,0.0037978554610162973,0.00046997517347335815,0.0014581680297851562,-0.0631989266371214,0.04104081913403478,-0.03070829038453932
-0.0017902588006109,0.030692515894770622,9.878549575805664,-0.005341573152691126,-0.004633091390132904,0.010782241821289062,0.027643536479187,-0.00970799332726242,-0.01811330649569676
0.0020120516419410706,0.030622243881225586,9.878689765930176,-0.00014032935723662376,-0.00025548040866851807,0.001079559326171875,0.003498124072104343,0.12391262491171019,-0.019008538189591143
0.0005610254011116922,0.03856027126312256,9.866153717041016,0.00037468341179192066,0.004666898399591446,-0.003932952880859375,-0.008201616450157264,0.05609170125911323,-0.03995107712619379
0.0020120516419410706,0.02970387041568756,9.868522644042969,0.0008028686279430985,-0.004388552159070969,0.001018524169921875,-0.038386943795941035,0.07457726140220895,0.03032681364722353
-0.00042769862920977175,0.03684603422880173,9.868593215942383,0.00042849022429436445,0.005453556776046753,-0.003991127014160156,-0.03928319268109365,0.012414108940336184,0.02919876521711361
0.007510331925004721,0.034494828432798386,9.866861343383789,0.005101859103888273,0.0006712712347507477,-0.0038166046142578125,-0.008201616450157264,0.11759037770036425,-0.03971928425134309
-0.0018423352157697082,0.0383492186665535,9.874798774719238,-0.0043354700319468975,0.005117285996675491,0.0054264068603515625,0.028970407447167754,0.013542157370446102,-0.03070829038453932
0.0020120516419410706,0.03228432685136795,9.873154640197754,0.0003685841802507639,0.0005642734467983246,0.0005645751953125,-0.0034885724794369035,0.013542157370446102,-0.002547265356598034
0.0025227107107639313,0.02970387041568756,9.866663932800293,-0.00414095725864172,-0.004193652421236038,-0.009305953979492188,-0.06923672048192012,0.04731248025684032,-0.05797305818969473
-0.002282638568431139,0.03069639950990677,9.870448112487793,-0.0037213207688182592,-0.003526870161294937,0.0002498626708984375,-0.16601799306091494,0.07457726140220895,-0.024386054845879947
-0.002352990210056305,0.03843396157026291,9.875308990478516,0.0013934985036030412,-0.003656964749097824,0.00022411346435546875,-0.06923672048192012,-0.09767613408197227,-0.08089143778455517
0.004803563002496958,0.034494828432798386,9.870944023132324,0.006043128669261932,0.0009534917771816254,0.00008106231689453125,0.017270640244479704,0.059195568669634456,-0.03070829038453932
0.0020120516419410706,0.040218546986579895,9.869014739990234,0.0011735290754586458,0.00020907074213027954,-0.004710197448730469,0.05283348758160559,0.013542157370446102,0.005750805003975847
0.0020120516419410706,0.034494828432798386,9.866724014282227,0.0011355883907526731,-0.00007231160998344421,-0.004840850830078125,0.045566539830682255,0.013542157370446102,0.023059864228773545
0.0020120516419410706,0.034709688276052475,9.871158599853516,0.0013978793285787106,0.004464074969291687,0.004608154296875,-0.01093884144046632,0.07457726140220895,-0.03070829038453932
0.00487010832875967,0.034494828432798386,9.877164840698242,0.0015224358066916466,-0.00021289661526679993,0.004368782043457031,0.03462817863789195,0.013542157370446102,0.01212150136845659
0.0006571823614649475,0.032776784151792526,9.869589805603027,-0.0035904659889638424,-0.0001130513846874237,-0.0054073333740234375,0.048206834831715305,-0.025605685507290223,0.008439564165883576
0.006803013384342194,0.03921163082122803,9.866302490234375,0.005795626901090145,0.004626110196113586,-0.005478858947753906,-0.009146343670161098,0.013542157370446102,-0.1518337845682744
0.006803013384342194,0.02970387041568756,9.87573528289795,0.0053331307135522366,-0.0046562813222408295,0.003920555114746094,-0.06918698816702595,0.013591889685340256,-0.03070829038453932
-0.0011390048312023282,0.037645887583494186,9.87409496307373,-0.00390810240060091,0.005070552229881287,0.0038881301879882812,0.03194175317953486,0.09382889662983036,-0.009816555982468599
0.0020120516419410706,0.0329875722527504,9.874227523803711,0.0010474883019924164,0.00023626536130905151,0.0038518905639648438,0.011000286462569989,0.07457726140220895,0.011124914069549583
0.002148599363863468,0.034494828432798386,9.875598907470703,0.005941240582615137,0.00035996362566947937,-0.00109100341796875,-0.008201616450157264,0.07283769759797133,-0.03070829038453932
0.005022660829126835,0.03873568773269653,9.867934226989746,0.0011196525301784277,-0.004446785897016525,-0.00099945068359375,-0.046555676620504395,0.013542157370446102,-0.015035262402921343
0.004952434916049242,0.02970387041568756,9.87867546081543,0.005293236579746008,-0.00397646427154541,0.008042335510253906,-0.022085336639956894,-0.047492946661316746,-0.06816770249532056
0.003308630082756281,0.031000448390841484,9.872241020202637,0.00008582777809351683,-0.00377655029296875,-0.0017528533935546875,-0.052718788428316975,-0.019493733417186625,-0.07522545569259242
-0.0015525517519563437,0.03093022294342518,9.87450885772705,-0.00041522947140038013,0.0005669556558132172,-0.001697540283203125,-0.05361343648788286,0.043330693414134445,-0.12153193045999051
0.004811983089894056,0.034494828432798386,9.87293529510498,-0.004943755455315113,0.0005738995969295502,-0.0017681121826171875,0.04751530485867796,0.07457726140220895,-0.08642521169337454
0.006803013384342194,0.03243357315659523,9.870944023132324,0.004503442905843258,-0.004320360720157623,-0.0018205642700195312,0.018058032989735236,-0.02123329722142425,-0.02219249690524804
0.0020120516419410706,0.03558072820305824,9.87573528289795,0.00023355719167739153,0.00032195448875427246,0.0027284622192382812,-0.06923672048192012,0.15514553252144467,0.03032681364722353
-0.006554184015840292,0.034494828432798386,9.881542205810547,-0.0045067016035318375,0.0005435459315776825,0.011883735656738281,-0.0914538584285171,0.06163794826729581,-0.06586474813615606
-0.002150773536413908,0.03033199906349182,9.871572494506836,-0.004064199049025774,-0.003967352211475372,-0.002471923828125,0.04483133399955385,0.005540003788394366,-0.03070829038453932
0.00453107850626111,0.03701385483145714,9.866153717041016,0.0004867222160100937,0.0005570501089096069,-0.006985664367675781,0.020742003848859346,0.04563364110319234,-0.05965191068355593
0.006803013384342194,0.03673038259148598,9.877970695495605,0.0049318973906338215,-0.004417765885591507,-0.0020904541015625,0.05419173473108609,0.043380585811587276,-0.03070829038453932
-0.0027789026498794556,0.038480885326862335,9.880526542663574,-0.0038504558615386486,0.0048020631074905396,0.006823539733886719,-0.04872843716872214,0.08483140305880794,-0.03070829038453932
0.006803013384342194,0.02896932139992714,9.879792213439941,0.005023708567023277,-0.009479215368628502,0.002063751220703125,0.0011562763212891118,0.12625447266252543,0.07264614547630685
-0.0027789026498794556,0.034494828432798386,9.873916625976562,-0.004363805986940861,0.00013446062803268433,0.0014619827270507812,-0.019786257612733577,0.001957516207869787,-0.03070829038453932
0.0020120516419410706,0.03928578644990921,9.87573528289795,0.00046759413089603186,0.004567142575979233,0.0015506744384765625,0.02432555864644174,0.013542157370446102,0.0018188963847462546
0.008970392867922783,0.034494828432798386,9.87573528289795,0.00994302611798048,-0.00030996277928352356,0.0015125274658203125,0.025221834212020795,0.013542157370446102,-0.03070829038453932
0.002535546198487282,0.034494828432798386,9.884794235229492,0.00023933034390211105,-0.00039624422788619995,0.010664939880371094,0.10053032606181779,0.1289432459984097,-0.03070829038453932
0.006349870469421148,0.0354011133313179,9.866606712341309,0.0004004450747743249,0.008894827216863632,-0.0031871795654296875,-0.06346384993151062,-0.15224454307361399,0.024553939761760735
0.0012744538253173232,0.034494828432798386,9.870944023132324,0.004653888754546642,-0.0005232766270637512,-0.0028839111328125,0.027014331982326018,0.013542157370446102,-0.004889128115153141
0.002777680056169629,0.034494828432798386,9.876117706298828,-0.00020368630066514015,-0.0005352683365345001,0.001445770263671875,-0.05948289018202456,-0.037739116361421195,-0.035585205534487095
0.0020120516419410706,0.03928578644990921,9.87447452545166,0.00004422641359269619,0.0041131675243377686,0.0015802383422851562,-0.008201616450157264,0.05851270983519185,-0.03070829038453932
0.004916846286505461,0.034494828432798386,9.879508018493652,0.005082002840936184,-0.0005761794745922089,0.0012760162353515625,-0.03223070219793814,0.07457726140220895,-0.006679207971811751
0.00019611344032455236,0.03746984526515007,9.878710746765137,-0.00437347823753953,-0.00014197081327438354,0.0012578964233398438,0.0296990498933906,0.03667659505866109,-0.03070829038453932
-0.0027789026498794556,0.034494828432798386,9.880699157714844,-0.003943284973502159,-0.00039222463965415955,0.005652427673339844,0.05064054329078192,0.013542157370446102,0.03032681364722353
0.0067011029459536076,0.025116734206676483,9.880526542663574,0.005695129279047251,-0.009704956784844398,0.005039215087890625,-0.06793842425066234,0.0719806689396934,-0.029409987483174933
-0.0027789026498794556,0.034526512026786804,9.870975494384766,-0.0036594104021787643,0.004489514976739883,0.00009250640869140625,-0.06842942413853634,0.07417361323051706,-0.09174339441630217
-0.0027789026498794556,0.03288270905613899,9.87573528289795,-0.0034781568683683872,0.00000831112265586853,0.00033092498779296875,-0.028161083391374134,0.05461779446099208,-0.010748833448482367
0.0020120516419410706,0.03775075078010559,9.877456665039062,0.001444624038413167,0.004722628742456436,0.0052089691162109375,-0.049680915052608354,0.013542157370446102,0.010771008217911769
0.004941671155393124,0.03303001821041107,9.87720012664795,0.0011783021036535501,0.00025373324751853943,0.00000286102294921875,-0.008201616450157264,0.032203301399978755,-0.012047131347266794
0.003406636416912079,0.03388762101531029,9.873733520507812,0.005538849160075188,0.00953594595193863,0.004779815673828125,-0.05147022451195336,0.08231285084364508,-0.05621038913615543
0.0020120516419410706,0.03903656825423241,9.871442794799805,0.000626657041721046,0.005041416734457016,-0.004420280456542969,-0.008201616450157264,0.07457726140220895,0.08818694693198827
0.003905076067894697,0.03348991647362709,9.878633499145508,0.005178612656891346,0.004742298275232315,0.000080108642578125,0.028717050117642594,0.0007399282666092329,0.006210376183260539
0.0028765155002474785,0.040150243788957596,9.87007999420166,-0.003968214150518179,-0.00019400939345359802,0.00021076202392578125,0.027822402058076706,0.11060127991044293,-0.04172121002903119
0.001288047176785767,0.031737346202135086,9.870944023132324,-0.0036004502326250076,-0.0049360208213329315,-0.004717826843261719,0.026927727318084373,0.02276576755559297,0.03032681364722353
0.004575653467327356,0.0333811491727829,9.87573528289795,0.005398956127464771,0.0002534128725528717,0.00006103515625,-0.06923672048192012,-0.03330506961003999,-0.12440273100529828
0.0009685985278338194,0.03553828224539757,9.869900703430176,0.0006352040218189359,0.00023703649640083313,-0.004105567932128906,-0.06923672048192012,-0.034199717669605875,0.03032681364722353
0.002985280239954591,0.030677098780870438,9.871917724609375,0.005418679211288691,0.0004857257008552551,0.0008602142333984375,-0.008201616450157264,-0.022695784797026785,-0.03070829038453932
-0.001875901478342712,0.028524920344352722,9.870040893554688,0.0007900584023445845,0.009602703154087067,-0.00782012939453125,-0.008201616450157264,0.025046090243025194,-0.08023946821382968
0.0027528535574674606,0.02970387041568756,9.866894721984863,0.0011497244704514742,-0.00438087061047554,-0.007491111755371094,0.043395927056793356,0.06513970087739672,-0.09174339441630217
0.005180958658456802,0.03766373172402382,9.862984657287598,0.005984357558190823,0.00513424351811409,-0.011916160583496094,0.04250127899722747,-0.037160738076938635,-0.08141119250203066
-0.005115028005093336,0.04162191227078438,9.87573528289795,-0.003225430380553007,0.004685182124376297,0.0025691986083984375,0.021559812280262592,-0.017731517930896893,-0.0009468566515395045
0.0017528997268527746,0.03676072880625725,9.870944023132324,-0.002885808004066348,-0.000589318573474884,-0.0019330978393554688,-0.008201616450157264,0.10674558476311784,-0.03070829038453932
-0.0005832288879901171,0.03669050335884094,9.867949485778809,0.0016970071010291576,0.0038926564157009125,0.0027980804443359375,0.05283348758160559,-0.014429975240841978,-0.025617436567612752
0.004137502517551184,0.03716033697128296,9.87360954284668,0.006564985495060682,-0.0012180246412754059,-0.0014934539794921875,0.0597136491903505,-0.01353532718127609,0.003249344103241215
-0.002297257073223591,0.034013181924819946,9.8666353225708,-0.003186081536114216,-0.0013151578605175018,-0.0061130523681640625,0.0405614785925174,-0.047492946661316746,-0.08560739659186468
0.0020120516419410706,0.03928578644990921,9.861773490905762,0.001365789445117116,0.003618307411670685,-0.0058383941650390625,0.047592144486840605,0.018783500465211083,-0.02546694562224769
-0.002096514217555523,0.04373554512858391,9.870944023132324,0.005614390131086111,0.003559499979019165,-0.0005474090576171875,0.044140097511207406,0.12691897536357363,-0.08739669938110307
0.0007094434113241732,0.034494828432798386,9.869641304016113,0.0009759903186932206,-0.0015897303819656372,-0.0004911422729492188,0.0362387158998398,0.013542157370446102,0.01373203612911446
0.0031139226630330086,0.034494828432798386,9.874993324279785,0.006098425015807152,-0.0013761073350906372,0.009002685546875,0.05283348758160559,0.07457726140220895,0.00682796218816789
0.005028692539781332,0.03272050991654396,9.87573528289795,0.006057152524590492,-0.001509983092546463,0.004265785217285156,0.03022929668856573,0.0519730705091691,-0.06913919018304909
0.0006295169587247074,0.034494828432798386,9.872648239135742,-0.004387587774544954,-0.0014333166182041168,-0.0012054443359375,-0.012299596550032689,-0.09091499385560012,0.03032681364722353
-0.0027789026498794556,0.0361289381980896,9.866153717041016,-0.004414059687405825,0.0030120722949504852,-0.005866050720214844,0.01261634657279203,-0.0877100876701303,-0.011309134076521545
0.0067934030666947365,0.03927617520093918,9.87093448638916,0.00466564716771245,0.0030944272875785828,-0.0009679794311523438,-0.008201616450157264,0.013542157370446102,0.03032681364722353
0.0020120516419410706,0.034654248505830765,9.861442565917969,-0.0006621545180678368,-0.0018356889486312866,-0.01003265380859375,0.05181800387066865,0.011511189948572233,0.02829583955524305
-0.0027789026498794556,0.03277139738202095,9.87266731262207,-0.005096578970551491,-0.006238490343093872,0.0045032501220703125,-0.008201616450157264,-0.02553706345047275,-0.047831607984294346
0.0002185221528634429,0.03808188810944557,9.86794662475586,0.00013332313392311335,-0.0011624768376350403,-0.00490570068359375,0.0071356000115328135,-0.009306799754803507,0.007477869028423817
0.004939370788633823,0.034494828432798386,9.863225936889648,0.005326316691935062,-0.0011051669716835022,-0.009031295776367188,-0.008201616450157264,0.07457726140220895,0.03032681364722353
0.0020120516419410706,0.03541805222630501,9.869009971618652,0.0005648613441735506,0.0037653259932994843,0.0008449554443359375,-0.008201616450157264,0.013542157370446102,-0.0671066152654819
-0.00035232750815339386,0.03328154236078262,9.867366790771484,-0.004035101272165775,-0.0006415918469429016,-0.003780364990234375,-0.008201616450157264,-0.016579243673574585,-0.015251437223141585
-0.00027406966546550393,0.0369996652007103,9.866153717041016,-0.00849632266908884,-0.0052419379353523254,-0.0036363601684570312,-0.008201616450157264,-0.047492946661316746,-0.03070829038453932
0.006803013384342194,0.03714011609554291,9.857644081115723,0.005463360343128443,-0.005221307277679443,-0.007817268371582031,0.07286595216957696,-0.09486054867919319,0.016659271612697448
0.006803013384342194,0.03928578644990921,9.855999946594238,0.005034513771533966,0.004076071083545685,-0.011649131774902344,-0.008201616450157264,-0.03294509729643916,-0.03798221506697812
0.004588240757584572,0.034494828432798386,9.871305465698242,0.000019162660464644432,-0.0006066486239433289,-0.0018644332885742188,-0.036417021189774156,-0.019277541921699854,-0.0589236884540496
0.009088008664548397,0.03700079023838043,9.8636474609375,0.009177198633551598,-0.0008184611797332764,-0.0013637542724609375,0.020908436349025516,-0.012752896995339394,-0.03070829038453932
0.006883521564304829,0.034494828432798386,9.863798141479492,0.008884800598025322,-0.0006548203527927399,-0.0010881423950195312,0.022828786722856913,0.07355155908794345,0.03032681364722353
0.006862949579954147,0.03443488851189613,9.866093635559082,0.000048875343054533005,0.004275258630514145,0.0037050247192382812,-0.008201616450157264,0.04367791248389439,-0.03147189752961881
0.0020120516419410706,0.02970387041568756,9.870222091674805,-0.00011317501775920391,-0.004787754267454147,0.0040607452392578125,0.0009926452658997047,0.013542157370446102,-0.021514013660742477
-0.0027789026498794556,0.03863430768251419,9.869641304016113,-0.004983598366379738,0.004430271685123444,0.004283905029296875,0.008397610862824896,0.013542157370446102,-0.03070829038453932
-0.002197649097070098,0.030285123735666275,9.866734504699707,0.0001358154695481062,-0.00020916014909744263,0.004082679748535156,-0.0007966508532320732,-0.047492946661316746,0.022921846382771685
0.0020120516419410706,0.034494828432798386,9.866153717041016,0.0002229873789474368,0.00014104321599006653,-0.00074005126953125,-0.0016912989127979621,0.06806694386484965,0.017306186910138188
0.006803013384342194,0.030836645513772964,9.867546081542969,0.004753883462399244,-0.004771064966917038,0.0036172866821289062,-0.008201616450157264,0.013542157370446102,-0.07731223856658999
-0.000764524913392961,0.036509208381175995,9.866153717041016,-0.004495036322623491,-0.00010764971375465393,-0.0008029937744140625,0.06254364202341008,0.058624927708821044,-0.0563707651795185
0.006803013384342194,0.038383133709430695,9.866153717041016,0.004668348468840122,-0.000619594007730484,-0.0005788803100585938,0.05283348758160559,-0.08376026397830598,-0.10324285831745167
0.008676938712596893,0.030746974050998688,9.86136245727539,0.009832623414695263,-0.010190142318606377,-0.00530242919921875,0.05283348758160559,0.0268309307309406,-0.0439970570749272
0.0020120516419410706,0.029933994635939598,9.861823081970215,0.00016677158419042826,0.0043206848204135895,0.0042133331298828125,-0.011133315068826566,0.013542157370446102,-0.024844891479674065
0.006643115077167749,0.03896598890423775,9.870944023132324,0.005558965262025595,0.004317726939916611,0.004137992858886719,0.050796437022502174,0.07661431196131237,-0.028671246495542518
0.001922355149872601,0.03440513089299202,9.871033668518066,-0.004144895821809769,-0.005476012825965881,0.008348464965820312,0.05169079159737716,0.13218425080086008,-0.03070829038453932
-0.0012248808052390814,0.03928578644990921,9.874180793762207,-0.0039021989796310663,0.004583775997161865,0.007834434509277344,-0.027999319965835903,0.07457726140220895,-0.03070829038453932
0.0020120516419410706,0.03287070617079735,9.86461067199707,0.0010442788479849696,-0.000680193305015564,-0.006417274475097656,-0.02889236719981507,-0.0071485933792117045,-0.07105263699653776
0.005279897712171078,0.03776267170906067,9.866153717041016,0.005354593973606825,0.004198387265205383,-0.00170135498046875,-0.049832780039935354,-0.047492946661316746,-0.05011223082652408
0.0020120516419410706,0.034494828432798386,9.867555618286133,0.0007786654168739915,-0.00033498555421829224,-0.006396293640136719,-0.08710420186598257,0.07457726140220895,-0.03070829038453932
0.006803013384342194,0.03752146288752556,9.869179725646973,0.00523764081299305,-0.0002632923424243927,-0.0017690658569335938,0.014275255447885321,0.052100389504166365,-0.03070829038453932
0.010211055167019367,0.034494828432798386,9.869561195373535,0.004995299968868494,-0.00019155070185661316,-0.0018014907836914062,0.035215654947792385,0.05695942876839575,-0.056507729148675766
-0.0014660904416814446,0.03928578644990921,9.86746597290039,0.0001546585699543357,0.004443962126970291,0.0029802322387695312,-0.0249264018499913,0.030266942770280136,-0.03070829038453932
0.011263061314821243,0.03416392207145691,9.866815567016602,0.009306667372584343,0.0000011771917343139648,-0.001483917236328125,-0.003985975669657793,-0.09588118171243408,0.02611118620693728
0.002413058653473854,0.03489583358168602,9.856571197509766,-0.0002605360932648182,-0.00026333704590797424,-0.010847091674804688,-0.008201616450157264,0.013542157370446102,-0.09174339441630217
0.004758274648338556,0.034494828432798386,9.866153717041016,-0.0007234078366309404,-0.0005005635321140289,-0.0010099411010742188,-0.01713827864888426,-0.047492946661316746,-0.05675751797116386
-0.0006639413186348975,0.034494828432798386,9.870944023132324,-0.005307390354573727,-0.0007277987897396088,0.0037555694580078125,0.05998082698077436,-0.013401711605637714,0.03747416638660553
0.002432635286822915,0.03668001666665077,9.866153717041016,0.0040184445679187775,-0.001038476824760437,-0.0010232925415039062,0.019636927265918886,-0.025012472905704037,-0.025350248772028978
0.005841047037392855,0.03545679524540901,9.86998176574707,0.004339909180998802,-0.0013084933161735535,0.00386810302734375,-0.09350653037730428,0.025797250969167924,-0.01845318844818423
0.0029037920758128166,0.032379090785980225,9.86047077178955,-0.00042470498010516167,-0.006029445677995682,-0.005446434020996094,-0.08059716602107606,0.07457726140220895,0.018966366440540942
0.006803013384342194,0.03134689852595329,9.87176513671875,0.004558214917778969,0.0038196370005607605,0.008736610412597656,0.05283348758160559,0.0641114639226189,-0.03070829038453932
0.005300438031554222,0.03299225494265556,9.865402221679688,-0.004987802822142839,-0.010038262233138084,-0.005133628845214844,-0.008201616450157264,-0.047492946661316746,0.03032681364722353
0.0018708277493715286,0.03216996416449547,9.863687515258789,0.00428833719342947,-0.0050622522830963135,-0.00032329559326171875,-0.008201616450157264,-0.017874978583893603,-0.028909095827196314
0.0026931138709187508,0.03517588973045349,9.866153717041016,-0.0004626917652785778,-0.0004422217607498169,-0.00004100799560546875,-0.05188374444143003,0.013542157370446102,-0.03070829038453932
0.006803013384342194,0.03867495059967041,9.870333671569824,0.003931453451514244,0.004342705011367798,0.0047473907470703125,-0.008201616450157264,-0.031929293420384884,-0.03070829038453932
0.010512747801840305,0.03503543883562088,9.874113082885742,-0.0006811851635575294,0.004458948969841003,-0.00457763671875,-0.06234954192102007,-0.0406057681004167,-0.03070829038453932
0.005862245336174965,0.04313597455620766,9.870944023132324,-0.005689272657036781,-0.00001598149538040161,0.004601478576660156,-0.0022090859488231086,-0.09654301637083773,-0.03670081421576687
0.006803013384342194,0.030877290293574333,9.86253547668457,0.003930035978555679,-0.004815850406885147,-0.0046939849853515625,-0.05428777092607617,0.059628325186578235,0.0004289212056422558
0.0020120516419410706,0.03219114989042282,9.862606048583984,-0.0009597842581570148,-0.0045184604823589325,-0.004818916320800781,-0.024045147364500984,-0.015805911513055756,0.014483296073093035
0.00010845356155186892,0.028720112517476082,9.862346649169922,-0.0004747025668621063,-0.008853161707520485,0.00035953521728515625,-0.03245279006766934,0.05032608778469688,-0.07921065762988329
0.002271931618452072,0.02970387041568756,9.866153717041016,-0.0006277854554355145,-0.0041428543627262115,0.0005826950073242188,0.04952271346400058,-0.04087139842610673,-0.027397511264354354
0.0020120516419410706,0.029893649742007256,9.870564460754395,-0.0005028322339057922,0.0003086775541305542,-0.004008293151855469,-0.1254363840866445,-0.045075219777690904,-0.03070829038453932
0.006803013384342194,0.034494828432798386,9.870824813842773,0.00415587704628706,0.0005080066621303558,0.00093841552734375,0.051308834612385355,-0.047492946661316746,0.08983725136955292
0.0002691788540687412,0.036018870770931244,9.861143112182617,-0.005747782997786999,0.0005717016756534576,-0.008219718933105469,-0.008201616450157264,-0.028077200130629917,0.010911077121696615
0.005258446559309959,0.034494828432798386,9.856571197509766,-0.0013479813933372498,0.00044106319546699524,-0.007710456848144531,-0.008201616450157264,-0.02781575863189181,0.07068295967781743
0.003696819068863988,0.03604792430996895,9.864468574523926,0.003599697956815362,0.00005025416612625122,-0.0024309158325195312,0.013261666047226008,0.015219529100639584,-0.010922382952402837
0.0020120516419410706,0.040768783539533615,9.856571197509766,-0.0011750508565455675,0.00954589992761612,-0.006834983825683594,0.010691247083053357,-0.00535070616276452,-0.03070829038453932
0.006642290391027927,0.029864594340324402,9.86136245727539,0.0038998229429125786,-0.005182880908250809,-0.0013179779052734375,0.0507859249344827,0.13356480278684893,-0.0896958384392859
0.011363144032657146,0.02993469312787056,9.852473258972168,0.008488730527460575,-0.004859276115894318,-0.010327339172363281,-0.1273312146325809,0.016482767251548153,-0.03658951014674342
-0.0009043609024956822,0.031578414142131805,9.862404823303223,-0.00048815179616212845,-0.000013317912817001343,-0.005450248718261719,0.01567939293085185,0.1117313560529627,0.006445800097397784
0.004858257714658976,0.03255007416009903,9.859417915344238,-0.0006529581733047962,-0.00484461709856987,-0.004744529724121094,0.08909312093577855,-0.011233313307143784,-0.005932813036842823
-0.0007639243849553168,0.032479848712682724,9.857332229614258,-0.005688125267624855,0.0001500844955444336,0.00003814697265625,-0.03387173518731304,0.013542157370446102,-0.05637841579180171
0.0026326016522943974,0.03658003360033035,9.858656883239746,0.0044416626915335655,0.00028527528047561646,-0.004513740539550781,0.018363177026990845,0.02144770112833918,0.05689160045426503
-0.0017169545171782374,0.03343287855386734,9.856571197509766,-0.004686364904046059,0.00019411370158195496,-0.004281044006347656,-0.02173046028780713,0.06104841756455909,0.06430420999336682
0.006803013384342194,0.035486552864313126,9.859378814697266,0.00518816476687789,0.004664428532123566,-0.008230209350585938,-0.008201616450157264,0.013542157370446102,-0.018074089603875385
0.00109055545181036,0.034494828432798386,9.860441207885742,-0.004671027883887291,-0.00004320964217185974,-0.0029773712158203125,-0.019941164168675352,-0.03575339894279866,0.006847727381583945
0.005358400288969278,0.034494828432798386,9.860640525817871,0.004956597927957773,0.00014327093958854675,0.0018720626831054688,0.010202248227162758,0.004340238371999314,0.011922960642590078
0.004378163255751133,0.0321287177503109,9.854087829589844,0.005096938461065292,-0.004562795162200928,0.0023097991943359375,-0.03834501550578215,0.10546897971856013,-0.061599995360677284
0.0019303419394418597,0.03197678178548813,9.856653213500977,-0.004737880080938339,-0.00959964282810688,0.0028829574584960938,0.022836444005246734,-0.04645195646269805,-0.028626289976982085
0.0020120516419410706,0.02970387041568756,9.85406494140625,0.0003918614238500595,-0.004654798656702042,-0.0064373016357421875,0.05283348758160559,0.04547486588541599,-0.05981068590133228
0.0020120516419410706,0.03191804140806198,9.856571197509766,0.00040996214374899864,0.0002099648118019104,-0.0012187957763671875,-0.008201616450157264,0.013542157370446102,-0.0635356536291817
0.0020120516419410706,0.035065196454524994,9.848130226135254,0.00035213748924434185,0.00007757917046546936,-0.010531425476074219,-0.008201616450157264,-0.040226665921054554,-0.03070829038453932
0.001511910930275917,0.03928578644990921,9.85128116607666,0.0002340039936825633,0.005012895911931992,-0.004857063293457031,-0.014573249130853573,0.007170524689749792,-0.02433666937652958
0.0015821369597688317,0.034924741834402084,9.852210998535156,-0.004148753359913826,0.005261912941932678,-0.00006389617919921875,-0.008201616450157264,0.1802165689631963,-0.08626642980549158
0.0020120516419410706,0.03413501754403114,9.852140426635742,0.0009142163908109069,-0.004281237721443176,-0.00019550323486328125,-0.008201616450157264,0.06999337737591059,0.03032681364722353
0.006803013384342194,0.0367179736495018,9.858795166015625,0.005653571803122759,0.00532194972038269,0.004734992980957031,0.008154899023451435,0.017933141913544493,-0.05903035012887155
0.007867305539548397,0.03555912524461746,9.851780891418457,0.010425548069179058,0.005342882126569748,-0.00420379638671875,-0.008201616450157264,-0.010196031687800988,-0.06800521869826831
0.006803013384342194,0.03149710223078728,9.856571197509766,0.005160490982234478,-0.004243418574333191,0.0008754730224609375,0.0071432306134961866,-0.06283782040539665,-0.05355341219848741
-0.0010557739296928048,0.03142699971795082,9.853504180908203,0.00007308181375265121,0.0004303567111492157,0.0011625289916992188,-0.06923672048192012,-0.008409910539416207,-0.00875622247467701
-0.0011258742306381464,0.033009931445121765,9.854918479919434,0.00018128252122551203,0.005251392722129822,-0.002902984619140625,-0.048177713146250196,0.055660172041785944,-0.03070829038453932
0.00679370341822505,0.034494828432798386,9.856561660766602,0.004775783512741327,0.0006795600056648254,0.001941680908203125,-0.008201616450157264,0.013423562874896466,-0.03082689155019557
0.006803013384342194,0.03916420415043831,9.851841926574707,0.004737929441034794,0.005165606737136841,-0.0021038055419921875,-0.06768781500506105,-0.04594404118445768,-0.09096894167787264
0.005098417866975069,0.035876598209142685,9.846989631652832,-0.00011577853001654148,-0.004277963191270828,-0.006404876708984375,-0.0258048815711313,-0.004061107750527933,-0.04831154883540675
0.003786873072385788,0.0362696498632431,9.851780891418457,0.004830577410757542,0.005202915519475937,-0.0012826919555664062,-0.008201616450157264,0.05196669388724866,-0.03070829038453932
-0.0009338579839095473,0.03928578644990921,9.855827331542969,-0.004655126947909594,0.005498308688402176,0.008288383483886719,-0.045731491567180704,0.013542157370446102,-0.06823816550156277
0.0007099440554156899,0.03230808675289154,9.853082656860352,0.000009446870535612106,-0.004770863801240921,-0.0012874603271484375,0.036245092521760246,-0.07535128725381536,-0.09174339441630217
0.0007801700267009437,0.034494828432798386,9.858899116516113,0.00015340757090598345,-0.00021207332611083984,0.008069992065429688,0.05283348758160559,0.058883514401929495,-0.03070829038453932
0.003173709148541093,0.03696247190237045,9.857732772827148,0.005297424271702766,-0.004852429032325745,0.00771331787109375,-0.06923672048192012,-0.032693847720603186,0.0007286307735362748
0.010502537712454796,0.030795300379395485,9.86136245727539,0.005231419578194618,0.00025349482893943787,0.007319450378417969,0.005702834430990412,-0.047492946661316746,-0.03070829038453932
0.0020120516419410706,0.03559957444667816,9.851780891418457,0.0003311404725536704,0.00042807310819625854,-0.0025205612182617188,-0.01523865896640091,0.013542157370446102,-0.023671259540982245
-0.0015337055083364248,0.034494828432798386,9.853026390075684,-0.004529867321252823,0.00033553317189216614,0.01146697998046875,0.08589008238015991,0.013542157370446102,-0.05868679294764123
0.001753901015035808,0.034494828432798386,9.851780891418457,0.0054352800361812115,0.0005675740540027618,-0.00276947021484375,-0.008201616450157264,0.04570410410943454,0.0014536613570290786
0.0020120516419410706,0.03671375289559364,9.854352951049805,0.0006019690772518516,-0.00406404584646225,0.0067119598388671875,-0.06923672048192012,-0.04599348001466094,-0.06047610240698623
0.006803013384342194,0.034494828432798386,9.849373817443848,0.0052952151745557785,0.0001896210014820099,-0.0024967193603515625,0.0221710341696994,-0.017120296041460085,-0.00033564810231592203
0.007543313782662153,0.034494828432798386,9.852520942687988,0.004889830946922302,-0.000005725771188735962,-0.0022382736206054688,0.0434023036787138,0.06514607749931717,-0.09174339441630217
0.0013419771566987038,0.03516490384936333,9.856571197509766,0.00012126436922699213,-0.00009378790855407715,0.0025835037231445312,-0.06070019797880744,0.07457726140220895,-0.0832068785832961
0.0014122031861916184,0.038685936480760574,9.857171058654785,-0.004323181696236134,0.00012280046939849854,0.007221221923828125,-0.0005597553468237013,0.013542157370446102,0.022684952543889966
0.005759058054536581,0.02970387041568756,9.863021850585938,0.005090269260108471,-0.004837151616811752,0.011742591857910156,-0.04263750925465749,-0.034193341047685434,0.03032681364722353
0.00791719276458025,0.033380646258592606,9.848103523254395,0.004973824601620436,0.000271819531917572,-0.007193565368652344,-0.008201616450157264,0.06038300772901175,0.016132553303919717
0.006803013384342194,0.03246185556054115,9.856571197509766,0.004078888799995184,0.0007689520716667175,0.0021295547485351562,-0.008201616450157264,-0.07339230362249108,0.03032681364722353
0.003974801395088434,0.02883841097354889,9.853743553161621,-0.0007562125101685524,-0.008900148794054985,-0.0029315948486328125,0.038854438228116676,-0.05851863288986272,-0.03070829038453932
0.004910489544272423,0.03739326447248459,9.856571197509766,-0.0002751711290329695,0.00064067542552948,0.0019130706787109375,0.04001850523392783,0.013542157370446102,-0.03070829038453932
0.0015146138612180948,0.02970387041568756,9.856322288513184,-0.0004366908688098192,-0.0042238906025886536,0.0022153854370117188,0.049664893456527914,0.06507147902697594,-0.027539694591934994
0.0020120516419410706,0.039464280009269714,9.847524642944336,-0.00004905508831143379,0.005069926381111145,-0.0073986053466796875,-0.008201616450157264,0.07230331533669716,-0.14595668693195613
0.002228585770353675,0.03906925395131111,9.851780891418457,0.008583609014749527,-0.0041554830968379974,-0.0029554367065429688,-0.06923672048192012,0.07181869207074361,0.03032681364722353
0.0068410541862249374,0.03453287109732628,9.856647491455078,0.008871725760400295,0.0057173967361450195,0.011151313781738281,-0.007716993184203704,0.13464311890206468,-0.03022366044847915
0.0020120516419410706,0.036100588738918304,9.86457347869873,-0.00028553069569170475,0.0003947317600250244,0.0061855316162109375,0.011919800679582955,0.05412041795119764,0.009869976032555499
0.002249060431495309,0.040961772203445435,9.856571197509766,-0.005179496482014656,0.004833195358514786,0.0008554458618164062,0.04981411708163683,0.0348936488810233,0.027307436477148155
0.004954385105520487,0.042605575174093246,9.85804271697998,-0.0006693268660455942,0.009350184351205826,0.0005092620849609375,-0.026943762254378036,0.013542157370446102,-0.011966146247845203
0.000022978696506470442,0.031104810535907745,9.855170249938965,0.004097356460988522,-0.00046383216977119446,-0.0043315887451171875,0.01713851877272227,-0.029645448916661866,-0.03070829038453932
-0.0014481890248134732,0.03795507177710533,9.8587007522583,-0.0004318384453654289,0.000010788440704345703,-0.004252433776855469,-0.06923672048192012,-0.003410665634216445,-0.03070829038453932
-0.0018396368250250816,0.030016958713531494,9.856571197509766,-0.004861956927925348,-0.00475107878446579,0.000614166259765625,-0.06125944639752868,0.009553513658143772,-0.03070829038453932
0.0020120516419410706,0.03372820094227791,9.856571197509766,-0.0007382419425994158,0.0001760721206665039,0.00028133392333984375,-0.12050524096994653,-0.0987614938297696,0.025443521875355313
0.0027487773913890123,0.02767675369977951,9.866153717041016,-0.005315185058861971,-0.008897555992007256,0.009183883666992188,0.027008729092772493,0.07457726140220895,0.03032681364722353
0.0020120516419410706,0.0350910983979702,9.856571197509766,-0.0006574646104127169,-0.003919646143913269,-0.00047206878662109375,-0.03492102299855625,0.013542157370446102,-0.03070829038453932
0.0020120516419410706,0.034494828432798386,9.856571197509766,-0.0006493791006505489,0.0006718672811985016,-0.0010509490966796875,-0.008201616450157264,-0.014071923917945216,-0.00890118056660797
0.006803013384342194,0.034494828432798386,9.854018211364746,0.0037883748300373554,0.0006794854998588562,-0.0056915283203125,0.02432475823364838,-0.05151061867759163,-0.002199562704108767
0.0020120516419410706,0.03358547016978264,9.851780891418457,-0.001062414376065135,0.0005964823067188263,-0.005457878112792969,-0.008201616450157264,-0.03590803869447598,0.007156999381068647
-0.00026150501798838377,0.04239847511053085,9.858844757080078,-0.005641963332891464,0.010027825832366943,0.004337310791015625,-0.0371659541003087,-0.03680268675404187,0.019636562077581916
0.0020120516419410706,0.03774797171354294,9.855033874511719,-0.0010946078691631556,-0.004323892295360565,-0.009857177734375,0.04303787573389659,0.0037465455227371114,-0.0209126902095169
-0.002080222126096487,0.03040255233645439,9.86136245727539,-0.0008320510387420654,0.00026047229766845703,0.0042896270751953125,0.04393255047388893,-0.029691045765456992,-0.09174339441630217
0.0010669298935681581,0.03834066540002823,9.859472274780273,-0.000371796078979969,0.004941325634717941,0.0040912628173828125,-0.020242146059405483,0.025582686979694323,-0.07970287147716056
0.0020120516419410706,0.034494828432798386,9.854369163513184,0.0001630599144846201,0.0003792867064476013,-0.000499725341796875,-0.03625472415570702,0.013542157370446102,-0.03070829038453932
0.004671205300837755,0.034494828432798386,9.859758377075195,0.004642495885491371,0.0006788931787014008,0.009003639221191406,-0.06923672048192012,-0.047492946661316746,-0.03070829038453932
0.002679852768778801,0.03722420707345009,9.852448463439941,-0.00543797854334116,0.0003368891775608063,-0.009576797485351562,0.05283348758160559,-0.047492946661316746,0.03032681364722353
0.0020120516419410706,0.03928578644990921,9.866153717041016,-0.000558079220354557,0.004543419927358627,0.009317398071289062,0.05283348758160559,0.04920812455578331,0.03032681364722353
-0.006874755956232548,0.02970387041568756,9.861015319824219,-0.009465429931879044,-0.005212809890508652,0.004303932189941406,0.1050132513544469,0.07014959127274818,0.02589914018270946
0.006525687873363495,0.02970387041568756,9.852335929870605,0.00493492791429162,-0.004790067672729492,-0.0053272247314453125,0.10680254747357869,-0.03689388045163212,-0.08821037234640729
0.002219151007011533,0.03907868638634682,9.86156940460205,0.004997349344193935,-0.00019966810941696167,0.008332252502441406,0.05283348758160559,-0.04485457265098776,-0.0891050270760798
0.006803013384342194,0.03463170304894447,9.861225128173828,0.004927672445774078,0.0044390857219696045,-0.0017118453979492188,-0.008201616450157264,0.0152858833212092,0.028583101036673653
0.0002349577989662066,0.03600176051259041,9.863140106201172,-0.004403033293783665,-0.00023511797189712524,0.0072803497314453125,0.010996150996470958,0.036181753189378954,-0.07254564030988717
-0.001138679450377822,0.034494828432798386,9.856571197509766,-0.00443765614181757,-0.0005686245858669281,-0.0020570755004882812,0.012694253418012488,0.032785494985443,-0.009812410511209652
0.003582051256671548,0.031273867934942245,9.86136245727539,0.0005041825352236629,-0.005224529653787613,0.0023851394653320312,-0.07026815908787137,0.03354337917904997,-0.09174339441630217
0.006803013384342194,0.03120364248752594,9.867944717407227,0.0050278156995773315,-0.0004080161452293396,0.0023870468139648438,-0.07295211660678226,0.036364113904133,-0.03070829038453932
0.0020120516419410706,0.034494828432798386,9.858000755310059,0.0005702257622033358,-0.0002945736050605774,0.0022192001342773438,-0.026413542139629348,0.07457726140220895,0.012114901297964668
0.011379711329936981,0.025127170607447624,9.870515823364258,0.00991120096296072,-0.009718922898173332,0.011162757873535156,-0.008201616450157264,0.07184769369428971,0.03032681364722353
0.007087496109306812,0.03477931022644043,9.856571197509766,0.005396656692028046,-0.00010817870497703552,-0.003284454345703125,-0.008201616450157264,0.017166373137931228,-0.03070829038453932
-0.0008506180602125823,0.03928578644990921,9.865219116210938,0.0006065255729481578,0.004367612302303314,0.010659217834472656,-0.03276729893460727,0.013542157370446102,-0.03070829038453932
0.000013541083717427682,0.034494828432798386,9.860568046569824,-0.004034836310893297,-0.0005741007626056671,0.005482673645019531,0.0019128264935738054,0.04911693085819306,0.03032681364722353
0.0020120516419410706,0.03177260980010033,9.85863971710205,0.0011614729883149266,-0.004757806658744812,-0.003922462463378906,-0.008201616450157264,0.031572015829855034,-0.022383158567679903
0.0020120516419410706,0.03233799710869789,9.85549259185791,0.0014059229288250208,0.00044266507029533386,-0.0037488937377929688,-0.055498075110917144,-0.020015655919310805,0.016588171611273864
0.0020120516419410706,0.034494828432798386,9.856571197509766,0.0016112113371491432,0.0003044009208679199,-0.0033750534057617188,-0.04354873919925917,0.013542157370446102,-0.03070829038453932
0.0020120516419410706,0.034494828432798386,9.85750961303711,0.0013858894817531109,0.00038493797183036804,0.0012674331665039062,-0.008201616450157264,0.0015928214587881298,-0.03070829038453932
-0.0010434250580146909,0.024912914261221886,9.86136245727539,0.00604087021201849,-0.008935661986470222,0.0012311935424804688,0.041778799729513504,-0.03643825880922467,-0.01965360419997389
0.0020120516419410706,0.03047993965446949,9.858123779296875,0.0009274065960198641,-0.004110943526029587,-0.0033025741577148438,0.06272031980733127,-0.08875441292205467,-0.040595129280371615
0.006803013384342194,0.03843936696648598,9.857418060302734,0.005728042684495449,0.005263429135084152,-0.0031061172485351562,0.0025814646607210303,-0.025926757759133712,0.008760631415147107
0.0043127043172717094,0.044076740741729736,9.851969718933105,0.0008189431391656399,0.009440883994102478,-0.0027647018432617188,-0.01061776918862283,-0.01818348435488133,0.03032681364722353
0.006803013384342194,0.032264530658721924,9.854010581970215,0.005035338923335075,-0.0001656264066696167,-0.007306098937988281,0.024420274160322778,-0.04328429615254596,-0.06333017432491275
-0.0023078410886228085,0.03186381980776787,9.851309776306152,-0.009263885207474232,-0.00019108504056930542,-0.0019989013671875,-0.008201616450157264,0.04706029686607875,-0.09174339441630217
0.004713415168225765,0.03658442571759224,9.85325813293457,0.0005856604548171163,0.004710525274276733,0.00328826904296875,-0.034822332101134855,0.07457726140220895,-0.03070829038453932
0.00591159425675869,0.03404911980032921,9.864816665649414,0.004817447625100613,0.00020062923431396484,0.0083465576171875,0.047155305864650686,-0.05317112837827165,0.03032681364722353
0.002387432847172022,0.03374406695365906,9.856571197509766,0.0001665253657847643,0.0006192140281200409,-0.0008249282836914062,-0.008201616450157264,0.07457726140220895,-0.025926069070626095
0.0020120516419410706,0.030314180999994278,9.86075210571289,0.0003937229048460722,0.005008421838283539,-0.005265235900878906,-0.008201616450157264,0.017429735627373398,-0.03070829038453932
-0.002309044124558568,0.03928578644990921,9.851546287536621,0.0051995571702718735,0.004471283406019211,-0.009716987609863281,-0.12727890765653477,-0.04150711294702038,-0.03370120724168751
0.0020120516419410706,0.03111274540424347,9.848398208618164,0.0004807923687621951,-0.0046708956360816956,-0.009189605712890625,-0.008201616450157264,0.04943928377050593,-0.012759732187089366
0.0037503335624933243,0.034494828432798386,9.846989631652832,0.0004086544504389167,0.00006077811121940613,-0.008458137512207031,0.013943457664610796,-0.008602916744321959,-0.013963342919945856
0.008257858455181122,0.034494828432798386,9.843866348266602,0.009979541413486004,0.0005098022520542145,-0.012488365173339844,-0.008201616450157264,0.07457726140220895,-0.03070829038453932
0.006800482980906963,0.03449230268597603,9.858166694641113,-0.0040506161749362946,-0.008648870512843132,-0.0020961761474609375,-0.008201616450157264,0.07457726140220895,0.009971045656747165
0.0037478082813322544,0.02970387041568756,9.846989631652832,-0.004042535088956356,-0.003346789628267288,-0.006725311279296875,-0.005549848865752704,-0.0280318434056728,-0.03070829038453932
0.011361566372215748,0.039169587194919586,9.847105979919434,0.009808151051402092,0.005672436207532883,-0.006137847900390625,0.05135312412028466,0.13117130173043545,-0.03070829038453932
0.002198478439822793,0.034681256860494614,9.851594924926758,-0.00008255220018327236,0.0007581412792205811,-0.0011768341064453125,0.05045847606071877,-0.04511793514042993,0.02795180546139002
0.0020120516419410706,0.032664597034454346,9.848119735717773,-0.00010867766104638577,-0.0037832148373126984,-0.01024627685546875,-0.06923672048192012,-0.03857861597952452,-0.054024768622391015
0.004902556072920561,0.037385329604148865,9.84988021850586,0.00041575462091714144,0.0008122511208057404,-0.005123138427734375,-0.008201616450157264,0.03775328366786369,-0.06753226144877798
0.00004137121140956879,0.034494828432798386,9.84501838684082,0.0006979029858484864,0.0007967539131641388,-0.004702568054199219,0.05283348758160559,0.04947146036479903,-0.0056025010198159746
0.004762103781104088,0.034494828432798386,9.849740028381348,0.005529336165636778,0.0005696825683116913,0.0010662078857421875,-0.06020250130389565,-0.012458291726529703,-0.03070829038453932
0.0031182991806417704,0.0370732918381691,9.849568367004395,0.00010437634773552418,0.005757521837949753,0.0013332366943359375,-0.008201616450157264,-0.014644219065198237,-0.04480147860236149
0.000976031762547791,0.03721374645829201,9.84802532196045,0.0002999196294695139,0.005707915872335434,-0.002895355224609375,0.004996923708099016,-0.09532953721524977,-0.13957995828980874
-0.0008473127381876111,0.030669664964079857,9.846989631652832,0.005026781000196934,0.000586729496717453,-0.0020771026611328125,-0.008201616450157264,0.00123826527175571,-0.0430121758131231
0.005012116394937038,0.034494828432798386,9.842198371887207,-0.004211730323731899,0.00019814074039459229,-0.006214141845703125,0.030018094432824244,-0.09712038079911538,-0.03070829038453932
0.0020120516419410706,0.04257986322045326,9.846989631652832,0.00028636748902499676,0.009361941367387772,-0.00089263916015625,-0.008201616450157264,-0.02842327194205271,0.03032681364722353
-0.00038657899131067097,0.0273052379488945,9.842198371887207,0.00046638050116598606,-0.003947079181671143,-0.005202293395996094,-0.13019147640944276,-0.017015575367662038,-0.0002309107532513466
-0.0004506233672145754,0.034360431134700775,9.844527244567871,-0.003994747065007687,-0.004251856356859207,-0.004769325256347656,0.021459867402798264,0.013542157370446102,0.0006653414669545697
0.0017369561828672886,0.03421973064541817,9.844456672668457,0.00497081596404314,0.005491316318511963,0.000400543212890625,-0.06923672048192012,0.04931671389141593,-0.027203624605375905
0.0020120516419410706,0.034494828432798386,9.837408065795898,0.00045724445953965187,0.0009208209812641144,-0.008324623107910156,-0.00037894209680348087,0.005719483017092318,-0.03070829038453932
0.006259322166442871,0.043533049523830414,9.837408065795898,0.004931735340505838,0.009972743690013885,-0.007601737976074219,0.045907062113404416,-0.04056652119311557,-0.03070829038453932
0.0020120516419410706,0.03881244733929634,9.837408065795898,0.0003281395183876157,0.005139794200658798,-0.00647735595703125,-0.0021714398671087024,-0.02940241691217106,-0.07968304125020505
0.006803013384342194,0.030509846284985542,9.841794967651367,0.00502909068018198,0.0050210654735565186,-0.005787849426269531,-0.008201616450157264,-0.047492946661316746,0.025192889284380883
0.0032529516611248255,0.03573572635650635,9.842198371887207,0.00008426432032138109,0.0002600140869617462,-0.0008916854858398438,-0.06923672048192012,0.013542157370446102,-0.014899675810779316
0.0020120516419410706,0.034494828432798386,9.842198371887207,0.0004466648679226637,0.00005922839045524597,-0.00027561187744140625,0.036128632460326236,0.013542157370446102,-0.03070829038453932
0.0038478735368698835,0.03265900909900665,9.842198371887207,0.0006533759878948331,0.000034227967262268066,0.0000057220458984375,0.05283348758160559,0.07457726140220895,-0.01644858795774499
-0.0010134348412975669,0.036260299384593964,9.839173316955566,-0.0038713638205081224,-0.00035521388053894043,-0.004412651062011719,0.05283348758160559,-0.025001507250434995,-0.03070829038453932
0.003707170719280839,0.02660803124308586,9.843599319458008,0.005247583147138357,-0.004250220954418182,-0.004573822021484375,-0.026046312750035383,0.035137347896175244,0.008731617285151101
0.0114402761682868,0.02975510060787201,9.84683609008789,0.010056695900857449,-0.004096727818250656,0.004862785339355469,-0.06858406389021367,-0.10657010759838668,-0.030055627122726258
0.006803013384342194,0.03926679119467735,9.83265495300293,0.005586952902376652,0.005632132291793823,-0.008512496948242188,-0.007959624982297828,0.013542157370446102,-0.03070829038453932
0.003674851730465889,0.036157626658678055,9.837408065795898,0.005561005789786577,0.005464460700750351,-0.0034475326538085938,-0.008201616450157264,0.034725615555270414,-0.03070829038453932
0.0037450778763741255,0.037552762776613235,9.838732719421387,0.005168922245502472,0.0001715049147605896,-0.007778167724609375,0.013876516474659381,-0.047492946661316746,0.008248694062620106
0.007987466640770435,0.03331037238240242,9.834420204162598,0.009879493154585361,-0.005012031644582748,-0.0072040557861328125,-0.0311743974345398,0.08966683014563318,-0.015618733313801664
-0.0009054273250512779,0.03845631331205368,9.834490776062012,-0.004251984413713217,0.008713524788618088,-0.007124900817871094,0.05283348758160559,0.12504518233388937,-0.09174339441630217
0.007772934623062611,0.03097754903137684,9.840925216674805,0.00978679396212101,-0.0050290413200855255,0.0024471282958984375,-0.053010512211070566,-0.031266738390467196,0.014100610378953939
0.005599654279649258,0.034494828432798386,9.843401908874512,0.004615684971213341,-0.0003495253622531891,0.0024976730346679688,0.06816384717369921,-0.03216258706922313,-0.06108268190222154
0.0031450591050088406,0.03083687648177147,9.837408065795898,0.004741635639220476,-0.0003488697111606598,-0.002048492431640625,-0.008201616450157264,0.06014315069526794,0.01589271294544244
0.011083087883889675,0.034494828432798386,9.841687202453613,0.009421306662261486,-0.0002655722200870514,0.0027008056640625,-0.008201616450157264,0.013542157370446102,-0.03070829038453932
0.0020120516419410706,0.02970387041568756,9.837408065795898,-0.00023909634910523891,-0.004577081650495529,-0.0019445419311523438,0.03802411667671056,0.06717256260954821,0.022922128194776015
0.0013604687992483377,0.034494828432798386,9.838059425354004,0.000022309133782982826,0.0005235336720943451,-0.0018110275268554688,-0.008201616450157264,0.07457726140220895,-0.02240734770930593
0.004507504403591156,0.034694772213697433,9.842398643493652,0.00041975523345172405,-0.003946520388126373,-0.002124786376953125,-0.039992771962621285,0.04278609254953171,-0.0014643418652404876
0.006861999165266752,0.032128844410181046,9.83989143371582,0.0002435303758829832,-0.003733493387699127,-0.007128715515136719,0.08372678004311705,0.013542157370446102,-0.03070829038453932
0.004366550128906965,0.032058365643024445,9.835053443908691,0.004839225672185421,0.001346830278635025,-0.0074939727783203125,-0.0071574246003651195,-0.01749750391054462,-0.0007128376286072731
0.0013015259755775332,0.034494828432798386,9.851070404052734,0.00019784108735620975,0.0015540644526481628,0.01104736328125,-0.07828857542182496,0.05647355152239926,0.03937866858712838
0.006162963807582855,0.034494828432798386,9.842198371887207,0.004607918672263622,0.0017202496528625488,0.0012769699096679688,-0.016355608339109557,0.005388165481493809,-0.022554290157953762
-0.0022093309089541435,0.034494828432798386,9.843338012695312,-0.004932104144245386,0.001687120646238327,0.0008525848388671875,0.031065061046966706,-0.03298066230489083,0.03032681364722353
-0.002279808046296239,0.03928578644990921,9.838406562805176,-0.0005367307458072901,0.00607927143573761,0.005420684814453125,-0.008201616450157264,0.06821896893473532,0.023968521179749902
0.006157307419925928,0.034494828432798386,9.846989631652832,0.009081436321139336,0.0011152662336826324,0.005382537841796875,0.026428936745688324,0.08280329044256372,-0.05711283455034997
-0.0023501617833971977,0.02970387041568756,9.842198371887207,-0.004856250248849392,-0.0033781975507736206,0.00040531158447265625,-0.013663633352051837,0.06911524450031438,0.08043789721541046
0.0023704415652900934,0.034494828432798386,9.846989631652832,-0.00002626492641866207,0.0012038201093673706,0.0046291351318359375,-0.017333125803214743,0.12191508806417237,0.02576105730316814
0.001724013825878501,0.04378870129585266,9.851492881774902,-0.004473197273910046,0.005404718220233917,0.004268646240234375,-0.008201616450157264,0.006203145787693846,0.08769241855771687
-0.0023435293696820736,0.034277141094207764,9.841980934143066,0.005276771262288094,-0.004488043487071991,-0.005858421325683594,0.04728697376915855,0.016315400936456396,0.09136191767898638
0.005376812070608139,0.034494828432798386,9.845050811767578,0.005171394906938076,0.0005567260086536407,-0.0010805130004882812,-0.05106743011390772,0.0317114477384585,-0.048877574082445106
0.0020120516419410706,0.03269697353243828,9.848787307739258,0.0005700095789507031,-0.0037917308509349823,0.007632255554199219,0.010863922803007742,-0.07039699886717603,-0.09174339441630217
0.0035789560060948133,0.02647981606423855,9.842198371887207,0.0004048541886731982,-0.009043881669640541,-0.0016889572143554688,-0.028163404588474883,-0.047492946661316746,-0.00959676596446501
0.006803013384342194,0.034494828432798386,9.846989631652832,0.004731637425720692,0.0009437762200832367,0.0027675628662109375,-0.028975183243501474,0.013542157370446102,0.03032681364722353
0.0005022365367040038,0.034494828432798386,9.853290557861328,0.0005033074412494898,0.0009164288640022278,0.006436347961425781,0.014364448113492167,0.09381179447647889,0.03032681364722353
0.0020120516419410706,0.035934291779994965,9.851780891418457,0.000491488492116332,0.005432743579149246,0.0059947967529296875,0.010136667738960057,0.013542157370446102,-0.07340512356739808
0.005433898884803057,0.03586394339799881,9.855202674865723,0.00045131356455385685,0.005032859742641449,0.005084991455078125,-0.11282980254993148,-0.0562020248224648,-0.07430137912265729
0.0038603623397648335,0.034494828432798386,9.848837852478027,0.00014468887820839882,0.000453263521194458,0.0000171661376953125,-0.008201616450157264,0.03708896772980061,-0.0071614850277647735
-0.0001813790004234761,0.0288091991096735,9.853973388671875,-0.004956278949975967,-0.009185558184981346,0.0089569091796875,0.03628772784321993,-0.047492946661316746,-0.014162525643573707
0.000783642171882093,0.032160691916942596,9.851780891418457,0.0005236532306298614,-0.004253964871168137,0.0034961700439453125,-0.05358720962868707,0.090226772255442,-0.04635780123777236
0.0020120516419410706,0.02970387041568756,9.851780891418457,0.0005819413345307112,-0.004290353506803513,0.002986907958984375,-0.03973195745390464,0.04507249837419348,-0.03070829038453932
0.010506455786526203,0.03187889605760574,9.850693702697754,0.005648731254041195,0.005508292466402054,-0.0019512176513671875,0.02512442397506878,0.07457726140220895,-0.07788886928314037
0.006803013384342194,0.02970387041568756,9.851780891418457,0.0059111942537128925,-0.003935717046260834,0.0024118423461914062,-0.001112547102345163,0.06039912270658475,0.07718376564314895
0.006803013384342194,0.03512176498770714,9.856571197509766,0.00552323367446661,0.000608690083026886,0.0067539215087890625,0.08990780775728768,0.013542157370446102,-0.09174339441630217
0.004282958805561066,0.029953017830848694,9.859091758728027,0.005371392704546452,-0.00907202996313572,0.0059051513671875,0.020728903759474674,0.01671619430251863,-0.06281286753656362
0.006694816518574953,0.037052594125270844,9.851780891418457,0.00014118384569883347,0.009499926120042801,0.0012407302856445312,0.023005117661234316,0.04474889148183768,-0.09312173859700264
0.01159396767616272,0.03452758863568306,9.851747512817383,0.008801588788628578,-0.0050599053502082825,0.0056018829345703125,0.05283348758160559,0.0438510150906719,0.000017944254311158987
0.006067884620279074,0.03596508502960205,9.853251457214355,0.004195638000965118,-0.0007316358387470245,0.0005884170532226562,0.0011636667994144772,0.07457726140220895,-0.02134301880765415
0.00746766384691,0.034494828432798386,9.85590648651123,0.008731935173273087,-0.00013406574726104736,0.0005207061767578125,0.05283348758160559,-0.05596038020014916,-0.022240871853446788
0.006803013384342194,0.03029804490506649,9.847583770751953,0.003948773257434368,-0.00007142871618270874,0.00033664703369140625,-0.023340757425916972,-0.03235380568555704,-0.023138724899239425
0.006803013384342194,0.03554462641477585,9.846989631652832,0.0036227756645530462,-0.0003032572567462921,-0.0037212371826171875,0.005172427553256609,0.04782920007580765,0.07798788034567912
0.009353420697152615,0.034494828432798386,9.845869064331055,0.00820466224104166,-0.00018570572137832642,-0.0036144256591796875,-0.008201616450157264,0.03176158025974933,-0.07747150737225558
0.008829725906252861,0.03578400984406471,9.849754333496094,0.0031671389006078243,-0.004904329776763916,0.0015516281127929688,-0.008201616450157264,0.03936176653697524,0.03032681364722353
0.008759363554418087,0.03253847733139992,9.848946571350098,0.0028683794662356377,0.00028600916266441345,-0.0031909942626953125,-0.008201616450157264,-0.022569719782072447,0.005403589269269208
0.003898053430020809,0.03928578644990921,9.849894523620605,0.002796347253024578,0.004646871238946915,-0.0032281875610351562,-0.008201616450157264,-0.010484820623645589,0.006299841489475124
0.0038277017883956432,0.026728563010692596,9.84880542755127,0.0027401424013078213,-0.004679020494222641,0.001605987548828125,-0.04610600471319426,-0.00958857173849298,0.053457536086055996
0.0018402900313958526,0.034494828432798386,9.847161293029785,-0.001810663379728794,0.0005144961178302765,-0.0029754638671875,0.0506452924066892,0.011353962195529713,-0.03070829038453932
0.0018092315876856446,0.03918437659740448,9.851780891418457,-0.011203923262655735,0.0006378889083862305,0.0014963150024414062,0.051541567972268255,0.012250237761108769,-0.029416357434988764
0.011562908999621868,0.03452588617801666,9.851780891418457,0.0031101342756301165,0.00462283194065094,0.0010499954223632812,-0.008201616450157264,0.07457726140220895,-0.09134771702201083
0.0035773569252341986,0.03292952850461006,9.851780891418457,0.003287394531071186,-0.004876706749200821,0.0011873245239257812,-0.08917811143422025,0.033483534982533016,-0.03070829038453932
0.008486191742122173,0.034494828432798386,9.845564842224121,0.003471038769930601,0.00030353665351867676,-0.0073986053466796875,-0.04779360838692954,-0.06564185318352489,0.008883704053522932
0.0020120516419410706,0.03635813668370247,9.840335845947266,-0.0016870507970452309,0.005399215966463089,-0.011767387390136719,-0.008201616450157264,-0.005106446858657228,-0.05444619929830873
-0.0033898171968758106,0.04067913070321083,9.850387573242188,-0.010572554543614388,0.005010627210140228,0.0030078887939453125,-0.008201616450157264,0.07457726140220895,-0.07399264656804479
0.006803013384342194,0.034494828432798386,9.845666885375977,0.003734037047252059,0.00029725581407546997,-0.0061359405517578125,-0.11341893304627153,0.013542157370446102,-0.04756118185195076
0.0020120516419410706,0.027417698875069618,9.84573745727539,-0.0008403556421399117,0.0002923235297203064,-0.005946159362792969,-0.008201616450157264,0.013542157370446102,-0.03070829038453932
0.006019858177751303,0.03488640487194061,9.838191032409668,0.0039976355619728565,0.0007558874785900116,-0.010088920593261719,-0.008201616450157264,0.06958868866758733,0.025338254252815134
0.006803013384342194,0.03403277322649956,9.842198371887207,0.003972991369664669,0.0008070915937423706,-0.0050945281982421875,0.04694706513624464,-0.0533793691066777,0.02444040287454915
-0.0017138393595814705,0.03875325620174408,9.842198371887207,-0.005272031761705875,0.005509965121746063,-0.00467681884765625,-0.008201616450157264,0.020326429526546383,-0.0849591289303085
0.004626509267836809,0.02970387041568756,9.846551895141602,-0.00020729401148855686,-0.003809615969657898,0.00501251220703125,0.019526256857023524,0.04127003067762689,0.03032681364722353
0.0020120516419410706,0.034494828432798386,9.846395492553711,-0.00047964765690267086,0.0011012814939022064,0.009888648986816406,-0.008201616450157264,0.04216788038836622,0.0017010956318833687
0.0020120516419410706,0.034494828432798386,9.83988094329834,-0.00015717861242592335,0.0011324770748615265,-0.004014015197753906,-0.008201616450157264,-0.01598141535821335,-0.062219821687642715
0.009105375036597252,0.038456253707408905,9.845330238342285,0.009293267503380775,0.005700655281543732,0.0011968612670898438,-0.06923672048192012,-0.036925016509293855,-0.08117546426427928
0.010834913700819016,0.034494828432798386,9.840680122375488,0.008396095596253872,0.0009638592600822449,-0.0024967193603515625,-0.11093166363111584,0.003872076929162541,-0.03070829038453932
-0.0020903260447084904,0.03859720751643181,9.845612525939941,-0.005547353066504002,0.005470767617225647,0.0026216506958007812,-0.016973847180701492,0.013542157370446102,-0.08297116368575794
0.006803013384342194,0.030321970582008362,9.846989631652832,0.004245556890964508,0.0008423179388046265,0.00284576416015625,0.04495910656180069,-0.047492946661316746,0.022452439297525245
0.0025596751365810633,0.033947207033634186,9.842198371887207,0.004178181290626526,-0.003926973789930344,-0.0015573501586914062,-0.008201616450157264,0.013542157370446102,-0.08476686977734321
0.006803013384342194,0.0323021337389946,9.83850383758545,0.004325497895479202,0.0009295456111431122,-0.005923271179199219,-0.06923672048192012,0.06061019156019401,0.016359737135101977
-0.0007282643928192556,0.034494828432798386,9.84562873840332,-0.005229736212641001,0.0011006556451320648,0.008685111999511719,-0.04311230078346594,0.04845282836354155,-0.004583865683505181
0.000031890373065834865,0.033664196729660034,9.849801063537598,-0.0002899307291954756,-0.0038878172636032104,0.008410453796386719,-0.03342819977808534,0.002960193314112948,-0.041290254440872476
0.005864911712706089,0.034494828432798386,9.840289115905762,-0.004535778891295195,0.0006256103515625,-0.005841255187988281,0.05283348758160559,0.013542157370446102,0.03032681364722353
0.0008995154057629406,0.03928578644990921,9.841086387634277,0.004359557293355465,0.004627678543329239,0.003620147705078125,0.038660124682315104,-0.08509722014748308,-0.03070829038453932
0.0022072899155318737,0.034690067172050476,9.842198371887207,-0.00029201176948845387,-0.0003424324095249176,-0.0010499954223632812,-0.010688872525099721,0.07457726140220895,0.02535228482207209
0.005354279652237892,0.03594356030225754,9.84030532836914,0.0047563426196575165,-0.0004939213395118713,-0.005496025085449219,-0.05078038874599529,0.0376645979303593,-0.07328705601027073
-0.0010806489735841751,0.03758753091096878,9.842198371887207,-0.004719487391412258,0.004042219370603561,-0.000751495361328125,0.0489630915193091,0.05294210359766466,-0.03070829038453932
0.0052676075138151646,0.034494828432798386,9.837408065795898,0.00003345450386404991,-0.000970885157585144,-0.005061149597167969,0.0125356916436477,-0.006018330473706822,-0.009970975620627745
0.006803013384342194,0.03928578644990921,9.840641021728516,0.005052870139479637,0.003908418118953705,-0.004767417907714844,-0.049397262098854484,-0.029170217160817073,0.03032681364722353
0.0016815685667097569,0.034494828432798386,9.84071159362793,0.009031961672008038,-0.00021440908312797546,-0.004504203796386719,-0.11133021584135666,-0.08958646870117974,0.011385203307370579
0.006803013384342194,0.03912863880395889,9.832931518554688,0.004317448008805513,0.004732456058263779,-0.008801460266113281,-0.008201616450157264,0.015544149849200307,-0.028706297905785116
0.006575389765202999,0.02970387041568756,9.846534729003906,0.004100044723600149,-0.004863325506448746,0.0054645538330078125,0.04993364539211205,0.010642315180952563,0.02742697145772999
0.006803013384342194,0.034494828432798386,9.837408065795898,0.004000712186098099,0.00010999292135238647,-0.0038042068481445312,-0.008201616450157264,0.013542157370446102,-0.006864842041385318
0.003954124171286821,0.03643690049648285,9.832616806030273,0.0043890331871807575,0.0048824213445186615,-0.008195877075195312,-0.008201616450157264,0.03828345042175948,-0.03070829038453932
0.0008072053897194564,0.034494828432798386,9.845785140991211,-0.004966253414750099,-0.00011192634701728821,0.0014400482177734375,-0.023550945825453536,0.04387860265161641,0.03032681364722353
0.006803013384342194,0.030838115140795708,9.842198371887207,0.004091106820851564,0.00027639418840408325,0.0016317367553710938,-0.0547868416429499,0.013542157370446102,-0.06284364340846835
0.006293203681707382,0.0387759767472744,9.837918281555176,0.0036379590164870024,0.004915684461593628,-0.0029449462890625,0.039843908523269383,-0.03450336760298055,-0.03070829038453932
-0.00698944553732872,0.030864695087075233,9.83798885345459,-0.0104155782610178,-0.004726819694042206,-0.0029211044311523438,0.09168587141688597,-0.0012463227605422095,-0.015919801915917745
-0.002127888612449169,0.0351458415389061,9.841547012329102,-0.005695396102964878,-0.0002735517919063568,0.0018682479858398438,0.069420868785246,-0.10023436009125938,-0.06686231594073493
-0.0004838356398977339,0.032199759036302567,9.839702606201172,-0.0006831432692706585,-0.005228113383054733,0.0021734237670898438,0.021036742519801265,0.04533890243225042,0.001088453009738348
0.0019524400122463703,0.03692011535167694,9.837408065795898,0.004597124177962542,-0.0007661879062652588,-0.0018987655639648438,0.021936193056127318,-0.017355137155032164,-0.09174339441630217
0.0067214202135801315,0.034494828432798386,9.83497142791748,0.008940035477280617,-0.0004683881998062134,-0.0021963119506835938,-0.007162200396698839,0.013542157370446102,0.0003289729931246229
0.006803013384342194,0.03928578644990921,9.840137481689453,0.004091597627848387,0.004223957657814026,-0.006575584411621094,-0.008201616450157264,0.04264055082327226,-0.0016098969317131617
0.002652079565450549,0.034494828432798386,9.837408065795898,-0.0010143250692635775,-0.0005523338913917542,-0.00183868408203125,0.04467976249691775,-0.03118549649194107,-0.022554566967378134
0.006233540829271078,0.038146842271089554,9.837977409362793,0.0036831970792263746,0.0042226314544677734,-0.0013589859008789062,-0.015456477967900848,-0.0009675923454675095,-0.03070829038453932
0.0025110470596700907,0.038786791265010834,9.837906837463379,0.0036006211303174496,-0.00020378082990646362,0.0034503936767578125,0.04647647577460134,0.013542157370446102,-0.1400644614938433
0.006803013384342194,0.034494828432798386,9.84177017211914,0.003535505849868059,-0.0006816945970058441,-0.0009088516235351562,-0.0027424543538923465,-0.047492946661316746,0.03032681364722353
0.0020120516419410706,0.03091932274401188,9.837408065795898,-0.0017063517589122057,-0.005114946514368057,-0.0010633468627929688,-0.023686055504972853,-0.03200850760650116,-0.03070829038453932
0.0020120516419410706,0.038282137364149094,9.84127140045166,-0.0014649946242570877,-0.005306821316480637,-0.0011758804321289062,0.03645119881605067,0.013542157370446102,-0.03070829038453932
0.0038731107488274574,0.035563670098781586,9.840337753295898,-0.0014751488342881203,0.004280466586351395,0.0033588409423828125,0.02912427346647816,-0.00007451843106189693,-0.09174339441630217
0.0050124311819672585,0.034494828432798386,9.849989891052246,-0.001277043716982007,0.00004081055521965027,0.007529258728027344,0.030022123177217492,-0.0857166862886915,-0.03070829038453932
-0.0027789026498794556,0.02970387041568756,9.83875846862793,-0.0056663695722818375,-0.004495903849601746,-0.0069103240966796875,0.013711898243491496,0.03545567206409486,0.06944840965544423
-0.002550576813519001,0.034494828432798386,9.842198371887207,-0.005193853750824928,0.00021656230092048645,0.0023860931396484375,-0.06632792700935415,0.07457726140220895,-0.03167788376199023
0.0020120516419410706,0.03450033441185951,9.842209815979004,-0.00026872125454247,-0.00010521337389945984,0.0018072128295898438,0.05283348758160559,0.013542157370446102,0.03032681364722353
0.006803013384342194,0.03134241700172424,9.835769653320312,0.004063548520207405,0.0006537586450576782,-0.0074462890625,-0.04836219495490665,0.013542157370446102,-0.03070829038453932
0.005093861371278763,0.03141302242875099,9.840489387512207,-0.001015781657770276,0.0005261674523353577,-0.0029211044311523438,-0.029975592513496782,-0.047492946661316746,-0.03070829038453932
0.005023258738219738,0.034494828432798386,9.839187622070312,0.0036054346710443497,0.0000696331262588501,-0.0027313232421875,0.05283348758160559,0.013542157370446102,-0.03070829038453932
0.0020120516419410706,0.03634518384933472,9.837408065795898,-0.0009676499757915735,0.00003423914313316345,-0.0029935836791992188,-0.03177449358614889,0.07457726140220895,-0.03070829038453932
-0.0027789026498794556,0.02620946243405342,9.842198371887207,-0.0055355653166770935,-0.009174535050988197,0.001728057861328125,0.03631592905397268,-0.03097538813368384,-0.07522583588866927
-0.00511796772480011,0.03215575963258743,9.840972900390625,-0.0004576314240694046,0.004809904843568802,-0.0028619766235351562,0.007416491541149588,0.04334104541959525,0.03032681364722353
0.004492327105253935,0.03697510063648224,9.833772659301758,-0.004553541541099548,-0.0047166608273983,-0.0027418136596679688,-0.008201616450157264,0.08929591885718975,0.0008894954022086283
-0.0016941630747169256,0.034494828432798386,9.848526954650879,0.00025291682686656713,-0.00006511807441711426,-0.002262115478515625,-0.04159830664461063,0.06075805448355421,-0.016889081798357925
-0.0027789026498794556,0.03928578644990921,9.833735466003418,-0.004056978039443493,0.004554614424705505,0.0024614334106445312,0.09961766871440128,0.13561236543397182,-0.07749247818744164
0.006173096597194672,0.03865586966276169,9.841568946838379,0.005227953195571899,0.004606038331985474,0.0021982192993164062,-0.061211808496110486,0.10351271749073328,-0.08371848243049254
0.0020120516419410706,0.036768797785043716,9.846989631652832,-0.00003566918894648552,0.004473250359296799,0.006615638732910156,0.05592943090547254,-0.047492946661316746,0.0013572366283288863
0.004458438139408827,0.032150253653526306,9.83985424041748,-0.00003559095785021782,-0.004301175475120544,-0.0028209686279296875,-0.038070647340431266,0.07587430365342379,-0.03070829038453932
0.004427241627126932,0.03445541113615036,9.837408065795898,0.00433360505849123,-0.004274409264326096,-0.0025768280029296875,0.022064846072446857,0.014044336357000711,0.03082899263377814
0.004317095037549734,0.02970387041568756,9.842379570007324,0.004231445491313934,-0.004305791109800339,-0.0025577545166015625,-0.03987130932122877,-0.047492946661316746,0.0009614024865321854
0.002334385644644499,0.03960811346769333,9.851780891418457,-0.004998312331736088,0.0006086155772209167,0.011133193969726562,-0.03666597624893583,0.013542157370446102,-0.026601917623020176
0.01100379228591919,0.035085003823041916,9.841608047485352,0.009184693917632103,0.0003209523856639862,0.0013952255249023438,-0.0157202406637397,-0.03245569823415188,-0.03070829038453932
0.0020120516419410706,0.0371929295361042,9.844291687011719,-0.0004270942881703377,0.0002617090940475464,0.005455970764160156,-0.015912179651587637,0.021252720571876473,0.06469965393392675
0.0040341829881072044,0.034494828432798386,9.844220161437988,-0.0006951433606445789,0.0004397258162498474,-0.000057220458984375,-0.04347550142866665,-0.047492946661316746,0.004565600430313351
0.003963455092161894,0.033606674522161484,9.846989631652832,0.00380237796343863,0.005134861916303635,0.003989219665527344,-0.03306177080128473,0.013542157370446102,-0.03070829038453932
0.006803013384342194,0.02970387041568756,9.845108985900879,0.0038200931157916784,-0.003732815384864807,-0.0013132095336914062,-0.008201616450157264,0.1116527288362282,-0.03070829038453932
0.007973744533956051,0.03747567534446716,9.851780891418457,-0.0013426884543150663,0.001220952719449997,0.007306098937988281,0.07589367364302313,0.02845691595980031,-0.03070829038453932
0.0023441663943231106,0.03003598563373089,9.856571197509766,-0.0014213456306606531,-0.004255130887031555,0.011181831359863281,0.05494900527488481,0.07246174370892973,-0.02859277936136671
0.006898467894643545,0.034494828432798386,9.856571197509766,0.002770574763417244,0.0009544789791107178,0.009586334228515625,-0.12783970353998986,0.012326090213492933,0.03032681364722353
0.006803013384342194,0.03926093503832817,9.856571197509766,0.0027763601392507553,0.0007671341300010681,0.008439064025878906,-0.008518233070784378,-0.047176330040689635,-0.03070829038453932
0.003631254890933633,0.034494828432798386,9.86136245727539,0.0031486330553889275,0.000931955873966217,0.011983871459960938,-0.08901570767844733,0.033321131226760094,-0.051336348802157136
0.0037018575239926577,0.03590617701411247,9.857982635498047,-0.0013491262216120958,0.005575336515903473,0.011217117309570312,-0.047709204857869635,0.009994727870270729,0.03032681364722353
0.0020120516419410706,0.03303772956132889,9.859905242919922,-0.001290380023419857,0.001023322343826294,0.010396957397460938,0.0767427248537939,0.09848649867439725,-0.07318046770662151
0.0088209742680192,0.036512792110443115,9.868170738220215,0.008414015173912048,0.005423784255981445,0.018227577209472656,-0.033909781475424124,-0.004121325473015116,-0.04837176655789393
0.0011687788646668196,0.034494828432798386,9.850936889648438,0.008356645703315735,0.000865057110786438,0.007846832275390625,-0.008201616450157264,0.10208432750012793,0.013562790511484957
0.004312429577112198,0.03698541224002838,9.86136245727539,-0.005633385851979256,0.009664330631494522,0.007427215576171875,-0.008201616450157264,-0.0023224244003630075,0.014462240214047685
0.006005488336086273,0.03888702392578125,9.870146751403809,0.004194745793938637,0.004629660397768021,0.016203880310058594,-0.06415662054437768,0.013542157370446102,-0.09174339441630217
0.006803013384342194,0.034964192658662796,9.865684509277344,0.003822211641818285,-0.00034363940358161926,0.0097808837890625,0.04685395044795032,0.019521694504101367,0.024347269843461652
0.0020120516419410706,0.034494828432798386,9.863475799560547,-0.0006808217149227858,0.00004854053258895874,0.009116172790527344,-0.10334760567167615,0.013542157370446102,-0.06481918224440197
0.004618989769369364,0.034494828432798386,9.866153717041016,-0.0007525559049099684,0.00020574405789375305,0.0084075927734375,-0.041413051103587256,-0.047492946661316746,-0.03070829038453932
0.0042667146772146225,0.034494828432798386,9.863616943359375,-0.00132768414914608,0.00048238784074783325,0.0031023025512695312,0.05283348758160559,-0.047492946661316746,-0.03070829038453932
0.009809650480747223,0.036609310656785965,9.857463836669922,0.007799940183758736,0.0053092725574970245,-0.0018835067749023438,-0.019567398074602272,-0.047492946661316746,-0.019342503757514354
0.0028334830421954393,0.03846435621380806,9.862183570861816,-0.0017168722115457058,0.005117990076541901,0.0024061203002929688,-0.04830724661664243,0.013542157370446102,-0.03070829038453932
-0.0027789026498794556,0.03524553030729294,9.852531433105469,-0.0062300097197294235,0.00501420721411705,-0.0021238327026367188,-0.12070813227285028,0.12604868653335236,0.020763126408970812
0.0020120516419410706,0.02970387041568756,9.853140830993652,-0.0006448354106396437,-0.004155490547418594,0.0031833648681640625,-0.008201616450157264,0.022204784909152783,-0.03070829038453932
0.0058388495817780495,0.034494828432798386,9.859434127807617,0.004400611389428377,0.0002892725169658661,0.0033473968505859375,0.04055037953511613,0.07457726140220895,-0.07946029971002594
0.003046943573281169,0.03073876164853573,9.851780891418457,-0.000526578864082694,-0.004321493208408356,-0.005791664123535156,0.05283348758160559,-0.047492946661316746,-0.06537510227992416
0.006235909182578325,0.031815800815820694,9.856571197509766,-0.0009120502509176731,-0.00427950918674469,-0.0007724761962890625,-0.008201616450157264,0.06735260212720152,-0.03070829038453932
0.004053254146128893,0.03928578644990921,9.859321594238281,-0.0006419350393116474,0.0052766986191272736,0.004120826721191406,-0.008201616450157264,-0.021488762304638594,-0.03973504571326569
0.004832499194890261,0.032524317502975464,9.85460090637207,-0.000293307239189744,-0.004169631749391556,-0.00525665283203125,-0.008201616450157264,0.013542157370446102,-0.06663976783364756
0.006476555019617081,0.0348212867975235,9.847315788269043,0.0044632828794419765,0.0005530603229999542,-0.009350776672363281,-0.06923672048192012,0.07041828984747943,-0.03070829038453932
-0.0014613076345995069,0.03581242263317108,9.856571197509766,-0.004925359971821308,0.00044276192784309387,0.0003414154052734375,0.03604779076819679,-0.013921526354072709,-0.04749399386805473
0.00497370446100831,0.033362485468387604,9.856571197509766,0.00459805503487587,-0.004458777606487274,0.00030517578125,-0.031506355300373,0.051272522551993216,0.03032681364722353
0.0037707583978772163,0.032736122608184814,9.85353946685791,-0.00031607644632458687,0.0001713186502456665,-0.004513740539550781,-0.008201616450157264,0.013542157370446102,-0.008303007073229599
0.003700155531987548,0.034494828432798386,9.85036563873291,0.00422919075936079,0.00023042038083076477,0.0005025863647460938,0.05283348758160559,0.07457726140220895,0.012303366827794749
0.0020120516419410706,0.034494828432798386,9.850189208984375,-0.0008841340895742178,0.000021334737539291382,-0.008191108703613281,0.05271806805680295,-0.006725922063464275,-0.07135988878748255
0.005256114527583122,0.03928578644990921,9.856571197509766,0.00395602360367775,0.00481647253036499,0.0013675689697265625,0.011505320254754252,0.033249094075357616,-0.05041522041934422
-0.0013026086380705237,0.03780949115753174,9.852142333984375,-0.005341270938515663,0.004622891545295715,0.0019435882568359375,0.034026001413020125,0.013542157370446102,0.011519339151324637
0.008782582357525826,0.034494828432798386,9.856571197509766,-0.0007226227317005396,0.000028930604457855225,0.0021142959594726562,0.034925451949346174,-0.047492946661316746,-0.012800263089913177
0.010258878581225872,0.02836878038942814,9.846203804016113,0.003946265205740929,-0.009156828746199608,0.0020875930786132812,-0.06923672048192012,0.030550742466379455,-0.03070829038453932
0.006803013384342194,0.03418586403131485,9.851471900939941,0.003713199868798256,0.0006239823997020721,-0.00217437744140625,-0.06530062386950193,0.017478240642651067,0.026390723704911953
0.0020120516419410706,0.03411518409848213,9.851780891418457,-0.0006090295501053333,0.0010707862675189972,-0.0015106201171875,-0.013038137434466763,-0.037819904692697755,0.03032681364722353
0.006059614941477776,0.03247104585170746,9.849757194519043,0.008725899271667004,-0.0035616979002952576,-0.00588226318359375,-0.01767220734290885,-0.01224009919905953,-0.1175256509858078
0.004106563050299883,0.03389288857579231,9.84908390045166,0.0035903630778193474,0.005948401987552643,-0.0005702972412109375,-0.008201616450157264,-0.02080963872989834,-0.05739159831595773
-0.0017265931237488985,0.030756181105971336,9.851780891418457,-0.0011182862799614668,0.0011210329830646515,-0.0004100799560546875,-0.055830659966771806,0.07457726140220895,0.016920754799601874
0.0058214301243424416,0.02687607891857624,9.850799560546875,-0.0009955607820302248,0.001249566674232483,-0.0053882598876953125,-0.03172169302221352,0.06207225224897342,-0.03070829038453932
0.006803013384342194,0.03383227437734604,9.846989631652832,0.0038255220279097557,0.0015069879591464996,-0.004932403564453125,0.000239109981803337,0.021982883802406702,0.08292119791713239
0.006803013384342194,0.03522811084985733,9.851780891418457,0.004125835839658976,0.001774817705154419,0.00011157989501953125,0.0011401613437161129,0.013542157370446102,0.020985042523456763
0.004425589926540852,0.034494828432798386,9.844575881958008,-0.000984348589554429,0.0014279484748840332,-0.004048347473144531,-0.038489116489013556,-0.01720543328224724,0.030786907596113886
0.0020120516419410706,0.029809212312102318,9.851885795593262,-0.0009638133924454451,0.001372162252664566,0.005684852600097656,-0.008201616450157264,0.013542157370446102,-0.02936628494465743
0.0020120516419410706,0.034494828432798386,9.844717025756836,-0.0010874706786125898,0.001810263842344284,-0.007633209228515625,-0.011345717943758094,0.045631773473341165,-0.0017627891154583105
0.0042134057730436325,0.031905222684144974,9.842198371887207,0.004006793722510338,0.0016939043998718262,-0.006878852844238281,0.024789051014650575,-0.019448510094361736,-0.08679719019887579
0.0020120516419410706,0.02970387041568756,9.846989631652832,-0.0005334159359335899,-0.003158528357744217,-0.0018682479858398438,-0.001102915468398387,0.1214149367900276,-0.07754596577235796
0.00631652632728219,0.034494828432798386,9.847962379455566,0.0035590894985944033,0.0015581995248794556,-0.0018825531005859375,0.04663581128133304,0.007344481070173555,-0.036905953344598647
0.006803013384342194,0.038454268127679825,9.85573959350586,0.003458969295024872,-0.0030056796967983246,-0.001552581787109375,0.04224026438531249,0.06928063646384917,-0.025411673783812812
0.0020120516419410706,0.03805740550160408,9.8457612991333,-0.0008768229745328426,0.005798444151878357,-0.0018854141235351562,-0.008201616450157264,-0.01775609060365307,-0.015059168065016388
0.010294861160218716,0.04277763515710831,9.850481986999512,0.008136056363582611,0.01030312106013298,0.0033969879150390625,0.03628332557285645,0.013542157370446102,0.013776646635894433
0.0020120516419410706,0.03743807226419449,9.848837852478027,-0.001354362117126584,0.005101010203361511,-0.0015001296997070312,0.029294281143788008,0.027498848526573798,0.006787613879512564
0.0037890374660491943,0.031480856239795685,9.850004196166992,-0.0007939457427710295,-0.003963407129049301,0.0032320022583007812,0.030195332505700785,0.013542157370446102,0.04608561419728339
0.005424564704298973,0.027997614815831184,9.84187126159668,0.00861215777695179,-0.008256135508418083,-0.015249252319335938,0.009359280153621535,-0.025755842947324723,-0.09174339441630217
-0.00259232334792614,0.02970387041568756,9.847051620483398,-0.005821710452437401,-0.003238622099161148,-0.00103759765625,-0.0066169858822878605,0.012749828746298177,-0.08936644189439145
0.01159396767616272,0.03927737846970558,9.846989631652832,0.008425525389611721,0.0062270499765872955,-0.000782012939453125,-0.008094494537979134,0.013435035458267972,-0.09163626583401743
0.0003595893504098058,0.03300879895687103,9.842198371887207,-0.005838001146912575,0.006272472441196442,-0.005100250244140625,-0.006081322960544322,0.015662450860059043,-0.03070829038453932
0.0006672292947769165,0.037562720477581024,9.843921661376953,0.0038456195034086704,0.0012745633721351624,-0.0001354217529296875,-0.008201616450157264,-0.025541705844674245,-0.03070829038453932
0.0020120516419410706,0.03869573771953583,9.839201927185059,-0.0008126958273351192,0.0106133371591568,-0.009185791015625,-0.061719723774350845,0.09742795275517752,-0.015374584066453461
