Accelerometer_Gx,Accelerometer_Gy,Accelerometer_Gz,Accelerometer_X,Accelerometer_Y,Accelerometer_Z,Gyroscope_Z,Gyroscope_X,Gyroscope_Y
0.0028259374666959047,0.034494828432798386,9.86696720123291,0.010809190571308136,-0.005701281130313873,0.015569686889648438,-0.045516687453869095,0.0059127560262625225,0.040435757088053546
-0.0014023131225258112,0.035183124244213104,9.86136245727539,0.0006537407170981169,-0.0045561715960502625,0.006052970886230469,0.013918431424605046,-0.05512234800550033,-0.011830714735681891
0.008993486873805523,0.034494828432798386,9.863553047180176,0.007082353346049786,-0.003026295453310013,0.0038728713989257812,0.010373163038971747,0.0006893955389217167,0.012529885315842527
0.002487033139914274,0.037860844284296036,9.86088752746582,0.005521685350686312,-0.011538239195942879,-0.0014495849609375,0.005149802551630942,-0.0490712539681186,-0.026650437646037722
0.006399136036634445,0.034494828432798386,9.86574935913086,0.004276377148926258,-0.00200546532869339,0.007472991943359375,0.005149802551630942,-0.004377751051581493,-0.015454100074893904
0.004896915052086115,0.03737968951463699,9.859456062316895,-0.0006452528759837151,-0.0015013813972473145,-0.0021514892578125,0.04190190321713241,-0.018370247339998865,0.040435757088053546
0.004967894405126572,0.034494828432798386,9.862483024597168,0.003395488951355219,-0.0013291537761688232,0.0070133209228515625,-0.018228947801544226,-0.017465994326912645,0.040435757088053546
0.014620784670114517,0.034494828432798386,9.859598159790039,0.007464953698217869,-0.0014059953391551971,-0.0026731491088867188,-0.03341080414004296,-0.13224358806927458,-0.0205993469437093
0.005109852645546198,0.031397029757499695,9.854878425598145,0.0011184653267264366,-0.005429398268461227,-0.0023584365844726562,0.005149802551630942,-0.11615747871768962,-0.0205993469437093
0.005207560956478119,0.02650836482644081,9.86296272277832,0.00022920221090316772,-0.009317243471741676,0.007195472717285156,-0.01523433673731676,-0.03479687897430598,-0.00027386790735503276
0.0020120516419410706,0.03900647535920143,9.856571197509766,-0.004340785089880228,0.005063053220510483,-0.0018396377563476562,0.005149802551630942,0.0059127560262625225,-0.0205993469437093
0.003421296365559101,0.037876542657613754,9.857980728149414,-0.0004518614150583744,-0.00001687556505203247,0.0030994415283203125,0.0661849065833938,0.02386601498134682,-0.0205993469437093
0.004688580986112356,0.034494828432798386,9.86136245727539,-0.005116408225148916,-0.00024247542023658752,0.0033369064331054688,0.0661849065833938,-0.021024309441077724,-0.037648366225920604
0.005912743508815765,0.026863260194659233,9.857461929321289,0.0035822810605168343,-0.004636228084564209,-0.005749702453613281,0.04133819916719479,-0.11615747871768962,0.015589041334221282
0.01159396767616272,0.03883778676390648,9.851780891418457,0.003485766239464283,0.004337109625339508,-0.00534820556640625,-0.05017795805707223,0.0059127560262625225,-0.014892003520649623
0.004120748955756426,0.03181256726384163,9.856571197509766,0.0029724063351750374,0.004250753670930862,-0.00023651123046875,-0.04245326756983904,-0.10272543146718353,0.02700372818034064
0.006803013384342194,0.02786281332373619,9.86136245727539,-0.0016937339678406715,-0.009745271876454353,0.004458427429199219,0.005149802551630942,-0.07857681740892744,0.027908868317606167
0.00910849031060934,0.032189350575208664,9.856571197509766,0.003599206916987896,-0.004838444292545319,0.00031757354736328125,0.002856646579078497,0.008205911998814968,-0.018306190971156856
0.010790670290589333,0.030507169663906097,9.843805313110352,0.0033645564690232277,-0.004639171063899994,-0.013209342956542969,-0.0050839285787373425,-0.004320975104105762,0.03020202262263196
0.003409814555197954,0.02970387041568756,9.851081848144531,0.0032877232879400253,-0.004718802869319916,-0.007714271545410156,-0.08130639845705989,-0.011894240831048298,-0.0205993469437093
0.010338413529098034,0.02970387041568756,9.85594367980957,0.0032843127846717834,-0.00417415052652359,0.0024356842041015625,0.0661849065833938,-0.002084888563719947,0.02444044456271547
0.006271965801715851,0.032364871352910995,9.846989631652832,-0.006138511002063751,0.0007659345865249634,-0.006115913391113281,-0.02198509827780167,0.06694786005802537,0.020066170304205138
0.01043514721095562,0.03696814551949501,9.846989631652832,0.003572273999452591,0.005201771855354309,-0.005761146545410156,0.05142193294008725,-0.008850217617044022,0.00892658867021722
0.008719720877707005,0.031620580703020096,9.851780891418457,0.0034613292664289474,0.0001275576651096344,-0.0006818771362304688,-0.019268390535429097,0.04252966697096534,-0.05721626789357203
0.006803013384342194,0.034494828432798386,9.852879524230957,-0.0009869481436908245,0.00007857009768486023,0.004088401794433594,0.005149802551630942,-0.041115124121685116,-0.058120507566445025
0.01159396767616272,0.034494828432798386,9.85165023803711,0.0038458392955362797,0.000035848468542099,-0.0050067901611328125,0.0068116195932067785,0.06528604301644954,-0.018937519896973547
0.011534501798450947,0.02976333722472191,9.846930503845215,0.003790371585637331,-0.004089709371328354,-0.004696846008300781,-0.05512772411142907,0.00515516531734646,0.040435757088053546
0.01003215555101633,0.03282749652862549,9.855010032653809,-0.0015626540407538414,0.005361221730709076,0.00008106231689453125,-0.014747152150424445,-0.05512234800550033,-0.0205993469437093
0.008529809303581715,0.034494828432798386,9.847378730773926,-0.0020148297771811485,0.0009282045066356659,-0.009354591369628906,0.005149802551630942,-0.016086029310305616,0.040435757088053546
0.005607604049146175,0.032697051763534546,9.851780891418457,0.002346653491258621,-0.003918364644050598,0.00031948089599609375,-0.010079251461249637,-0.001761254990937702,0.07856782610521534
0.006212002597749233,0.029999375343322754,9.856571197509766,-0.0023148665204644203,-0.003465253859758377,0.004669189453125,-0.05212066662826484,-0.04759307830176619,-0.016834712091842233
0.008009687066078186,0.03328815475106239,9.862568855285645,0.0030449535697698593,-0.003219425678253174,0.013885498046875,0.005149802551630942,0.03620264396328567,0.025063152375737006
0.0020120516419410706,0.02970387041568756,9.856571197509766,-0.006042725406587124,-0.003706634044647217,0.0035429000854492188,0.0661849065833938,0.03243800911141861,0.013910498166554182
0.006803013384342194,0.034494828432798386,9.852845191955566,-0.000973711721599102,0.000899292528629303,0.0033864974975585938,0.0661849065833938,-0.02120907139421186,-0.06807353393018166
0.0030054133385419846,0.03350146859884262,9.86136245727539,-0.005560740362852812,0.00029375404119491577,0.0076351165771484375,0.07883996645495804,-0.02981222826237183,0.02778069054638269
0.006803013384342194,0.034494828432798386,9.856371879577637,-0.0011929236352443695,0.0003713853657245636,0.007485389709472656,-0.05333579997029242,0.0059127560262625225,0.008643450982199076
0.0012188152177259326,0.030497107654809952,9.855777740478516,-0.005922870710492134,-0.0048324912786483765,0.002407073974609375,0.10700889389170712,-0.05512234800550033,0.050541315449778315
0.0027209948748350143,0.03378588706254959,9.844325065612793,-0.0016769133508205414,-0.004865828901529312,0.0020227432250976562,0.005149802551630942,-0.0460906768082014,0.040435757088053546
0.00164334278088063,0.030072584748268127,9.856571197509766,-0.002083156257867813,-0.009634768590331078,0.00188446044921875,-0.02301912488511813,0.010610031864953675,0.040435757088053546
0.006803013384342194,0.034494828432798386,9.851780891418457,-0.0009513800032436848,-0.0002235323190689087,-0.0029439926147460938,0.005149802551630942,0.01242171286187311,0.013172683489977419
0.0033567349892109632,0.034494828432798386,9.854273796081543,-0.0008276300504803658,0.00042401254177093506,0.00142669677734375,0.005149802551630942,-0.008722044848400501,0.025800966218550443
0.00271889241412282,0.034141406416893005,9.86136245727539,0.004362358245998621,-0.004649296402931213,0.005847930908203125,0.061682451218606674,0.0059127560262625225,0.040435757088053546
0.0038676534313708544,0.034494828432798386,9.853635787963867,-0.0001472271978855133,-0.00011853501200675964,0.0008783340454101562,0.08982459150720461,0.029552440950073335,0.040435757088053546
0.005581224802881479,0.03148845583200455,9.85534954071045,-0.004451468121260405,-0.005054742097854614,-0.004047393798828125,0.04344990155949233,0.06694786005802537,0.02487064976388041
0.008585919626057148,0.02970387041568756,9.851780891418457,0.0043042427860200405,-0.004093971103429794,-0.004282951354980469,0.005149802551630942,-0.054239466013996845,-0.02148223227026609
0.008443960919976234,0.02806292101740837,9.854930877685547,-0.005009243730455637,0.001255616545677185,0.005568504333496094,0.005149802551630942,-0.03421722002935403,-0.0005343655860076333
0.0020120516419410706,0.03270521014928818,9.853281021118164,-0.005256190430372953,0.00580466166138649,0.0007505416870117188,0.027948893959854167,-0.013205263625720512,0.0021997377944073145
0.0020120516419410706,0.03570990636944771,9.859574317932129,-0.004887621849775314,0.0055073946714401245,0.005986213684082031,0.027927522938271433,-0.01686496436037797,-0.05885672725377836
0.0038710571825504303,0.034494828432798386,9.856571197509766,0.0006348136812448502,0.0010296553373336792,0.0013790130615234375,-0.055885301480131905,0.043264819441240845,0.0914568066156393
0.01159396767616272,0.038928963243961334,9.852137565612793,0.005090797785669565,0.005461733788251877,-0.002887725830078125,0.005149802551630942,-0.050576536947739496,0.03588994603029272
0.006803013384342194,0.035640183836221695,9.856571197509766,-0.00010767113417387009,0.0009290874004364014,0.0020513534545898438,-0.04129386963865582,0.0059127560262625225,0.011252898407681332
0.004155475180596113,0.024912914261221886,9.853923797607422,-0.005119830835610628,-0.008310222998261452,-0.0025682449340820312,0.011572021320867659,-0.027815918714450483,-0.0205993469437093
0.0020120516419410706,0.02970387041568756,9.856571197509766,-0.005703317001461983,-0.0029311180114746094,0.0021190643310546875,-0.027673018350409122,-0.05512234800550033,0.040435757088053546
0.00609066616743803,0.03041621670126915,9.852493286132812,-0.0003749043680727482,-0.0025483593344688416,-0.0021371841430664062,-0.003925251019068148,0.06694786005802537,-0.011524303378170127
0.0020120516419410706,0.02970387041568756,9.856571197509766,-0.004443796817213297,-0.0024645961821079254,0.002422332763671875,0.005149802551630942,0.0059127560262625225,-0.08163444764041884
0.006803013384342194,0.03199588507413864,9.854279518127441,-0.00034865736961364746,0.001871105283498764,-0.00199127197265625,-0.058521527716132046,-0.023286676201512223,0.008600090286645403
0.009373060427606106,0.02970387041568756,9.856571197509766,0.004068095237016678,-0.002523023635149002,0.0027256011962890625,-0.055885301480131905,-0.02682876961639852,-0.07718652706728604
0.010526099242269993,0.03235908970236778,9.860294342041016,0.0038756574504077435,0.002325724810361862,0.007082939147949219,-0.008454466851579964,0.0059127560262625225,-0.03420362301702682
0.0015777412336319685,0.02970387041568756,9.852214813232422,-0.005244905594736338,-0.0020633116364479065,-0.002544403076171875,0.060651946427581004,0.06694786005802537,-0.0205993469437093
0.0020120516419410706,0.026849403977394104,9.850862503051758,-0.005580137483775616,-0.0026171281933784485,0.00240325927734375,-0.006544895370032492,-0.06681704592716377,0.05213045167466368
0.008668397553265095,0.02970387041568756,9.848050117492676,-0.0009210607968270779,-0.0024742260575294495,-0.0017671585083007812,-0.008356576366951928,0.019419134944845394,0.016671401201570173
0.008226403966546059,0.03164804354310036,9.855148315429688,-0.0006931382231414318,0.0023249126970767975,0.0030660629272460938,-0.012983709364518222,-0.07989045488539129,-0.03873285218975185
0.0115151796489954,0.034416038542985916,9.856571197509766,0.003880701493471861,0.002169974148273468,0.00273895263671875,0.006153546874931918,0.004909011702961547,0.040435757088053546
0.005222043953835964,0.0361238494515419,9.854990005493164,-0.005758891813457012,-0.0027541927993297577,-0.0019865036010742188,0.0661849065833938,-0.014228217856062148,-0.0205993469437093
0.00024082469462882727,0.02970387041568756,9.851780891418457,-0.01015170942991972,-0.0031113028526306152,-0.0014209747314453125,0.08542002662704552,-0.03255751074146738,-0.00136422022995096
0.005024097394198179,0.03148278594017029,9.851780891418457,-0.005940605886280537,0.0016521699726581573,-0.0014972686767578125,-0.04893219558548537,-0.03245962025683935,-0.00488972175464155
0.0070797475054860115,0.03477156162261963,9.84726619720459,-0.0013264622539281845,0.0011443383991718292,-0.005291938781738281,0.008675300741268226,-0.05512234800550033,0.040435757088053546
0.009143076837062836,0.036834895610809326,9.853006362915039,-0.006509347818791866,-0.004408754408359528,0.00374603271484375,0.05057317521400738,0.0059127560262625225,-0.004987608904216279
0.0020120516419410706,0.027640538290143013,9.854508399963379,-0.005827947519719601,-0.00389234721660614,0.0034399032592773438,-0.029599171716992386,-0.028836231582574028,0.040435757088053546
0.009459531866014004,0.031838309019804,9.858183860778809,-0.0009365472942590714,0.0010134242475032806,0.012468338012695312,0.005149802551630942,-0.021279214235336717,-0.0205993469437093
0.006803013384342194,0.02970387041568756,9.852413177490234,-0.001256628893315792,-0.00341053307056427,-0.0018701553344726562,-0.10081093744695689,0.013967496728838067,0.040435757088053546
0.0076729352585971355,0.026652758941054344,9.855701446533203,0.0032083550468087196,0.0005213841795921326,-0.0018301010131835938,0.04401990219007105,-0.04403983246862573,0.040435757088053546
0.006803013384342194,0.034494828432798386,9.849361419677734,-0.0014020372182130814,0.0008236244320869446,-0.0013875961303710938,0.0359651614874955,0.0663522462180591,0.010216010324628606
0.004313051700592041,0.032193828374147415,9.856571197509766,-0.006053373217582703,0.0004418008029460907,0.0034685134887695312,0.03446369380885629,-0.02821575158516068,-0.0205993469437093
0.00581523310393095,0.0316794291138649,9.851780891418457,-0.0013048537075519562,-0.004288565367460251,-0.001140594482421875,0.005149802551630942,-0.05512234800550033,0.027851793882859577
0.0020120516419410706,0.034494828432798386,9.860848426818848,-0.00586763396859169,0.0003935880959033966,0.007875442504882812,0.059631633559457456,0.0059127560262625225,0.0338824773940106
0.00881959218531847,0.032478246837854385,9.852538108825684,0.0029770303517580032,-0.00390741229057312,-0.0064792633056640625,0.005149802551630942,0.0059127560262625225,-0.08163444764041884
0.006803013384342194,0.034494828432798386,9.856571197509766,-0.0016899080947041512,0.00026506930589675903,0.0032281875610351562,0.04140023115868026,0.017378509208598302,0.004185323478424276
0.007032995577901602,0.034494828432798386,9.856341361999512,0.0031670155003666878,0.00004715472459793091,-0.0017528533935546875,0.0022199182019599253,-0.05512234800550033,0.03750586606827592
0.009790702722966671,0.030322713777422905,9.853584289550781,0.0028939424082636833,-0.009528426453471184,-0.0018644332885742188,0.0661849065833938,0.030909780965054697,0.040435757088053546
0.008129643276333809,0.034494828432798386,9.864421844482422,-0.006270396523177624,0.0001821480691432953,0.0072727203369140625,-0.016917338037490216,-0.016154384562858635,0.01836862650409231
0.005141954403370619,0.034302614629268646,9.856571197509766,-0.0009538182057440281,0.004614893347024918,0.002223968505859375,0.045023619832945574,-0.05512234800550033,0.040435757088053546
0.00833852682262659,0.034494828432798386,9.846989631652832,-0.006007826887071133,-0.00013497844338417053,-0.00687408447265625,0.04544831886110285,-0.014823831696028416,-0.0401612888711035
0.006803013384342194,0.03928578644990921,9.851655006408691,-0.001075982116162777,0.004963580518960953,-0.00164031982421875,0.005149802551630942,-0.0567229601488105,-0.0205993469437093
0.005426641087979078,0.03245661407709122,9.853157043457031,-0.005850357003509998,0.00473557785153389,0.0032711029052734375,0.0486504236017959,-0.02915620993693326,-0.0205993469437093
0.004890437703579664,0.03640740364789963,9.850814819335938,-0.0010785572230815887,0.00018194690346717834,-0.006022453308105469,0.005149802551630942,0.0059127560262625225,-0.05726893505537518
0.004479874856770039,0.030937781557440758,9.855337142944336,0.00387972267344594,-0.00008261576294898987,-0.0012569427490234375,0.005149802551630942,-0.05512234800550033,0.0247161617571285
0.003174734069034457,0.030866552144289017,9.84931468963623,-0.0057918657548725605,-0.005474157631397247,-0.006081581115722656,0.05137276091414845,0.06873435473238039,-0.005787197939410647
0.004138306248933077,0.036621082574129105,9.853906631469727,-0.0012255087494850159,0.004462260752916336,0.00323486328125,-0.06274498586158,-0.02117494712878824,0.040435757088053546
0.0032601975835859776,0.034494828432798386,9.851780891418457,-0.005987823009490967,-0.00016655400395393372,-0.0015573501586914062,0.005149802551630942,0.09618109638610639,-0.0205993469437093
0.00983775407075882,0.03928578644990921,9.858728408813477,-0.00614248588681221,0.004400137811899185,-0.006222724914550781,0.05499812393997072,-0.04393556536207725,-0.0205993469437093
0.0067726257257163525,0.034494828432798386,9.856571197509766,0.003354615531861782,-0.000186040997505188,0.003383636474609375,0.03508673512720839,-0.02479833580305356,0.010111744885606783
0.006803013384342194,0.034494828432798386,9.854089736938477,-0.0015531368553638458,0.00004733353853225708,-0.0011816024780273438,0.005149802551630942,-0.05512234800550033,-0.0205993469437093
0.004950837232172489,0.03830619156360626,9.855591773986816,-0.005556006450206041,0.0043074823915958405,0.0038900375366210938,-0.007329886876907942,0.0059127560262625225,-0.0205993469437093
0.007325597107410431,0.030749039724469185,9.843243598937988,-0.0012444760650396347,-0.00488412007689476,-0.010430335998535156,-0.042570221219162284,-0.10284239845672,-0.06831936737944923
0.006803013384342194,0.02970387041568756,9.852521896362305,-0.0011248188093304634,-0.004897203296422958,-0.005629539489746094,0.005149802551630942,0.0059127560262625225,-0.05583967461585703
0.009640309028327465,0.036448489874601364,9.848943710327148,0.0033769821748137474,-0.0001247711479663849,-0.005488395690917969,0.03003874508289295,-0.030233405474238317,-0.0205993469437093
0.005467894021421671,0.034494828432798386,9.851780891418457,-0.0017874352633953094,0.00031685829162597656,-0.0009555816650390625,0.032167042700439505,-0.05512234800550033,0.023426825146576406
0.0020120516419410706,0.034494828432798386,9.86119556427002,-0.006105280481278896,0.0004943609237670898,0.007550239562988281,0.007278100169177493,0.0037844584087159713,0.03830744946534708
0.008472253568470478,0.028251396492123604,9.846989631652832,0.003514191135764122,0.0006635598838329315,-0.0070095062255859375,0.023653825549826854,-0.052360817146699545,0.040435757088053546
0.009995831176638603,0.02970387041568756,9.858169555664062,0.003062605857849121,-0.003921434283256531,0.0023975372314453125,0.025509502569954694,0.02622846002137787,0.020076055402203145
0.003702752524986863,0.03280412778258324,9.858262062072754,-0.0016624033451080322,-0.0034667588770389557,0.006628990173339844,-0.016389118954724932,-0.0946185305309073,0.05839303478237118
-0.002401528647169471,0.039097100496292114,9.851969718933105,-0.010899887420237064,0.00607600063085556,-0.0027370452880859375,-0.05348150177911055,0.062140260655982646,-0.0205993469437093
-0.0014655780978500843,0.027539564296603203,9.8600492477417,-0.006328004412353039,0.0007491782307624817,0.0018606185913085938,0.005149802551630942,0.03348526921025197,0.040435757088053546
0.010351873002946377,0.02509033866226673,9.855329513549805,0.0035640625283122063,-0.013309847563505173,0.001461029052734375,0.03453719838371327,-0.0686859030779556,0.08564701035502945
0.004756161943078041,0.024912914261221886,9.857269287109375,-0.005677074193954468,-0.008059525862336159,-0.0030117034912109375,0.0661849065833938,-0.02904620653869903,-0.029482168041869556
0.007892686873674393,0.03394998982548714,9.860817909240723,-0.000869410578161478,0.0012584663927555084,0.006771087646484375,0.012090822213097728,0.06694786005802537,-0.013658313942029291
0.008717402815818787,0.03928578644990921,9.853694915771484,0.008176572620868683,0.005423650145530701,0.006323814392089844,-0.007044539716074792,0.0059127560262625225,-0.03279367587120181
0.009262386709451675,0.03436703607439995,9.854239463806152,0.003286188468337059,-0.004467137157917023,0.0013828277587890625,0.03485333475666436,-0.056750387627196336,-0.0205993469437093
0.010778982192277908,0.034494828432798386,9.862894058227539,-0.001625729724764824,0.0002787970006465912,-0.007790565490722656,0.005149802551630942,-0.014852513154457181,0.040435757088053546
0.01159396767616272,0.036968618631362915,9.854097366333008,0.002748311497271061,0.0049918219447135925,-0.007662773132324219,0.005149802551630942,-0.02560248385611678,-0.0205993469437093
0.006803013384342194,0.034494828432798386,9.84953498840332,-0.0019384268671274185,0.0000698380172252655,-0.0024652481079101562,-0.08449933847126896,-0.026508311014363278,0.040435757088053546
0.006803013384342194,0.02970387041568756,9.849075317382812,-0.0012389905750751495,-0.0038620904088020325,-0.007107734680175781,-0.04260146399852981,-0.007371081455339581,-0.033883177755204795
0.011134504340589046,0.034494828432798386,9.859984397888184,0.0027657831087708473,0.0006586983799934387,0.007193565368652344,0.0603315145059722,-0.05512234800550033,-0.0205993469437093
0.008764655329287052,0.03928578644990921,9.856571197509766,0.0032191742211580276,0.005668338388204575,0.002147674560546875,-0.008787038367221405,-0.04118553376707443,-0.009545532875583303
0.006803013384342194,0.03417757526040077,9.857205390930176,-0.0015777116641402245,0.000736728310585022,0.0016603469848632812,-0.051843590399629755,0.06290614897752322,-0.0205993469437093
0.003831487847492099,0.034494828432798386,9.84814167022705,-0.001407071016728878,0.0008206404745578766,-0.012676239013671875,0.0661849065833938,-0.06979957075821147,-0.04377830092344837
0.006978059187531471,0.034494828432798386,9.865803718566895,0.003129498101770878,0.0008944086730480194,0.0018167495727539062,-0.055885301480131905,0.0059127560262625225,-0.0228293670221321
0.013271075673401356,0.02970387041568756,9.856571197509766,0.007960050366818905,-0.00288371741771698,0.0012617111206054688,-0.01621596298709453,-0.05512234800550033,0.040435757088053546
0.008408891037106514,0.0329156294465065,9.850201606750488,-0.0015976214781403542,-0.003205280750989914,-0.008254051208496094,0.005149802551630942,-0.03500391908352199,0.019977426203267905
0.005378183908760548,0.034494828432798386,9.859679222106934,-0.0060500167310237885,0.0010284073650836945,0.006134986877441406,0.005149802551630942,0.0059127560262625225,0.01899409240619763
0.009839672595262527,0.03624912351369858,9.84874439239502,-0.0014102775603532791,0.00584329292178154,-0.0032672882080078125,-0.055885301480131905,-0.03277324866970458,-0.0205993469437093
0.008952049538493156,0.0366438664495945,9.855250358581543,-0.006083623506128788,-0.004147287458181381,-0.002681732177734375,0.005149802551630942,-0.038293802427220275,-0.08163444764041884
0.0032617817632853985,0.034494828432798386,9.863654136657715,-0.006308381445705891,0.0005601607263088226,0.011098861694335938,-0.055885301480131905,-0.05512234800550033,-0.05244155545217652
0.01159396767616272,0.039998311549425125,9.860650062561035,0.0026963679119944572,0.009786535054445267,0.0013980865478515625,-0.02082908876077701,-0.029143456693092377,0.005379542701171998
0.006803013384342194,0.034494828432798386,9.851780891418457,-0.002425112761557102,0.00020243972539901733,-0.0037050247192382812,0.03203614852829856,0.0059127560262625225,0.013549421116545852
0.00966400932520628,0.034494828432798386,9.850815773010254,0.002507147379219532,0.0001641586422920227,-0.003070831298828125,-0.007143684180745758,0.0059127560262625225,-0.0205993469437093
0.009270170703530312,0.03696198761463165,9.854104042053223,-0.001968822441995144,-0.00021313875913619995,0.0017843246459960938,0.005149802551630942,0.004086400794798137,-0.05020372134385853
0.006803013384342194,0.02970387041568756,9.851780891418457,-0.0019434047862887383,-0.004980195313692093,-0.002552032470703125,0.03567469168478484,0.03642297092487147,0.009925538854391293
0.006803013384342194,0.02956281416118145,9.854246139526367,-0.001661551184952259,-0.009191425517201424,0.0023756027221679688,0.005149802551630942,0.0059127560262625225,-0.05201541568099119
0.007412469480186701,0.035104285925626755,9.851171493530273,0.0035843998193740845,0.004775680601596832,-0.006775856018066406,-0.04812104392048024,-0.0018515148736023628,-0.012835086049004333
0.006803013384342194,0.034494828432798386,9.856033325195312,-0.0012530488893389702,0.00014097243547439575,0.0031042098999023438,0.012008219612822887,-0.05512234800550033,-0.006882519491432024
0.006803013384342194,0.032454296946525574,9.859321594238281,-0.0010903747752308846,-0.004937630146741867,0.0026187896728515625,0.03114544917184658,0.040952213437809734,0.040435757088053546
0.01034561637789011,0.03554072976112366,9.85532283782959,0.0029979394748806953,0.004179403185844421,0.002040863037109375,0.021053364425476725,-0.08435035496999806,-0.0205993469437093
0.006803013384342194,0.02995753102004528,9.86136245727539,-0.002025950700044632,-0.0001383461058139801,0.0064983367919921875,0.005149802551630942,0.00268122277520024,-0.0205993469437093
0.006803013384342194,0.03321521729230881,9.85832691192627,-0.0018351376056671143,0.004735838621854782,0.0060977935791015625,-0.11692040551189475,-0.032755692949103535,-0.06533264038123636
0.006803013384342194,0.02970387041568756,9.851780891418457,-0.0015918873250484467,-0.00422016903758049,-0.0036668777465820312,0.04472570619125666,0.04548865966588824,-0.0205993469437093
0.005198509432375431,0.02970387041568756,9.85496711730957,-0.0016105277463793755,-0.003396652638912201,0.0013179779052734375,0.04574409806867614,0.026353564540980173,-0.0205993469437093
0.003687785705551505,0.03281909599900246,9.858246803283691,-0.0011314470320940018,-0.0036991536617279053,0.005513191223144531,-0.031527432837264835,-0.03377411150694946,0.0007488945574215275
0.0034115752205252647,0.033095307648181915,9.86136245727539,-0.001130320131778717,-0.0036447010934352875,0.005496978759765625,-0.012679605863893984,0.0059127560262625225,-0.0205993469437093
0.013728339225053787,0.03316653519868851,9.856571197509766,0.008786290884017944,0.0007541999220848083,0.00010776519775390625,0.04926292615170209,-0.02127838714211691,-0.08163444764041884
0.010724316351115704,0.03732513263821602,9.854610443115234,-0.0001622685231268406,0.005180239677429199,0.00009822845458984375,-0.019828225923532134,-0.005166291055174176,0.004378676528873817
0.0029292774852365255,0.034036215394735336,9.86136245727539,-0.005355224944651127,0.000805933028459549,0.004845619201660156,-0.050042741655847135,-0.049279788181215554,-0.06994931465163608
0.0009684854885563254,0.030747437849640846,9.856571197509766,-0.010237583890557289,0.0006616897881031036,-0.00018787384033203125,0.005149802551630942,-0.10286278230252426,-0.06833977790567992
0.01159396767616272,0.031648796051740646,9.858516693115234,0.0036360593512654305,-0.004148393869400024,-0.000537872314453125,0.05379609068732781,-0.09137979356470477,-0.06924561840413965
0.006803013384342194,0.034494828432798386,9.858887672424316,-0.0014226976782083511,0.0005945451557636261,0.0037603378295898438,0.03465883444787767,-0.025613316109253596,0.040435757088053546
0.008431282825767994,0.03847165033221245,9.86054801940918,-0.0014068689197301865,0.005004618316888809,0.0030469894409179688,0.045441301908947726,-0.05512234800550033,0.030063961420937126
-0.0020908585283905268,0.02970387041568756,9.857259750366211,-0.006236466579139233,-0.004758782684803009,0.0031938552856445312,-0.029588966453877034,0.11045208296576045,-0.029364794175829795
0.016384921967983246,0.03230460360646248,9.856161117553711,0.008626101538538933,-0.004736892879009247,0.0033578872680664062,-0.022752880909619858,0.0006830189170012751,0.0735681809936189
0.009474863298237324,0.029151124879717827,9.85869026184082,0.003502780571579933,-0.009282251819968224,-0.0015888214111328125,-0.0018919890805199774,0.03290942556628171,0.006397310923623317
0.007498215883970261,0.029008666053414345,9.85861873626709,-0.006373067386448383,0.0005775578320026398,0.003116607666015625,0.040095691707634266,-0.05512234800550033,0.005489864596996919
0.008779658004641533,0.0325181819498539,9.86136245727539,-0.001838994212448597,0.0010521300137043,0.0029916763305664062,-0.02003195765986892,-0.029940587794000464,0.015253990206447075
0.007063956465572119,0.03902484476566315,9.852302551269531,0.002302371896803379,0.0007460527122020721,0.0032854080200195312,0.001825474777391689,-0.0007358995222159832,-0.013950698065337407
0.006803013384342194,0.029893582686781883,9.851970672607422,-0.002610531635582447,-0.0038663744926452637,-0.0063076019287109375,0.0637680334734142,0.0059127560262625225,0.042852633533086444
0.006803013384342194,0.03618655353784561,9.856571197509766,-0.0028107771649956703,0.0048654042184352875,-0.0011444091796875,0.04463291166807969,-0.07667434292081443,0.0009526396339715368
0.0036325487308204174,0.03287433087825775,9.859742164611816,-0.007246661931276321,0.00042939186096191406,0.0038166046142578125,-0.03613927795047794,0.0059127560262625225,0.00004519330734513808
0.009925519116222858,0.034494828432798386,9.848658561706543,-0.0023332787677645683,0.0004350729286670685,-0.004832267761230469,-0.013374390848957663,0.0059127560262625225,0.05895995382369546
0.006636576261371374,0.02524578757584095,9.851946830749512,-0.0018106000497937202,-0.009260931983590126,-0.004670143127441406,0.00939049625256261,0.0059127560262625225,0.09723017075393804
0.006803013384342194,0.034494828432798386,9.854452133178711,-0.0022198855876922607,0.0003699585795402527,0.005015373229980469,-0.0118651858466493,0.05992298381624081,0.06744088098820261
0.009640784934163094,0.02970387041568756,9.851780891418457,0.002800661139190197,-0.004402767866849899,-0.0040988922119140625,0.01641916111490241,-0.01897013004819639,-0.0205993469437093
0.01159396767616272,0.03098578006029129,9.856571197509766,0.0028111720457673073,0.004648987203836441,0.0008258819580078125,0.0661849065833938,-0.03879131233914695,-0.0205993469437093
0.00732512166723609,0.030225979164242744,9.852302551269531,-0.002022039145231247,-0.0046661533415317535,-0.0031147003173828125,0.0661849065833938,-0.04847086433181862,0.040435757088053546
0.007783083710819483,0.03830571472644806,9.847970008850098,-0.0024141203612089157,0.005078021436929703,-0.007689476013183594,-0.043399542254576706,-0.06760812057126875,-0.008113587718154097
0.01159396767616272,0.034494828432798386,9.851780891418457,0.0016807075589895248,-0.00014541298151016235,-0.0028076171875,-0.024262299355339786,0.0059127560262625225,-0.022810237156370778
0.01159396767616272,0.034494828432798386,9.849400520324707,0.0015310775488615036,-0.00018204376101493835,-0.0069026947021484375,0.005149802551630942,0.0366299043123817,0.07075370949864392
0.007498569320887327,0.030399426817893982,9.856571197509766,-0.0030135484412312508,-0.00010683760046958923,-0.0021448135375976562,0.05732374999150717,-0.002948400565624098,-0.07277330438874545
0.007427339442074299,0.033870503306388855,9.856571197509766,-0.0031818347051739693,-0.0001143142580986023,0.0024204254150390625,0.005149802551630942,-0.05512234800550033,-0.028553045536282955
0.008929350413382053,0.03715944662690163,9.857110023498535,0.0017221421003341675,0.00028375163674354553,-0.001972198486328125,0.005149802551630942,0.03300155307879755,-0.0205993469437093
0.0040671625174582005,0.031758978962898254,9.853155136108398,-0.007210524752736092,-0.004481934010982513,-0.006809234619140625,-0.021031566517070863,0.04943888356410925,-0.055453088576876954
0.007481825537979603,0.038606975227594376,9.860343933105469,0.0074423206970095634,-0.004611317068338394,-0.006565093994140625,-0.055885301480131905,-0.05512234800550033,-0.016275430322587936
0.011325791478157043,0.034494828432798386,9.856303215026855,0.0027033649384975433,0.0005101040005683899,0.0025634765625,0.0017333205844494077,-0.04487292878438217,-0.07821797901345054
0.0020120516419410706,0.03147405758500099,9.854801177978516,-0.00671510212123394,0.0008324757218360901,-0.0020093917846679688,0.0661849065833938,-0.11615747871768962,0.0019522318159069527
0.009840523824095726,0.034494828432798386,9.854818344116211,-0.001789415255188942,0.0009296350181102753,-0.0022478103637695312,0.005149802551630942,-0.07447077982026551,-0.0012509284691573403
0.010003982111811638,0.0280928872525692,9.858182907104492,-0.0023128436878323555,0.0008949078619480133,-0.00238800048828125,0.025405662350229345,0.0059127560262625225,-0.00034348381005759436
0.002100025536492467,0.024912914261221886,9.8567476272583,-0.006666949018836021,-0.008409684523940086,0.002391815185546875,0.0040290378779406074,-0.054001583331809995,-0.019478592275178883
0.005388973280787468,0.03504367172718048,9.855156898498535,-0.0018781321123242378,0.005844298750162125,0.0019989013671875,0.02316415968327512,-0.019093633742211975,-0.0025849931471184293
0.008677858859300613,0.038244519382715225,9.85844612121582,-0.00180771853774786,0.000692322850227356,0.0014476776123046875,0.01841515049770641,-0.017972122016581167,0.040435757088053546
0.009648017585277557,0.02970387041568756,9.853726387023926,-0.0018799779936671257,-0.0042669884860515594,0.0014886856079101562,0.04139417470187716,-0.01887797585525411,-0.0205993469437093
0.01159396767616272,0.034494828432798386,9.851780891418457,0.0025789309293031693,0.0005348064005374908,-0.0030698776245117188,0.019539410307261088,0.023779063471561383,0.02604615933758332
0.010535559616982937,0.02808813937008381,9.851780891418457,0.0026424387469887733,-0.009320760145783424,-0.0028362274169921875,0.0661849065833938,-0.05512234800550033,0.040435757088053546
0.004242422990500927,0.034164607524871826,9.856571197509766,-0.00219903327524662,0.00505572184920311,0.0019617080688476562,-0.0885062849561128,-0.022501364529519428,0.07305674389908776
0.0020120516419410706,0.03376663848757744,9.855843544006348,-0.006728320382535458,0.0003689900040626526,0.0020208358764648438,0.005149802551630942,-0.05512234800550033,-0.07235756998387381
0.01159396767616272,0.03047771565616131,9.85579776763916,0.002652267925441265,0.00033722445368766785,-0.0025730133056640625,0.046467911357712374,0.01577125363910323,0.040435757088053546
0.010188738815486431,0.034494828432798386,9.856571197509766,0.0028028879314661026,0.00019147619605064392,0.0018749237060546875,0.014100872180638433,0.014863825655270014,-0.0026972310310674572
0.004598384723067284,0.036699455231428146,9.856953620910645,-0.0010603321716189384,0.0009145364165306091,0.006798744201660156,-0.08397146623404747,-0.02703618325158477,0.012349592334137991
0.006803013384342194,0.039774712175130844,9.856571197509766,-0.0011586807668209076,0.010046888142824173,0.0018930435180664062,-0.0010789297650240063,-0.03643617773596193,-0.026828069255204333
0.002429746324196458,0.034494828432798386,9.861780166625977,-0.006183159537613392,0.00010373815894126892,0.005886077880859375,0.0608636289309985,-0.05512234800550033,-0.015278069291314015
0.007754553575068712,0.03257512301206589,9.857522964477539,0.0036296341568231583,0.0006927549839019775,0.0056858062744140625,0.005149802551630942,0.04249146060029558,0.015979370970536973
0.009541488252580166,0.03175635263323784,9.856571197509766,-0.0017218412831425667,0.0012499094009399414,0.000499725341796875,-0.020998082581881936,-0.05512234800550033,0.02299214597140191
0.006670239381492138,0.02970387041568756,9.86122989654541,-0.0007545873522758484,-0.0028680749237537384,0.005207061767578125,0.0034583168758478625,0.12459996605779562,-0.0205993469437093
0.009959181770682335,0.028182487934827805,9.854936599731445,-0.00032434146851301193,0.0014631971716880798,-0.004176139831542969,-0.03505869399901432,0.1279829640897882,-0.06080785349951447
0.0020120516419410706,0.034494828432798386,9.853343963623047,-0.004959949757903814,0.0017269961535930634,-0.004138946533203125,0.025068955368488872,0.0059127560262625225,-0.04051850643067384
0.009868580847978592,0.034494828432798386,9.86136245727539,0.0036979513242840767,0.0014363937079906464,0.004603385925292969,0.0661849065833938,-0.07710320409549719,-0.0205993469437093
0.011370591819286346,0.029927246272563934,9.852227210998535,0.0032036192715168,-0.0035524368286132812,-0.005030632019042969,0.060493438014069104,-0.04943087943617564,-0.017753615994100264
0.006803013384342194,0.03672851249575615,9.86008358001709,-0.0007369183003902435,0.00585893914103508,0.0036373138427734375,-0.011139584969041225,0.02220214354693469,-0.06534507345995991
0.009583660401403904,0.03372448682785034,9.864143371582031,-0.000657194759696722,0.005785990506410599,0.0029840469360351562,0.005149802551630942,-0.02951172661931771,0.040435757088053546
0.0025203481782227755,0.03826919570565224,9.86666202545166,-0.004460041411221027,0.005492597818374634,0.006562232971191406,0.12074451103430854,-0.0005627435545855818,0.03396024416699222
0.006803013384342194,0.02970387041568756,9.866153717041016,0.0001013786531984806,-0.00430690124630928,0.00604248046875,0.005149802551630942,-0.006748040136987481,-0.03326015644717253
0.00450804503634572,0.0274089053273201,9.863455772399902,-0.005214533768594265,-0.008832065388560295,0.009870529174804688,0.0661849065833938,-0.023324295602800183,0.07223379948559377
0.014799349941313267,0.034494828432798386,9.86136245727539,0.009058654308319092,0.0013605058193206787,-0.0006313323974609375,-0.055885301480131905,-0.004187066043776488,-0.030699169013748313
0.006803013384342194,0.034494828432798386,9.872363090515137,-0.0004202891141176224,0.0009645000100135803,0.017339706420898438,0.005149802551630942,-0.09808261037886737,0.040435757088053546
0.007170821074396372,0.034494828432798386,9.870944023132324,-0.005522825289517641,0.001169603317975998,0.0060024261474609375,0.033324466280065766,-0.0222619077021723,0.040435757088053546
0.006803013384342194,0.02970387041568756,9.875167846679688,-0.0008995993994176388,-0.0033435560762882233,0.00551605224609375,-0.009301650432499552,0.0059127560262625225,0.040435757088053546
0.00887223705649376,0.034494828432798386,9.871597290039062,0.004005221650004387,0.0013725832104682922,-0.0003662109375,0.005149802551630942,0.03227395116920607,0.04874848083908922
0.006803013384342194,0.03928578644990921,9.872941970825195,-0.0003648381680250168,0.006207559257745743,0.0034818649291992188,-0.03043156100144802,0.0059127560262625225,0.00485439687002789
0.01159396767616272,0.034494828432798386,9.87923526763916,0.004388787318021059,0.0016032196581363678,0.011636734008789062,0.021596044299375394,0.0059127560262625225,-0.004153095190804931
0.0022231140173971653,0.034494828432798386,9.86678695678711,-0.005607832223176956,0.001547541469335556,-0.0037126541137695312,0.058118346451902954,-0.0497446412511731,-0.017910490231492382
0.013307041488587856,0.0362079031765461,9.876083374023438,0.007981370203197002,0.006043493747711182,0.014020919799804688,0.005149802551630942,-0.02886160466812357,0.0012246182336289073
0.008444856852293015,0.03134571388363838,9.8853178024292,-0.0022052358835935593,-0.003333520144224167,0.012913703918457031,-0.034968780961893445,-0.0359202850102144,0.040435757088053546
0.005155911203473806,0.02970387041568756,9.879029273986816,-0.006722795777022839,-0.0033940933644771576,0.011092185974121094,-0.01583368583698538,-0.034138859616884,0.0003841314397471038
0.01159396767616272,0.034494828432798386,9.876025199890137,0.0026921574026346207,0.0013469159603118896,0.0002880096435546875,0.008846535718194562,0.0059127560262625225,0.038587387169718435
0.0020120516419410706,0.0310608372092247,9.880526542663574,-0.006794515065848827,0.0010197386145591736,0.004170417785644531,0.005149802551630942,-0.037835059174918716,-0.0205993469437093
0.006803013384342194,0.034494828432798386,9.889103889465332,-0.0021679792553186417,0.0015398301184177399,0.016897201538085938,0.005149802551630942,0.03052334166842007,0.07686027881271217
0.004800097085535526,0.034494828432798386,9.883315086364746,-0.0065800901502370834,0.0012948550283908844,0.0015106201171875,0.030666215352034985,-0.029605935205096287,-0.046115773084326565
0.0073037478141486645,0.03349335864186287,9.885818481445312,-0.0019379965960979462,0.0011996515095233917,0.004818916320800781,-0.007608563931129751,-0.04874316476411998,-0.014220160367275648
0.006803013384342194,0.034494828432798386,9.889106750488281,-0.002350160852074623,0.001264672726392746,0.00814056396484375,0.040668787267680646,-0.006845290291380826,0.02767770410030359
0.0020120516419410706,0.03220749646425247,9.892395973205566,-0.007139401510357857,0.0007211975753307343,0.006745338439941406,0.0661849065833938,0.0059127560262625225,0.040435757088053546
0.016384921967983246,0.03206230700016022,9.887749671936035,0.006894983351230621,0.00023861974477767944,0.0006799697875976562,0.06712869998847204,-0.02413289928707978,0.009446310037159653
0.010876941494643688,0.034494828432798386,9.894182205200195,-0.002439938485622406,0.00042037665843963623,0.0043697357177734375,0.005149802551630942,0.048678518090842865,0.09233619347127846
0.012239889241755009,0.038639865815639496,9.890753746032715,0.0018424000591039658,0.005200840532779694,0.003200531005859375,0.005149802551630942,-0.09969981774742656,0.09324203396973817
0.0010225489968433976,0.034494828432798386,9.89275074005127,0.002073882147669792,0.0003334321081638336,0.0025815963745117188,-0.02221625749252429,-0.04881939074247438,0.013069696210134993
0.010453293099999428,0.034494828432798386,9.898550033569336,0.0029570553451776505,0.0004552192986011505,0.010831832885742188,0.005149802551630942,0.020444570454846447,0.08693906336649901
0.002373556373640895,0.03856277838349342,9.890469551086426,-0.00171580258756876,-0.0041420795023441315,0.004729270935058594,0.12261456880429043,0.0059127560262625225,0.03583031861224064
0.006803013384342194,0.029994269832968712,9.890108108520508,-0.0015682075172662735,-0.004051215946674347,-0.00029277801513671875,-0.04848612553574536,-0.051422760033307056,0.03673616911586028
0.009801389649510384,0.0327022485435009,9.894899368286133,-0.0016725463792681694,-0.003519415855407715,0.003429412841796875,0.020511244840533408,0.02874957355747949,0.017598929551676662
0.005004448350518942,0.037789586931467056,9.896395683288574,-0.006390596739947796,0.005709540098905563,0.002696990966796875,0.005149802551630942,-0.05512234800550033,-0.0205993469437093
0.002018033294007182,0.02970985136926174,9.890113830566406,-0.0011561727151274681,0.0005357488989830017,0.0015325546264648438,0.0661849065833938,-0.05504614870757237,-0.020523140975674734
0.0020771746058017015,0.0345599502325058,9.894899368286133,-0.005522159859538078,0.00038417428731918335,0.0010423660278320312,0.06452562418233027,0.006742410567007509,0.040435757088053546
0.006803013384342194,0.040722936391830444,9.899690628051758,-0.0009345985017716885,0.0044263675808906555,0.0052585601806640625,-0.019267750205194407,-0.05512234800550033,-0.0205993469437093
0.006803013384342194,0.03264336660504341,9.894899368286133,-0.0009416639804840088,-0.000011008232831954956,0.0002613067626953125,0.019011004461510685,0.08080906196790512,-0.04418630467475747
0.01159396767616272,0.02970387041568756,9.901613235473633,0.003427783027291298,-0.0037240907549858093,0.009531974792480469,-0.03139409740610413,-0.05512234800550033,0.015944556349079084
0.01159396767616272,0.034494828432798386,9.902174949645996,0.003517206758260727,0.0012860409915447235,-0.0005474090576171875,0.005149802551630942,0.09859938355868758,0.025743970157556535
0.012676221318542957,0.030786124989390373,9.894436836242676,0.003690785728394985,-0.0033755116164684296,-0.0058612823486328125,0.005149802551630942,0.0059127560262625225,-0.0205993469437093
0.006424763705581427,0.03928578644990921,9.902275085449219,0.0037433020770549774,0.00537274032831192,0.00292205810546875,-0.055885301480131905,0.0059127560262625225,0.007508844169763556
0.0020120516419410706,0.031111888587474823,9.903777122497559,-0.005780304782092571,-0.004166889935731888,0.007365226745605469,0.005149802551630942,0.04901020915241161,-0.011630524825955725
0.01079562958329916,0.038487449288368225,9.90048885345459,-0.000551044475287199,0.0005587823688983917,0.006703376770019531,0.015320354432176608,-0.02461069236386333,0.030265205207507882
0.0043127392418682575,0.03468441590666771,9.897200584411621,-0.0009763278067111969,-0.0046612657606601715,0.001331329345703125,0.0368749907097088,0.0059127560262625225,0.008710575600082301
0.0090327188372612,0.03193357586860657,9.899690628051758,-0.0011024363338947296,-0.004928898066282272,0.0013599395751953125,-0.019032108678828968,-0.05934612631606564,-0.04900502314452129
0.003040896961465478,0.034494828432798386,9.899690628051758,0.003345777280628681,-0.0005540885031223297,0.001255035400390625,0.04652420705751209,-0.007194376990991946,0.03388219391447962
0.011150524020195007,0.034494828432798386,9.903594017028809,0.0036906180903315544,-0.00031967833638191223,0.00595855712890625,-0.0004995109439100731,0.1166843370987062,-0.0205993469437093
0.006803013384342194,0.04123157635331154,9.899690628051758,-0.00104458536952734,0.009263113141059875,0.0008716583251953125,0.04139622909471345,0.06694786005802537,-0.05684577015173851
0.005460192449390888,0.03583764657378197,9.899690628051758,-0.0008349339477717876,-0.0005746670067310333,0.0007181167602539062,-0.004564167191155239,0.015626725769048704,0.040435757088053546
0.006962541025131941,0.03928578644990921,9.904321670532227,0.0033388501033186913,0.0038802511990070343,0.0001068115234375,0.06008792221252604,0.0628832038107802,0.09740620820762454
0.00498160719871521,0.031525272876024246,9.898205757141113,-0.0056215617805719376,-0.0010394454002380371,-0.000278472900390625,0.0661849065833938,0.04803231816233619,-0.0205993469437093
0.011576398275792599,0.03451239690184593,9.899673461914062,-0.0006042434833943844,0.0038854964077472687,-0.0045108795166015625,-0.0554376439450184,-0.11615747871768962,-0.020375518176152546
0.006803013384342194,0.034601595252752304,9.899690628051758,-0.0010073287412524223,-0.000554896891117096,0.00023555755615234375,0.005829886621723227,0.06626777598793308,0.03975566301280135
0.006803013384342194,0.03115300089120865,9.899690628051758,-0.0019388031214475632,-0.005897164344787598,-0.0000457763671875,0.0661849065833938,-0.012548658330900145,-0.0205993469437093
0.006803013384342194,0.032655514776706696,9.89785099029541,-0.0013788053765892982,-0.0009469129145145416,-0.0002689361572265625,0.02858199379897617,-0.0316901567581551,-0.0205993469437093
0.0020120516419410706,0.034494828432798386,9.900660514831543,-0.005585792940109968,-0.000884275883436203,-0.0047740936279296875,-0.04391587520736058,0.06694786005802537,-0.0205993469437093
0.010428251698613167,0.034494828432798386,9.898396492004395,0.00004748161882162094,-0.001128915697336197,0.009235382080078125,0.11236920500799197,-0.025420710110744527,0.025584943143255608
0.006803013384342194,0.02970387041568756,9.903386116027832,0.00018130987882614136,-0.005533523857593536,0.004242897033691406,-0.055885301480131905,0.06694786005802537,-0.0205993469437093
0.006803013384342194,0.03668840974569321,9.899286270141602,0.00013395491987466812,0.003994617611169815,0.004590034484863281,0.005149802551630942,0.033858181530678794,-0.0205993469437093
0.0027031179051846266,0.03380376100540161,9.900382041931152,-0.005393507424741983,-0.0003957189619541168,-0.000423431396484375,0.0661849065833938,-0.10735352496010186,0.03163182667583893
0.006803013384342194,0.03287193179130554,9.899690628051758,-0.001145881600677967,-0.009728161618113518,-0.0005950927734375,-0.005187768798462692,-0.06545991935559396,0.08079571508457582
0.014070959761738777,0.03928578644990921,9.89721393585205,0.0033532995730638504,0.004075899720191956,-0.000354766845703125,-0.02432928056593087,-0.02564327822815174,0.010956678973071697
0.006133270915597677,0.035834312438964844,9.90381145477295,-0.006069919094443321,0.00853777676820755,-0.0002002716064453125,0.11015544998454092,-0.09909294476750034,0.03190348010779899
0.002986531937494874,0.033520348370075226,9.89871597290039,-0.005695090163499117,-0.0014755018055438995,-0.0004291534423828125,-0.007264733275528367,-0.04270781217834102,-0.0205993469437093
0.0014840171206742525,0.034494828432798386,9.903425216674805,-0.010168240405619144,-0.0011459961533546448,-0.004656791687011719,0.011876791832153032,0.05349390817740764,-0.0205993469437093
0.006803013384342194,0.03882860392332077,9.8992338180542,-0.0003774333745241165,0.003689594566822052,-0.00011348724365234375,0.010974139644653534,-0.05512234800550033,-0.01477501652079332
0.007674575317651033,0.03645452484488487,9.901650428771973,0.003627285361289978,-0.000545065850019455,-0.0010576248168945312,-0.019816032968646605,-0.019053079494015024,-0.08163444764041884
0.004669481888413429,0.034494828432798386,9.901823997497559,-0.005150435958057642,-0.0007096193730831146,0.00363922119140625,-0.055885301480131905,0.0059127560262625225,-0.0205993469437093
0.0020120516419410706,0.034494828432798386,9.899517059326172,-0.0053341807797551155,-0.0007887110114097595,-0.005404472351074219,0.007366092215594298,0.06473157039406202,0.04265203341180368
0.00847966130822897,0.032818179577589035,9.899690628051758,0.004236978013068438,-0.005479931831359863,-0.0003910064697265625,0.044824984058059854,0.06694786005802537,-0.09994973330194026
0.005197091028094292,0.034494828432798386,9.901296615600586,-0.0002298988401889801,-0.0007202140986919403,-0.000942230224609375,0.025608673715052106,-0.03466347684207916,-0.0001404841179214024
0.00822925753891468,0.031386226415634155,9.90422534942627,-0.004796457942575216,-0.00037856772541999817,-0.005942344665527344,0.044752306576422686,-0.015519843980708582,-0.03876923762131672
0.003405789379030466,0.02970387041568756,9.896293640136719,-0.00047414936125278473,-0.0053208619356155396,-0.00130462646484375,0.005149802551630942,-0.037366630927817494,0.040435757088053546
0.010270959697663784,0.031848810613155365,9.896222114562988,0.0042814030312001705,-0.00032023340463638306,-0.005519866943359375,0.03885913398317106,0.02276742174203258,-0.0205993469437093
0.004837744869291782,0.02884344756603241,9.905342102050781,-0.005097187124192715,-0.00031703338027000427,-0.00096893310546875,0.0661849065833938,-0.019124049428359685,-0.0205993469437093
0.006803013384342194,0.038823202252388,9.898765563964844,-0.00025143614038825035,0.0041947998106479645,-0.0006961822509765625,-0.04409895629362866,0.06694786005802537,-0.0205993469437093
0.003052149200811982,0.04303664341568947,9.899690628051758,-0.0053768763318657875,0.008820082992315292,-0.0005826950073242188,0.05293444631527484,-0.08965655818145171,-0.08163444764041884
0.007097609341144562,0.03195204958319664,9.895194053649902,0.003735119476914406,-0.00480097159743309,-0.00049591064453125,-0.027244303918071817,-0.026481337103227014,0.011794752855886848
0.01159396767616272,0.03928578644990921,9.897371292114258,0.0037505049258470535,0.004871901124715805,-0.00496673583984375,-0.024392246372341924,0.03545481829044861,0.04238675660176406
0.003526421496644616,0.03777141496539116,9.898176193237305,0.003963586408644915,-0.005075756460428238,-0.009337425231933594,0.0661849065833938,0.05730160523755752,0.030789488927372474
0.006116556003689766,0.03859933093190193,9.898317337036133,-0.0005335188470780849,0.003958914428949356,0.0008325576782226562,0.05743967644441227,-0.002832474112718999,0.03169054028928525
0.004201192408800125,0.034494828432798386,9.897500991821289,-0.00017695408314466476,-0.0006598420441150665,-0.0036144256591796875,-0.055885301480131905,0.0059127560262625225,0.012546904092861362
0.00790215004235506,0.031902145594358444,9.898591041564941,-0.00037860218435525894,-0.005068831145763397,0.0009737014770507812,0.005149802551630942,-0.06912498285596694,0.02643314058038012
0.006399468053132296,0.0340912826359272,9.894495964050293,-0.004832410719245672,-0.005075249820947647,-0.008504867553710938,0.005149802551630942,-0.004369293356398313,0.03529473573177644
0.0020120516419410706,0.03730883076786995,9.898853302001953,-0.004739624913781881,0.0041727907955646515,-0.0036706924438476562,0.050380195689528076,-0.023512926217768897,0.008826328630215506
0.01159396767616272,0.034494828432798386,9.892014503479004,0.004510172642767429,-0.0007516667246818542,-0.0035352706909179688,0.0661849065833938,-0.01837190152643848,-0.0448840044964103
0.006803013384342194,0.02970387041568756,9.899690628051758,-0.0002622585743665695,-0.005551740527153015,0.0012998580932617188,0.05191701493320739,0.04356425386723715,-0.04398295313449752
0.006682255771011114,0.03916502743959427,9.899569511413574,-0.004848870914429426,-0.0003390572965145111,-0.0027494430541992188,0.06464648651412776,-0.05512234800550033,-0.0205993469437093
0.0020622066222131252,0.03444467484951019,9.894949913024902,-0.004680749960243702,-0.000774625688791275,-0.0026874542236328125,0.1265810677626431,0.06630891720551184,0.10019295206941618
0.008356016129255295,0.03125687316060066,9.902928352355957,0.004960799124091864,-0.0011066161096096039,0.0018930435180664062,-0.016315854503705967,-0.03533763785750058,0.02065103359984058
0.01307636871933937,0.03597722947597504,9.896382331848145,0.004635373130440712,-0.0009581446647644043,-0.0030527114868164062,0.005149802551630942,0.04806257376592524,0.0825855915029828
0.005623464938253164,0.03630053624510765,9.894899368286133,0.0049446700140833855,0.0031812377274036407,-0.0026407241821289062,0.043180856139217294,-0.09315340159308667,-0.0205993469437093
0.01577920839190483,0.034494828432798386,9.900296211242676,0.008918093517422676,-0.0007144585251808167,0.0019388198852539062,-0.10920381253408773,-0.05126406485681004,-0.01674105045480579
0.005603020545095205,0.03569481894373894,9.900890350341797,-0.005614111665636301,0.004134237766265869,0.0056858062744140625,-0.055885301480131905,0.05166037591122945,0.025148284613944197
0.004100169986486435,0.031791988760232925,9.892196655273438,-0.005522877909243107,-0.005462944507598877,-0.007973670959472656,0.012981174724005914,-0.08172420059498105,-0.0205993469437093
0.01159396767616272,0.03233610838651657,9.892267227172852,0.00369828287512064,-0.0046006739139556885,-0.0028028488159179688,-0.03441645611383478,0.03341405915206929,-0.0205993469437093
0.006147142965346575,0.034494828432798386,9.894899368286133,-0.0011298852041363716,0.00010971724987030029,-0.002979278564453125,-0.0032057332786896175,0.041881199206210806,0.03208020791751977
0.007649992126971483,0.025759892538189888,9.895746231079102,-0.001109262928366661,-0.009291967377066612,-0.0025882720947265625,-0.0056404022331082646,-0.015667680223642334,-0.04926379660061486
0.009244140237569809,0.0369359590113163,9.894899368286133,-0.0005480628460645676,0.0002998337149620056,-0.0019512176513671875,0.03392264144097079,-0.08622150663746421,-0.0205993469437093
0.0020120516419410706,0.034494828432798386,9.892387390136719,-0.005035451613366604,-0.00008996948599815369,-0.006051063537597656,0.0661849065833938,0.037911311833699564,-0.0205993469437093
0.009385345503687859,0.030077580362558365,9.894525527954102,-0.0005747368559241295,-0.009665558114647865,0.0035343170166015625,0.09432200427139355,-0.08802035434926342,0.007537739071603884
0.0030915371607989073,0.030783355236053467,9.893819808959961,-0.005706124007701874,-0.00487985834479332,-0.0010519027709960938,0.03265430732861116,-0.04137010895722344,0.026683504699563442
0.006803013384342194,0.034494828432798386,9.895322799682617,-0.0008924775756895542,-0.0005636662244796753,0.0037708282470703125,0.005149802551630942,-0.0048742737877296854,0.029648730609114646
0.003938267007470131,0.034494828432798386,9.892972946166992,-0.0007590539753437042,-0.00017739087343215942,-0.005513191223144531,0.005149802551630942,0.0059127560262625225,0.015896474885571235
0.004947400651872158,0.03155948221683502,9.893819808959961,0.000025721266865730286,-0.00492318719625473,-0.005270957946777344,0.005149802551630942,-0.003971648280656633,0.1014708644548697
0.0037970622070133686,0.034494828432798386,9.894899368286133,-0.0002696644514799118,-0.00002389773726463318,-0.000682830810546875,0.0661849065833938,-0.10060311026516074,-0.0205993469437093
0.0020120516419410706,0.03928578644990921,9.89797592163086,-0.005295224487781525,0.005031023174524307,0.0045680999755859375,-0.055885301480131905,-0.0943165614643987,0.040435757088053546
0.008446680381894112,0.03292118385434151,9.894899368286133,-0.004205300472676754,-0.004469983279705048,-0.00029659271240234375,-0.035837642389299894,0.08699553248907062,-0.0205993469437093
0.01159396767616272,0.0297744981944561,9.89031982421875,0.005152735393494368,-0.0045708827674388885,-0.005377769470214844,0.0652851358819504,0.006812526727705921,-0.0205993469437093
0.005370622966438532,0.034494828432798386,9.896331787109375,-0.004275939892977476,0.0002012588083744049,0.0040645599365234375,0.09072374855883976,-0.07337047903365877,-0.038847477971867744
0.009738417342305183,0.03341497480869293,9.895674705505371,0.004893404431641102,-0.003907676786184311,-0.005504608154296875,-0.03224623020612934,0.0059127560262625225,0.0030397243302932677
0.006803013384342194,0.036420855671167374,9.901616096496582,0.000017193611711263657,0.005105823278427124,0.008230209350585938,0.029686723536372844,-0.030585427020758428,0.040435757088053546
0.0024350639432668686,0.04280770570039749,9.895745277404785,-0.005024909973144531,0.009846232831478119,-0.0015010833740234375,0.005149802551630942,-0.05512234800550033,0.040435757088053546
0.005723007954657078,0.042996738106012344,9.893818855285645,-0.005199357867240906,0.005281377583742142,-0.006524085998535156,0.05242602410893201,-0.007846126448199257,0.012918007146869866
0.011218883097171783,0.031911805272102356,9.897107124328613,-0.00017917482182383537,-0.0045906417071819305,-0.001556396484375,0.009928240247568887,0.0059127560262625225,-0.0205993469437093
0.002951103262603283,0.03543388098478317,9.901663780212402,-0.00031552137807011604,0.0051150210201740265,-0.006214141845703125,-0.006813380501352172,-0.031196008579960542,-0.0205993469437093
0.0011434785556048155,0.034494828432798386,9.898821830749512,-0.004322586581110954,0.0004161819815635681,0.0030984878540039062,-0.033754661476070785,-0.044057014663256545,-0.009534026941678741
0.009222378954291344,0.03212323784828186,9.897271156311035,0.005190740339457989,0.00047279149293899536,-0.0024738311767578125,0.005149802551630942,0.005304095457764472,0.009005210884371744
0.0029284032061696053,0.03836943581700325,9.899690628051758,-0.0038071502931416035,0.005089364945888519,0.0029401779174804688,0.005149802551630942,0.0059127560262625225,0.017087787609363064
0.0025987180415540934,0.03332149609923363,9.890108108520508,0.0007073679007589817,-0.008625974878668785,-0.005959510803222656,0.05123706426524733,-0.04764844018664032,-0.06668661866248561
0.004101736005395651,0.03240514546632767,9.894288063049316,0.00034310808405280113,-0.004086799919605255,0.004422187805175781,-0.021472006996830904,0.0059127560262625225,-0.05501263475690369
0.006803013384342194,0.034494828432798386,9.890108108520508,0.0006735492497682571,0.00045226141810417175,-0.0043544769287109375,0.021286578033035637,-0.029398388167777813,-0.05591049113774964
0.006498255301266909,0.03928578644990921,9.894899368286133,-0.004092887043952942,0.00444389134645462,0.0007143020629882812,0.062302397607491115,0.002030247050359845,0.0326707458063548
0.011125405319035053,0.034494828432798386,9.894664764404297,0.005699843633919954,-0.0005667097866535187,0.000850677490234375,-0.05290064221496856,0.0029280967610991774,0.03745110115794351
0.0037493505515158176,0.03928578644990921,9.89316177368164,0.00034495024010539055,0.0036993660032749176,-0.0031986236572265625,-0.03375275382557995,0.044815299063260185,-0.0205993469437093
0.008260326460003853,0.03303751349449158,9.886984825134277,0.00546630471944809,-0.005429822951555252,-0.007596015930175781,0.026384513835656796,0.0059127560262625225,-0.08163444764041884
0.006803013384342194,0.029776275157928467,9.891729354858398,0.0003975057043135166,0.004097510129213333,0.0019979476928710938,-0.015502688466504214,-0.03446985698736517,-0.08163444764041884
0.006803013384342194,0.04384053125977516,9.890226364135742,0.0008683227933943272,0.008086878806352615,-0.0019865036010742188,0.0661849065833938,0.0059127560262625225,-0.08012984501167231
0.008187924511730671,0.034494828432798386,9.890108108520508,0.005538072902709246,-0.0010493658483028412,-0.0014133453369140625,0.03089830838168319,0.0059127560262625225,0.022792462989778207
0.004899983294308186,0.034494828432798386,9.8853178024292,0.0006649666465818882,-0.000985119491815567,-0.0055789947509765625,0.04194099004187486,0.0059127560262625225,-0.0205993469437093
0.006803013384342194,0.02970387041568756,9.880526542663574,0.0006646984256803989,-0.005645830184221268,-0.009654998779296875,-0.01069778378753247,0.035252660699272104,-0.05229453296224935
0.00318557838909328,0.03928578644990921,9.886587142944336,-0.003981287125498056,0.0037143416702747345,0.0011730194091796875,0.020100099469010375,-0.02522175417074146,-0.005649046691276562
0.006240548100322485,0.03238058090209961,9.880526542663574,0.005299254786223173,-0.0062120892107486725,-0.007372856140136719,0.03925013563272785,-0.0012528061041684325,0.006335424006956646
0.0061919488944113255,0.03388376533985138,9.880526542663574,0.0005274377763271332,-0.0016696751117706299,-0.006361961364746094,0.005149802551630942,0.0059127560262625225,-0.0205993469437093
-0.0018867834005504847,0.04318462312221527,9.87183666229248,-0.004362515639513731,0.0028976351022720337,-0.009896278381347656,0.027880378624742477,0.06694786005802537,-0.07026915960386308
0.004407357424497604,0.034494828432798386,9.87094497680664,0.0006803753785789013,-0.0022996924817562103,-0.017210006713867188,0.03566511341169096,-0.02460255483379749,0.009920434555306964
0.006803013384342194,0.03202882409095764,9.87341022491455,0.0006450675427913666,-0.006934273988008499,-0.0060634613037109375,0.034768864526538344,-0.023706305948644882,0.009019720033778062
0.005840191151946783,0.034494828432798386,9.866153717041016,0.0007511880248785019,-0.0017392374575138092,-0.013697624206542969,-0.04361929558699393,-0.018619255760013432,-0.0205993469437093
0.006803013384342194,0.03503518924117088,9.866694450378418,0.00045109447091817856,0.0027469992637634277,-0.007523536682128906,0.005149802551630942,-0.10927344844711014,-0.07475043071005258
0.008846558630466461,0.034494828432798386,9.864109992980957,0.004815636668354273,-0.0013782493770122528,-0.014529228210449219,-0.055885301480131905,0.014879753869857895,-0.05560039788138841
0.007647707127034664,0.03365013003349304,9.864180564880371,0.005001293960958719,-0.00573059543967247,-0.007967948913574219,0.01591095235197115,-0.01922423442966202,-0.04573632405942062
0.0022707341704517603,0.025171596556901932,9.860845565795898,0.0005277409218251705,0.0035148747265338898,-0.024872779846191406,0.005149802551630942,0.002617243112584261,0.09817533820097822
0.011217555962502956,0.034494828432798386,9.851968765258789,0.005432210396975279,-0.0004333518445491791,-0.01697254180908203,-0.11212505242559045,0.06215250697172107,-0.018201673735610456
0.003703275229781866,0.03618605062365532,9.853471755981445,0.0014795591123402119,0.004763614386320114,-0.010290145874023438,-0.016395762380909826,-0.012031191459992343,0.018890185485406167
-0.0027076222468167543,0.03766503930091858,9.8533296585083,-0.012678484432399273,0.004124153405427933,-0.008062362670898438,0.02579751777343238,-0.014734959195538914,0.0000483732806720947
0.006803013384342194,0.02970387041568756,9.855114936828613,0.0008073765784502029,-0.005126055330038071,-0.0011138916015625,-0.03464581439977234,-0.015326731054097051,-0.060394960560059274
0.006803013384342194,0.0346590094268322,9.856571197509766,0.0007913466542959213,0.000012479722499847412,-0.005476951599121094,0.0030582172008732094,0.0059127560262625225,0.040435757088053546
0.003350958228111267,0.03315592184662819,9.856571197509766,0.0008758935146033764,-0.0047272928059101105,-0.004990577697753906,0.0222069727041213,-0.08204308505185602,-0.0205993469437093
0.0039609214290976524,0.03165273740887642,9.859413146972656,-0.003978613764047623,-0.004762489348649979,0.0009250640869140625,0.005149802551630942,0.0059127560262625225,0.015607864375078486
0.006357328500598669,0.038394417613744736,9.852672576904297,0.0004125288687646389,0.005168721079826355,-0.007460594177246094,-0.05020743992829436,0.011590617578100076,0.040435757088053546
0.0041270507499575615,0.033437330275774,9.855513572692871,0.005576960742473602,-0.004182085394859314,-0.006911277770996094,0.1002756613913968,0.04000351083426554,0.0879986898429898
0.00961967185139656,0.035481978207826614,9.86037540435791,0.005166528280824423,0.000048529356718063354,0.002864837646484375,-0.055885301480131905,-0.16277218578170438,0.004552481164372171
0.006803013384342194,0.03679545596241951,9.853891372680664,-0.0002217581495642662,-0.000011656433343887329,-0.010700225830078125,-0.024159352929900357,0.0034959629575622687,-0.02301613667735625
0.007600454613566399,0.02970387041568756,9.86136245727539,-0.0010211681947112083,-0.005107678472995758,0.003520965576171875,0.10690174529910254,0.016071888684289576,-0.03075847293162974
0.006803013384342194,0.03905310481786728,9.856571197509766,-0.000422745943069458,0.008702792227268219,-0.0013799667358398438,0.03418523019804605,-0.02312267162015258,0.1014708644548697
0.006803013384342194,0.031912531703710556,9.856571197509766,-0.0005189045332372189,-0.004891201853752136,-0.0011663436889648438,0.005149802551630942,0.0059127560262625225,-0.08163444764041884
0.006803013384342194,0.03069229982793331,9.855583190917969,-0.000047211069613695145,0.004418089985847473,-0.0103912353515625,0.005149802551630942,-0.0488262209316444,-0.0205993469437093
0.005955537781119347,0.03012760728597641,9.869672775268555,0.0004227804020047188,-0.005004208534955978,0.013045310974121094,0.010548079914747543,-0.05512234800550033,-0.015201079585752616
0.003938807640224695,0.03834833577275276,9.86136245727539,-0.004225997719913721,-0.001023121178150177,0.0033178329467773438,-0.019396376541087498,0.06694786005802537,0.003946820476322571
0.005441825371235609,0.03313364088535309,9.860001564025879,0.00077784713357687,-0.001207549124956131,0.0036478042602539062,-0.02953227054768064,0.06694786005802537,0.08412982790521391
0.011310308240354061,0.03914395719766617,9.856571197509766,-0.004466901067644358,-0.0005902610719203949,-0.0008440017700195312,-0.055885301480131905,0.06333412969813328,-0.022406208788602045
0.008447858504951,0.040787048637866974,9.85328197479248,0.004986075684428215,-0.0008934736251831055,-0.010120391845703125,0.045230153014059124,0.0059127560262625225,-0.0014737667258823118
0.01159396767616272,0.03292045742273331,9.854996681213379,0.004757219459861517,-0.0010631531476974487,-0.0000782012939453125,0.025206706410226275,0.025969659884857856,-0.0205993469437093
0.006803013384342194,0.03278125822544098,9.86136245727539,-0.00009226007387042046,-0.0006337873637676239,0.004336357116699219,0.005149802551630942,0.0059127560262625225,0.018605461979541178
0.006592458114027977,0.02970387041568756,9.85636043548584,-0.000048129353672266006,-0.005333326756954193,-0.00010395050048828125,-0.053202904766168076,-0.05512234800550033,-0.023281743657673135
0.010301507078111172,0.030996331945061684,9.867066383361816,0.0003380593843758106,-0.0008334778249263763,-0.0000858306884765625,0.0826504115990318,-0.07158785302113833,0.023970253739942198
0.010371940210461617,0.03571685776114464,9.860140800476074,0.005274700466543436,-0.0007539652287960052,0.004238128662109375,0.05061669098953977,-0.009655459567591501,-0.005031138019961887
0.006143542937934399,0.03862631693482399,9.858636856079102,0.005105084273964167,0.008443020284175873,0.003955841064453125,0.039868054309202434,-0.020404096247928834,-0.0205993469437093
0.005677890498191118,0.03336970508098602,9.857133865356445,0.0007425658404827118,-0.0009449794888496399,-0.0010662078857421875,-0.055885301480131905,0.05978101726712504,-0.013432514157968886
0.0020120516419410706,0.03928578644990921,9.858452796936035,-0.003744286485016346,0.0035880208015441895,0.007686614990234375,-0.04390210810731477,0.01789594939907966,-0.0205993469437093
0.006899664644151926,0.032051023095846176,9.854127883911133,0.005932395346462727,-0.005059275776147842,-0.006598472595214844,0.003918447510324581,0.03581463052149077,-0.0205993469437093
0.009220601990818977,0.034494828432798386,9.858988761901855,0.005780462641268969,-0.000035975128412246704,0.0025272369384765625,0.035949046509922505,-0.024323104047208766,0.009636509794708684
0.006803013384342194,0.03632397577166557,9.853610038757324,0.0009575970470905304,-0.0005478151142597198,-0.006697654724121094,0.05453356435470407,0.05529651782933565,-0.0205993469437093
0.0014236094430088997,0.034494828432798386,9.857159614562988,-0.0038762781769037247,-0.0010131560266017914,-0.0015592575073242188,0.05868834708248167,0.07444441955893749,0.032939207592301345
0.006803013384342194,0.03510286659002304,9.861970901489258,0.0007541170343756676,-0.005587484687566757,-0.0014324188232421875,0.0317942637821449,-0.028477886774986368,0.013791306696462833
-0.0015069113578647375,0.034494828432798386,9.859341621398926,-0.014073432423174381,-0.0009966157376766205,0.003459930419921875,0.030896387390979125,-0.05512234800550033,-0.0205993469437093
0.002625121269375086,0.044076740741729736,9.852087020874023,0.005007705185562372,0.00781765952706337,0.00048542022705078125,0.1233148766376283,-0.04731205337001719,-0.0205993469437093
0.006803013384342194,0.038813669234514236,9.851544380187988,-0.00003665359690785408,0.0031271465122699738,-0.003505706787109375,0.0021425182848419295,0.0609332648440209,-0.08163444764041884
0.006803013384342194,0.03275575488805771,9.853519439697266,-0.0005352674052119255,-0.005880758166313171,0.0018291473388671875,0.04402972058700294,-0.09400226604087232,-0.003874628244941379
0.0036806503776460886,0.028250109404325485,9.843652725219727,-0.0055289361625909805,-0.01006375066936016,-0.006525993347167969,-0.055885301480131905,-0.05512234800550033,-0.039119771734062496
0.009974624961614609,0.0361141711473465,9.846989631652832,-0.0014680856838822365,0.003867071121931076,-0.005588531494140625,0.0455550405668843,-0.014717109990246967,0.000030517405273535976
0.00691934023052454,0.034378502517938614,9.851664543151855,-0.001735924743115902,-0.0008219517767429352,-0.00006103515625,0.005149802551630942,-0.05364038371859268,-0.0205993469437093
0.008189701475203037,0.03310813754796982,9.845602989196777,0.0032811956480145454,-0.0054961517453193665,-0.008502006530761719,-0.06392260652402541,-0.011753181416431668,-0.0205993469437093
0.0020120516419410706,0.03266405314207077,9.845158576965332,-0.005883997306227684,-0.005037050694227219,-0.008069038391113281,-0.018173612597096545,-0.008475517708045353,-0.034987607337803955
0.0020120516419410706,0.035483282059431076,9.846000671386719,-0.005270796362310648,0.004498537629842758,-0.007464408874511719,-0.019071462307835876,0.07954043437085459,-0.0205993469437093
0.003983781673014164,0.034494828432798386,9.844170570373535,-0.00013380171731114388,0.00026350095868110657,-0.0022449493408203125,-0.045088439928994584,-0.06591922289685087,-0.0205993469437093
0.007740436587482691,0.034026116132736206,9.84792709350586,0.0005473173223435879,-0.00003983452916145325,-0.0008983612060546875,0.054242454221758725,0.011883968866866833,-0.0756632214596013
0.005768707953393459,0.035529132932424545,9.842198371887207,-0.00020109955221414566,0.0000795312225818634,-0.005122184753417969,-0.029531950382563295,0.040594508960456764,-0.11631620057461309
0.009340296499431133,0.036464888602495193,9.842198371887207,0.0038856398314237595,-0.00419219583272934,-0.004805564880371094,-0.023561191109208554,-0.05873546471558418,0.008111651719710155
0.006803013384342194,0.03231295943260193,9.84466552734375,-0.0010179514065384865,-0.009224137291312218,-0.004549980163574219,0.0033355869141991957,0.0059127560262625225,-0.0205993469437093
0.006803013384342194,0.03209874778985977,9.837408065795898,-0.0006369436159729958,-0.003999277949333191,-0.008844375610351562,0.03567501184990218,0.00592807059104216,-0.0205993469437093
0.009268492460250854,0.03216934949159622,9.842059135437012,0.004404226318001747,0.0008653104305267334,-0.0083465576171875,0.034775561313576134,0.035538514788207715,0.010810003328688318
0.006803013384342194,0.02970387041568756,9.848893165588379,-0.0003570662811398506,-0.003824189305305481,0.005931854248046875,0.05392132860906234,-0.05512234800550033,0.02817217244361549
0.0009316166979260743,0.029163653030991554,9.845909118652344,-0.0042451005429029465,-0.0034267082810401917,0.00177001953125,0.05930271726223903,0.0059127560262625225,-0.08163444764041884
0.004759880248457193,0.02970387041568756,9.837408065795898,-0.004346934612840414,-0.004001088440418243,-0.007442474365234375,-0.02985653111048435,0.04091910302859104,0.040435757088053546
0.006803013384342194,0.03646748140454292,9.844171524047852,0.0004191356711089611,0.0009102039039134979,-0.0020093917846679688,0.005149802551630942,-0.02999141400637888,-0.0205993469437093
0.0070612202398478985,0.038769371807575226,9.851263999938965,0.004861551336944103,-0.003583677113056183,-0.0011730194091796875,0.0018603460947557778,-0.051832891548625165,-0.0205993469437093
0.0021997815929353237,0.030079329386353493,9.846989631652832,-0.004930615425109863,-0.004304364323616028,0.00341796875,0.005149802551630942,-0.05751395475163616,0.03804414367181111
0.00032130631734617054,0.032804083079099655,9.842198371887207,-0.00953162182122469,-0.004630096256732941,-0.0018939971923828125,-0.034345793004394234,0.027452264502000195,0.018896245277262573
0.005182742141187191,0.034494828432798386,9.843749046325684,0.0006207930855453014,0.0002452060580253601,0.0029544830322265625,0.005149802551630942,0.0059127560262625225,0.06107741918810519
0.008470683358609676,0.034494828432798386,9.845321655273438,0.0047935601323843,0.0006724856793880463,-0.0012664794921875,-0.01609574098553173,-0.05512234800550033,0.040435757088053546
0.006803013384342194,0.03912113234400749,9.846989631652832,-0.0002184188924729824,0.005139004439115524,0.0030879974365234375,0.005149802551630942,0.0038151142187016927,-0.07953680583285802
0.006803013384342194,0.034494828432798386,9.838746070861816,-0.0001628641039133072,0.000752866268157959,-0.0060596466064453125,0.005149802551630942,0.0328490744416623,-0.0205993469437093
-0.0008290893165394664,0.03165368363261223,9.848939895629883,-0.009412946179509163,-0.004113201051950455,0.003314971923828125,-0.019690154716677382,0.06694786005802537,0.004240601986965761
0.0020120516419410706,0.0400359071791172,9.842198371887207,-0.004394189920276403,0.000447101891040802,-0.0018415451049804688,0.005149802551630942,-0.019826651778371857,-0.04633874807823707
0.00252961996011436,0.03980335220694542,9.842198371887207,-0.004548676311969757,0.0052603185176849365,-0.0015544891357421875,-0.0014438379575172266,-0.10297019769939328,-0.0205993469437093
0.005817731376737356,0.02871858887374401,9.845019340515137,0.0004456345923244953,-0.004001535475254059,0.0032663345336914062,0.005149802551630942,-0.006639370760075519,-0.0205993469437093
0.004314880818128586,0.03928578644990921,9.839710235595703,-0.004087385721504688,0.005112048238515854,-0.005711555480957031,0.0661849065833938,0.03524996597620112,0.040435757088053546
0.006803013384342194,0.02970387041568756,9.844572067260742,0.0004323911853134632,-0.004264410585165024,0.0041294097900390625,-0.025086844594420486,0.005350946286602529,-0.0205993469437093
0.010891096666455269,0.030406741425395012,9.83811092376709,0.00032912613824009895,0.0006357915699481964,-0.0005340576171875,0.10931133465266255,0.0059127560262625225,-0.011645015632568863
0.010961699299514294,0.033230289816856384,9.8450927734375,0.004421172197908163,0.00046627968549728394,0.004711151123046875,0.05813003247868602,0.05083808516818338,0.03238087631323917
0.004147171508520842,0.03288043290376663,9.839021682739258,-0.0009002666920423508,-0.008559251204133034,0.004822731018066406,0.005149802551630942,0.03974721865783139,-0.0205993469437093
0.007956002838909626,0.03218884766101837,9.841045379638672,-0.0003651450388133526,0.0010820142924785614,0.0005168914794921875,0.005149802551630942,0.0059127560262625225,-0.0205993469437093
0.015685204416513443,0.034494828432798386,9.84289836883545,-0.000496190506964922,0.0009550005197525024,0.009745597839355469,0.0006927305922273869,0.0059127560262625225,0.09701377915525293
0.011873223818838596,0.034494828432798386,9.842198371887207,0.003635522909462452,0.0008946433663368225,0.000141143798828125,-0.055885301480131905,0.0023551346031850215,-0.0205993469437093
0.0020120516419410706,0.032712724059820175,9.84041690826416,-0.005273192655295134,-0.004154279828071594,-0.0042972564697265625,0.027853191270194654,-0.03241895928693662,0.0021040484449610227
0.008309015072882175,0.034494828432798386,9.846989631652832,-0.0000492963008582592,0.0004417635500431061,0.004933357238769531,0.02433575056934387,0.06694786005802537,-0.0205993469437093
0.006803013384342194,0.03291822224855423,9.840560913085938,-0.00001024315133690834,-0.004490964114665985,0.004548072814941406,0.06696384163346615,0.06772679510809773,0.00026497498771546293
0.006803013384342194,0.02977762557566166,9.832764625549316,0.00030138948932290077,-0.004283014684915543,-0.009276390075683594,0.006089433810183712,-0.05512234800550033,-0.0205993469437093
0.006803013384342194,0.03113296441733837,9.842198371887207,0.00013870839029550552,-0.004716899245977402,0.00037097930908203125,0.005149802551630942,0.0059127560262625225,0.022229612713486845
0.007875937037169933,0.034494828432798386,9.846989631652832,0.005314158741384745,0.00018010661005973816,0.0044765472412109375,0.0425017058840506,-0.017770444673080674,0.0030838470855272856
0.004873394034802914,0.03356310725212097,9.844127655029297,-0.00424710288643837,0.004723351448774338,0.0042819976806640625,0.0661849065833938,-0.006800093648982383,0.01585311252249091
0.0020120516419410706,0.030850553885102272,9.845843315124512,-0.004139747936278582,0.00033854320645332336,-0.0004177093505859375,-0.055885301480131905,-0.05512234800550033,-0.03520768750544514
0.01159396767616272,0.03928578644990921,9.848065376281738,0.00529719702899456,0.0046233125030994415,0.004055976867675781,0.01885868590693411,0.06694786005802537,-0.03430823696911908
0.004224081058055162,0.03928578644990921,9.842198371887207,-0.0038168677128851414,0.004375264048576355,-0.0006256103515625,0.005149802551630942,0.034093209407235994,0.007581099767157556
0.002721259370446205,0.030413078144192696,9.838117599487305,-0.0039055929519236088,-0.0048089101910591125,-0.005652427673339844,0.0571498469719363,-0.10712241910623213,-0.02963439321495357
0.006009537726640701,0.03370135277509689,9.841404914855957,0.0005374271422624588,0.00006908923387527466,-0.00045108795166015625,0.005149802551630942,-0.014304417153990103,0.040435757088053546
0.007001653779298067,0.03698962926864624,9.839703559875488,-0.004145148675888777,-0.000941447913646698,0.00010013580322265625,0.005149802551630942,0.0059127560262625225,0.011183532633976695
0.01159396767616272,0.03894568607211113,9.839632987976074,0.004747634753584862,-0.0008089244365692139,-0.004326820373535156,-0.0232013788781664,-0.08347352943529766,-0.05328327621578142
0.0020120516419410706,0.038222938776016235,9.832616806030273,-0.004701182246208191,0.004022262990474701,-0.008185386657714844,-0.055885301480131905,-0.021167850135353775,0.07439027163346663
0.01159396767616272,0.03405499458312988,9.846110343933105,0.004077674355357885,-0.0005099698901176453,0.0066375732421875,0.0661849065833938,-0.05512234800550033,0.0348324173023312
0.0020120516419410706,0.034494828432798386,9.837408065795898,-0.005375061649829149,-0.00032468512654304504,-0.0026121139526367188,0.005149802551630942,0.017453908093732897,-0.0205993469437093
0.007850389927625656,0.034494828432798386,9.843246459960938,0.004538229666650295,-0.00015894323587417603,0.006867408752441406,-0.01869612206860252,-0.041779119894630845,-0.0072560954874666805
0.006803013384342194,0.03912883996963501,9.846832275390625,-0.0007448093965649605,-0.00027446448802948,0.0019426345825195312,0.12322109493867285,0.06494840221978347,-0.0205993469437093
0.016212232410907745,0.025171948596835136,9.84228515625,0.008849762380123138,-0.009805569425225258,0.000911712646484375,-0.053685300216513444,0.003712768102857283,0.03933575645624432
0.0035306443460285664,0.03297623619437218,9.842198371887207,-0.005399902351200581,-0.0002621784806251526,0.0008134841918945312,-0.014196521509445057,-0.013433568034813477,-0.0205993469437093
0.009753849357366562,0.034494828432798386,9.842198371887207,0.003111802041530609,-0.00008033588528633118,0.0006799697875976562,-0.09347794230036806,-0.01752970718526417,0.002843122937924004
0.0020120516419410706,0.03737502917647362,9.83931827545166,-0.00547774787992239,0.0003115609288215637,0.0008249282836914062,-0.019192564763471375,0.04260549274292305,-0.0205993469437093
0.006803013384342194,0.035660162568092346,9.841032981872559,-0.0005658459849655628,0.004669602960348129,-0.00411224365234375,0.005149802551630942,0.0059127560262625225,-0.035445296713260924
-0.0016842962941154838,0.034494828432798386,9.838502883911133,-0.009560024365782738,-0.000004027038812637329,-0.00395965576171875,0.05224000817575495,0.0059127560262625225,-0.0205993469437093
0.004609342664480209,0.03668849915266037,9.840004920959473,-0.000013343524187803268,0.00002785027027130127,0.0007152557373046875,0.010291787738313393,-0.027175775242746905,0.040435757088053546
0.010902981273829937,0.034494828432798386,9.846989631652832,0.004854112397879362,0.00037454813718795776,0.005612373352050781,-0.09931455238955553,-0.03751649488316109,-0.07283152107924923
0.0107822734862566,0.034494828432798386,9.850157737731934,0.0000783456489443779,0.0006176717579364777,0.0009565353393554688,-0.03520388887972998,0.05660716709803763,0.040435757088053546
0.0020120516419410706,0.034494828432798386,9.846989631652832,-0.004556307103484869,0.0005342103540897369,0.005157470703125,0.03606382570449045,-0.024472647837435024,-0.0205993469437093
0.0054625351913273335,0.03382458910346031,9.833287239074707,-0.00965715292841196,-0.004267875105142593,-0.004271507263183594,0.022227009704381767,0.0059127560262625225,-0.0205993469437093
0.010994456708431244,0.038686275482177734,9.842198371887207,0.0049352869391441345,0.005304168909788132,0.0007915496826171875,0.005149802551630942,0.0059127560262625225,-0.0205993469437093
0.006803013384342194,0.02970387041568756,9.844887733459473,0.00008374638855457306,-0.0037866346538066864,0.0006847381591796875,0.005149802551630942,-0.028341149589453885,-0.0205993469437093
0.0020120516419410706,0.034494828432798386,9.844229698181152,-0.00481863459572196,0.0011397898197174072,0.00045871734619140625,-0.030005154425998243,-0.05512234800550033,0.03116094049445142
0.0032688635401427746,0.034494828432798386,9.838665008544922,-0.0043768975883722305,0.0009131357073783875,-0.004151344299316406,0.11915329040110713,-0.05512234800550033,-0.01656598350163124
0.006557141896337271,0.03928578644990921,9.846497535705566,0.00042078224942088127,0.005437593907117844,0.0051975250244140625,-0.052752992735019925,0.0059127560262625225,-0.08476675638553083
0.006803013384342194,0.034494828432798386,9.842198371887207,0.0001245499588549137,0.0007135793566703796,-0.0001316070556640625,0.043909471905013694,-0.05512234800550033,0.040435757088053546
0.006803013384342194,0.03928578644990921,9.842198371887207,-0.00040963198989629745,0.005095865577459335,-0.00011444091796875,-0.055885301480131905,-0.033749565514619724,-0.0023097945534944343
0.00519222766160965,0.0392443872988224,9.846989631652832,-0.005729621276259422,-0.005166839808225632,0.004425048828125,0.025670625665258236,0.005385390717143492,-0.04059280474821756
0.0020120516419410706,0.02970387041568756,9.842089653015137,-0.0056754532270133495,-0.004355639219284058,-0.0007953643798828125,0.005149802551630942,-0.05512234800550033,-0.07887581160788738
0.006803013384342194,0.03789154067635536,9.846989631652832,-0.0004534060135483742,0.0005083754658699036,0.0038576126098632812,-0.038123114399036075,0.0059127560262625225,0.02267357334201102
0.004658833611756563,0.034494828432798386,9.84566593170166,-0.005194523371756077,0.0009033605456352234,0.00350189208984375,-0.03175432318375619,-0.0423492005664889,0.016304783794257795
0.006803013384342194,0.034494828432798386,9.841166496276855,-0.00031040608882904053,0.0009968765079975128,0.007916450500488281,-0.0399269113299409,-0.02320556770511832,0.06955407081427448
0.007984940893948078,0.034494828432798386,9.846989631652832,-0.00044253701344132423,0.0008059628307819366,0.0028638839721679688,0.05112756779511556,0.005107033828039027,-0.005541998150271157
0.0020120516419410706,0.0318102166056633,9.846989631652832,-0.004398294724524021,0.0010682642459869385,0.0023517608642578125,-0.02905118243823109,-0.020921376355851517,-0.05480033193357133
0.006803013384342194,0.03030753694474697,9.844009399414062,-0.00047072209417819977,-0.003974266350269318,-0.002777099609375,0.012840275391947955,0.0059127560262625225,-0.12728857931112122
0.01159396767616272,0.03359581157565117,9.848787307739258,0.004066205583512783,-0.0041053518652915955,0.010286331176757812,0.005149802551630942,0.0059127560262625225,0.0518889071039472
0.0068154484033584595,0.03209313005208969,9.846989631652832,0.0036552175879478455,-0.0043768733739852905,0.0009641647338867188,0.035746595434055096,-0.08556068583526547,-0.05103766476315461
0.006803013384342194,0.03203484043478966,9.851780891418457,-0.0008684396743774414,-0.003917977213859558,0.005213737487792969,-0.055885301480131905,0.007556403697429067,-0.0205993469437093
0.005845706909894943,0.03737117350101471,9.855613708496094,0.00015701493248343468,0.005846250802278519,0.010038375854492188,-0.019241656748130845,0.042556400758263585,-0.0205993469437093
0.007893765345215797,0.03928578644990921,9.851780891418457,-0.00024025840684771538,0.005835387855768204,0.0045452117919921875,0.005149802551630942,0.05999995684653568,0.040435757088053546
0.0040600975044071674,0.03175191581249237,9.851780891418457,-0.000406547449529171,0.001346725970506668,0.004460334777832031,-0.055885301480131905,0.04970888947973631,0.014344402775598437
0.003989243879914284,0.031681060791015625,9.846989631652832,-0.00518503412604332,-0.003113947808742523,-0.000148773193359375,0.005149802551630942,-0.019275941096113133,0.004589360183826273
0.004634557291865349,0.027535419911146164,9.850469589233398,-0.005375524051487446,-0.007910573855042458,0.004300117492675781,0.0661849065833938,-0.010792125775443272,0.007025966804215514
0.011402705684304237,0.025486700236797333,9.84718132019043,0.004082229919731617,-0.008158186450600624,-0.0004138946533203125,0.0661849065833938,0.00834937265181168,-0.01816274032332006
0.005109235644340515,0.03759200870990753,9.84050464630127,-0.005156409926712513,0.001300521194934845,-0.009168624877929688,0.026727917604435054,-0.09457936366488551,-0.08163444764041884
0.0020120516419410706,0.03457263857126236,9.84382152557373,-0.0053508710116147995,-0.00408727303147316,-0.003955841064453125,0.025825265416935556,-0.05512234800550033,0.000076115921595313
0.0034719728864729404,0.03282930701971054,9.843864440917969,-0.009637652896344662,-0.003802914172410965,0.001300811767578125,-0.03466715874092863,0.04834904150466909,0.01921762101895688
0.0020120516419410706,0.034657832235097885,9.83773422241211,-0.005252331495285034,0.0008198320865631104,-0.007475852966308594,-0.0538086705083968,-0.053045703693552,-0.07955781666868374
0.008914949372410774,0.036606770008802414,9.847762107849121,-0.004944391082972288,-0.0036771297454833984,-0.0070400238037109375,0.0320551716723541,-0.011152124769470546,-0.0205993469437093
0.0010270627681165934,0.03801713138818741,9.842198371887207,-0.009859468787908554,0.005923040211200714,-0.0018854141235351562,-0.1007581902438744,-0.010249472581971049,-0.004437128340635647
0.004783224314451218,0.03651461750268936,9.839427947998047,-0.004522186238318682,0.00546109676361084,-0.00212860107421875,-0.0044225474875832565,0.031644133022536845,0.005132031720091678
0.0062858425080776215,0.038251444697380066,9.851263999938965,-0.00021487008780241013,0.0057297758758068085,0.007283210754394531,-0.09715470516773733,-0.048533776777376775,0.09488229322674616
0.005817500874400139,0.02970387041568756,9.846989631652832,-0.004903065972030163,-0.0035819485783576965,0.0019664764404296875,0.017704864184877975,-0.1036024170844426,0.040435757088053546
0.006803013384342194,0.03200663626194,9.851780891418457,-0.0006775436922907829,-0.0036269351840019226,0.00650787353515625,0.002787490913732118,-0.023423653510882714,0.008737052588276019
0.009220477193593979,0.0320773608982563,9.849407196044922,-0.0016508251428604126,0.0005853064358234406,0.0016956329345703125,0.0661849065833938,-0.05512234800550033,-0.050836794502554086
-0.0019080931087955832,0.03928578644990921,9.842198371887207,-0.010742582380771637,0.005647633224725723,-0.003345489501953125,0.05509110522613281,0.06694786005802537,0.029341942390579343
0.01096219290047884,0.034494828432798386,9.854676246643066,0.0034919148311018944,0.000637788325548172,0.010622978210449219,0.005149802551630942,-0.05512234800550033,0.040435757088053546
0.009459679946303368,0.03928578644990921,9.851258277893066,-0.0010958556085824966,0.0049013420939445496,0.009932518005371094,0.005149802551630942,0.03310285865801059,-0.013944428165122745
0.006803013384342194,0.034494828432798386,9.851780891418457,-0.0010884953662753105,-0.00014832988381385803,0.004706382751464844,0.03143725299587951,0.0059127560262625225,-0.046886790717851255
0.0055780052207410336,0.034494828432798386,9.851780891418457,-0.0006744074635207653,0.000004287809133529663,0.004088401794433594,-0.010456352608628388,0.051341704897766044,-0.03620550210396863
0.006803013384342194,0.029981378465890884,9.847267150878906,-0.0007992670871317387,-0.004519257694482803,-0.0013074874877929688,0.06264956331639816,-0.04805166147150908,-0.0205993469437093
0.006803013384342194,0.03148389235138893,9.850000381469727,-0.0009351493790745735,-0.00004063919186592102,-0.001842498779296875,0.043508064889143216,0.021594149989097776,0.01775890872369636
0.009884800761938095,0.03312220796942711,9.845617294311523,0.0039198431186378,-0.004900157451629639,-0.0067043304443359375,0.026923992058382022,0.02339945436409677,0.06220996327007116
0.008382286876440048,0.034494828432798386,9.851780891418457,-0.0006710104644298553,0.0003634840250015259,0.0022897720336914062,-0.03576589872258831,-0.034326049488824666,0.040435757088053546
0.01144044753164053,0.029627110809087753,9.84691333770752,0.0036511244252324104,-0.004261091351509094,-0.0025224685668945312,0.005149802551630942,0.06499207807787453,-0.0205993469437093
0.010168214328587055,0.0311296246945858,9.851780891418457,-0.0011327555403113365,0.0008823685348033905,0.0023889541625976562,-0.013013804885548591,0.0059127560262625225,-0.002435739506529767
0.011009417474269867,0.03628666326403618,9.851780891418457,-0.0061531951650977135,0.0055722445249557495,0.0021944046020507812,0.02053021462373606,-0.03229500202567146,-0.03597975901581442
0.008087060414254665,0.03321078047156334,9.841259956359863,0.0035504885017871857,-0.003775171935558319,0.0024118423461914062,-0.03952698507773815,0.02227105908844306,0.040435757088053546
0.010380774736404419,0.03807259351015091,9.837408065795898,0.003372175619006157,0.00590243935585022,-0.010593414306640625,-0.055885301480131905,-0.08524612360747465,-0.036055011158603566
0.006803013384342194,0.036570075899362564,9.851780891418457,-0.0006313491612672806,0.0007873550057411194,0.0038061141967773438,-0.02128812549776947,0.10154503604038781,-0.0205993469437093
0.011095215566456318,0.037139683961868286,9.844843864440918,0.008776502683758736,0.00011051073670387268,-0.0054779052734375,0.03249038278853085,-0.05512234800550033,0.013095171014810357
0.007732792757451534,0.026772473007440567,9.847919464111328,0.0032619163393974304,0.0003085583448410034,0.004313468933105469,0.005149802551630942,0.14163779290111309,0.040435757088053546
0.006803013384342194,0.025771841406822205,9.846989631652832,-0.0011881431564688683,-0.009420515969395638,-0.0000324249267578125,0.016092219169240942,-0.10521503541965319,0.040435757088053546
0.006734934169799089,0.02970387041568756,9.851780891418457,0.003172558732330799,-0.004213690757751465,0.004634857177734375,0.0661849065833938,-0.025038432960635376,0.009484576438788915
0.006593227386474609,0.03199445828795433,9.842198371887207,-0.006827967241406441,-0.003891434520483017,-0.005265235900878906,0.005149802551630942,-0.05512234800550033,0.043108308724659046
0.002587564755231142,0.03507034108042717,9.846413612365723,-0.0016987547278404236,0.005121413618326187,-0.004688262939453125,0.0661849065833938,0.013244590574300975,-0.07430262643259361
0.002516711363568902,0.037771809846162796,9.851780891418457,-0.005631750449538231,0.005193162709474564,0.004496574401855469,-0.043026936759053995,0.06694786005802537,-0.01417016791822365
0.0040192268788814545,0.03527143970131874,9.846213340759277,-0.0007914337329566479,-0.004561997950077057,0.004059791564941406,0.04061422579559988,0.04137717927023146,0.004971333844084608
0.008084282279014587,0.03577609732747078,9.845707893371582,-0.0003203186206519604,0.000174839049577713,-0.000362396240234375,0.005149802551630942,-0.03879942318878634,-0.06531153616391808
0.01159396767616272,0.025355404242873192,9.85155963897705,0.004316528327763081,-0.0003183409571647644,-0.00044727325439453125,0.005149802551630942,0.0030941824157215574,-0.0205993469437093
0.006803013384342194,0.029854262247681618,9.856420516967773,-0.00024289125576615334,-0.004532426595687866,0.008444786071777344,0.062353037056884414,-0.051290478478990945,-0.0205993469437093
0.005150105804204941,0.031356777995824814,9.846989631652832,-0.004596048966050148,-0.00009929388761520386,-0.00084686279296875,0.045127460052670924,0.0059127560262625225,-0.04165678680432556
0.008322893641889095,0.037650249898433685,9.846989631652832,0.0048875766806304455,0.00441313162446022,-0.0008106231689453125,0.025985961625415974,0.0059127560262625225,-0.0205993469437093
0.0054250010289251804,0.034494828432798386,9.845611572265625,0.005034200381487608,0.00008044019341468811,0.004218101501464844,-0.0165900759267114,0.0059127560262625225,-0.0205993469437093
0.007007140666246414,0.034290701150894165,9.851780891418457,0.00017811870202422142,0.0004151575267314911,0.003936767578125,0.0025492880664279233,0.0059127560262625225,-0.07903394649542905
0.01159396767616272,0.034494828432798386,9.848287582397461,0.004610698204487562,0.0009147897362709045,-0.0011816024780273438,-0.01138907363673181,-0.027164969670036534,-0.004060484095559772
0.008793402463197708,0.02970387041568756,9.848979949951172,-0.0003073355183005333,-0.0038810446858406067,-0.001247406005859375,-0.08124216533039268,0.0312696198765233,-0.05627758379015807
0.008864381350576878,0.03789263218641281,9.846989631652832,0.004087063949555159,-0.004273507744073868,-0.0012845993041992188,0.005149802551630942,0.040686743194678375,0.040435757088053546
0.004144391044974327,0.0291775893419981,9.849648475646973,-0.00476152915507555,-0.009070249274373055,0.0032587051391601562,-0.0015548552119563793,0.03978265026415083,0.040435757088053546
0.009006202220916748,0.03669802099466324,9.851780891418457,0.004180554300546646,0.004903074353933334,0.0027446746826171875,0.038117044602019756,-0.027054486024126287,0.012367886769046247
0.006803013384342194,0.0378844328224659,9.858559608459473,-0.0005191992968320847,0.004537325352430344,0.012113571166992188,0.005149802551630942,0.0490951329497872,-0.0205993469437093
0.01159396767616272,0.02970387041568756,9.843000411987305,0.003737637773156166,-0.004968579858541489,-0.0020437240600585938,0.005149802551630942,0.0059127560262625225,0.030220618879864377
0.004498658236116171,0.034494828432798386,9.846989631652832,-0.0009014741517603397,0.00017828494310379028,-0.0019979476928710938,-0.0242068440889731,0.06694786005802537,-0.0205993469437093
0.0029961427208036184,0.02970387041568756,9.848828315734863,-0.005512055940926075,-0.004508838057518005,0.002498626708984375,0.01768677485574802,-0.05512234800550033,-0.08163444764041884
0.01055711880326271,0.03397640585899353,9.846989631652832,-0.0057036131620407104,-0.004338312894105911,-0.002193450927734375,0.005149802551630942,0.0059127560262625225,0.03383121428964914
0.01159396767616272,0.03172481060028076,9.853801727294922,0.0032653752714395523,0.0003509446978569031,0.0069141387939453125,0.0661849065833938,-0.0904114008064439,0.005146697617003363
0.006803013384342194,0.027753785252571106,9.848939895629883,-0.0020391009747982025,-0.0041231438517570496,-0.0027418136596679688,0.02999320159495072,-0.0913140529939434,-0.045442745987029076
0.004688767250627279,0.024912914261221886,9.856571197509766,-0.006832674145698547,-0.008916551247239113,0.006751060485839844,-0.011900404009557178,-0.09910724547607506,-0.0205993469437093
0.006638856139034033,0.029868027195334435,9.846989631652832,-0.002170572057366371,-0.0038180500268936157,-0.002674102783203125,0.12094610833652969,0.0059127560262625225,0.0383444552168268
0.006803013384342194,0.028037365525960922,9.856363296508789,-0.002433088608086109,-0.008943824097514153,-0.0028829574584960938,0.005149802551630942,-0.03654860905300268,0.06166644296273946
0.009998442605137825,0.03289930149912834,9.851780891418457,0.002576407976448536,0.0013259537518024445,0.0017461776733398438,-0.03550306984167505,0.04662143053147899,0.020109320891400554
0.00820779800415039,0.034494828432798386,9.851780891418457,0.003147323615849018,0.0008392371237277985,0.0014791488647460938,0.026719113063708083,0.0059127560262625225,0.0009699502281546184
0.006803013384342194,0.02989460714161396,9.86117172241211,-0.0017453311011195183,-0.003993280231952667,0.011134147644042969,0.0027198827131195698,0.008342675864773896,-0.0205993469437093
0.006803013384342194,0.03580643981695175,9.84830093383789,-0.000710309948772192,0.005547687411308289,0.0018138885498046875,0.0661849065833938,0.0059127560262625225,-0.037308791098337256
0.0020120516419410706,0.030944501981139183,9.850540161132812,-0.00536811538040638,-0.004252150654792786,0.0020294189453125,-0.01065538858991079,-0.0393171568639586,-0.06582925649887711
0.00885099172592163,0.033799830824136734,9.849038124084473,-0.00020749308168888092,-0.004418443888425827,-0.0025835037231445312,0.03124032476828629,-0.0029412768917631863,-0.04668988250057787
0.004684052895754576,0.024359874427318573,9.849108695983887,-0.004588798154145479,-0.003896854817867279,0.0017528533935546875,0.052282590136361745,0.0059127560262625225,0.040435757088053546
0.01159396767616272,0.03928578644990921,9.844112396240234,0.004517481196671724,0.005487382411956787,0.0014390945434570312,-0.0315051813616094,0.10360284397126572,-0.032789407002970554
0.007689019199460745,0.026684926822781563,9.850894927978516,-0.0005853781476616859,-0.008944006636738777,0.0016965866088867188,-0.055885301480131905,-0.005374665185712456,0.029148349216291794
0.004414490424096584,0.02970387041568756,9.846989631652832,-0.005959865637123585,-0.0038047805428504944,-0.0033521652221679688,-0.025279103747385765,-0.08555129432515671,-0.0205993469437093
0.006803013384342194,0.03696811944246292,9.846989631652832,-0.0015111183747649193,0.005890693515539169,-0.0029535293579101562,-0.055885301480131905,-0.05710494381422875,0.00892691884049448
0.010991375893354416,0.034494828432798386,9.846989631652832,-0.0016427459195256233,0.000820208340883255,-0.0025377273559570312,0.10418957322922567,-0.009440868897691452,-0.012922531146679007
0.0025437911972403526,0.024912914261221886,9.846989631652832,-0.006205301731824875,-0.00825514830648899,-0.002384185791015625,-0.0016243577228465481,0.0059127560262625225,-0.0205993469437093
0.004768822342157364,0.034494828432798386,9.846989631652832,-0.005493536125868559,0.0017431601881980896,-0.0022592544555664062,0.005149802551630942,0.031827614315201605,-0.05571959935663968
0.0020120516419410706,0.0316670797765255,9.854608535766602,-0.005308122839778662,-0.0031227916479110718,0.007396697998046875,-0.04487140800007478,0.0059127560262625225,-0.0205993469437093
0.006803013384342194,0.03582022711634636,9.849639892578125,-0.0007840869948267937,0.0022149011492729187,-0.0017261505126953125,0.005149802551630942,0.03317759053248405,-0.03748447503637335
0.007156907115131617,0.04372284561395645,9.847167015075684,-0.0007588858716189861,0.011223848909139633,-0.001895904541015625,0.12045729624362421,0.06694786005802537,-0.0205993469437093
0.006803013384342194,0.028271501883864403,9.846989631652832,-0.0014192722737789154,0.0019001178443431854,-0.0017194747924804688,-0.01624381735230349,0.0027670003462220796,0.08007724455093528
0.006803013384342194,0.03127819672226906,9.853354454040527,-0.0010874168947339058,0.00234091654419899,0.007863044738769531,0.045695539692545584,0.0059127560262625225,0.019946390197205337
0.006803013384342194,0.02970387041568756,9.84867000579834,-0.0002185259945690632,-0.0019443593919277191,0.0025491714477539062,-0.01625657059614437,0.06376387132688872,-0.002376979202337162
-0.007213960867375135,0.034494828432798386,9.842198371887207,-0.013897579163312912,0.0022230148315429688,-0.0066623687744140625,0.005149802551630942,-0.05965633963434586,-0.0205993469437093
0.005478613078594208,0.0331704281270504,9.846989631652832,-0.004354358185082674,-0.0026017501950263977,-0.0016002655029296875,0.03244017022596068,-0.021377611648067212,0.023563382239230383
0.006803013384342194,0.02970387041568756,9.838661193847656,0.00030847638845443726,-0.0029924847185611725,-0.010655403137207031,0.021117931057474504,0.050979731552181815,0.008499496741313122
0.006803013384342194,0.02970387041568756,9.849745750427246,0.0009008501656353474,-0.0035645514726638794,-0.0012426376342773438,0.0661849065833938,-0.0032671516203668415,-0.055706846112798795
0.006270169746130705,0.030769556760787964,9.846456527709961,0.0006900518201291561,-0.003557823598384857,-0.0010461807250976562,0.059396685724179596,-0.048334127146286134,-0.07484621344099143
0.006803013384342194,0.0354643315076828,9.849842071533203,0.0010773534886538982,0.0049305260181427,-0.005045890808105469,-0.006480755624857841,-0.05512234800550033,0.05278689688692537
0.00979691743850708,0.03838726133108139,9.847887992858887,0.005473533179610968,0.004676636308431625,-0.0004558563232421875,-0.044438411359293,-0.005534134094576386,0.040435757088053546
0.00441292580217123,0.02970387041568756,9.846989631652832,-0.004125640727579594,-0.004699684679508209,-0.00026607513427734375,0.005012371675010881,0.036499010140240755,-0.020461926072249156
0.007690750993788242,0.03147934749722481,9.84876537322998,0.0006394106894731522,-0.004433389753103256,-0.00034046173095703125,0.005149802551630942,-0.005396703217956325,0.040435757088053546
0.006803013384342194,0.033880218863487244,9.847604751586914,0.00014234567061066628,-0.004364967346191406,0.00439453125,0.005149802551630942,-0.10049766921984866,-0.01276944552984213
0.01050670724362135,0.03024750016629696,9.848076820373535,0.004919261205941439,-0.004311162978410721,-0.0005998611450195312,0.005149802551630942,0.0059127560262625225,0.08761954764298797
0.0020120516419410706,0.034494828432798386,9.844244003295898,-0.00465172715485096,-0.00003264471888542175,-0.005152702331542969,-0.029820272410945103,-0.029057332276526748,-0.0205993469437093
0.0032546857837587595,0.032009564340114594,9.844504356384277,-0.005057134665548801,-0.0001732073724269867,-0.00030612945556640625,0.01869278701529685,0.0059127560262625225,0.008774345154340023
0.006803013384342194,0.03928578644990921,9.847249031066895,-0.000773710198700428,0.004789557307958603,0.004627227783203125,0.011767135279462593,-0.0518136816415845,0.09485353172703806
0.007927886210381985,0.028578994795680046,9.851780891418457,0.004011021461337805,-0.009467719122767448,0.004378318786621094,0.005149802551630942,0.020243293317742637,0.017083470382858876
0.0020120516419410706,0.0327327661216259,9.850018501281738,-0.005016077775508165,-0.004460103809833527,-0.0005016326904296875,-0.017298227805424206,0.02836078638331767,0.040435757088053546
0.002129807835444808,0.043958984315395355,9.84710693359375,-0.00008038617670536041,0.004909265786409378,0.004200935363769531,0.06318455922748058,0.06694786005802537,-0.019099176600805998
0.005182908847928047,0.03287472575902939,9.846989631652832,-0.004433867987245321,-0.004639755934476852,0.003914833068847656,-0.055885301480131905,-0.01384327266330846,0.00004019572996659115
0.006803013384342194,0.03125299513339996,9.845440864562988,0.000358684454113245,-0.00474591925740242,-0.0009555816650390625,0.04644960858517085,0.04721256205980243,-0.0205993469437093
0.005491024348884821,0.03928578644990921,9.850468635559082,-0.0040639848448336124,0.004575282335281372,-0.0008172988891601562,-0.03372485943973132,0.028073198066663113,0.018275318382706265
0.00861347746104002,0.034494828432798386,9.853590965270996,0.005183002445846796,-0.00010035932064056396,0.007893562316894531,0.005149802551630942,0.02897745107974933,-0.0205993469437093
0.006803013384342194,0.034494828432798386,9.847297668457031,0.00038520293310284615,-0.00021159276366233826,-0.0019121170043945312,0.005149802551630942,0.0059127560262625225,0.032585131652944944
0.006803013384342194,0.03209232911467552,9.850586891174316,0.0003285086713731289,-0.0049673691391944885,0.0023679733276367188,-0.010064257061587343,0.0059127560262625225,-0.0053852873304910155
0.010101779364049435,0.034494828432798386,9.856571197509766,0.009777059778571129,-0.0003515593707561493,0.007151603698730469,-0.055885301480131905,0.04026617963262013,-0.04728102069900793
0.006342772394418716,0.03666018694639206,9.844823837280273,0.004809055011719465,0.004081934690475464,-0.007172584533691406,0.0327357359901224,0.0059127560262625225,-0.0205993469437093
0.006803013384342194,0.03358451649546623,9.846078872680664,0.0000426657497882843,-0.0046457163989543915,-0.006389617919921875,0.0661849065833938,-0.02033112528160077,-0.0205993469437093
0.0059636784717440605,0.035334162414073944,9.84471607208252,-0.00011523626744747162,0.0001454576849937439,-0.006503105163574219,0.0661849065833938,-0.004780065201951111,-0.031292168171922936
0.011701562441885471,0.03215314820408821,9.849438667297363,-0.000585213303565979,-0.004228595644235611,-0.0013093948364257812,0.005149802551630942,0.004542049117632034,-0.0205993469437093
0.004852838348597288,0.034494828432798386,9.842198371887207,-0.005467562936246395,0.0005434341728687286,-0.006089210510253906,0.0661849065833938,0.05488433192118125,-0.032662888420766645
0.0031228880397975445,0.034494828432798386,9.846989631652832,0.0034459643065929413,0.0003005564212799072,-0.0008611679077148438,-0.0019260333046642597,0.0059127560262625225,-0.07455862512433686
0.0024964914191514254,0.034494828432798386,9.844136238098145,-0.005697926040738821,0.0002786964178085327,-0.005894660949707031,0.0661849065833938,-0.10381431303127166,-0.014427760765447013
0.008789798244833946,0.02970387041568756,9.847806930541992,0.003485778346657753,-0.0038063079118728638,-0.005715370178222656,0.005149802551630942,-0.004500427652377269,0.015124803581598631
0.003313876688480377,0.02970387041568756,9.850479125976562,-0.006347940303385258,-0.003534529358148575,0.0036516189575195312,0.04960014006154502,-0.05512234800550033,-0.0205993469437093
0.011393444612622261,0.030305439606308937,9.842599868774414,-0.0011327378451824188,0.010520316660404205,0.003452301025390625,0.005149802551630942,0.0033581585549719724,0.040435757088053546
0.0021415958181023598,0.02970387041568756,9.851521492004395,-0.0063001420348882675,-0.0035691149532794952,0.0034046173095703125,0.005149802551630942,0.002612067109853861,-0.0205993469437093
0.0036439443938434124,0.036126721650362015,9.846989631652832,-0.0014250576496124268,0.00534733384847641,-0.001190185546875,0.025939511002974598,-0.05512234800550033,-0.0205993469437093
0.008280529640614986,0.034494828432798386,9.847168922424316,0.003381522372364998,0.0003161318600177765,-0.0059986114501953125,-0.03477928323306526,-0.09505144713040975,0.0005066679683040416
0.006803013384342194,0.035984743386507034,9.848800659179688,-0.001236792653799057,0.0049233585596084595,-0.00601959228515625,0.005149802551630942,0.0059127560262625225,-0.0205993469437093
0.006803013384342194,0.034494828432798386,9.855152130126953,-0.0011938605457544327,-0.0002329126000404358,0.008039474487304688,0.0661849065833938,0.048872698234512214,0.040435757088053546
0.006803013384342194,0.03636479377746582,9.84406852722168,-0.0011250963434576988,0.0038118138909339905,-0.0018453598022460938,0.10339729796593064,-0.05512234800550033,0.0032233607029367377
0.006803013384342194,0.02970387041568756,9.860994338989258,-0.0013796240091323853,-0.0052920617163181305,0.011930465698242188,0.06149945017361794,-0.050436891595724474,0.09209992495489154
0.007937406189739704,0.030838264152407646,9.850646018981934,0.002996077761054039,-0.00016118958592414856,-0.0026683807373046875,0.08386469116741313,0.020364529175510362,0.025983985606332364
0.006803013384342194,0.033431537449359894,9.851780891418457,-0.0012618694454431534,-0.00021467357873916626,0.0020380020141601562,0.032595903875122255,-0.05512234800550033,0.06788184840638495
0.006463006138801575,0.02936386875808239,9.846989631652832,0.003557829186320305,-0.0001852773129940033,-0.0024967193603515625,0.09886821553555106,0.0059127560262625225,0.040435757088053546
0.0027351821772754192,0.03377169743180275,9.843645095825195,-0.005879945121705532,-0.0004198811948299408,-0.007258415222167969,0.014362233638097202,-0.045909916919034066,-0.0205993469437093
0.007582230027765036,0.034494828432798386,9.847768783569336,0.003468463197350502,-0.0002469196915626526,0.0020856857299804688,0.056257946996294286,-0.05512234800550033,-0.0205993469437093
0.007030838169157505,0.041567347943782806,9.849498748779297,-0.0060975393280386925,0.009673859924077988,-0.0028362274169921875,0.008052259422916127,-0.02315356755397631,-0.0205993469437093
0.009013596922159195,0.02970387041568756,9.842198371887207,-0.0015802718698978424,-0.004508055746555328,-0.0072879791259765625,0.005149802551630942,-0.022249314540890092,-0.0205993469437093
0.0020120516419410706,0.03712973743677139,9.853337287902832,-0.005277333315461874,0.005448710173368454,0.0070819854736328125,0.11348636782411217,0.02574687832403908,0.02670210095679586
0.010321001522243023,0.02970387041568756,9.851356506347656,0.004409467801451683,-0.004136539995670319,0.00211334228515625,-0.04507387241615542,0.0005070348241676653,0.0350300425560653
0.01065634936094284,0.03256816044449806,9.846052169799805,0.00848954077810049,-0.003914356231689453,0.0023965835571289062,-0.055885301480131905,-0.006032177615031964,0.040435757088053546
0.009738278575241566,0.03078344836831093,9.846989631652832,0.0037049101665616035,0.0013227686285972595,-0.002155303955078125,0.005149802551630942,-0.007840656960777957,0.040435757088053546
0.003444972913712263,0.033061906695365906,9.850347518920898,-0.005213526543229818,0.0014064721763134003,0.002483367919921875,0.0661849065833938,0.024167637202311642,-0.0205993469437093
0.011455412954092026,0.029773147776722908,9.851780891418457,0.004285520873963833,-0.0035668089985847473,0.002391815185546875,-0.05500272631353255,0.005030194199876383,0.0413183255845463
0.003583510173484683,0.03771432861685753,9.846989631652832,-0.00028244499117136,0.0012438185513019562,-0.002010345458984375,-0.03586549675450885,-0.03510252993966405,0.040435757088053546
0.005156795959919691,0.034494828432798386,9.845343589782715,-0.005161280278116465,0.0011871904134750366,-0.006505012512207031,-0.034913098911901974,-0.0760945772541567,-0.0015086580535662345
0.008520333096385002,0.02970387041568756,9.85006332397461,-0.00042199017480015755,-0.003480229526758194,0.0033750534057617188,0.0661849065833938,-0.03784335678754323,-0.0205993469437093
0.009805544279515743,0.03570893779397011,9.851780891418457,-0.0007016635499894619,-0.0038389861583709717,0.0030927658081054688,-0.017634107693944873,0.0059127560262625225,-0.09710174452124329
0.011307722888886929,0.025771649554371834,9.847275733947754,0.0035935910418629646,-0.008443331345915794,-0.0019207000732421875,0.12357335660903097,0.0059127560262625225,-0.0205993469437093
0.003227987326681614,0.03327889367938042,9.850564956665039,-0.001146424561738968,-0.0038287006318569183,-0.00222015380859375,0.005149802551630942,-0.05512234800550033,-0.0205993469437093
0.0013667838647961617,0.02970387041568756,9.846343994140625,-0.01031436026096344,-0.0035004690289497375,-0.007212638854980469,0.005149802551630942,-0.05512234800550033,-0.05522716539584424
0.008946958929300308,0.0366387777030468,9.851780891418457,0.00362388975918293,0.006285656243562698,0.0017690658569335938,-0.062294140015506275,-0.034218073803000286,0.006713785804484941
0.002653691451996565,0.02970387041568756,9.848273277282715,-0.005603640340268612,-0.0033863112330436707,-0.0031671524047851562,0.0661849065833938,0.0059127560262625225,-0.0205993469437093
0.003733468009158969,0.03277341276407242,9.850919723510742,0.004127014894038439,-0.007901785895228386,-0.003276824951171875,-0.055885301480131905,-0.005052365634252479,-0.07066933932011707
0.013957020826637745,0.034494828432798386,9.846989631652832,0.008292033337056637,0.001659829169511795,-0.0034275054931640625,0.06701103930784799,-0.11698361144214382,0.07054024607676118
0.00930189248174429,0.0347016341984272,9.846782684326172,0.0035606175661087036,0.006084967404603958,-0.00853729248046875,-0.024050443429150387,0.03774762741745727,0.011235516109852179
0.0020120516419410706,0.02970387041568756,9.856571197509766,-0.006340778432786465,-0.003840625286102295,0.0057888031005859375,-0.007545678165998032,-0.10346197131963421,0.027740264697738007
0.011088155210018158,0.03500064089894295,9.848001480102539,-0.0010088426060974598,0.005525559186935425,0.005021095275878906,0.059741023307883445,-0.09682585557158502,-0.0205993469437093
0.007577826268970966,0.04006060212850571,9.848998069763184,-0.005380474496632814,0.0010639652609825134,0.00043582916259765625,-0.046014410809207325,0.0059127560262625225,-0.010728456272784721
0.0016483701765537262,0.02527659572660923,9.856571197509766,-0.01012747548520565,-0.003827374428510666,0.005442619323730469,0.11795365838684431,-0.059755537459869716,-0.0205993469437093
0.007388167083263397,0.030289024114608765,9.851780891418457,0.0000512516126036644,-0.004139333963394165,0.00044345855712890625,0.008877138167327393,0.1741087523391917,-0.01687201799811946
0.003806810127571225,0.03149862587451935,9.852981567382812,-0.004774379078298807,-0.004146736115217209,0.004665374755859375,-0.017714762623089204,0.02877732120098267,-0.0205993469437093
0.0035060737282037735,0.034494828432798386,9.855077743530273,-0.004870041739195585,0.00028555840253829956,0.00455474853515625,0.04715162396580123,-0.03215383588934905,-0.0205993469437093
0.006803013384342194,0.03927762806415558,9.85177230834961,-0.0002831104211509228,0.00023066997528076172,-0.004979133605957031,0.005149802551630942,0.0059127560262625225,-0.08163444764041884
0.0020749971736222506,0.02970387041568756,9.842387199401855,-0.005539451260119677,-0.004802890121936798,-0.009226799011230469,0.06538299968615198,-0.05432044110825852,0.040435757088053546
0.006803013384342194,0.02970387041568756,9.855132102966309,-0.001135638915002346,-0.0038038231432437897,0.004591941833496094,0.005149802551630942,-0.012422593315945809,0.003765078413956721
0.0038615965750068426,0.037436243146657944,9.851780891418457,-0.0060578323900699615,0.005536459386348724,-0.0000324249267578125,0.005149802551630942,-0.10650498067743355,-0.0205993469437093
0.008723659440875053,0.0373651385307312,9.849860191345215,0.0033247284591197968,0.0007929801940917969,-0.004450798034667969,0.005149802551630942,-0.018555622942941243,0.07700248548566593
0.007221480831503868,0.02970387041568756,9.855733871459961,-0.0015144376084208488,-0.0038147568702697754,0.00506591796875,-0.05055416541016506,0.0059127560262625225,0.03510462435314001
0.006803013384342194,0.03820207342505455,9.85069751739502,-0.001323130913078785,0.005950715392827988,0.0005855560302734375,-0.055885301480131905,-0.007893350803007548,-0.0205993469437093
0.004217119421809912,0.032289762049913406,9.85619068145752,-0.006349220871925354,0.0012105032801628113,0.0007295608520507812,0.005149802551630942,0.0059127560262625225,-0.0205993469437093
0.009079182520508766,0.034494828432798386,9.849504470825195,0.0030816998332738876,0.0013117417693138123,-0.004643440246582031,0.005149802551630942,0.0059127560262625225,-0.0205993469437093
0.007602352648973465,0.034494828432798386,9.855772018432617,0.002881512977182865,0.001253526657819748,0.0004968643188476562,0.005149802551630942,-0.04493904288111378,0.030252451963667
0.006803013384342194,0.034494828432798386,9.851780891418457,-0.0018922826275229454,0.0007205940783023834,0.00017833709716796875,0.047626802360793134,0.05766880794672504,0.02187764286029297
0.009033720009028912,0.03672553598880768,9.854340553283691,0.0022824881598353386,0.005563780665397644,-0.00023746490478515625,-0.055885301480131905,-0.12035569717972028,0.040435757088053546
0.009478162042796612,0.030761772766709328,9.848047256469727,0.0019582854583859444,-0.0038362517952919006,-0.004731178283691406,-0.04240800422637448,0.0059127560262625225,-0.007122043019845263
0.006803013384342194,0.03360594063997269,9.856571197509766,-0.002885996364057064,-0.008376466110348701,0.004712104797363281,0.005149802551630942,0.00025068928688062425,-0.06464824742227315
0.01122057531028986,0.030077263712882996,9.851407051086426,0.0021158764138817787,-0.003420863300561905,-0.00041294097900390625,0.056671120080227164,-0.050365468094130235,-0.07687756772904876
0.01159396767616272,0.034494828432798386,9.851780891418457,0.0020476002246141434,0.0014550983905792236,-0.00020885467529296875,0.04229077043257356,0.06694786005802537,-0.0205993469437093
0.00821621809154749,0.033081624656915665,9.851780891418457,-0.0022260593250393867,0.001421131193637848,-0.000164031982421875,-0.01987782483629406,-0.0120909822956564,0.004428285446795662
0.006803013384342194,0.03440585359930992,9.861273765563965,-0.0019398173317313194,-0.003428630530834198,0.004893302917480469,0.0062832937887357145,0.007046247263367295,-0.0205993469437093
0.006803013384342194,0.03445908799767494,9.851780891418457,-0.0022377455607056618,0.0015551038086414337,-0.00014400482177734375,0.005149802551630942,0.005685091947404246,-0.0205993469437093
0.008553867228329182,0.032743971794843674,9.851780891418457,0.002768849954009056,-0.003541983664035797,-0.0004749298095703125,-0.036520407842249934,0.0059127560262625225,-0.0012344499707740233
0.008571740239858627,0.04053928703069687,9.853549003601074,0.0026842281222343445,0.0004991739988327026,0.0043926239013671875,0.005149802551630942,-0.0391531789630254,0.06296872791775082
0.0025451479014009237,0.03422828018665314,9.851513862609863,-0.006864439696073532,0.0009032450616359711,-0.00032901763916015625,-0.052489576884724866,-0.051726623410093285,0.043831485018513895
0.00556738069280982,0.034494828432798386,9.84714126586914,-0.0020784540101885796,0.0010785534977912903,-0.009627342224121094,-0.02440227821268538,0.0059127560262625225,-0.0205993469437093
0.01022548507899046,0.034494828432798386,9.846989631652832,0.007479610852897167,0.0014056898653507233,-0.004589080810546875,-0.03845135034538014,-0.020243586802433534,0.03171335872400265
0.006803013384342194,0.03661907836794853,9.849656105041504,-0.0019209366291761398,0.005810845643281937,-0.004622459411621094,-0.02882310481276291,-0.08218454467286933,-0.0476615436110783
