Accelerometer_Gx,Accelerometer_Gy,Accelerometer_Gz,Accelerometer_X,Accelerometer_Y,Accelerometer_Z,Gyroscope_Z,Gyroscope_X,Gyroscope_Y
0.006803013384342194,0.02754584513604641,9.873102188110352,0.006511738523840904,-0.007635986432433128,-0.00958251953125,0.001716618637494611,0.05702965165079994,0.01128004073900953
0.011174114421010017,0.034494828432798386,9.870944023132324,0.009405164048075676,0.0017366334795951843,-0.010540962219238281,0.001716618637494611,0.05702965165079994,-0.01621245117596366
0.01042566355317831,0.03566313162446022,9.868490219116211,0.007719152607023716,0.0012460500001907349,-0.012775421142578125,0.04786794005500632,-0.035272991184223466,0.015055079289663636
0.006803013384342194,0.035009533166885376,9.868291854858398,0.002955474192276597,0.005708325654268265,-0.011323928833007812,0.001716618637494611,0.02323352879203306,-0.009655282809766302
0.006803013384342194,0.02970387041568756,9.86911678314209,0.002483416348695755,-0.0036123059689998627,-0.004982948303222656,0.009477020875524919,-0.0040054523809629075,0.037062257287875496
0.0020120516419410706,0.030780218541622162,9.871481895446777,-0.0027466905303299427,0.00585300475358963,0.0006608963012695312,0.06275172266925746,-0.0040054523809629075,-0.023068597065854443
0.013705466873943806,0.034494828432798386,9.866721153259277,0.006524969823658466,0.0009072162210941315,-0.0034437179565429688,0.03585195643808783,0.05702965165079994,-0.01621245117596366
0.006803013384342194,0.034494828432798386,9.8634033203125,0.0014664935879409313,0.0010247454047203064,-0.007584571838378906,0.001716618637494611,0.03103413843271653,0.009783068712226364
0.006803013384342194,0.0348910428583622,9.86694622039795,0.0018281592056155205,0.0004483051598072052,-0.006913185119628906,0.06275172266925746,0.05198200845202829,-0.01621245117596366
0.004508230369538069,0.03324674069881439,9.862610816955566,-0.002838998567312956,0.0004338584840297699,-0.011140823364257812,0.046851495848717346,-0.0040054523809629075,-0.03211266465629055
0.0049044485203921795,0.03639339283108711,9.870944023132324,0.0018244851380586624,0.0003990456461906433,-0.0013952255249023438,0.013242589542317574,0.02018158149137451,0.020635628988621688
0.011339710094034672,0.029958128929138184,9.866153717041016,0.006306514143943787,-0.0040746405720710754,-0.005809783935546875,-0.0015225452155310454,-0.11635819556583808,-0.01297329732809792
0.007938799448311329,0.02970387041568756,9.864326477050781,0.0064109922386705875,-0.0036561228334903717,-0.0053615570068359375,-0.05931848539426824,0.07149919396406039,-0.053964781018581924
0.0037686582654714584,0.02970387041568756,9.867910385131836,0.0016769221983850002,-0.003562331199645996,-0.0003910064697265625,0.001716618637494611,0.018373075465202074,-0.01621245117596366
0.006803013384342194,0.02970387041568756,9.856683731079102,0.0019776299595832825,-0.00318291038274765,-0.009549140930175781,-0.05788782756741502,-0.0025747945541096896,-0.01478178667900383
0.003544058185070753,0.03928578644990921,9.865958213806152,-0.0030465424060821533,0.006197553128004074,-0.008919715881347656,0.023717324964766816,-0.02352266457342145,-0.01621245117596366
0.003626700257882476,0.03444184362888336,9.867768287658691,-0.0030499380081892014,0.006007935851812363,-0.004314422607421875,0.001716618637494611,0.037134617939448625,0.024252617695593427
0.006773355416953564,0.029733529314398766,9.866183280944824,0.001391223631799221,-0.0034009702503681183,-0.0038347244262695312,0.06199605295104547,-0.004383273899855683,0.0444448213317465
0.006803013384342194,0.03761182352900505,9.864709854125977,0.0016690692864358425,0.0014467202126979828,0.0012378692626953125,0.001716618637494611,0.05702965165079994,0.00511324703234749
0.006803013384342194,0.034494828432798386,9.859517097473145,0.0012221736833453178,0.0012276843190193176,-0.012454986572265625,-0.021795400445775142,-0.022766994855209458,0.002549087963229583
0.005401302129030228,0.03729824721813202,9.866153717041016,-0.0035235974937677383,0.010914739221334457,-0.0028247833251953125,-0.01614067082366572,-0.047183266951565425,-0.059390269081619484
0.0020120516419410706,0.034494828432798386,9.876893997192383,-0.0038810563273727894,0.0012163594365119934,0.0016727447509765625,0.001716618637494611,-0.12607568712491504,-0.030979166749079166
0.004916111472994089,0.02970387041568756,9.868040084838867,0.0010675485245883465,-0.0036081038415431976,-0.0034189224243164062,-0.022321831939968586,-0.0040054523809629075,-0.02917067406311995
0.006803013384342194,0.03323507681488991,9.869684219360352,0.001116880215704441,-0.003329530358314514,-0.0031385421752929688,0.017765402072482502,-0.0040054523809629075,-0.00016365440076254674
0.007187566254287958,0.03967034071683884,9.867307662963867,0.0012684427201747894,0.006079182028770447,-0.0033111572265625,0.05295357618103616,0.10826660919434149,0.039923582946741844
0.01159396767616272,0.034494828432798386,9.872973442077637,0.0057828957214951515,0.0013506114482879639,0.0012369155883789062,-0.05931848539426824,0.04052393923250878,0.01897571793001004
0.004247640259563923,0.02970387041568756,9.870944023132324,-0.004273993894457817,-0.00324191153049469,0.0011081695556640625,0.01595692272673651,-0.05080025232348386,0.030582348766557292
0.00575619749724865,0.03344801440834999,9.86720085144043,-0.004204682074487209,-0.0038374289870262146,0.0009908676147460938,0.07608777374541315,-0.11273963604875938,0.09252170247635305
0.0020120516419410706,0.03494415432214737,9.861811637878418,-0.0043052430264651775,-0.003916345536708832,-0.012805938720703125,-0.03166304944488661,-0.031660888330344535,0.07247808547012752
0.009352173656225204,0.02970387041568756,9.86870288848877,0.005159991793334484,-0.004043553024530411,0.001270294189453125,0.001716618637494611,-0.028649388556177158,-0.012296701723763367
0.006803013384342194,0.03358997032046318,9.858381271362305,0.00045510660856962204,-0.0033939890563488007,-0.0031061172485351562,-0.009810953092915074,-0.05351298468231607,0.021767536075406265
0.0027515003457665443,0.028964422643184662,9.86136245727539,-0.0045958152040839195,-0.0037179291248321533,-0.0070590972900390625,0.001716618637494611,-0.04619993315449516,-0.02563275613497235
0.006803013384342194,0.03447137773036957,9.870944023132324,0.00002512289211153984,-0.00340116024017334,0.0026988983154296875,0.03238355436104362,-0.0954087247209396,-0.04658062615428411
0.00353785022161901,0.03373192995786667,9.866153717041016,-0.0048773325979709625,0.0011356137692928314,-0.002117156982421875,0.053032656965020214,0.005713613323274338,-0.08696662424701707
0.010712562128901482,0.03840437904000282,9.865272521972656,0.0046647521667182446,0.005726121366024017,-0.0016937255859375,0.001716618637494611,0.03457204302065091,-0.004983650195942448
0.006803013384342194,0.034494828432798386,9.870944023132324,-0.00008334778249263763,0.0007256679236888885,0.0032625198364257812,0.03057504833487118,-0.036182126715349185,0.048140887487648984
0.002632993273437023,0.03032481111586094,9.866153717041016,-0.0050811320543289185,-0.0041974931955337524,-0.0014047622680664062,0.054841162991192655,-0.06504055641272576,0.03691208317257447
0.0020120516419410706,0.042426854372024536,9.86136245727539,-0.004573133308440447,-0.003940321505069733,-0.005789756774902344,0.04873908265887384,-0.05102791640234214,-0.009206127835718544
0.01159396767616272,0.034494828432798386,9.864029884338379,0.004643388092517853,0.00042244791984558105,-0.0006618499755859375,0.015658155311401342,0.009936084292943823,-0.0022709078319503185
0.0020120516419410706,0.034494828432798386,9.86136245727539,-0.004970653913915157,0.0002015531063079834,-0.005116462707519531,0.001716618637494611,-0.03015197681272707,-0.024954526354518017
0.01036951132118702,0.02970387041568756,9.86136245727539,-0.009401506744325161,-0.004481140524148941,-0.0047016143798828125,-0.05411876376475802,0.05702965165079994,0.03962293789639559
0.004484190605580807,0.034494828432798386,9.867389678955078,-0.00445144297555089,0.0003827400505542755,0.00020313262939453125,0.017463699810238344,-0.019752533553706642,-0.01621245117596366
0.006803013384342194,0.034494828432798386,9.86136245727539,0.00014470983296632767,0.000475514680147171,-0.004467010498046875,0.03841050261249229,0.04467698773256743,0.04482265285579919
0.006803013384342194,0.024912914261221886,9.866153717041016,0.0004975195042788982,-0.008616635575890541,0.0002841949462890625,0.05935730541474624,0.05702965165079994,-0.0738531412882686
0.0033898293040692806,0.026290690526366234,9.868188858032227,-0.003959164954721928,-0.008307738229632378,0.00530242919921875,0.01926900418523734,0.03947726610305721,-0.01621245117596366
0.006803013384342194,0.03272586688399315,9.866153717041016,0.0007175267674028873,0.0010872967541217804,0.000453948974609375,0.04021580698749129,-0.0040054523809629075,0.0063234695083824715
0.011344491504132748,0.02995334565639496,9.861612319946289,0.00542705412954092,-0.004026833921670914,-0.0043697357177734375,0.06275172266925746,-0.0040054523809629075,0.043233533306180356
0.006749128457158804,0.029757754877209663,9.870944023132324,-0.004154788330197334,0.0004425942897796631,0.004904747009277344,0.001716618637494611,-0.0040054523809629075,-0.01621245117596366
0.005266556981950998,0.034494828432798386,9.866153717041016,-0.004224708303809166,0.0006231516599655151,-0.00002002716064453125,-0.01901399266927257,-0.023579307118764957,-0.01621245117596366
0.008359411731362343,0.02970387041568756,9.870944023132324,0.004920923616737127,-0.003995493054389954,0.004258155822753906,-0.019662540475306432,-0.0040054523809629075,-0.01621245117596366
0.013255191035568714,0.024912914261221886,9.877203941345215,0.009090960025787354,-0.00811224989593029,0.00365447998046875,0.001716618637494611,-0.10245715977927541,0.004950956668386962
0.006803013384342194,0.02970387041568756,9.874003410339355,-0.00036744819954037666,-0.003139987587928772,0.008175849914550781,0.018616427634810223,-0.04814077409583659,-0.01621245117596366
0.0053885625675320625,0.03928578644990921,9.864191055297852,-0.0003879126161336899,0.006136052310466766,-0.006543159484863281,0.04473213617402999,-0.04702096991749829,-0.01621245117596366
0.006803013384342194,0.02560248225927353,9.870484352111816,-0.00041212979704141617,-0.007283167913556099,0.0030469894409179688,0.004644902161578906,-0.06504055641272576,-0.01621245117596366
0.0020120516419410706,0.03741162642836571,9.87573528289795,-0.005097200628370047,0.006539832800626755,0.007709503173828125,0.001716618637494611,-0.07832338003812293,-0.01621245117596366
0.00904898438602686,0.03322233632206917,9.863907814025879,0.004211491905152798,0.0012844689190387726,-0.006829261779785156,0.07896280313831248,-0.10986460665586002,-0.08964939448695113
0.00754664046689868,0.02970387041568756,9.866525650024414,-0.000007631722837686539,-0.0031344369053840637,-0.0020036697387695312,-0.007756933782592411,0.0007313371692938262,-0.01621245117596366
0.004786892794072628,0.03171999007463455,9.8696870803833,-0.0046430728398263454,0.0019079558551311493,-0.007081031799316406,0.001716618637494611,0.021679180508179144,0.019138009961497223
0.014123857021331787,0.03196493536233902,9.874604225158691,0.009213460609316826,-0.003159772604703903,0.007205963134765625,-0.07714581273653043,0.028224476084608315,-0.01621245117596366
0.0030716070905327797,0.030763424932956696,9.86882495880127,-0.0005243821069598198,0.001566573977470398,-0.007035255432128906,0.015214966747717428,-0.017503800491185724,0.031324304745576376
0.006803013384342194,0.03402002528309822,9.871418952941895,-0.0004750750958919525,0.006545368582010269,-0.0024471282958984375,-0.05931848539426824,-0.037547417497411265,0.011280686071824177
0.004241109825670719,0.031932927668094635,9.871277809143066,-0.004879165906459093,-0.0029219649732112885,0.007002830505371094,0.03435433074085675,0.11806475568256279,0.01642526759750509
0.010676371864974499,0.03541242331266403,9.870944023132324,0.004098042845726013,0.0021424107253551483,0.0023488998413085938,-0.02166309221103259,-0.027385163229490108,0.04482265285579919
-0.0005987765034660697,0.034494828432798386,9.875008583068848,-0.009871043264865875,0.0022163838148117065,0.00669097900390625,0.044235693479161134,0.05702965165079994,0.03556463826075103
0.006803013384342194,0.03212381526827812,9.868573188781738,-0.00031440379098057747,0.0022265836596488953,0.0017461776733398438,-0.029112600779908314,-0.03421132365510961,-0.0470416772634732
0.006027303170412779,0.03047958016395569,9.871719360351562,-0.0003717457875609398,-0.002455577254295349,0.0016794204711914062,-0.049436228861677936,-0.05515828653992223,-0.06736528866997629
-0.0010418781312182546,0.034494828432798386,9.867022514343262,-0.010194052942097187,0.002164408564567566,-0.003368377685546875,-0.00934791429195581,0.007059080548487515,-0.06618301227311617
0.004524787422269583,0.03677305206656456,9.87117862701416,-0.00035543879494071007,0.0020825229585170746,0.006183624267578125,-0.027307149662563868,-0.03601678811266728,0.07384641782080437
0.006803013384342194,0.03228745609521866,9.8643217086792,-0.00041033700108528137,-0.0031221210956573486,-0.012613296508789062,-0.0922324733134721,0.02890853553824096,0.011908668271648628
0.006803013384342194,0.034494828432798386,9.866153717041016,-0.0003306511789560318,0.0016904398798942566,-0.0030412673950195312,-0.005457694672810423,0.04985533834049491,0.04482265285579919
0.0014941314002498984,0.034494828432798386,9.86349868774414,-0.009339721873402596,0.0014433450996875763,-0.007452964782714844,0.03553325874419798,0.06362782783244382,0.04482265285579919
0.00407771673053503,0.03590086102485657,9.866153717041016,-0.000012262258678674698,0.0109156034886837,-0.0024967193603515625,0.010120072513711042,-0.030321264118522893,0.018506831113079287
-0.001936019049026072,0.025334356352686882,9.870522499084473,-0.009104907512664795,-0.007845664396882057,0.0024271011352539062,-0.05394946311874898,-0.0040054523809629075,-0.01621245117596366
0.004357453901320696,0.03571760654449463,9.870944023132324,0.0005512367933988571,0.0022359155118465424,0.0021038055419921875,-0.05931848539426824,0.011572314805558558,-0.01621245117596366
0.007746054790914059,0.02683687023818493,9.868077278137207,0.005493910983204842,-0.00690172053873539,-0.0026521682739257812,-0.05931848539426824,-0.028515986423950344,-0.01621245117596366
0.006803013384342194,0.03393535688519478,9.865874290466309,0.0007459800690412521,0.0025877468287944794,-0.002559661865234375,0.001716618637494611,-0.061476825171992266,0.04482265285579919
0.011385086923837662,0.02533067762851715,9.870735168457031,0.000761143397539854,0.0026277564465999603,-0.0026636123657226562,0.11580361622174479,0.05170749354433196,-0.01621245117596366
0.00631807092577219,0.033059488981962204,9.869024276733398,-0.0037021059542894363,0.002166401594877243,-0.0025014877319335938,0.06275172266925746,0.03874392790177999,0.04482265285579919
0.005434843711555004,0.034494828432798386,9.864785194396973,0.00538767920807004,0.0024716295301914215,0.0019779205322265625,-0.05931848539426824,-0.04323797893223681,-0.01621245117596366
0.01145961880683899,0.034494828432798386,9.866220474243164,-0.004074978642165661,0.0022602416574954987,0.0021982192993164062,0.001716618637494611,0.054462300935668506,-0.01621245117596366
0.011653780937194824,0.03285796567797661,9.86457633972168,0.00992819108068943,-0.0023495107889175415,-0.0027017593383789062,-0.03922745727024929,-0.02409648050498186,0.003878571945475334
0.00044236367102712393,0.03928578644990921,9.864501953125,-0.009185783565044403,0.006998632103204727,0.0024290084838867188,0.022757149777851118,-0.0040054523809629075,0.024825369745149324
0.006803013384342194,0.034494828432798386,9.866228103637695,0.00012876233085989952,0.0020043812692165375,-0.001857757568359375,0.001716618637494611,-0.0040054523809629075,0.04387249283396042
0.0006588740507140756,0.03142276033759117,9.874016761779785,-0.009345723316073418,-0.0029206499457359314,0.007613182067871094,-0.03742045868817101,-0.02590349242727336,-0.05534952850162928
0.003439816879108548,0.026340678334236145,9.873799324035645,-0.004542251583188772,-0.007601557299494743,0.002262115478515625,0.06275172266925746,-0.04685133576615868,0.0019767594654435047
-0.0025623617693781853,0.03427828848361969,9.866153717041016,-0.009439973160624504,0.002300731837749481,-0.0027036666870117188,0.001716618637494611,-0.0040054523809629075,0.001072509787410591
0.008663858287036419,0.03742494061589241,9.869874954223633,0.004656503442674875,0.0021660886704921722,0.00652313232421875,0.015338683885144573,-0.04133403702066931,-0.01621245117596366
0.006803013384342194,0.034494828432798386,9.867080688476562,0.00004690559580922127,0.001811932772397995,0.001415252685546875,0.05093816344777994,-0.05322699719124824,-0.07724755854277982
0.006803013384342194,0.032133523374795914,9.870944023132324,0.00005863700062036514,0.006224028766155243,0.0014238357543945312,0.03179877277421417,0.04155319004349152,-0.030818150375481405
0.011164490133523941,0.03842683136463165,9.870944023132324,0.005200010724365711,0.006085138767957687,0.0013980865478515625,-0.0037547897745087285,-0.0040054523809629075,0.10038635848071861
0.0047292280942201614,0.02906048111617565,9.875091552734375,0.00028372136875987053,-0.007554652169346809,0.0014142990112304688,0.001716618637494611,-0.0386213046618371,0.07943848846140686
0.008948749862611294,0.02970387041568756,9.870944023132324,-0.00010474817827343941,-0.0025060176849365234,0.00089263916015625,0.001716618637494611,-0.03770461857002734,0.03115468059939668
0.005660247057676315,0.03757163882255554,9.870372772216797,0.00020819948986172676,0.006974183022975922,0.000690460205078125,0.01627506013167101,0.05702965165079994,-0.01621245117596366
0.009378364309668541,0.027128517627716064,9.870944023132324,0.00006631016731262207,-0.0021048597991466522,0.0008630752563476562,-0.021926321298342533,-0.09326660664249435,0.012013565703271875
0.004298511426895857,0.034494828432798386,9.868658065795898,-0.004441065713763237,0.001844450831413269,0.0006561279296875,0.004494397876000617,-0.0012276731424569012,-0.04534111357259208
0.0028723303694278,0.0353551059961319,9.870944023132324,0.0000769016332924366,0.006468188017606735,0.000728607177734375,0.012676244130161867,0.04607002615813269,-0.02717209000884414
0.005235126242041588,0.03371088579297066,9.874167442321777,0.00012929458171129227,0.0015894882380962372,0.0056934356689453125,-0.0393441574555213,0.01596887555778403,0.024848328252105558
0.009165804833173752,0.034494828432798386,9.870944023132324,0.000946547370404005,0.0014616809785366058,0.0010538101196289062,0.032650572068908805,0.08796360508221414,0.01388869108675173
0.005365871358662844,0.034494828432798386,9.86759090423584,0.0015637530013918877,0.0014396607875823975,-0.0036916732788085938,-0.05931848539426824,0.09975608676679983,0.08754907129653254
0.006803013384342194,0.02970387041568756,9.870944023132324,0.001467567402869463,-0.0030742548406124115,0.0010385513305664062,-0.027481866435141323,-0.0013673184944719276,0.015624161113056643
0.0020120516419410706,0.034494828432798386,9.870944023132324,-0.0032780193723738194,0.0016442984342575073,0.0006799697875976562,-0.05931848539426824,0.0004379592001006223,0.016526808297976182
0.0031657801009714603,0.026066642254590988,9.870944023132324,0.006349187809973955,0.001800142228603363,0.0007534027099609375,0.048053635823066036,-0.057691512989630045,-0.11623553230525553
0.009459252469241619,0.030771227553486824,9.873600959777832,0.006077861879020929,-0.00278676301240921,0.0053272247314453125,-0.011881140741663626,-0.05144279703356752,-0.029810210555121897
0.004723633173853159,0.03720640763640404,9.866153717041016,-0.0035972152836620808,0.002262931317090988,-0.003911018371582031,-0.016719902881794535,0.030539109800449278,0.04482265285579919
0.007673326879739761,0.03362451493740082,9.86266803741455,0.0005781617946922779,0.0015341974794864655,-0.008536338806152344,0.06275172266925746,-0.06504055641272576,-0.01621245117596366
0.006803013384342194,0.03328576311469078,9.872153282165527,0.0007394184358417988,0.0011070184409618378,0.00109100341796875,-0.01368644511666262,0.05702965165079994,0.04482265285579919
0.0010964410612359643,0.03734811395406723,9.87186050415039,-0.008610978722572327,0.005728915333747864,0.0056400299072265625,-0.009947983763138454,0.032344387495021824,-0.01621245117596366
0.006803013384342194,0.034494828432798386,9.870944023132324,0.0008053160272538662,0.0008534789085388184,0.0008020401000976562,-0.0020218427160295558,-0.0040054523809629075,-0.01621245117596366
0.014518105424940586,0.030513368546962738,9.865096092224121,0.01000557467341423,-0.008771030232310295,-0.008578300476074219,0.038969110700978846,0.01977715958731571,0.05829254962627133
0.0020120516419410706,0.03149983659386635,9.866153717041016,-0.004076960496604443,0.0006395243108272552,-0.0036420822143554688,0.016991829788125665,0.018874507399816214,0.021942699745126682
0.006803013384342194,0.034343086183071136,9.875280380249023,0.000933429691940546,0.0004237815737724304,0.006192207336425781,0.005582932594544954,-0.00013913842391256444,-0.07531440156425465
0.0049970089457929134,0.034494828432798386,9.862854957580566,-0.004007352981716394,0.0007649175822734833,-0.008028030395507812,0.020730264461223388,0.06102381821137646,0.006795357873288331
0.0020120516419410706,0.03597727045416832,9.869290351867676,-0.00394069729372859,0.005462221801280975,0.0017652511596679688,0.001716618637494611,0.014880340839239694,-0.037287106581743786
0.002042159903794527,0.03448479250073433,9.870944023132324,-0.004053990822285414,0.0007647983729839325,0.0016222000122070312,0.0018444712410207872,0.056901799047273764,0.10585775355250873
0.006843756418675184,0.02970387041568756,9.867776870727539,0.005599889904260635,-0.003910299390554428,0.0017919540405273438,0.02188862185577524,-0.0040054523809629075,0.003959557044896925
0.006803013384342194,0.034494828432798386,9.869431495666504,0.0004765172488987446,0.0009740963578224182,-0.002811431884765625,0.024212993927268757,-0.0040054523809629075,0.00628393245144375
0.006803013384342194,0.034494828432798386,9.880131721496582,0.000857457984238863,0.0005371309816837311,0.011213302612304688,0.001716618637494611,0.05702965165079994,-0.07557012011152021
0.005563836544752121,0.03325565531849861,9.869705200195312,-0.003762862179428339,-0.004332307726144791,-0.0029039382934570312,0.001716618637494611,-0.02662968027426323,0.006411788390023232
0.008852280676364899,0.03107471391558647,9.869573593139648,0.005788526497781277,-0.00438428670167923,0.0015668869018554688,0.02782360267726675,0.030922667611027806,-0.033676511171959016
0.007076391018927097,0.034768205136060715,9.870944023132324,0.0005125915631651878,0.0000378340482711792,0.0014410018920898438,0.008682104250011794,-0.0040054523809629075,0.037857177248441926
0.008103002794086933,0.03928578644990921,9.874435424804688,0.00024056434631347656,0.004258442670106888,0.0060214996337890625,0.07931314381796654,-0.048479135264016676,-0.03277386565456613
0.006803013384342194,0.033391281962394714,9.876838684082031,-0.00009099254384636879,0.008884396404027939,-0.0034236907958984375,0.04709295370804788,0.011653316580246677,-0.01621245117596366
0.006387928035110235,0.030118955299258232,9.866568565368652,-0.00010857358574867249,-0.005263488739728928,-0.003681182861328125,0.001716618637494611,-0.06504055641272576,-0.01621245117596366
0.008862318471074104,0.03516717255115509,9.868212699890137,0.0044623189605772495,-0.005450960248708725,0.0011205673217773438,0.06275172266925746,-0.03024028902426122,-0.0510127185644282
-0.0027789026498794556,0.034494828432798386,9.870413780212402,-0.009831715375185013,-0.0010755136609077454,-0.0032758712768554688,0.001716618637494611,-0.010765578751130137,-0.01621245117596366
0.007819589227437973,0.034494828432798386,9.869927406311035,-0.00014499807730317116,-0.001070912927389145,0.0012331008911132812,0.014667431036205702,-0.06504055641272576,0.04482265285579919
0.005857289768755436,0.034494828432798386,9.86999797821045,-0.005124853923916817,-0.0007777363061904907,-0.00342559814453125,0.001716618637494611,-0.052992396201514164,-0.004164280959592149
0.010895469225943089,0.02970387041568756,9.869546890258789,0.004084156826138496,-0.005273748189210892,0.0013475418090820312,0.001716618637494611,-0.0040054523809629075,0.0969591243016796
-0.00043618385097943246,0.02970387041568756,9.866153717041016,-0.005279028322547674,-0.004778780043125153,-0.003204345703125,-0.02947305334118516,-0.0040054523809629075,0.014977224137769415
0.0067668198607862,0.034494828432798386,9.870872497558594,0.0045409793965518475,0.00000951811671257019,0.010607719421386719,0.0021776564064704715,-0.06504055641272576,-0.07724755854277982
0.010860806331038475,0.038552623242139816,9.866153717041016,0.004239634145051241,0.004663575440645218,-0.0032415390014648438,-0.04997825506512869,-0.05570032608358621,-0.01621245117596366
0.002674360992386937,0.03036617860198021,9.870944023132324,-0.00022204313427209854,-0.0004728585481643677,0.0017576217651367188,0.001716618637494611,0.004432125760677141,-0.01621245117596366
-0.0005432274774648249,0.02970387041568756,9.870944023132324,-0.009283525869250298,-0.0049448162317276,0.0016155242919921875,0.03019834739388911,-0.0040054523809629075,-0.044694179932358157
0.006803013384342194,0.034494828432798386,9.865692138671875,0.0007533677853643894,0.0000068247318267822266,0.0015764236450195312,-0.03173940882537324,0.06290660254477279,-0.01621245117596366
0.0020120516419410706,0.02970387041568756,9.866674423217773,-0.0037720277905464172,-0.0046406760811805725,-0.0028791427612304688,0.06275172266925746,-0.0716728301793668,-0.01621245117596366
0.006803013384342194,0.0388360396027565,9.870044708251953,0.000998134259134531,0.00015434995293617249,-0.007100105285644531,0.06275172266925746,-0.059310934833584204,-0.01048281625660888
-0.0015844302251935005,0.02970387041568756,9.869750022888184,-0.008737568743526936,-0.0048516131937503815,0.002471923828125,0.047534568126571516,-0.04982340187003981,0.04482265285579919
0.008755275048315525,0.028817439451813698,9.863314628601074,0.0007272553630173206,-0.009258659556508064,-0.006728172302246094,0.001716618637494611,0.032158504963976986,-0.027505281844400434
0.003893462708219886,0.02970387041568756,9.866153717041016,-0.004160689190030098,-0.0043380409479141235,-0.0015630722045898438,0.03878322816993401,-0.0410720619134023,-0.029310572879186206
0.006803013384342194,0.030873717740178108,9.862532615661621,0.0006161252968013287,-0.00889611802995205,-0.010334968566894531,0.001716618637494611,0.05702965165079994,-0.01621245117596366
0.011427633464336395,0.03003653883934021,9.865987777709961,0.005402117036283016,-0.00383208692073822,-0.0005435943603515625,-0.057199445884698226,-0.0040054523809629075,0.042703610011175876
0.002107532462105155,0.034494828432798386,9.866058349609375,0.000646042637526989,0.0007337108254432678,-0.0046405792236328125,0.002933005959565124,-0.0040054523809629075,-0.017428841833087478
0.01159396767616272,0.03618830442428589,9.862911224365234,0.005316588561981916,0.005431722849607468,-0.004393577575683594,0.001716618637494611,0.139639042094172,-0.05751714306259638
0.008422606624662876,0.02970387041568756,9.866153717041016,0.00015341071411967278,-0.004185136407613754,0.0002193450927734375,0.001716618637494611,-0.0040054523809629075,0.08522469922503903
0.005275870207697153,0.03123101219534874,9.866153717041016,0.00002224324271082878,-0.004010900855064392,0.00032138824462890625,0.043296489107431495,-0.0040054523809629075,-0.01621245117596366
0.01159396767616272,0.03303854167461395,9.86991024017334,0.004828698467463255,-0.0038487575948238373,-0.008526802062988281,0.04419911461450454,0.05702965165079994,-0.034765052560609966
0.011218100786209106,0.0389099195599556,9.866153717041016,0.004668719135224819,0.005422521382570267,0.0005693435668945312,0.05796330649382895,-0.06264636166522472,-0.01621245117596366
0.0020120516419410706,0.03632698208093643,9.866153717041016,-0.004516794811934233,0.0054214149713516235,0.0007600784301757812,0.025057616187249592,-0.027346449930717887,-0.01621245117596366
0.00490000331774354,0.03068881295621395,9.868056297302246,-0.004764099605381489,-0.008872488513588905,0.0059261322021484375,0.014264423194748504,0.020238197356291572,0.020578999783491408
0.00962010771036148,0.03928578644990921,9.857702255249023,0.004538858775049448,0.005094554275274277,-0.01258087158203125,0.026862920562248586,0.031883349726045965,-0.00546994432360215
0.0031849269289523363,0.02970387041568756,9.860189437866211,-0.004482722375541925,-0.004417438060045242,-0.0026731491088867188,0.001716618637494611,0.07197165095555487,-0.0012704485361554284
0.008847727440297604,0.034494828432798386,9.863407135009766,0.0047346604987978935,0.0004493631422519684,0.0021314620971679688,-0.024332335474758864,-0.06504055641272576,0.04482265285579919
0.006803013384342194,0.03181944042444229,9.865593910217285,0.00023075798526406288,0.0005863532423973083,0.006763458251953125,0.02866822493724758,0.03007804535104697,0.04482265285579919
0.006803013384342194,0.038254618644714355,9.86136245727539,0.00016297679394483566,0.005290228873491287,-0.0025892257690429688,0.034897490862431435,-0.03718632460589973,0.011641793971075586
0.01063365489244461,0.03928578644990921,9.86040210723877,0.005139852873980999,0.00510169193148613,-0.0019979476928710938,-0.03485037322932893,-0.0040054523809629075,-0.003978395093494004
0.01159396767616272,0.03148278966546059,9.860472679138184,0.004907440394163132,0.005046933889389038,-0.00656890869140625,-0.04798708149929808,0.04569823441561656,0.04482265285579919
0.006803013384342194,0.03374006599187851,9.858080863952637,0.0005030394531786442,0.0009135529398918152,-0.006379127502441406,0.011332004204565179,0.047414266083729374,-0.02582784341314084
0.0044110361486673355,0.02970387041568756,9.863761901855469,0.0005521588027477264,-0.0038201846182346344,0.0031175613403320312,0.001716618637494611,-0.0040054523809629075,0.0753848378900704
0.006951724179089069,0.034494828432798386,9.86136245727539,-0.0042888871394097805,0.0009581148624420166,-0.0016202926635742188,0.0036111957193797886,0.027459388175861108,-0.01621245117596366
0.006126112770289183,0.03517172858119011,9.862039566040039,0.00042286794632673264,0.0006274431943893433,-0.0017032623291015625,-0.050695024721583354,-0.021252373726332683,-0.02483591851875516
0.006803013384342194,0.03388878330588341,9.856571197509766,0.0004650512710213661,-0.0041101910173892975,-0.006051063537597656,0.05503091418407207,0.003715356104222483,-0.023933269666308966
0.00733830314129591,0.03875049576163292,9.85710620880127,0.004744394216686487,0.00041798874735832214,-0.00096893310546875,0.06275172266925746,0.043390831095342294,0.03800324591312367
0.006803013384342194,0.028239456936717033,9.86136245727539,-0.0003062468022108078,-0.009370936080813408,-0.0006170272827148438,0.034499072054322844,-0.07916688172019307,-0.03033877648343097
0.008840983733534813,0.034494828432798386,9.853818893432617,-0.0006220587529242039,0.00014610961079597473,-0.009611129760742188,0.010825636391058647,-0.03907751327362635,0.07078569265984529
0.0039792973548173904,0.036462072283029556,9.862218856811523,-0.0002598743885755539,0.005197528749704361,-0.00394439697265625,0.0126277391148842,0.05702965165079994,0.008849542268749623
0.007126119453459978,0.034494828432798386,9.856894493103027,-0.00024075713008642197,0.00048346444964408875,-0.0038976669311523438,-0.002399637554495886,-0.008121708572953404,-0.01621245117596366
0.011846345849335194,0.034242451190948486,9.865649223327637,0.008755715563893318,-0.004111956804990768,-0.00385284423828125,0.001716618637494611,0.10520390968182547,-0.07403234037248888
0.006984663661569357,0.02952221967279911,9.861181259155273,0.00397189985960722,-0.008547542616724968,-0.0038366317749023438,0.060437569201092514,-0.06041224947639587,-0.013898291037692103
0.006803013384342194,0.03116643987596035,9.856571197509766,-0.0008473535999655724,-0.0034332722425460815,-0.0034236907958984375,0.0441191000155949,-0.0040054523809629075,-0.01621245117596366
0.013278132304549217,0.03423329070210457,9.858255386352539,0.0040072062984108925,0.006142552942037582,-0.0031881332397460938,0.041296044093411116,0.038905904770729784,-0.01621245117596366
0.0036253652069717646,0.034494828432798386,9.856522560119629,-0.001108693890273571,0.0012494437396526337,-0.012412071228027344,0.02226964502584146,-0.023934503636032067,0.10585775355250873
0.0020120516419410706,0.0297347791492939,9.861331939697266,-0.005967274308204651,-0.0036485716700553894,0.001621246337890625,0.001716618637494611,-0.0040054523809629075,0.044035106698091596
0.0020120516419410706,0.03137900307774544,9.86136245727539,-0.005773566663265228,0.001136045902967453,0.0015707015991210938,-0.016637326961946138,-0.04369997719656471,-0.037553023722018096
0.0037580374628305435,0.034494828432798386,9.858317375183105,-0.0013139937072992325,0.0009764917194843292,0.0017461776733398438,0.04050849126559691,-0.04279732500906521,-0.01621245117596366
0.004986173938959837,0.03152070939540863,9.853597640991211,-0.0013236338272690773,-0.003991883248090744,-0.007370948791503906,0.02486247554822821,-0.0040054523809629075,-0.01621245117596366
0.0020120516419410706,0.031033769249916077,9.859230995178223,-0.005935806781053543,-0.004147395491600037,-0.0025644302368164062,0.01865906295626991,-0.0311556944556016,0.0007299831376517241
0.006803013384342194,0.02970387041568756,9.856571197509766,-0.0015035346150398254,-0.004064571112394333,-0.0021734237670898438,0.04671193053798166,-0.03608503664351451,-0.03225223663713285
0.0027824051212519407,0.02931869402527809,9.856956481933594,-0.005977317690849304,-0.004087533801794052,-0.001941680908203125,0.001716618637494611,-0.11626166578295877,-0.01621245117596366
0.004041451495140791,0.04204734414815903,9.86209487915039,-0.0013352688401937485,0.005386807024478912,-0.0022430419921875,-0.04279214900633481,-0.029859265854195002,-0.051393741734494416
0.0020120516419410706,0.034494828432798386,9.858671188354492,-0.006052589975297451,0.0008425004780292511,-0.0021257400512695312,0.001716618637494611,-0.0040054523809629075,-0.04296891683669525
0.013245469890534878,0.034494828432798386,9.849082946777344,0.008537206798791885,0.0005198009312152863,-0.0113372802734375,0.001716618637494611,-0.038376885275171135,0.09252591798373143
0.005827381741255522,0.03254356607794762,9.859411239624023,-0.006217640824615955,-0.00842723436653614,-0.005974769592285156,0.03789332922627539,0.03217125820781787,-0.06481836182128878
0.01159396767616272,0.028799092397093773,9.851780891418457,0.003531957045197487,-0.008153283968567848,-0.00567626953125,0.03969863360127439,-0.05351402521894744,-0.06572101400878828
0.007542456965893507,0.042597852647304535,9.853260040283203,-0.0020280294120311737,0.010406013578176498,-0.005584716796875,0.10494631016449549,-0.1588500296921039,-0.058407042006254996
0.00921030342578888,0.02970387041568756,9.86136245727539,-0.002285025082528591,-0.003928810358047485,0.00382232666015625,0.001716618637494611,-0.034673508682422624,0.014154606559499393
0.00692109065130353,0.034494828432798386,9.851780891418457,-0.006493835709989071,0.0008520036935806274,-0.005523681640625,0.032986318555297246,0.02575995173299731,0.015057255411945586
0.01159396767616272,0.03380260989069939,9.856571197509766,0.0028825365006923676,0.000813070684671402,-0.0006589889526367188,0.01053521994920088,-0.05622195510101949,-0.007393853199310698
-0.0009148132521659136,0.03387346491217613,9.855950355529785,0.0031267842277884483,-0.003946032375097275,-0.005246162414550781,0.05483577354505069,-0.0040054523809629075,0.04482265285579919
0.009548251517117023,0.034494828432798386,9.8593168258667,0.0030666887760162354,0.0006502866744995117,0.004505157470703125,-0.052305188457560964,-0.018032046254377453,-0.06322095132915205
0.004679133649915457,0.02970387041568756,9.857114791870117,-0.006328249350190163,-0.003840375691652298,-0.004794120788574219,0.001716618637494611,-0.0040054523809629075,-0.01621245117596366
0.014945953153073788,0.03880612924695015,9.856571197509766,0.008048885501921177,0.00552227720618248,-0.00012493133544921875,0.001716618637494611,0.04480833547195795,-0.010101796421595968
0.010776362381875515,0.033677224069833755,9.869717597961426,-0.006014129146933556,-0.008906109258532524,-0.0002460479736328125,-0.054110479492346736,0.00120254018074537,0.039614650288931
0.00556759350001812,0.034494828432798386,9.860126495361328,-0.0014092754572629929,0.0008781477808952332,0.003943443298339844,0.001716618637494611,-0.049301772852606535,-0.0004736542756312114
0.0020120516419410706,0.034494828432798386,9.851780891418457,-0.0054657296277582645,0.0006772987544536591,-0.0054111480712890625,0.001716618637494611,0.008330642992447037,-0.052898050878550054
0.0038525171112269163,0.027863407507538795,9.856571197509766,-0.0011802390217781067,-0.007951093837618828,-0.0006780624389648438,-0.05931848539426824,-0.06504055641272576,0.03551718045221134
0.006803013384342194,0.027934260666370392,9.85959243774414,-0.0012806477025151253,-0.007668523117899895,-0.0003490447998046875,-0.02082759465689607,0.03448543835640926,-0.054703341913335826
0.011719356290996075,0.025289081037044525,9.856446266174316,0.0033416887745261192,-0.007297893986105919,-0.00005340576171875,-0.05931848539426824,0.05862706214293668,0.04322524236366246
0.006748477928340435,0.034494828432798386,9.85651683807373,-0.005779599770903587,0.0024396367371082306,-0.004698753356933594,-0.058623727089631004,-0.0033106940763256727,-0.01621245117596366
0.0020120516419410706,0.03930768370628357,9.86136245727539,-0.005610963795334101,0.01173967495560646,0.0047397613525390625,-0.03906645423686475,-0.06504055641272576,-0.01621245117596366
0.005245962180197239,0.036051876842975616,9.853337287902832,-0.00036978721618652344,0.0020382851362228394,-0.004574775695800781,-0.018119638094397577,0.05702965165079994,0.024986386118747084
0.005316815804690123,0.03267626464366913,9.858389854431152,-0.005225575994700193,0.006247885525226593,-0.0043392181396484375,-0.040384867509662324,-0.0040054523809629075,0.025889038306246583
0.0023281017784029245,0.039127759635448456,9.856571197509766,-0.005071453750133514,0.00622708722949028,-0.00009918212890625,-0.00029655293994020206,-0.0040054523809629075,-0.01621245117596366
0.005000765435397625,0.02671515941619873,9.858373641967773,-0.00505297165364027,-0.002905096858739853,0.00457000732421875,-0.036358497674366254,0.03406967727111118,-0.03917243222575903
0.0028403967153280973,0.032621726393699646,9.851780891418457,-0.00976475141942501,0.0016700886189937592,-0.004719734191894531,0.038889096102069205,-0.027868078948151166,-0.07724755854277982
0.0020120516419410706,0.034494828432798386,9.852683067321777,-0.004856875631958246,0.0020142942667007446,0.000301361083984375,-0.03455320663958048,0.007499094141424429,0.00855282924625075
0.0020120516419410706,0.02970387041568756,9.856571197509766,-0.004611059557646513,-0.0027426667511463165,0.0006389617919921875,0.03210567771961517,0.011317570093858238,-0.01621245117596366
0.014121065847575665,0.030835799872875214,9.856571197509766,0.0003012474626302719,0.001598414033651352,0.00019741058349609375,-0.012703751649827037,-0.05062018612540411,-0.01621245117596366
0.011081675067543983,0.025937499478459358,9.857595443725586,0.0044939168728888035,-0.008259857073426247,0.00017642974853515625,0.001716618637494611,-0.010531884895895209,0.10585775355250873
0.0020120516419410706,0.031860385090112686,9.853937149047852,-0.004916464444249868,0.0015512816607952118,-0.00008392333984375,0.001716618637494611,0.002083207696853889,-0.04977432656064687
0.01159396767616272,0.03483105078339577,9.856571197509766,0.0044822003692388535,0.005759939551353455,-0.00007915496826171875,-0.05931848539426824,0.024370408443296396,0.04482265285579919
0.002931420924142003,0.0354141965508461,9.856571197509766,-0.005053216591477394,0.0007490664720535278,-0.0000705718994140625,0.001716618637494611,0.03360479752072719,0.04482265285579919
0.006803013384342194,0.03534334525465965,9.844743728637695,-0.0003145080991089344,0.00042834505438804626,-0.013790130615234375,0.06275172266925746,-0.01481524059871301,-0.07724755854277982
0.0075806742534041405,0.034494828432798386,9.856571197509766,0.004554450046271086,0.00012027472257614136,0.0007677078247070312,0.0940654186102685,0.06693678768105055,-0.057433286482278606
0.0020120516419410706,0.03057043068110943,9.853513717651367,-0.004777282476425171,-0.004844639450311661,-0.0038442611694335938,0.001716618637494611,-0.054000889640722416,0.033782986083795846
0.009313792921602726,0.03198404610157013,9.856801986694336,0.0052804420702159405,-0.004521753638982773,0.005509376525878906,-0.027332015820010946,0.02504318207654265,-0.01621245117596366
0.0020120516419410706,0.034494828432798386,9.85694408416748,-0.0043803732842206955,0.00032795965671539307,-0.0038862228393554688,-0.02642936363251145,-0.0368945741427197,0.011933537764149012
0.010463765822350979,0.030834073200821877,9.851780891418457,0.004809581208974123,-0.00460975244641304,-0.0038423538208007812,0.06275172266925746,0.03543208656711716,-0.01621245117596366
0.012107986956834793,0.03235635906457901,9.852293968200684,0.009320022538304329,0.0002950504422187805,0.0011539459228515625,0.001716618637494611,-0.0040054523809629075,0.017579316103186016
0.01159396767616272,0.032427214086055756,9.851780891418457,0.004070305731147528,0.0007040053606033325,-0.0032787322998046875,-0.08565917662948852,-0.0040054523809629075,-0.04255314241118395
0.006803013384342194,0.03649159148335457,9.851780891418457,-0.0007901731878519058,0.005362369120121002,-0.0026865005493164062,-0.04915947279816019,-0.0040054523809629075,0.019384610473025095
0.00609793234616518,0.03040895238518715,9.856924057006836,-0.0001707100309431553,-0.004287652671337128,0.0021238327026367188,0.001716618637494611,0.11357350609688273,0.040331413275279046
-0.0024972157552838326,0.034494828432798386,9.851499557495117,-0.00550256110727787,0.0005145557224750519,-0.007296562194824219,-0.0629070827924488,-0.007594049779143474,0.04123405879267193
0.006803013384342194,0.034494828432798386,9.853143692016602,-0.0004147011786699295,0.00044988468289375305,-0.0023670196533203125,-0.05931848539426824,-0.03872186318910967,0.010106240380125774
0.01159396767616272,0.031488072127103806,9.853565216064453,0.0037663010880351067,-0.004173409193754196,-0.0024919509887695312,0.00887180208203832,-0.12607568712491504,0.006517646316998513
0.00988062098622322,0.026626260951161385,9.846989631652832,-0.0006686369888484478,-0.004169397056102753,-0.007260322570800781,0.001716618637494611,0.013374764374927899,0.02299520588280986
0.011455714702606201,0.034563954919576645,9.851780891418457,0.004335748963057995,0.0005337558686733246,-0.0020856857299804688,0.0601097734817848,-0.0013635031934902408,0.043942005350010506
-0.00120375060942024,0.03291967511177063,9.853355407714844,-0.004945294000208378,-0.004194587469100952,0.0030460357666015625,0.042684840331171564,0.01606142995712299,0.02475575884502672
0.0036581852473318577,0.032848697155714035,9.850281715393066,0.00009095342829823494,-0.0038503557443618774,0.0033998489379882812,-0.09938245407485898,0.07612248498021855,-0.03718359319724239
0.0020120516419410706,0.02970387041568756,9.845632553100586,-0.004893622361123562,-0.003631390631198883,-0.010814666748046875,-0.07660281269751441,0.01786993598329543,-0.038087839540222
0.006803013384342194,0.03306528553366661,9.85321044921875,0.0004252172075212002,0.001249752938747406,-0.0013561248779296875,-0.016495227010698138,0.05702965165079994,0.026610803872553136
0.010235406458377838,0.034494828432798386,9.850421905517578,0.00008920067921280861,0.001165192574262619,-0.00598907470703125,0.04544413003415093,0.07433724428590648,0.02751505355058605
0.006803013384342194,0.03392334282398224,9.852066993713379,-0.00027174921706318855,0.0013925805687904358,-0.0010700225830078125,-0.05567822135027623,-0.12243540974070982,0.09857722546452471
0.0071597350761294365,0.03892906382679939,9.843268394470215,-0.00019207550212740898,0.006283946335315704,-0.009991645812988281,0.001716618637494611,-0.06504055641272576,-0.01621245117596366
0.008803978562355042,0.03328288719058037,9.854570388793945,0.003980209119617939,-0.008317222818732262,-0.0007419586181640625,0.037260122665447606,-0.0750924604368689,0.00927915716547946
0.006803013384342194,0.03199540823698044,9.857925415039062,-0.0007796618156135082,0.0059494152665138245,-0.005358695983886719,-0.05931848539426824,-0.0040054523809629075,0.04482265285579919
0.011095515452325344,0.03020232357084751,9.851780891418457,0.0038046925328671932,-0.0033637061715126038,-0.0006208419799804688,0.11743672512446542,-0.05869045483617086,-0.022562556087571867
0.009451295249164104,0.0318465456366539,9.857077598571777,-0.0010595247149467468,0.0011981762945652008,-0.0008134841918945312,0.02901352301630346,0.023291451997845943,-0.04350935555477251
0.0045894840732216835,0.027490343898534775,9.854357719421387,-0.001160982996225357,-0.003703698515892029,0.0035562515258789062,0.006352609536640766,0.028830095084491594,0.016623099624544148
0.0077362218871712685,0.03928578644990921,9.86136245727539,-0.001396738924086094,0.005728166550397873,0.007954597473144531,0.013605363300695165,-0.06504055641272576,0.07019150622269385
0.005940657574683428,0.030566224828362465,9.843060493469238,-0.006289557553827763,0.0012038126587867737,-0.005870819091796875,0.05176563019355641,0.07412035909933212,-0.06626145272686554
0.007594514638185501,0.028120867908000946,9.854988098144531,0.0034753261134028435,-0.012754533439874649,-0.005734443664550781,0.001716618637494611,-0.04487364915589619,-0.006128997547548878
0.01159396767616272,0.03620026633143425,9.8478422164917,0.002913101576268673,0.0014491230249404907,-0.0054931640625,0.06275172266925746,0.006857883452663037,0.03395930701701333
0.009097028523683548,0.034494828432798386,9.846989631652832,-0.0018640048801898956,0.000972360372543335,-0.005282402038574219,0.004301818557917992,-0.006590652301386288,-0.018797641091227123
0.0020120516419410706,0.034839458763599396,9.849557876586914,-0.006069930270314217,-0.0039305612444877625,-0.0043430328369140625,0.03003893184587807,-0.032327765589346365,-0.01621245117596366
0.006803013384342194,0.03333694487810135,9.855413436889648,-0.0006992719136178493,0.0010229647159576416,0.005312919616699219,-0.005658891768634901,-0.0040054523809629075,0.0521981599268754
0.002520140027627349,0.03877769783139229,9.842706680297852,-0.0009315828792750835,0.0010287612676620483,-0.0036907196044921875,0.05627886445062745,-0.0040054523809629075,-0.01621245117596366
0.007240247447043657,0.030141104012727737,9.842636108398438,0.0039056381210684776,0.0003872625529766083,-0.0033254623413085938,-0.003853587393635905,-0.1704001463828599,0.03925244348961537
0.004426025785505772,0.03570181503891945,9.849367141723633,-0.006047991104424,0.000979553908109665,0.001552581787109375,-0.028565305192234595,-0.09579372327454617,0.04482265285579919
0.008742760866880417,0.03928578644990921,9.852691650390625,-0.0020043617114424706,0.005176924169063568,0.006293296813964844,0.001716618637494611,-0.040328851954340286,-0.01621245117596366
0.006507485639303923,0.02970387041568756,9.85627555847168,-0.0062631163746118546,-0.004098154604434967,0.0015497207641601562,-0.0020483096990633553,0.0035243776117265795,0.04105773785945445
0.010245274752378464,0.037937093526124954,9.849686622619629,0.003445720300078392,0.0053847357630729675,-0.0033960342407226562,-0.015465255828201371,0.013176422084733075,0.04482265285579919
0.0008171817753463984,0.03329995647072792,9.841004371643066,-0.010553847067058086,-0.0042068250477313995,-0.012720108032226562,0.016938895822058066,-0.06504055641272576,-0.07724755854277982
0.008139590732753277,0.034494828432798386,9.850053787231445,0.0038074865005910397,0.0009625107049942017,0.0015611648559570312,-0.037314710817954816,-0.026009226957276328,-0.03821621908217047
0.006968947127461433,0.02970387041568756,9.85169792175293,0.008403676562011242,-0.003982052206993103,-0.0031824111938476562,-0.05826151362020877,-0.18393987583449947,-0.01621245117596366
0.006803013384342194,0.036056142300367355,9.851780891418457,-0.0014291219413280487,0.0010836943984031677,0.001434326171875,0.02297056650898757,-0.10618510904478011,-0.01621245117596366
0.01159396767616272,0.034494828432798386,9.85019588470459,0.0033572865650057793,0.0009284093976020813,0.0015363693237304688,0.001716618637494611,0.016191203551353235,-0.01621245117596366
0.003526413580402732,0.034494828432798386,9.848504066467285,-0.0012546619400382042,0.001097068190574646,0.0013780593872070312,0.001716618637494611,0.01844481913191365,0.003079968418532791
0.0034554344601929188,0.03160806745290756,9.854667663574219,-0.0006565861403942108,-0.00834956206381321,0.010634422302246094,0.001716618637494611,0.05702965165079994,-0.11989448598797252
0.006803013384342194,0.025515684857964516,9.846989631652832,-0.00039430009201169014,-0.008154762908816338,-0.0038433074951171875,-0.056758791961526625,-0.0040054523809629075,-0.01877214794375858
0.0022839545272290707,0.02545671910047531,9.846717834472656,-0.0053770230151712894,-0.008198721334338188,-0.003960609436035156,0.001716618637494611,-0.007469398826790741,0.04135870974502466
0.004886803682893515,0.02970387041568756,9.854655265808105,-0.005297389812767506,-0.003498796373605728,0.0008573532104492188,0.03833990620411786,-0.016216923482446563,-0.05283574541269352
0.009606782346963882,0.02970387041568756,9.859375,-0.0005266019143164158,-0.0033909976482391357,0.0050182342529296875,0.03743565319103165,0.04211657392831179,0.019506596717786595
0.006803013384342194,0.034494828432798386,9.856571197509766,-0.0004226719029247761,0.0013428889214992523,0.004363059997558594,0.019342428718814978,0.030809355839914353,0.05341714859052433
0.0020120516419410706,0.03236568346619606,9.856039047241211,-0.00494023784995079,0.0013987384736537933,-0.000518798828125,-0.03219393657029643,0.023119096443008903,0.017698100696774074
0.006803013384342194,0.026948068290948868,9.860344886779785,-0.00007047783583402634,-0.007733086124062538,0.008477210998535156,0.001716618637494611,-0.039113398447195365,-0.07724755854277982
0.008612086996436119,0.034494828432798386,9.858771324157715,0.009264115244150162,0.0017417967319488525,0.008142471313476562,0.001716618637494611,-0.03203284015541933,-0.04922018077348331
0.01184319332242012,0.034744054079055786,9.86136245727539,0.00906137190759182,0.006757698953151703,0.007273674011230469,-0.00145843215078284,-0.06186550562444831,0.01271757544577904
0.005927142221480608,0.02970387041568756,9.86136245727539,-0.00044403504580259323,-0.002983763813972473,0.006626129150390625,-0.02948580658502604,0.025827213088066066,0.014989979049136952
0.006803013384342194,0.03848076984286308,9.859752655029297,0.0001530940644443035,0.0015649348497390747,-0.00339508056640625,0.011972254397974539,0.00625018337951702,0.04482265285579919
0.010859805159270763,0.030438033863902092,9.866153717041016,0.00047802599146962166,0.0018663331866264343,0.010161399841308594,0.001716618637494611,-0.055687572839745327,-0.01621245117596366
0.006803013384342194,0.037465669214725494,9.866153717041016,0.00015456601977348328,0.006818503141403198,0.009463310241699219,0.03956408421071042,-0.0040054523809629075,0.0826701150939617
0.0020120516419410706,0.03002147376537323,9.863598823547363,-0.0039586881175637245,0.00240374356508255,0.0036706924438476562,-0.02677786336274077,0.06512193171338411,0.04482265285579919
0.007262318395078182,0.02970387041568756,9.866153717041016,-0.003971515689045191,-0.0021770671010017395,0.0078067779541015625,-0.004134799088370024,-0.0040054523809629075,0.011379386974405489
0.0025336549151688814,0.03772097826004028,9.858136177062988,-0.004044414032250643,0.007336698472499847,-0.0025968551635742188,-0.05267344504357308,-0.0040054523809629075,-0.009567414160321806
0.00725376233458519,0.034494828432798386,9.865252494812012,0.005205682944506407,0.0022030696272850037,-0.0024461746215820312,0.05700932116584858,-0.05929815490931687,0.04482265285579919
0.006803013384342194,0.03046366199851036,9.870183944702148,0.000126006081700325,0.006389383226633072,0.0020456314086914062,0.06275172266925746,-0.06020080709681637,0.03998291354504972
0.005538686644285917,0.03802146017551422,9.86741828918457,0.00020221201702952385,0.006359796971082687,0.00637054443359375,0.017823672123839174,0.06974356854310267,0.04482265285579919
0.00492060137912631,0.034494828432798386,9.858453750610352,0.0002402476966381073,0.0017524398863315582,-0.0034923553466796875,-0.07239110727991563,-0.041059308669561416,0.04482265285579919
0.0024883318692445755,0.034494828432798386,9.861600875854492,0.004670826718211174,0.001551840454339981,0.005886077880859375,0.001716618637494611,-0.1230418558338129,0.04482265285579919
0.0034182178787887096,0.032516200095415115,9.864747047424316,-0.0048540025018155575,-0.0033841393887996674,0.005639076232910156,0.04483768394104785,0.003287508785744653,0.026908607457482966
0.006803013384342194,0.02786720171570778,9.866153717041016,-0.0004929280839860439,-0.00824691541492939,0.005523681640625,-0.0405001936529724,-0.0040054523809629075,0.026004359446976703
0.006803013384342194,0.03928578644990921,9.858241081237793,-0.00056474469602108,0.005616676062345505,-0.0043773651123046875,-0.01955232363366064,-0.022502671870415252,-0.03748139344711891
0.0004135234921704978,0.03289629891514778,9.859768867492676,-0.009995967149734497,-0.00362338125705719,0.005526542663574219,0.001716618637494611,0.03666496239273091,0.04482265285579919
0.002103603444993496,0.034494828432798386,9.856616973876953,-0.0049341171979904175,0.0008760541677474976,-0.004134178161621094,0.001716618637494611,-0.004588633142205637,-0.01679562193204647
0.005112930666655302,0.031393952667713165,9.858261108398438,-0.004904254339635372,0.001254495233297348,0.00046443939208984375,-0.019814405462633435,-0.04350953231259771,0.04482265285579919
0.005041951779276133,0.03146493062376976,9.858332633972168,0.0003441525623202324,-0.0033091120421886444,-0.0039844512939453125,0.06275172266925746,-0.026440729494177174,0.022387369072478312
0.006168827880173922,0.02831827849149704,9.856571197509766,-0.004801271017640829,-0.0036025866866111755,-0.003932952880859375,0.06275172266925746,-0.021657409280199727,-0.04194364140925287
0.0020120516419410706,0.03928578644990921,9.85788631439209,-0.004181595519185066,0.005518682301044464,0.0008955001831054688,0.001716618637494611,-0.048292852526575156,-0.06049984131641599
0.00325578055344522,0.030947597697377205,9.862606048583984,0.0005159620195627213,0.0005218014121055603,0.005299568176269531,0.017561270129749035,-0.0040054523809629075,-0.0003677963486559308
0.0028130391146987677,0.03409433364868164,9.856571197509766,-0.0038688569329679012,0.0005984529852867126,-0.004077911376953125,0.11358252408102126,0.06723395427079899,-0.07724755854277982
0.004056768491864204,0.02970387041568756,9.863407135009766,0.0010196450166404247,-0.003751203417778015,0.005291938781738281,-0.024332335474758864,-0.0040054523809629075,0.01877370541365233
0.005700991488993168,0.02970387041568756,9.866153717041016,-0.003907575737684965,-0.0034524500370025635,0.005002021789550781,0.095708105786083,-0.06504055641272576,-0.01621245117596366
0.011051767505705357,0.0376591831445694,9.86136245727539,0.004913405515253544,0.005811046808958054,-0.00019073486328125,0.001716618637494611,-0.010912908065961428,-0.01621245117596366
0.006384896580129862,0.034494828432798386,9.86354923248291,0.004583965986967087,0.0014422684907913208,0.0042362213134765625,-0.05931848539426824,-0.0040054523809629075,0.039496039118114834
0.01159396767616272,0.03702851012349129,9.854313850402832,0.004540703725069761,0.006283532828092575,-0.005035400390625,-0.02704026535683091,-0.0040054523809629075,0.016065758856313752
0.005913552362471819,0.03271590918302536,9.86136245727539,-0.0001723291352391243,0.0018005892634391785,0.00027751922607421875,0.001716618637494611,0.007325964854220474,-0.01621245117596366
0.005984405521303415,0.0353134348988533,9.857389450073242,-0.004823240451514721,0.0062224604189395905,0.0007476806640625,0.05232295762157358,-0.06504055641272576,-0.01621245117596366
0.006803013384342194,0.031355101615190506,9.856571197509766,-0.00008224789053201675,-0.0034779049456119537,-0.00335693359375,-0.05931848539426824,-0.05452251865815569,-0.005694413421393594
0.004481889773160219,0.02970387041568756,9.86136245727539,0.00038268789649009705,-0.0029720738530158997,0.0014047622680664062,-0.05931848539426824,0.027459388175861108,0.04482265285579919
0.009343701414763927,0.0367450974881649,9.85403060913086,0.004703022539615631,0.0015709400177001953,-0.007718086242675781,0.03408411138181812,0.05702965165079994,-0.04488006913350961
0.0063708811067044735,0.026660200208425522,9.854392051696777,0.004007743205875158,0.0018138401210308075,-0.007277488708496094,-0.0870834578344213,-0.03177041148090275,0.04482265285579919
0.0030824372079223394,0.03875059261918068,9.84859561920166,-0.005556352902203798,0.006829753518104553,-0.011667251586914062,-0.052500315756369126,-0.05140421713692753,-0.01621245117596366
0.0029407304245978594,0.03495916724205017,9.851316452026367,-0.0053068711422383785,0.001705266535282135,-0.005710601806640625,0.007632149428107451,-0.0040054523809629075,-0.02212797196141658
0.006409527268260717,0.03849881514906883,9.85617733001709,-0.005695209372788668,-0.003057524561882019,-0.00560760498046875,0.006729497240607954,-0.0700534350158391,-0.021225323108970393
0.009092433378100395,0.0332440622150898,9.851780891418457,0.003787231631577015,0.0017668232321739197,-0.005513191223144531,-0.014217705768042675,-0.0040054523809629075,0.04482265285579919
0.009698083624243736,0.03070305846631527,9.862258911132812,0.0038605709560215473,0.002162352204322815,-0.001163482666015625,0.03859881306234366,0.020147457225950894,-0.02894174266400552
0.0038369593676179647,0.0315287783741951,9.851780891418457,-0.0009903553873300552,0.0018974542617797852,-0.005578041076660156,-0.036069828800440656,-0.04179189981889818,-0.07724755854277982
0.01141336653381586,0.03006507270038128,9.86118221282959,0.003578862175345421,-0.002662576735019684,0.0044536590576171875,-0.0005841679370212077,-0.06273976983820993,-0.01851324442058609
0.0020120516419410706,0.034494828432798386,9.851780891418457,-0.00555017264559865,0.001695927232503891,-0.004576683044433594,-0.05792193849262542,-0.002608918819533308,-0.01621245117596366
0.006803013384342194,0.03920850157737732,9.85181999206543,-0.0012759994715452194,-0.0030187033116817474,0.000064849853515625,0.061767134892144256,-0.06553286364149559,-0.07675525131401
0.008408674038946629,0.031283505260944366,9.858177185058594,-0.0010755695402622223,0.0013324208557605743,0.00018405914306640625,-0.0388629226037263,-0.08549614588369414,0.04482265285579919
0.010052978061139584,0.03774479776620865,9.858280181884766,0.0035839052870869637,0.006108749657869339,0.00482940673828125,0.02134828985940376,-0.006145542746998309,-0.03584412239787281
0.003482063999399543,0.034494828432798386,9.851780891418457,-0.0013932036235928535,0.0016309283673763275,-0.0046215057373046875,0.001716618637494611,0.061882501056094004,-0.01621245117596366
0.006628719158470631,0.02987816371023655,9.861536979675293,-0.001191503368318081,-0.003284074366092682,0.004809379577636719,0.06275172266925746,-0.06059967947217454,-0.013992006035581438
0.009775378741323948,0.03152246028184891,9.859543800354004,-0.001298448070883751,0.001470278948545456,-0.000484466552734375,-0.03615029696659987,-0.07973931026957831,0.02165446276060417
0.0049135684967041016,0.03159331530332565,9.855559349060059,-0.0057320306077599525,0.0019513890147209167,0.004601478576660156,-0.05931848539426824,-0.028076292996130774,0.03192922338426546
0.0076733739115297794,0.03362446278333664,9.858531951904297,0.003882196731865406,-0.0027684345841407776,-0.00005340576171875,0.037778229866590095,-0.09001404921539312,0.019849166723238436
0.009221089072525501,0.030890310183167458,9.857757568359375,0.0037107374519109726,-0.003184814006090164,-0.00029850006103515625,0.06275172266925746,-0.08015539151999374,0.029707834423797735
0.010478382930159569,0.026028499007225037,9.846989631652832,-0.0010530250146985054,-0.002939607948064804,-0.009466171264648438,0.034327383510146935,0.042817468731031455,0.012211889650673519
0.00254068779759109,0.02970387041568756,9.857099533081055,-0.005556199699640274,-0.0027076825499534607,0.00022125244140625,-0.0050180012449908525,-0.0040054523809629075,-0.07724755854277982
0.0015668121632188559,0.03187672793865204,9.854398727416992,-0.00981022696942091,-0.002631552517414093,-0.0000514984130859375,0.06275172266925746,-0.0040054523809629075,0.04482265285579919
0.006803013384342194,0.03254707157611847,9.855597496032715,-0.00020653009414672852,0.002560049295425415,0.00020599365234375,-0.010690259907274879,-0.052633677867956266,0.04482265285579919
0.006803013384342194,0.034494828432798386,9.856571197509766,0.00011705607175827026,0.0022618472576141357,0.000560760498046875,-0.03631003267972825,-0.0040054523809629075,0.033318426498529195
0.0027532484382390976,0.031186262145638466,9.85508918762207,-0.00523337721824646,-0.0024250075221061707,0.0006303787231445312,0.001716618637494611,-0.10719053423494714,-0.01621245117596366
0.0020120516419410706,0.03208928927779198,9.851800918579102,-0.005326773505657911,0.002262573689222336,-0.008380889892578125,0.03236234342201956,-0.15646506637215296,0.014433275276087938
0.006803013384342194,0.034494828432798386,9.849446296691895,-0.0002536457031965256,0.002066951245069504,-0.008115768432617188,0.03145969123452006,-0.002456493543250953,-0.01621245117596366
0.010903502814471722,0.03380436450242996,9.851780891418457,0.005044549237936735,0.001901477575302124,-0.0029706954956054688,-0.0763721870913207,0.04823338185602844,0.036026373055867776
0.0020120516419410706,0.0338752381503582,9.856571197509766,-0.004632851574569941,-0.0027389340102672577,0.0019998550415039062,0.046965021063242365,-0.06504055641272576,0.03692930205279164
0.006803013384342194,0.030252480879426003,9.856571197509766,-0.00006030360236763954,0.000984732061624527,0.00199127197265625,0.001716618637494611,0.05004055386087861,-0.01621245117596366
0.0009163578506559134,0.02970387041568756,9.859170913696289,-0.004648770671337843,-0.003081671893596649,0.0064373016357421875,-0.04535972650509103,-0.051081784183335324,-0.002253688951733143
0.004063011147081852,0.0351838693022728,9.85588264465332,-0.004603143781423569,0.006519068032503128,-0.002941131591796875,0.010494772422709709,-0.030133940844450004,-0.01621245117596366
0.0020120516419410706,0.03647480905056,9.854591369628906,-0.004835925064980984,0.006350178271532059,-0.0028743743896484375,-0.02350761681290627,-0.029229687831363788,0.01959842407550492
0.01159396767616272,0.034494828432798386,9.85690689086914,0.004453671630471945,0.0015800222754478455,0.0017080307006835938,-0.05504211996317912,-0.06076419098163664,-0.01621245117596366
0.006273624021559954,0.03423013538122177,9.85604190826416,0.00022698938846588135,0.0013826750218868256,0.0015048980712890625,0.059379610251254565,0.05365753923279704,-0.01621245117596366
-0.0027789026498794556,0.02989758551120758,9.865960121154785,-0.009029210545122623,0.0012615062296390533,0.0061397552490234375,-0.11788571668090118,-0.06750841581764243,-0.013744581765887066
0.0020120516419410706,0.031593650579452515,9.855120658874512,-0.0038771415129303932,0.0015236511826515198,0.0013446807861328125,-0.0777984826684501,0.05702965165079994,0.026342655581617327
0.008201842196285725,0.04068461433053017,9.856571197509766,0.005867812782526016,0.0109933540225029,0.0013217926025390625,0.06275172266925746,0.05702965165079994,0.10585775355250873
0.005262219347059727,0.034494828432798386,9.858196258544922,0.0058752745389938354,0.0009317062795162201,0.005974769592285156,0.001716618637494611,-0.16640779409128167,-0.01621245117596366
0.0020504945423454046,0.03447560593485832,9.851799964904785,-0.0036852634511888027,0.0008249692618846893,-0.0037288665771484375,0.001716618637494611,-0.125585941217084,-0.07700268558886428
0.009730817750096321,0.03136739879846573,9.85803508758545,-0.008659291081130505,0.000948093831539154,-0.0038385391235351562,0.001716618637494611,0.05702965165079994,-0.01621245117596366
0.012915931642055511,0.03581679239869118,9.856571197509766,0.010101446881890297,0.005835678428411484,0.0011053085327148438,0.001716618637494611,0.07387100383377376,0.04482265285579919
0.0034242921974509954,0.026879392564296722,9.853193283081055,-0.004221702925860882,-0.002901453524827957,-0.0034189224243164062,-0.03426624531294739,-0.02199689102629052,-0.08430837331898627
0.005461626220494509,0.03315344080328941,9.851780891418457,0.0011554509401321411,0.0017653368413448334,-0.0033321380615234375,-0.04222969893644012,0.03994086519297183,-0.01621245117596366
0.001709216390736401,0.030309541150927544,9.856571197509766,-0.003480645827949047,-0.003142956644296646,0.0015993118286132812,-0.014469515632834004,0.012180681889365708,0.028636515250417268
0.002385740866884589,0.03374744951725006,9.856945037841797,-0.0032556583173573017,0.0017200261354446411,0.0017671585083007812,-0.05931848539426824,-0.00876612091288824,-0.07248689001085448
0.006803013384342194,0.032476916909217834,9.85732650756836,0.0013249884359538555,-0.0029920265078544617,-0.003204345703125,0.027424089971673893,0.06664981301420424,-0.01621245117596366
0.004100817255675793,0.03179263323545456,9.856571197509766,-0.003275323659181595,-0.0030858106911182404,0.0016756057739257812,-0.05931848539426824,0.0038094312878688306,0.01821253933928033
0.006803013384342194,0.030761843547225,9.845372200012207,0.0014356947503983974,-0.0031239837408065796,-0.012475013732910156,0.0286730007335813,0.05702965165079994,0.031344461807755845
0.004828776232898235,0.033507708460092545,9.850793838500977,0.0014066104777157307,0.0019469968974590302,-0.0025053024291992188,-0.04674294653372439,-0.0040054523809629075,0.057398195051396345
0.0029283175244927406,0.03541109338402748,9.848821640014648,0.000619180966168642,0.006543390452861786,0.00267791748046875,-0.08533491606668482,-0.05336765639946819,-0.05390176852142459
0.0027400876861065626,0.03928578644990921,9.850324630737305,-0.004551448859274387,0.006234817206859589,-0.0017614364624023438,0.06275172266925746,-0.013280369026164206,-0.01621245117596366
0.009129072539508343,0.036913447082042694,9.846989631652832,0.009634051471948624,0.0009309649467468262,-0.005858421325683594,0.0325289360047444,-0.0034158949977997365,-0.046435231170370114
0.006803013384342194,0.034494828432798386,9.851780891418457,0.00022987881675362587,0.0006087422370910645,-0.0009641647338867188,-0.02819145905688218,0.055810703007790674,0.01369562651841313
0.0075063458643853664,0.033791497349739075,9.85107707977295,0.00037375884130597115,0.0004616864025592804,-0.0008573532104492188,0.06275172266925746,0.048069430635521694,-0.007252240165845326
0.0020120516419410706,0.02970387041568756,9.853045463562012,-0.004562899935990572,-0.004228334873914719,0.008419036865234375,0.001716618637494611,0.048973683648607914,0.03676669152371377
0.006803013384342194,0.0307158213108778,9.857583045959473,0.00045361416414380074,-0.003911711275577545,0.0038747787475585938,-0.01117528337962512,-0.05214865439560602,0.08007394951826927
0.006803013384342194,0.03183856979012489,9.854436874389648,0.00008560018613934517,-0.003559548407793045,0.0035963058471679688,-0.05931848539426824,-0.0378452244173944,0.017627317525414528
0.006139495875686407,0.024912914261221886,9.84765338897705,0.0047657061368227005,-0.008095281198620796,-0.01024627685546875,0.001716618637494611,0.0044474670058832246,0.01853156720344744
0.0028508855029940605,0.02970387041568756,9.84782886505127,-0.00506353285163641,-0.003164570778608322,-0.005127906799316406,0.05740851370632409,-0.0040054523809629075,0.03947943055265259
-0.0024304650723934174,0.02970387041568756,9.851432800292969,-0.008940765634179115,-0.002702917903661728,-0.0005216598510742188,-0.0027223639927789886,0.05702965165079994,-0.020651423801077342
0.006803013384342194,0.03900832682847977,9.84754467010498,0.0002012336626648903,0.0020435266196727753,0.0044498443603515625,-0.11681885980884371,-0.06150582679553838,-0.01621245117596366
0.01159396767616272,0.02970387041568756,9.851780891418457,0.004594361409544945,-0.0028060004115104675,-0.00005245208740234375,-0.04190534499214386,-0.0040054523809629075,0.027409512453674807
0.005571663845330477,0.03928578644990921,9.846989631652832,-0.005104563198983669,0.0065388865768909454,-0.0045757293701171875,0.001716618637494611,0.03435555804047324,-0.054573454927293194
0.00030322588281705976,0.02970387041568756,9.856571197509766,-0.009489592164754868,-0.003228016197681427,0.004723548889160156,-0.020053221959745873,0.03525981105355946,0.027327250028837145
0.00037420488661155105,0.032856982201337814,9.853418350219727,-0.00893821008503437,-0.003477279096841812,0.004603385925292969,0.001716618637494611,-0.02487106664554362,-0.01621245117596366
0.01158751081675291,0.029710328206419945,9.851794242858887,0.00540287746116519,-0.003492407500743866,-0.00016307830810546875,-0.05923622963953719,-0.003923196626231855,0.04474039043096153
0.005152249708771706,0.036145590245723724,9.858222007751465,-0.004567925818264484,0.006034575402736664,0.008668899536132812,-0.07829333787794546,-0.08607068218676857,0.02379252374670307
0.005081270355731249,0.03277308866381645,9.855224609375,-0.00010520080104470253,0.0016070157289505005,-0.0009489059448242188,-0.020217760149634424,-0.0040054523809629075,0.04482265285579919
0.005378101021051407,0.02776273526251316,9.853205680847168,-0.00006918888539075851,-0.007677881047129631,-0.001220703125,0.02644598553818691,-0.06504055641272576,-0.02278896952144052
0.003365984885022044,0.031057802960276604,9.853863716125488,-0.0001485687680542469,0.0010205134749412537,-0.006249427795410156,0.04550312045702163,-0.0040054523809629075,-0.01621245117596366
0.011303594335913658,0.03420445695519447,9.852070808410645,0.004167123232036829,0.0010284259915351868,-0.0018062591552734375,0.001716618637494611,-0.12237644599826557,-0.07354830407591711
0.006441660691052675,0.03413347527384758,9.847712516784668,-0.0009461510926485062,0.0010803304612636566,-0.006724357604980469,0.058148228529521756,-0.1779038028772065,-0.007005452891332336
0.006803013384342194,0.034494828432798386,9.856571197509766,-0.0005406779237091541,0.0010767355561256409,0.0026788711547851562,0.001716618637494611,0.08258024207748049,-0.026146367684258796
0.004088503774255514,0.026989363133907318,9.853857040405273,-0.0047091953456401825,-0.008477797731757164,-0.0022678375244140625,-0.05931848539426824,0.030576409036619893,0.04482265285579919
0.01159396767616272,0.03928578644990921,9.84805965423584,0.004875234793871641,0.005965840071439743,-0.006806373596191406,0.04911666405392861,0.07066471026612879,-0.0025773925606348068
0.007802444975823164,0.03070330247282982,9.84898853302002,-0.0004935613833367825,-0.0031125955283641815,-0.006539344787597656,0.02455447670534295,-0.0040054523809629075,0.04482265285579919
0.006803013384342194,0.031561028212308884,9.852709770202637,-0.0000860355794429779,0.006146419793367386,0.0029706954956054688,0.0390921875081713,-0.0040054523809629075,-0.06541779096223674
0.004158979747444391,0.03521047160029411,9.85513973236084,-0.004511140286922455,0.0014266781508922577,0.0029020309448242188,-0.05020145017255737,0.06614670021272404,0.04482265285579919
-0.0027789026498794556,0.029775099828839302,9.847061157226562,-0.009313121438026428,-0.008105015382170677,-0.011132240295410156,-0.02925464737030342,-0.06504055641272576,0.014758816499361027
0.006803013384342194,0.03442417457699776,9.854211807250977,0.0006362493149936199,0.006182804703712463,-0.0018911361694335938,0.0008165277709338681,0.14813226226516385,0.014755151275778096
0.0034437451977282763,0.030419716611504555,9.852497100830078,-0.004252823069691658,-0.0032067373394966125,-0.0020666122436523438,-0.00740301792579468,-0.013125088944252197,-0.0070928179477276745
0.007447880692780018,0.03099360503256321,9.852425575256348,0.004512703977525234,0.006465822458267212,0.0025510787963867188,0.009932002187697683,-0.0040054523809629075,0.04482265285579919
0.003011489985510707,0.02970387041568756,9.85757064819336,-0.004805621691048145,-0.0029902569949626923,0.0022678375244140625,0.001716618637494611,-0.016737938850071597,-0.07724755854277982
0.006803013384342194,0.03077428601682186,9.856571197509766,-0.00012956419959664345,-0.002650514245033264,0.0018472671508789062,-0.04568175925228655,0.05702965165079994,-0.04348590345992703
0.009517733007669449,0.0330570787191391,9.85449504852295,0.004512690473347902,0.006913859397172928,0.0016536712646484375,0.001716618637494611,-0.03045597359164553,-0.07724755854277982
0.006803013384342194,0.034494828432798386,9.855791091918945,-0.0002735629677772522,0.0017921887338161469,0.0058689117431640625,0.001716618637494611,0.0059371152556071385,-0.05170128701013011
0.007524916436523199,0.025273865088820457,9.856571197509766,-0.0005367407575249672,-0.007593462243676186,0.0009584426879882812,-0.0028817795407900283,-0.060442158234441115,0.09666095719593945
0.01159396767616272,0.02970387041568756,9.86136245727539,0.004400311503559351,-0.0025982223451137543,0.005503654479980469,0.05166926049323576,0.0496413613204031,0.04482265285579919
0.006803013384342194,0.02970387041568756,9.856571197509766,-0.0005026445724070072,-0.003005474805831909,0.000385284423828125,-0.032790817730518854,-0.02125917723507625,0.06207636770475262
0.006803013384342194,0.034494828432798386,9.853572845458984,-0.000571004580706358,0.0019018873572349548,-0.004313468933105469,-0.05931848539426824,-0.019373511415623823,-0.03904597367451463
0.008151285350322723,0.034494828432798386,9.857919692993164,-0.005701178219169378,0.0017193183302879333,-0.0044708251953125,0.06275172266925746,-0.0040054523809629075,-0.01621245117596366
0.0020120516419410706,0.034494828432798386,9.859711647033691,-0.005944385193288326,0.0014601387083530426,-0.00022411346435546875,-0.01930841117509714,0.07805468146339169,0.04482265285579919
0.01159396767616272,0.02970992773771286,9.866135597229004,0.0033185118809342384,-0.0033401623368263245,0.009122848510742188,0.06267456287597747,-0.06519487599928574,-0.016135288047630366
0.01310842763632536,0.031342118978500366,9.859724044799805,-0.0012973602861166,0.0017088614404201508,-0.000911712646484375,-0.05931848539426824,0.07790036187683172,0.0030812390738422513
0.00030282538500614464,0.02970387041568756,9.858280181884766,-0.005742583889514208,-0.00311833992600441,-0.00043392181396484375,0.04097675943013947,0.03525468841168195,-0.05547260530882174
0.01159396767616272,0.034494828432798386,9.856571197509766,0.004216108936816454,0.0013141781091690063,-0.0006341934204101562,0.020028916091254147,-0.0040054523809629075,-0.01621245117596366
0.008169458247721195,0.034494828432798386,9.853147506713867,0.004379129037261009,0.0011327564716339111,-0.0008153915405273438,0.04534367822858414,0.05702965165079994,0.027414615085232484
0.011038249358534813,0.034494828432798386,9.861084938049316,0.004811969120055437,0.0011597312986850739,0.0037965774536132812,0.001716618637494611,-0.0040054523809629075,-0.07016789404528971
0.003934217616915703,0.031626034528017044,9.85849380493164,0.0005415566265583038,0.0015773549675941467,0.003643035888671875,-0.05931848539426824,0.008422530381124864,0.020334957257848982
0.008796155452728271,0.03169701248407364,9.857376098632812,0.0006033452227711678,-0.003163449466228485,0.0035142898559570312,0.027108567248531036,-0.0040054523809629075,-0.01621245117596366
0.006803013384342194,0.03201088681817055,9.863846778869629,0.0003921613097190857,-0.0036894753575325012,0.008296966552734375,0.001716618637494611,-0.0040054523809629075,-0.07724755854277982
0.006803013384342194,0.03078640066087246,9.86136245727539,-0.0003596399910748005,-0.003375016152858734,0.0029296875,0.04896066360050257,-0.06504055641272576,0.01724055472860925
0.0030236034654080868,0.034494828432798386,9.85859489440918,-0.00028292927891016006,0.0014191381633281708,0.007531166076660156,-0.011170187418174056,0.00888135367470576,0.08008415478138463
0.006803013384342194,0.02970387041568756,9.860729217529297,-0.000030155759304761887,-0.0036256536841392517,0.0026960372924804688,0.05469065870561437,-0.05697949244908266,-0.061125417275280404
0.006803013384342194,0.034494828432798386,9.859085083007812,-0.00013034511357545853,0.000957239419221878,-0.0020017623901367188,0.0337427886863026,-0.06202332034687263,-0.01621245117596366
0.0043600923381745815,0.034494828432798386,9.861456871032715,-0.004999292083084583,0.0007525123655796051,0.0073986053466796875,-0.05810974201437432,-0.0040054523809629075,0.07473583651678696
0.0020120516419410706,0.02970387041568756,9.848587036132812,-0.004585535265505314,-0.0038807056844234467,-0.011518478393554688,0.06275172266925746,-0.0040054523809629075,-0.006038394154393734
0.0034673213958740234,0.03303955867886543,9.849172592163086,0.005410785786807537,-0.008463433012366295,0.0030603408813476562,0.010986439321244846,0.04775983096704971,0.035552842177208874
0.005886342376470566,0.034494828432798386,9.854531288146973,0.0007952777668833733,0.0008865781128406525,-0.00595855712890625,0.05107367333369593,-0.11439761110892709,-0.01621245117596366
0.004242035560309887,0.027142895385622978,9.859132766723633,0.0005432600155472755,-0.0037497617304325104,-0.0011959075927734375,-0.02669256603939495,-0.0366313717358362,0.016413471513962937
0.003183405613526702,0.03870011121034622,9.855985641479492,-0.0040833065286278725,0.006142869591712952,-0.0009365081787109375,-0.005744696020083186,-0.05757924175514796,0.04482265285579919
0.0025267500896006823,0.02970387041568756,9.856056213378906,0.0008219829760491848,-0.0038165301084518433,-0.005623817443847656,0.008273680281986188,0.04391550168139034,0.038265584541201
0.006803013384342194,0.031963083893060684,9.865023612976074,0.0012449282221496105,-0.003580499440431595,0.00844573974609375,0.016107427012314796,-0.018396260755783093,-0.001821652806303391
0.007559876888990402,0.034494828432798386,9.858588218688965,0.005881825927644968,0.0007613226771354675,-0.0012664794921875,-0.007925607438579991,0.031333199332742596,0.04482265285579919
0.006803013384342194,0.03254876285791397,9.859416007995605,0.0011495184153318405,-0.0035704411566257477,-0.0013875961303710938,-0.023075580667476517,0.08182185095577107,-0.02766316993799748
0.0026155731175094843,0.03000563196837902,9.861061096191406,-0.0037586395628750324,-0.0036451034247875214,0.0034227371215820312,0.001716618637494611,-0.0040054523809629075,-0.012368125225357601
0.0017812697915360332,0.0347256101667881,9.86113166809082,-0.003450486809015274,0.0010936670005321503,0.0030994415283203125,0.001716618637494611,0.051149499105653654,0.04188257324817274
0.016225120052695274,0.03481443598866463,9.861042976379395,0.005954386666417122,0.01021517813205719,-0.0061664581298828125,-0.06339014525345531,-0.0040054523809629075,0.09975025709362151
0.006803013384342194,0.03152582421898842,9.859539985656738,0.0009692776948213577,0.0004949606955051422,-0.0014772415161132812,-0.04040645197465662,0.061328642083514726,0.002699582243647955
0.0020120516419410706,0.034494828432798386,9.853443145751953,-0.0038806074298918247,0.0007026270031929016,-0.006221771240234375,0.022891832570547305,-0.025180666314015603,-0.03489714735194095
0.00040343988803215325,0.0312950424849987,9.856571197509766,0.0010138056240975857,0.0011949092149734497,-0.0012798309326171875,0.0019388399093580337,0.03675869073083347,-0.01621245117596366
0.006803013384342194,0.0296507366001606,9.851834297180176,0.0015163524076342583,-0.0035698413848876953,-0.005542755126953125,0.0010397095381493237,-0.00332854328161762,-0.015535542076618373
0.006803013384342194,0.03140131011605263,9.859664916992188,0.0015029911883175373,0.0015447326004505157,-0.000926971435546875,-0.05931848539426824,-0.0040054523809629075,-0.01621245117596366
0.009825550951063633,0.032726410776376724,9.850526809692383,0.001367088407278061,-0.0035064108669757843,-0.00079345703125,-0.020812413494248658,0.05702965165079994,0.04482265285579919
0.004963614512234926,0.030816033482551575,9.854732513427734,0.0012301234528422356,0.0013883523643016815,-0.0008392333984375,0.001716618637494611,0.05702965165079994,-0.01621245117596366
0.0020120516419410706,0.034494828432798386,9.849603652954102,-0.0033650225959718227,0.0014740079641342163,-0.009943008422851562,0.001716618637494611,-0.0040054523809629075,-0.01621245117596366
0.008039289154112339,0.032176423817873,9.860126495361328,0.0011873547919094563,-0.0034536048769950867,0.0044727325439453125,-0.043568762859306415,0.02749399268896074,-0.0004627319760551412
0.006803013384342194,0.03887775540351868,9.856979370117188,0.0012751435860991478,0.006231877952814102,-0.00042247772216796875,-0.05931848539426824,0.10766846071386292,-0.01621245117596366
0.008855346590280533,0.034494828432798386,9.853833198547363,0.005814787931740284,-0.0032148323953151703,-0.005016326904296875,0.0566493221718213,-0.10166608513517042,0.03872025902846964
0.009470655582845211,0.03237151354551315,9.853903770446777,0.0006237700581550598,-0.0032606832683086395,-0.00019741058349609375,0.001716618637494611,-0.06504055641272576,0.010837809335624345
0.006803013384342194,0.03709149360656738,9.853975296020508,0.0008074603974819183,0.005884844809770584,-0.004452705383300781,-0.05419240174174723,-0.06504055641272576,0.04482265285579919
0.0029644123278558254,0.037381067872047424,9.84410285949707,-0.004061492625623941,0.006456863135099411,-0.013669967651367188,-0.04718576157143807,-0.05290781924968237,-0.004079720683026879
0.005921631585806608,0.02970387041568756,9.855690002441406,-0.004026988986879587,-0.002904307097196579,-0.0036516189575195312,-0.05931848539426824,0.007223031768994265,0.03359417204089532
0.0027749764267355204,0.034494828432798386,9.851780891418457,-0.003800869919359684,0.002053122967481613,-0.0035104751586914062,-0.008002767231859978,0.05702965165079994,0.04482265285579919
0.004419283010065556,0.034494828432798386,9.851780891418457,0.001156151294708252,0.0017162859439849854,-0.0031366348266601562,0.06275172266925746,0.05702965165079994,0.014454799710122734
0.006803013384342194,0.02970387041568756,9.854093551635742,0.0012642554938793182,-0.003049321472644806,0.0017223358154296875,-0.02985487692404474,0.05702965165079994,0.013251153959206535
0.006803013384342194,0.03382638469338417,9.850443840026855,0.0010710032656788826,0.001986544579267502,-0.0023565292358398438,0.001716618637494611,-0.0040054523809629075,0.04482265285579919
0.006803013384342194,0.03030133619904518,9.855376243591309,0.0014559216797351837,0.0016034170985221863,-0.006516456604003906,-0.00589488014054413,-0.06504055641272576,0.03721116074786706
0.007849852554500103,0.03719210624694824,9.855524063110352,0.000755158718675375,0.006076011806726456,0.0031261444091796875,-0.011619752603778412,-0.03836781393017971,-0.01621245117596366
0.006803013384342194,0.0318036824464798,9.84968090057373,0.00019981758669018745,-0.0034037381410598755,-0.0013570785522460938,0.028467481408672675,-0.05750720460374548,0.07910689078133067
0.008831845596432686,0.03652366250753403,9.85454273223877,0.00525787053629756,0.006102684885263443,-0.0012159347534179688,0.027563228395586458,-0.03919394665463391,0.018976036427600734
0.0020120516419410706,0.03361954912543297,9.851780891418457,-0.004021899309009314,0.006369519978761673,-0.0013027191162109375,-0.04816773466675963,-0.0040054523809629075,0.03367190879839719
0.010967066511511803,0.03480827808380127,9.852094650268555,0.00522299250587821,0.001718774437904358,-0.0014190673828125,-0.05931848539426824,-0.0040054523809629075,0.04082940343488173
0.011351621709764004,0.034494828432798386,9.86136245727539,0.00004482734948396683,0.0018194690346717834,0.008050918579101562,0.059664317081853026,0.05394224606339551,-0.010037650006314706
0.003414095612242818,0.03788374364376068,9.851195335388184,-0.004353840369731188,0.00638241320848465,-0.0063953399658203125,-0.1203535894260311,-0.06504055641272576,-0.059386026893814677
0.006803013384342194,0.031448397785425186,9.85003662109375,-0.00002780044451355934,-0.0028621554374694824,-0.0012969970703125,-0.03709385024784011,-0.08726521823958033,-0.01621245117596366
0.0020120516419410706,0.034494828432798386,9.8472900390625,-0.004826204851269722,0.0014901794493198395,0.007961273193359375,0.06147602475919891,-0.0040054523809629075,-0.01621245117596366
0.006803013384342194,0.037741534411907196,9.855027198791504,0.00019241683185100555,0.005953945219516754,0.0033321380615234375,0.001716618637494611,-0.06504055641272576,-0.01621245117596366
0.009991651400923729,0.0313061885535717,9.85338306427002,0.004698782693594694,-0.0037610307335853577,-0.0015573501586914062,0.042338768519748764,-0.08504602040913443,0.06503185859370457
0.008531508967280388,0.03602605685591698,9.846989631652832,0.0043465266935527325,0.0008521489799022675,-0.006129264831542969,0.001716618637494611,0.03500920180795817,0.0032948692483902673
0.00014159828424453735,0.034494828432798386,9.859902381896973,-0.0003197900950908661,0.0006596110761165619,0.0033349990844726562,-0.05931848539426824,-0.08886951228173996,0.026219580441951523
-0.0024107929784804583,0.02970387041568756,9.85159683227539,-0.009574610739946365,-0.00396130234003067,-0.0015439987182617188,0.1167524522274212,-0.0016606697832386862,-0.07490276260484237
0.008631371892988682,0.0363231897354126,9.85953426361084,0.004429901018738747,0.005855511873960495,0.0030164718627929688,0.001716618637494611,-0.08833323571018818,0.021529993568656595
0.006803013384342194,0.035487107932567596,9.856571197509766,0.00020348792895674706,0.005486808717250824,0.0028209686279296875,0.07539301544077591,0.06967094442231839,-0.05305064957760431
0.010346655733883381,0.03928578644990921,9.851780891418457,0.00448378873988986,0.005513288080692291,-0.0020074844360351562,0.001716618637494611,-0.09429503036025728,0.06071297790307477
0.0020120516419410706,0.03323287144303322,9.862539291381836,-0.005068897269666195,-0.004294849932193756,0.00669097900390625,0.09381464928210853,-0.08002665846239487,-0.0012263658015610785
0.0031174079049378633,0.030809225514531136,9.859151840209961,-0.0002331291325390339,0.0005902126431465149,-0.0029630661010742188,0.001716618637494611,0.010076396655619983,-0.01621245117596366
0.01051606796681881,0.034494828432798386,9.856571197509766,0.004476265981793404,0.0005165748298168182,0.001514434814453125,0.001716618637494611,-0.01087147336369178,0.0379566218679104
0.0024365028366446495,0.02970387041568756,9.856996536254883,-0.009299345314502716,-0.003952234983444214,-0.0034332275390625,0.001716618637494611,0.06243697367848152,-0.01621245117596366
0.004548777360469103,0.034494828432798386,9.859107971191406,0.00031247781589627266,0.00020425394177436829,0.005867958068847656,0.001716618637494611,-0.036322412397598904,-0.01621245117596366
0.009809130802750587,0.035387247800827026,9.85445785522461,0.005388183053582907,0.00006891041994094849,-0.0038280487060546875,0.013085708634818843,0.007363637616361325,0.022084467858570767
0.003654930042102933,0.03846434876322746,9.856571197509766,0.005330265965312719,0.0004143230617046356,0.0009822845458984375,-0.048853635069817006,0.0064593846032751055,-0.01621245117596366
0.0020120516419410706,0.03846292197704315,9.84781265258789,-0.003974495455622673,0.004955042153596878,-0.008563041687011719,0.001716618637494611,0.03606361226107889,-0.01621245117596366
0.005015323404222727,0.031491558998823166,9.85267448425293,0.0008284016512334347,-0.004208598285913467,-0.0036602020263671875,-0.05931848539426824,-0.053653297044992235,0.09447049418477521
0.009055819362401962,0.03195667639374733,9.849242210388184,0.0008593401871621609,-0.003979381173849106,-0.008176803588867188,-0.030618510749550677,-0.0040054523809629075,-0.01621245117596366
0.008984840475022793,0.02970387041568756,9.84917163848877,0.005721192341297865,-0.004094120115041733,-0.0032749176025390625,0.0905474443008888,-0.037244834781094416,0.07261837782248384
0.005727966781705618,0.033957306295633316,9.852855682373047,0.0009076879359781742,0.0007696300745010376,-0.0031881332397460938,0.001716618637494611,0.043333948426160784,-0.023060306123336545
0.011127423495054245,0.034494828432798386,9.851780891418457,0.001072743907570839,0.0006562620401382446,-0.0032291412353515625,0.10595600422289378,0.0019381462182704542,0.03293543564701263
0.01041620783507824,0.02970387041568756,9.85413646697998,0.005440826062113047,-0.00404202938079834,-0.003009796142578125,-0.02930996923453788,0.05702965165079994,-0.04723903904799615
0.006803013384342194,0.02970387041568756,9.85545539855957,0.0006512938998639584,-0.003622438758611679,0.006259918212890625,0.012585770804085645,0.021077536891836224,-0.01621245117596366
0.006803013384342194,0.04217882826924324,9.856571197509766,0.0005456907674670219,0.0056578293442726135,0.0014352798461914062,0.001716618637494611,-0.02818418864067582,0.0690013857804588
0.01159396767616272,0.03903217986226082,9.851780891418457,0.005059858784079552,0.0054681189358234406,-0.0032472610473632812,-0.0015142476029065379,0.050567919169997644,-0.012981581600509206
0.0020120516419410706,0.02527817152440548,9.860997200012207,-0.0043373508378863335,-0.00906667672097683,0.006373405456542969,0.06275172266925746,-0.1214224606702852,-0.01621245117596366
0.0021236264146864414,0.03438325226306915,9.851669311523438,0.0005071335472166538,-0.003316737711429596,-0.007523536682128906,0.061330296269954336,-0.06219770361411951,-0.014791028111713843
0.0052701979875564575,0.037752971053123474,9.859829902648926,0.0007820529863238335,0.005898263305425644,0.006871223449707031,0.06275172266925746,0.03750214081373349,0.04727522771141598
0.0020120516419410706,0.0329313799738884,9.853394508361816,-0.0039331321604549885,-0.0036721937358379364,-0.0029249191284179688,-0.05867759487062419,-0.06504055641272576,-0.01621245117596366
0.008345662616193295,0.03295217826962471,9.848532676696777,0.005172285251319408,-0.003732379525899887,-0.0028676986694335938,0.001716618637494611,0.015647376419117415,0.025169835728405438
0.006803013384342194,0.03928578644990921,9.851678848266602,0.00040803663432598114,0.005728408694267273,-0.0024433135986328125,-0.05931848539426824,-0.0040054523809629075,-0.014916336069567793
0.006803013384342194,0.02970387041568756,9.851780891418457,-0.00018919305875897408,-0.0032783783972263336,-0.0021343231201171875,-0.05931848539426824,-0.11946977361960202,-0.01621245117596366
0.009776736609637737,0.03267759457230568,9.851780891418457,-0.0005754297599196434,-0.0031072422862052917,-0.001781463623046875,0.024867518148826383,-0.01873875739006221,0.02167175667952072
0.004914675373584032,0.03159220889210701,9.846989631652832,-0.0005230107344686985,-0.003350038081407547,-0.006885528564453125,0.0498300986570776,-0.12607568712491504,-0.01621245117596366
0.008061244152486324,0.034494828432798386,9.857829093933105,-0.0008542565628886223,0.0009985603392124176,0.0026521682739257812,-0.043289058608666456,-0.04901111628691075,-0.07724755854277982
0.009219625033438206,0.034494828432798386,9.869756698608398,-0.0053304038010537624,0.00130496546626091,0.011805534362792969,0.017379309621391663,-0.06504055641272576,-0.0010883079349195512
0.0015549181262031198,0.034951962530612946,9.860447883605957,-0.005382997449487448,0.0009678229689598083,0.006152153015136719,-0.05931848539426824,-0.0040054523809629075,-0.01621245117596366
0.0025401648599654436,0.034494828432798386,9.852309226989746,-0.00527958432212472,0.0007660947740077972,-0.0033550262451171875,-0.005011357818805957,0.009450500531638229,-0.022940420962157617
-0.0003825361782219261,0.03868669643998146,9.855972290039062,-0.01008582767099142,0.0054734572768211365,0.0014934539794921875,-0.05931848539426824,-0.0040054523809629075,-0.06961534241360626
0.007107173092663288,0.0316431038081646,9.856571197509766,-0.0055801537819206715,0.005534108728170395,0.0015821456909179688,0.06275172266925746,-0.032585525189235014,0.016242568374840515
0.009279592894017696,0.03433262184262276,9.86136245727539,0.003726300783455372,-0.003796525299549103,0.0062007904052734375,-0.029834159572909916,-0.09452490891451053,-0.01621245117596366
0.002844328759238124,0.031368423253297806,9.853445053100586,-0.005595999304205179,-0.004128497093915939,-0.00377655029296875,0.001716618637494611,0.006597455810129856,-0.01621245117596366
0.006803013384342194,0.037763193249702454,9.856571197509766,-0.0004242667928338051,-0.0035276897251605988,0.00102996826171875,-0.04961983021626169,-0.0040054523809629075,-0.05785023484655351
0.009827951900660992,0.03361181914806366,9.856571197509766,0.004304495174437761,0.0010167993605136871,0.0009174346923828125,0.06275172266925746,-0.10357725744230462,0.033573444684600585
0.004539366811513901,0.03475849702954292,9.856571197509766,-0.004770031664520502,-0.003705117851495743,0.000843048095703125,-0.0016424203715500584,-0.03620253724157989,0.015984623679493406
0.006803013384342194,0.0338754877448082,9.848228454589844,-0.0000973166897892952,0.0012576393783092499,-0.008562088012695312,-0.051428322902220915,0.003884723451297643,-0.06935739605073249
0.006803013384342194,0.030252231284976006,9.852877616882324,-0.00014743581414222717,0.0012508891522884369,0.005949974060058594,0.0487798770309088,-0.058054633593551425,0.03783673670673147
0.0031079973559826612,0.03079981543123722,9.855475425720215,-0.004752825014293194,-0.003198765218257904,0.001155853271484375,0.001716618637494611,-0.0040054523809629075,0.030860702320608453
0.01159396767616272,0.02970387041568756,9.854520797729492,0.004342502448707819,-0.0033177919685840607,0.0012845993041992188,0.06275172266925746,-0.03013073919327656,-0.042337737988277314
0.004823283292353153,0.034494828432798386,9.848969459533691,-0.005112119019031525,0.0016559362411499023,-0.0031280517578125,-0.023504415161732826,0.09284372188333535,0.04482265285579919
0.011258567683398724,0.025248315185308456,9.860020637512207,0.0047574397176504135,-0.00781688280403614,0.0071544647216796875,0.005989488932719385,0.0002674179142618664,-0.07297467490734182
0.006538717541843653,0.03396623581647873,9.856042861938477,0.00038738222792744637,0.002028360962867737,0.0025529861450195312,0.001716618637494611,-0.05493945368221737,-0.01621245117596366
0.015805348753929138,0.03889940306544304,9.851780891418457,-0.004784497432410717,-0.0023296400904655457,-0.0021123886108398438,-0.003205759959116063,-0.06504055641272576,-0.01621245117596366
0.005351814441382885,0.02970387041568756,9.854682922363281,-0.00020395033061504364,-0.0025920532643795013,-0.0017566680908203125,0.001716618637494611,-0.06504055641272576,-0.01621245117596366
0.0037074240390211344,0.026608284562826157,9.851780891418457,-0.0052589005790650845,-0.0071106236428022385,-0.0020656585693359375,0.001716618637494611,-0.06504055641272576,-0.01621245117596366
0.006803013384342194,0.03132813796401024,9.856571197509766,-0.0009952643886208534,0.0028659217059612274,0.0030698776245117188,-0.05931848539426824,-0.06504055641272576,0.02517270887682827
0.0020321742631495,0.034494828432798386,9.842218399047852,-0.005565086845308542,0.00241774320602417,-0.01110076904296875,0.001716618637494611,0.0567733061135129,0.04456629731335223
0.006803013384342194,0.033032894134521484,9.854907035827637,-0.0007434575818479061,0.007490191608667374,-0.0012378692626953125,-0.08052376816792486,0.035824368877143326,-0.03741773394962028
0.005483283661305904,0.028384145349264145,9.848725318908691,-0.0047698295675218105,-0.00653914175927639,-0.005888938903808594,0.0795645534763612,0.012807378426140823,-0.03832358111818661
0.006803013384342194,0.03111482411623001,9.851780891418457,0.000002589542418718338,-0.001728452742099762,-0.00110626220703125,0.001716618637494611,0.021079564604246072,-0.04129747483127925
0.006803013384342194,0.03583467751741409,9.850440979003906,0.00007561780512332916,0.0075071752071380615,-0.005771636962890625,-0.04224929570966424,-0.04797135338790854,-0.01621245117596366
0.0071075535379350185,0.030008411034941673,9.847293853759766,0.000324479304254055,-0.002280857414007187,-0.0055370330810546875,0.001716618637494611,-0.061160822201173394,-0.01621245117596366
0.006803013384342194,0.03254593536257744,9.849831581115723,-0.00015752390027046204,-0.0025733374059200287,-0.0051975250244140625,-0.05931848539426824,-0.10124746924424269,-0.01621245117596366
0.009574095718562603,0.03928578644990921,9.84900951385498,0.004772366490215063,0.006882704794406891,-0.005279541015625,0.001716618637494611,-0.09077305398691078,0.04482265285579919
0.003138831816613674,0.03083064965903759,9.8492431640625,-0.004596149083226919,-0.0031922422349452972,-0.005222320556640625,0.09507730046363531,0.010349310737729595,-0.001857681387164547
0.0020120516419410706,0.03181546926498413,9.85389232635498,-0.0040452308021485806,0.006527777761220932,0.0089263916015625,-0.07276900884008775,0.030128604759160932,0.05827317296656539
0.006214507855474949,0.035671837627887726,9.848166465759277,0.0007575596682727337,0.0019099749624729156,-0.005118370056152344,0.05525438943597843,0.0034918808523161284,-0.01621245117596366
0.006803013384342194,0.030029209330677986,9.849222183227539,0.001065579243004322,-0.008089693263173103,-0.0005369186401367188,0.03430651941666666,0.02443975087162789,-0.04465766109866107
0.004315842874348164,0.02970387041568756,9.856571197509766,-0.0034514800645411015,-0.0030272454023361206,0.0040531158447265625,0.001716618637494611,-0.03569110014704874,-0.013876266345661456
0.0028549155686050653,0.03533769026398659,9.855728149414062,-0.003558212425559759,0.0015279687941074371,0.0037508010864257812,0.001716618637494611,-0.054302778665951686,-0.01621245117596366
0.006031128577888012,0.034494828432798386,9.85255241394043,-0.0030121617019176483,0.0017407946288585663,0.0033578872680664062,-0.00811690609619324,-0.055207031679037906,0.0034546132991519155
0.006803013384342194,0.0368400402367115,9.851780891418457,0.0015192674472928047,0.0013630390167236328,-0.001316070556640625,0.031593760377408006,-0.0040054523809629075,-0.01621245117596366
0.004528780002146959,0.03222059831023216,9.851780891418457,-0.003031203057616949,-0.0031974241137504578,-0.0014200210571289062,-0.05931848539426824,0.02496746302629071,-0.048274653140686116
0.003901764517650008,0.030963679775595665,9.844088554382324,0.011042722500860691,0.006111200898885727,0.0033521652221679688,-0.05129372015080406,-0.0040054523809629075,0.04482265285579919
0.006803013384342194,0.034494828432798386,9.852795600891113,0.0011700675822794437,0.001486208289861679,-0.0010404586791992188,-0.046394313401362845,-0.039192212426914966,0.03189848086289379
0.006803013384342194,0.032362744212150574,9.85870361328125,0.0011077080853283405,0.001545153558254242,0.0032205581665039062,-0.025445389505206487,-0.03787854827002466,-0.01621245117596366
0.004073033109307289,0.02970387041568756,9.85863208770752,0.0007353043183684349,-0.002709336578845978,0.007660865783691406,-0.024539535666533545,-0.06504055641272576,-0.01621245117596366
0.011177376843988895,0.03053705208003521,9.852197647094727,0.00055705476552248,0.006657682359218597,0.002765655517578125,0.05744450560159888,-0.0040054523809629075,-0.01621245117596366
0.012821764685213566,0.03805798664689064,9.857799530029297,0.005163275171071291,0.006346363574266434,0.0025930404663085938,-0.013925101531216387,0.011636267787748091,-0.0005707376773592735
0.00488424114882946,0.03641359880566597,9.853699684143066,0.0004394976422190666,0.0011479556560516357,-0.0023365020751953125,0.02616109194460333,-0.01630374159009977,0.08141329358561324
0.002286433707922697,0.034494828432798386,9.86136245727539,-0.0043805488385260105,0.001078970730304718,0.0066585540771484375,-0.05232742659300318,-0.11908461498343677,-0.01621245117596366
0.011187412776052952,0.03887923061847687,9.856571197509766,-0.004637005738914013,-0.003607872873544693,0.0015354156494140625,0.06016204043719126,0.05185028718666754,0.09808870685631013
0.013502701185643673,0.035935938358306885,9.855130195617676,0.009301104582846165,0.0012122727930545807,0.0012426376342773438,0.04439246766495408,-0.02236470738526628,0.02646340118654912
0.006803013384342194,0.03140932694077492,9.856897354125977,-0.0006853891536593437,-0.0034861788153648376,-0.00368499755859375,-0.0024290393844386754,0.01772145941012699,-0.05552063007642339
0.00516865961253643,0.03286047652363777,9.853415489196777,-0.0050514438189566135,-0.003142818808555603,-0.0033826828002929688,0.000938617402347846,-0.0040054523809629075,-0.07646957064784628
0.006803013384342194,0.034494828432798386,9.856571197509766,-0.00025318749248981476,0.0013141743838787079,0.0009603500366210938,0.0018444712410207872,-0.0647848512056734,-0.016084591902330872
0.006630693096667528,0.034494828432798386,9.856571197509766,0.004572493489831686,0.00102914497256279,0.0008840560913085938,0.060556457181333054,0.03595286181090419,0.08478096371261298
0.005310868378728628,0.035986971110105515,9.86136245727539,0.000037583522498607635,-0.0036088377237319946,0.005046844482421875,-0.06332544521932532,-0.023014829336460426,0.0027969324496404705
0.005381972994655371,0.041234664618968964,9.851252555847168,-0.004681979771703482,0.0013608261942863464,0.0051479339599609375,-0.023111412480192637,-0.06504055641272576,0.02671911806628804
0.011147268116474152,0.034494828432798386,9.856794357299805,0.004827342461794615,0.0010842718183994293,0.0006895065307617188,0.004562006076613165,-0.006850839820081461,-0.01621245117596366
0.006803013384342194,0.03636256605386734,9.858439445495605,-0.00019747810438275337,0.0055165402591228485,0.005152702331542969,0.02551094331298274,-0.05159412841236562,-0.005864567841048893
0.009655125439167023,0.03164271265268326,9.860337257385254,0.004037138540297747,-0.00402427464723587,0.009641647338867188,0.026416797151655683,-0.0040054523809629075,-0.01621245117596366
0.002783288946375251,0.02970387041568756,9.854561805725098,-0.0013885917142033577,-0.004186265170574188,0.0003032684326171875,0.027321557092844364,-0.0040054523809629075,0.019217721070556047
0.005666222423315048,0.02970387041568756,9.849263191223145,-0.0010954784229397774,-0.0036496110260486603,-0.009173393249511719,-0.012765676919606722,-0.09711109601071238,-0.0017301456137024096
0.01108645275235176,0.03877827152609825,9.860855102539062,0.0037601543590426445,0.005829766392707825,0.0050296783447265625,-0.05931848539426824,-0.0040054523809629075,-0.009746890053966452
0.006803013384342194,0.034494828432798386,9.852359771728516,-0.0012441063299775124,0.0010433867573738098,-0.004446983337402344,0.05538192187438726,0.06439945244567015,0.04482265285579919
0.006803013384342194,0.03928578644990921,9.859139442443848,-0.0010786838829517365,0.00541454553604126,0.00005054473876953125,0.030034289451676577,0.0003943100224360096,-0.01621245117596366
0.0043058316223323345,0.034494828432798386,9.866153717041016,-0.005880875512957573,0.0009525343775749207,0.0091094970703125,0.001716618637494611,-0.006596708758189385,0.015600730696057658
0.01159396767616272,0.0314096175134182,9.865301132202148,0.0036497758701443672,-0.004142463207244873,0.008520126342773438,0.012581928822677512,-0.043309936042359956,-0.10568671867878074
0.01159396767616272,0.03371293470263481,9.857353210449219,0.0034147752448916435,-0.003955435007810593,0.0032138824462890625,-0.05931848539426824,-0.0040054523809629075,-0.006251383998707061
0.006803013384342194,0.03842337056994438,9.86136245727539,-0.0012169554829597473,0.005589321255683899,0.0029935836791992188,0.001716618637494611,0.006981413827105065,-0.05527384947201701
0.01159396767616272,0.029926519840955734,9.859078407287598,0.0035091908648610115,0.0010544434189796448,0.002803802490234375,0.004553094814180414,-0.0040054523809629075,-0.048148241280187985
-0.0005658543668687344,0.0322817787528038,9.86357593536377,-0.005362722557038069,-0.003703795373439789,0.007039070129394531,-0.026476854791584195,0.0523814944771947,-0.01621245117596366
0.002580713015049696,0.02970387041568756,9.855433464050293,-0.005275641568005085,-0.0031455382704734802,-0.0022611618041992188,-0.05931848539426824,-0.06504055641272576,-0.023456987368672886
0.010101298801600933,0.034494828432798386,9.860864639282227,-0.010017231106758118,0.0018787011504173279,-0.0025272369384765625,0.05641304031522117,-0.05236316502422674,0.038483960496602986
0.006803013384342194,0.030556773766875267,9.864447593688965,-0.0009679957292973995,0.00628802552819252,-0.011631011962890625,-0.00371623655829518,-0.0040054523809629075,-0.01621245117596366
0.008020949549973011,0.034494828432798386,9.856571197509766,-0.0008917795494198799,0.0017002560198307037,-0.0019464492797851562,0.001716618637494611,-0.06504055641272576,-0.0006963658003305676
0.0020120516419410706,0.035428524017333984,9.859434127807617,-0.005884903483092785,0.006391562521457672,0.0030460357666015625,0.001716618637494611,-0.0040054523809629075,-0.028107379027992926
0.007584632374346256,0.034494828432798386,9.86136245727539,0.008013470098376274,0.0016192123293876648,0.0029687881469726562,-0.045611856534999703,-0.10241142952834806,0.06848689377709966
0.011167691089212894,0.03885950893163681,9.85678482055664,0.0032226042822003365,0.0061962902545928955,-0.002132415771484375,-0.000998701722702802,-0.11521445904497829,-0.01349714415597947
0.011451934464275837,0.02984590455889702,9.852065086364746,-0.0010650986805558205,0.001298408955335617,0.0027561187744140625,-0.055699565691432515,0.05702965165079994,-0.01621245117596366
0.0035144081339240074,0.03149011731147766,9.86286449432373,-0.0058294497430324554,0.0019446313381195068,0.0029582977294921875,-0.017422852077350493,0.015134018333882199,-0.03535192189080877
0.006803013384342194,0.02970387041568756,9.86136245727539,-0.0010545216500759125,-0.002070896327495575,0.0026454925537109375,-0.05931848539426824,-0.023147164251629423,-0.03535415637652357
0.006803013384342194,0.034494828432798386,9.866153717041016,-0.0009901504963636398,0.002873145043849945,0.007151603698730469,0.001716618637494611,-0.0049180030066736345,-0.01621245117596366
0.01159396767616272,0.034494828432798386,9.86136245727539,0.0031652944162487984,0.0025290921330451965,0.0021162033081054688,0.001716618637494611,-0.06504055641272576,-0.01621245117596366
0.0037277217488735914,0.03313520923256874,9.86922836303711,-0.0014310292899608612,0.007135007530450821,0.006541252136230469,-0.037461479843830754,0.05702965165079994,0.005644559377053782
0.005016238894313574,0.034494828432798386,9.856571197509766,-0.001327652484178543,0.0021774396300315857,-0.002590179443359375,0.06275172266925746,-0.0040054523809629075,-0.038975310565074084
0.006803013384342194,0.031063666567206383,9.86136245727539,-0.0009637996554374695,-0.0030473507940769196,0.0020885467529296875,0.06275172266925746,-0.013070607513450768,0.001110866235479105
0.0022966451942920685,0.034779421985149384,9.856571197509766,-0.0056626275181770325,0.0012424997985363007,-0.002353668212890625,0.001716618637494611,-0.00037982255087617783,-0.012586834686090153
0.007158711086958647,0.02970387041568756,9.861006736755371,-0.00041543086990714073,-0.003491971641778946,0.0022411346435546875,0.001716618637494611,0.0005260046073703179,-0.06818463122590014
0.008012310601770878,0.034494828432798386,9.856571197509766,-0.005091244354844093,0.001082736998796463,-0.0024728775024414062,0.027197012862197414,-0.06504055641272576,-0.05176716098302371
0.006803013384342194,0.03564131259918213,9.856571197509766,-0.0005605509504675865,0.0007575787603855133,-0.0022096633911132812,0.04814595009856699,0.025206092760418033,0.04482265285579919
0.006803013384342194,0.031854625791311264,9.858721733093262,-0.00030473247170448303,0.005453191697597504,0.0073375701904296875,0.04905180393723993,-0.0040054523809629075,0.031122724118621745
0.007309375796467066,0.03235253319144249,9.857077598571777,-0.004988561850041151,-0.004027951508760452,-0.006850242614746094,0.001716618637494611,0.029737576429177702,0.05127357976389112
0.006803013384342194,0.02970387041568756,9.859514236450195,-0.00014423253014683723,-0.004116453230381012,0.007350921630859375,0.001716618637494611,-0.008647526417338606,-0.020854528547392663
0.006803013384342194,0.03741905838251114,9.853647232055664,-0.00015800679102540016,-0.0037911459803581238,0.0027332305908203125,-0.047427753039297506,-0.01589617139572042,-0.11450121120481442
0.01159396767616272,0.03857484459877014,9.860651016235352,0.004142416175454855,0.005770046263933182,0.002811431884765625,0.010773769642048863,0.08183617834477223,-0.007155310176569325
0.013949212618172169,0.02970387041568756,9.863798141479492,0.008268870413303375,-0.0036295950412750244,0.0026311874389648438,0.002741707301951876,-0.03503556206928619,0.01379255484016248
0.002803458133712411,0.02970387041568756,9.856571197509766,-0.0010719457641243935,0.0013725049793720245,0.0024843215942382812,0.09366097002578325,0.026120404294274154,-0.01621245117596366
0.006803013384342194,0.04263588786125183,9.856571197509766,-0.001229405403137207,0.0010605007410049438,-0.0023784637451171875,0.001716618637494611,-0.0040054523809629075,-0.007034467855091668
0.007726890966296196,0.03264707326889038,9.852705001831055,-0.001126759685575962,0.00036260858178138733,-0.006911277770996094,0.07452160603264392,-0.015775335744349372,-0.01621245117596366
0.002357464749366045,0.034494828432798386,9.858794212341309,-0.010590648278594017,0.00025198236107826233,0.0027103424072265625,0.06275172266925746,0.024311898268101716,0.012104904475680921
0.011015546508133411,0.02606975845992565,9.864996910095215,0.0036410512402653694,-0.009288711473345757,0.007458686828613281,-0.04458069807352612,0.049660757990428885,0.03008487220516368
0.007868980057537556,0.030769838020205498,9.862428665161133,-0.000947907567024231,-0.0041957758367061615,0.0025777816772460938,0.001716618637494611,-0.05857751659102764,0.04482265285579919
0.008883613161742687,0.02907411754131317,9.858652114868164,-0.0010945871472358704,-0.009019760414958,-0.0024776458740234375,0.028222741856889368,-0.0040054523809629075,-0.04271858106546503
0.01035643182694912,0.034494828432798386,9.863371849060059,-0.005102851893752813,0.00047369301319122314,0.007105827331542969,-0.08491876811520328,0.08262992103152175,-0.05164727248679147
0.006803013384342194,0.038920678198337555,9.860997200012207,-0.00061781145632267,0.0005810335278511047,-0.0024013519287109375,-0.0500157810849241,0.0006459064438157761,0.040171300701127115
0.005523731466382742,0.027471475303173065,9.861688613891602,-0.0005468069575726986,-0.008610090240836143,-0.0026531219482421875,0.06275172266925746,-0.0040054523809629075,-0.04465239171443811
0.006803013384342194,0.03343844786286354,9.857627868652344,-0.0005238326266407967,0.005650229752063751,-0.0078582763671875,-0.04586055813011015,-0.017463379645121,0.04482265285579919
0.0020120516419410706,0.034494828432798386,9.856794357299805,-0.005118161905556917,0.0006781406700611115,-0.0031185150146484375,0.06275172266925746,-0.05936122743743371,-0.019052108993503073
0.006803013384342194,0.035916317254304886,9.859940528869629,-0.00022203335538506508,0.000971820205450058,0.0017919540405273438,-0.05931848539426824,0.05702965165079994,-0.01621245117596366
0.01159396767616272,0.03890150412917137,9.859637260437012,0.004527611657977104,0.010503891855478287,0.0017251968383789062,-0.05442289394580871,0.017971455005920036,-0.05527065449095018
0.002092741895467043,0.03457551822066307,9.85665225982666,-0.004590051714330912,0.0009287334978580475,-0.0031986236572265625,0.060695782368230734,0.11600881538153607,0.04379468937539244
0.006803013384342194,0.03448524326086044,9.85658073425293,0.00034727202728390694,-0.003293335437774658,0.0014247894287109375,0.001716618637494611,-0.0040054523809629075,0.04482265285579919
0.010072617791593075,0.03286002576351166,9.859841346740723,0.00048546213656663895,0.0012004077434539795,-0.0033922195434570312,0.022543439562023766,-0.00545081112278752,-0.0370392654303862
0.008314778096973896,0.031215636059641838,9.864642143249512,0.004409531597048044,0.0010967105627059937,0.0011606216430664062,-0.017542753913795953,-0.023264824932253472,-0.01621245117596366
0.009888061322271824,0.03928578644990921,9.864773750305176,0.0042741200886666775,0.0010309778153896332,0.005314826965332031,0.00002705395241559738,0.11468559963197832,-0.13659308454925043
0.006803013384342194,0.034494828432798386,9.86136245727539,-0.0007769232615828514,0.001130666583776474,0.00035858154296875,0.001716618637494611,0.05702965165079994,-0.00045436099225790877
-0.0027789026498794556,0.03791622817516327,9.864784240722656,-0.00985695980489254,0.005825523287057877,0.004852294921875,-0.04187082052032356,-0.09118035737702569,-0.01621245117596366
0.0022868842352181673,0.034494828432798386,9.86587905883789,-0.005125101190060377,0.0010689422488212585,0.004714012145996094,0.001716618637494611,-0.0110079971058127,-0.01621245117596366
0.013513187877833843,0.034494828432798386,9.866153717041016,0.008447123691439629,0.0008422844111919403,0.004459381103515625,0.026166828236289085,-0.02845566197975738,0.008237748417670896
0.009139272384345531,0.026140261441469193,9.86971664428711,0.0036254972219467163,-0.008516857400536537,0.008629798889160156,0.001716618637494611,-0.019641436257988153,0.09022178301569671
0.012750210240483284,0.02970387041568756,9.870944023132324,0.008249567821621895,-0.0035648122429847717,0.008464813232421875,0.001716618637494611,-0.0040054523809629075,-0.07724755854277982
0.006134912371635437,0.034494828432798386,9.86136245727539,0.003619040362536907,0.0013430826365947723,-0.0012788772583007812,-0.03305659479855433,0.05702965165079994,-0.01621245117596366
0.002537943422794342,0.03183640539646149,9.8682861328125,-0.001080075278878212,-0.0034441277384757996,0.0031414031982421875,0.06275172266925746,-0.010705067543952056,0.01095528658831658
0.007817046716809273,0.034494828432798386,9.86136245727539,0.004047986585646868,0.0013340972363948822,-0.002155303955078125,-0.011201803723511811,-0.029842323783402194,0.05774108522196553
0.0026424070820212364,0.02970387041568756,9.865523338317871,-0.005666600074619055,-0.003578566014766693,0.0026035308837890625,0.06275172266925746,0.004025035813973803,0.03679215465570256
0.004286797251552343,0.02970387041568756,9.86112117767334,-0.005355166271328926,-0.0036548487842082977,-0.00705718994140625,0.06275172266925746,0.024973973050343382,-0.01621245117596366
0.010722143575549126,0.030575694516301155,9.867025375366211,0.004470823798328638,-0.0037750080227851868,0.0022516250610351562,-0.02049686409067936,-0.04282707368455179,0.03371591482676551
0.0027846163138747215,0.034494828432798386,9.866153717041016,-0.004778415430337191,0.0008920319378376007,0.00206756591796875,0.001716618637494611,-0.0040054523809629075,-0.05756316679821463
0.006803013384342194,0.036868833005428314,9.868570327758789,0.00008401693776249886,0.0006594881415367126,0.006253242492675781,-0.02852736562582929,-0.0034583168758478625,0.015125817437803555
0.0027416683733463287,0.03376521170139313,9.874276161193848,-0.004605483263731003,0.0008232928812503815,0.010407447814941406,0.001716618637494611,-0.05574549604555821,-0.025507498202917984
0.007461571134626865,0.031020985916256905,9.866811752319336,0.005036534741520882,0.005761828273534775,0.005261421203613281,-0.006673174860381794,0.05702965165079994,-0.01621245117596366
0.004243937786668539,0.03226294368505478,9.873503684997559,-0.004157414194196463,0.0011361874639987946,0.009617805480957031,0.005884901661053564,0.05286136862724099,0.016389239016643936
-0.00014885196287650615,0.032333921641111374,9.863992691040039,-0.00892830453813076,-0.0034119822084903717,-0.0051326751708984375,-0.03178931456303929,-0.03153460987197863,-0.01621245117596366
0.006803013384342194,0.034494828432798386,9.870944023132324,0.000680951401591301,0.0015338435769081116,0.00409698486328125,0.04958912104542308,-0.0040054523809629075,-0.01621245117596366
0.010466263629496098,0.034494828432798386,9.868688583374023,0.0056900219060480595,0.0013325102627277374,0.00363922119140625,0.06275172266925746,0.04266309578361859,0.0771246284779328
0.004031000658869743,0.03651377558708191,9.872962951660156,-0.0039734868332743645,0.0007638446986675262,0.0034933090209960938,0.001716618637494611,0.021715225764306827,0.009508221966726117
0.006053729448467493,0.03007851168513298,9.866528511047363,0.0013143778778612614,-0.004060588777065277,-0.0014476776123046875,0.001716618637494611,0.05225684352484197,0.04482265285579919
0.00485504325479269,0.02970387041568756,9.870049476623535,0.0015593627467751503,-0.0036428160965442657,-0.0016269683837890625,-0.05931848539426824,0.05702965165079994,0.008603973956219856
0.00013506376126315445,0.034494828432798386,9.86990737915039,-0.008204637095332146,0.0008806474506855011,0.007361412048339844,-0.011494141156073645,-0.04112838429362846,-0.01621245117596366
0.006803013384342194,0.02970387041568756,9.870711326599121,0.0016087386757135391,-0.0038597024977207184,-0.0021696090698242188,0.05978742056947193,0.001923178499034606,0.041858344085907044
0.0006004240131005645,0.02914780005812645,9.872355461120605,-0.0031706877052783966,-0.008444247767329216,0.0022134780883789062,0.06983588281860362,0.02106235572918881,-0.01621245117596366
0.003333132481202483,0.031438812613487244,9.869623184204102,-0.007790197152644396,0.0011067278683185577,0.0064373016357421875,0.001716618637494611,-0.0040054523809629075,0.04482265285579919
0.006803013384342194,0.034494828432798386,9.87573528289795,0.0013437224552035332,0.0008514933288097382,0.006122589111328125,-0.05701130885761876,-0.06504055641272576,0.04366906125242114
0.008486292324960232,0.037731949239969254,9.874052047729492,0.005728557240217924,0.005405336618423462,0.0012226104736328125,-0.05931848539426824,0.07847407108668635,-0.07724755854277982
0.005210280884057283,0.028111139312386513,9.869351387023926,0.0011873370967805386,-0.0035399645566940308,0.0009765625,-0.039027647556599966,-0.024458880737389214,-0.01621245117596366
0.0036369950976222754,0.03132881224155426,9.864612579345703,0.001136409118771553,0.0014053024351596832,0.00118255615234375,-0.038617302597870294,-0.02470663517736085,0.004488736623014242
0.008550714701414108,0.031225496903061867,9.874213218688965,0.005963730625808239,-0.003470946103334427,0.005871772766113281,-0.0011635333972822503,-0.026270588414735098,0.06420763351974121
0.006803013384342194,0.031154392287135124,9.86949348449707,0.0017254003323614597,0.0014396458864212036,-0.0036916732788085938,0.044272592508935074,0.01447367777935948,-0.04028928154686851
0.010337312705814838,0.037518635392189026,9.87573528289795,0.010878890752792358,0.0011128000915050507,0.005537986755371094,0.024229509111238435,0.012003897383738738,0.02881330642615085
0.008641268126666546,0.034494828432798386,9.873896598815918,0.0012623229995369911,0.0012769028544425964,0.005074501037597656,-0.012481023449861153,0.03361093401880962,0.04482265285579919
0.006803013384342194,0.03318651393055916,9.87442684173584,0.001075900625437498,0.0011600218713283539,0.0046596527099609375,0.046084273505854506,-0.0040054523809629075,-0.01621245117596366
0.006803013384342194,0.0332576185464859,9.87573528289795,0.0008451025933027267,-0.003318239003419876,0.0045413970947265625,0.03122853201979744,0.10230316035783278,-0.01621245117596366
0.007633037865161896,0.034494828432798386,9.873754501342773,-0.0037359469570219517,0.0013478323817253113,-0.000484466552734375,-0.03408806008493204,0.021224972928373297,0.05539691627404955
0.006803013384342194,0.03244325891137123,9.872995376586914,0.0011088228784501553,0.0015132501721382141,-0.0005521774291992188,-0.09421732361823516,0.030893399183217245,0.04482265285579919
0.01159396767616272,0.02970387041568756,9.868343353271484,0.005427786149084568,-0.002954196184873581,0.004025459289550781,0.001716618637494611,-0.0040054523809629075,0.05877255717844985
0.010495188646018505,0.034494828432798386,9.871493339538574,0.004841713234782219,0.0018543042242527008,-0.0005617141723632812,-0.05931848539426824,-0.11907666421635604,-0.01621245117596366
0.004609233234077692,0.02970387041568756,9.87573528289795,-0.000048279762268066406,-0.0028658397495746613,0.003887176513671875,0.001716618637494611,-0.09812772697998647,0.022013879787829604
