Accelerometer_Gx,Accelerometer_Gy,Accelerometer_Gz,Accelerometer_X,Accelerometer_Y,Accelerometer_Z,Gyroscope_Z,Gyroscope_X,Gyroscope_Y
0.010739580728113651,0.034494828432798386,9.86136245727539,0.026185354217886925,0.008930038660764694,0.030182838439941406,-0.06886794362759231,0.12207026142437859,0.032221447425014905
0.007737947162240744,0.034494828432798386,9.858441352844238,0.02170504257082939,0.005987539887428284,0.02427387237548828,-0.08328623284165122,-0.12207018138309926,-0.017929059808298353
0.01159396767616272,0.02544340118765831,9.856571197509766,0.01842416450381279,-0.00419662706553936,0.010588645935058594,0.00980999259756304,0.04076048789337336,0.09062469747566135
0.010391078889369965,0.034494828432798386,9.865551948547363,0.015314976684749126,0.0044707078486680984,0.017365455627441406,-0.0960318861012107,0.00766224494913782,-0.01026687155506673
0.010921544395387173,0.03382240608334541,9.856571197509766,0.01368048507720232,0.0037658624351024628,0.006276130676269531,-0.04085046763156035,-0.03533574354722296,-0.07039772590879667
0.009277240373194218,0.034337326884269714,9.86136245727539,0.008004219271242619,0.00813429243862629,0.0098724365234375,0.0030517605376734315,0.09255594680369568,-0.047443361088768045
0.0020120516419410706,0.034494828432798386,9.858959197998047,0.0028420230373740196,0.0026357509195804596,0.0040111541748046875,0.0032497559823244653,0.12207026142437859,0.012687494932488547
0.004344324581325054,0.02970387041568756,9.861489295959473,0.007131969556212425,-0.0020534954965114594,0.00299072265625,0.03437455450410234,-0.001610430540242069,-0.017929059808298353
0.006803013384342194,0.03422645479440689,9.858832359313965,0.00628950260579586,0.007355097681283951,0.006641387939453125,-0.029175286441841693,0.028808110413100618,0.010879000579002677
0.002629038877785206,0.033877842128276825,9.85718822479248,0.000962082645855844,0.002718307077884674,0.0015239715576171875,-0.05012315646115346,5.336085289072462e-8,-0.02578925351134093
0.007349020801484585,0.038739778101444244,9.859724044799805,0.00465010292828083,0.0070212408900260925,0.006241798400878906,-0.037115514754113746,5.336085289072462e-8,0.029194156173445174
0.006803013384342194,0.02970387041568756,9.85993766784668,0.003907183185219765,-0.0028589218854904175,-0.008011817932128906,-0.002999947149516538,-0.05498334298371999,0.04310604422346449
0.00241610174998641,0.03928578644990921,9.856571197509766,0.003941903822124004,0.006280973553657532,0.0011157989501953125,-0.002095694136430319,0.005147508034956641,-0.07381670916595745
0.002345122629776597,0.03928578644990921,9.847322463989258,0.0034135000314563513,0.006495364010334015,-0.003945350646972656,-0.1232616491868698,5.336085289072462e-8,0.09565473826308567
0.0020120516419410706,0.038499366492033005,9.865629196166992,-0.001695198006927967,-0.007561670616269112,0.0008411407470703125,-0.00028780176006612323,5.336085289072462e-8,-0.014589484170345576
0.006803013384342194,0.031730666756629944,9.859335899353027,0.003085779258981347,0.0015373080968856812,0.0007572174072265625,0.02887241024083394,5.336085289072462e-8,-0.0003218359790504885
0.005038356874138117,0.028442224487662315,9.854806900024414,0.003110479097813368,-0.007203666493296623,0.00043487548828125,-0.03550226942888169,0.022481140766273843,0.02062496682320346
0.0020120516419410706,0.03139767050743103,9.856281280517578,-0.0012994313146919012,-0.002697352319955826,0.0055408477783203125,-0.018526674680248024,0.039456722174694286,-0.017929059808298353
0.008425960317254066,0.034494828432798386,9.85340404510498,0.007742756046354771,0.0016921721398830414,0.0008029937744140625,-0.03730756046366746,-0.019683484610066044,0.04310604422346449
0.0018773796036839485,0.032808057963848114,9.851780891418457,0.006879234686493874,0.006198100745677948,-0.0037126541137695312,0.04431373372651382,5.336085289072462e-8,-0.017929059808298353
0.011501840315759182,0.029795996844768524,9.851780891418457,0.006921991240233183,-0.003364715725183487,-0.0034465789794921875,0.06408686456943628,-0.05986137871157847,0.04193237893423962
0.00506666349247098,0.03623117879033089,9.84261703491211,0.0016869655810296535,0.0014306791126728058,-0.017271041870117188,-0.05798334349408942,-0.09994970662151381,-0.0789641638400612
0.0034224404953420162,0.02970387041568756,9.853191375732422,-0.003021279349923134,-0.0031943432986736298,-0.0025930404663085938,-0.05798334349408942,0.017967879828776356,-0.0789641638400612
-0.00009983467316487804,0.03181575983762741,9.857343673706055,-0.007732906378805637,0.0016168951988220215,0.0070705413818359375,-0.05798334349408942,-0.03413032188042149,0.07723641946473887
0.008071624673902988,0.034494828432798386,9.846989631652832,0.005883220117539167,0.001473449170589447,-0.00665283203125,0.01921342885695165,-0.12207018138309926,-0.017929059808298353
0.010396335273981094,0.03329719603061676,9.845791816711426,0.0017826422117650509,-0.003263477236032486,-0.010822296142578125,0.048829449263244284,0.10681284611818659,-0.04844931988746398
0.007249685004353523,0.034941501915454865,9.851780891418457,0.0016828663647174835,0.001248672604560852,-0.0011110305786132812,0.06408686456943628,-0.005690401352266873,-0.05620238500822182
0.0020120516419410706,0.030221521854400635,9.851263046264648,-0.003625788725912571,-0.003774702548980713,-0.000965118408203125,0.0030517605376734315,0.04784576862063022,-0.011334368757358899
0.007270054426044226,0.03186582773923874,9.85394287109375,-0.0034212442114949226,0.0012878477573394775,0.004042625427246094,-0.09147588312054775,0.06103515739261574,0.015563484820739932
0.0045700762420892715,0.03226189315319061,9.856571197509766,-0.003215458709746599,-0.003220338374376297,0.0035123825073242188,-0.02539504354050409,0.02844685743903041,0.010517747604932471
0.0069861384108662605,0.02970387041568756,9.84947681427002,0.006029520649462938,-0.0035851821303367615,-0.001399993896484375,0.0053847503869088025,5.336085289072462e-8,0.04310604422346449
0.006803013384342194,0.032119933515787125,9.858945846557617,0.001289979089051485,0.001461416482925415,0.003566741943359375,0.0030517605376734315,0.03025536346520285,-0.017404559309968894
0.0027838111855089664,0.033723071217536926,9.847761154174805,-0.00311992596834898,0.001561768352985382,-0.005995750427246094,0.054254940661335155,0.00983197726895402,-0.017929059808298353
0.0020120516419410706,0.030404649674892426,9.84769058227539,-0.0034471401013433933,-0.0035330578684806824,-0.0058231353759765625,-0.005875937037767923,5.336085289072462e-8,-0.009001368902963611
0.007432814221829176,0.034494828432798386,9.85304069519043,0.006049790419638157,0.0009733401238918304,0.008012771606445312,0.0030517605376734315,0.053011712830260606,0.04310604422346449
0.006803013384342194,0.03816814348101616,9.856571197509766,0.0016241935081779957,-0.003458939492702484,0.0031576156616210938,0.1108835855026613,-0.007119138188416025,-0.010809864923976132
0.0020120516419410706,0.034494828432798386,9.856571197509766,-0.0031224675476551056,0.0009217709302902222,0.0029859542846679688,0.036924056013941824,5.336085289072462e-8,-0.05180134861446013
0.0026806744281202555,0.02970387041568756,9.853841781616211,0.0017275973223149776,-0.0038903839886188507,-0.0020170211791992188,-0.02320679500473481,0.0347766018502075,0.008329507406796456
0.006803013384342194,0.026903104037046432,9.852590560913086,0.0012419754639267921,-0.003872763365507126,-0.006848335266113281,-0.03262902762455418,0.010326525653545254,-0.05360984797052596
0.006803013384342194,0.03859401494264603,9.856571197509766,0.001174233853816986,0.005952917039394379,0.0023164749145507812,0.007458219728110134,5.336085289072462e-8,-0.07015126546950763
0.006528106983751059,0.034494828432798386,9.847538948059082,0.001435719896107912,0.001624561846256256,-0.0073032379150390625,-0.05798334349408942,0.06103515739261574,0.03960383804611401
0.006803013384342194,0.03429090231657028,9.852189064025879,0.001524633727967739,-0.0032135620713233948,0.0069427490234375,-0.0501894706610834,0.055839251064087214,-0.015331099973927478
0.0022780464496463537,0.034494828432798386,9.842464447021484,0.006563709583133459,0.0018828436732292175,-0.002788543701171875,-0.05798334349408942,0.06272949787402847,-0.019623400289711088
0.01159396767616272,0.03922364115715027,9.856571197509766,0.006385208573192358,0.0020072460174560547,0.00260162353515625,0.0030517605376734315,0.06103515739261574,-0.01713737151438512
0.00838509015738964,0.02807706966996193,9.853363037109375,0.0013900562189519405,-0.007411805912852287,-0.0022077560424804688,-0.01710335397066728,-0.06103505067090996,-0.038084167646532455
0.01002931036055088,0.0329301692545414,9.848457336425781,0.005363066680729389,0.0023428983986377716,-0.01154327392578125,-0.05798334349408942,-0.02116867722857358,0.04310604422346449
0.008296817541122437,0.031197674572467804,9.850287437438965,0.00007677683606743813,-0.002725854516029358,-0.0016994476318359375,0.04505633003576759,-0.06103505067090996,-0.06387708304640301
0.005380060523748398,0.03591778129339218,9.846989631652832,0.0005375104956328869,0.002217579632997513,-0.006009101867675781,-0.05798334349408942,-0.006651350271549487,-0.06083626815367879
0.006803013384342194,0.033142730593681335,9.856571197509766,0.0005836929194629192,-0.0027993209660053253,0.0033140182495117188,-0.0407580999952065,-0.00935930683404798,-0.0007038129743621293
0.006803013384342194,0.036723434925079346,9.858799934387207,0.0005436846986413002,-0.002663183957338333,-0.0016536712646484375,-0.013269963659850515,0.07310506215138031,0.01046258248820338
0.011230838485062122,0.03376857191324234,9.847352981567383,0.005630774423480034,0.002059709280729294,-0.0063800811767578125,-0.05798334349408942,0.05640901157082792,0.09488887662197155
0.004019487649202347,0.027696436271071434,9.856571197509766,0.0006791017949581146,-0.006904644891619682,0.0028562545776367188,-0.006835338492316706,-0.06103505067090996,-0.017929059808298353
0.009515555575489998,0.03512895852327347,9.856571197509766,0.0005124891176819801,-0.002270035445690155,0.0024776458740234375,-0.0050268324661442675,0.008078646364670589,-0.009850456799320739
0.0020120516419410706,0.03498700261116028,9.849139213562012,-0.004311779979616404,0.006971303373575211,-0.007109642028808594,-0.018060620991100434,0.021112434889626757,0.009453438713600524
0.0020120516419410706,0.03192424029111862,9.849560737609863,-0.0041001178324222565,-0.002835981547832489,-0.0027618408203125,0.03133850873760522,0.028286801560784683,0.04310604422346449
0.009741405956447124,0.03063015080988407,9.857497215270996,0.005267028696835041,-0.003123197704553604,0.0019273757934570312,0.014852246350192727,-0.049234564858390666,-0.017929059808298353
0.014674318954348564,0.034494828432798386,9.858282089233398,0.00024588126689195633,0.0014773719012737274,0.010905265808105469,-0.03619085121479682,0.010896312840712413,-0.0789641638400612
0.00279637542553246,0.030488193035125732,9.859793663024902,0.0005583097226917744,0.001438479870557785,-0.00362396240234375,-0.00694024592909987,0.06103515739261574,-0.017929059808298353
0.006089668720960617,0.030417215079069138,9.852494239807129,-0.003942405339330435,0.0015095286071300507,0.0008859634399414062,0.0030517605376734315,-0.06103505067090996,0.024930543986196943
0.0029430135618895292,0.03542578965425491,9.857501983642578,-0.003847802523523569,0.00125102698802948,0.0009174346923828125,0.040366631438186924,-0.07289516723653464,0.09228103168960267
0.0020120516419410706,0.034494828432798386,9.856571197509766,0.0011759805493056774,0.0010579489171504974,0.0005550384521484375,0.0030517605376734315,5.336085289072462e-8,-0.005164696899694066
0.009449256584048271,0.034494828432798386,9.863507270812988,0.0059155966155231,0.0013503581285476685,0.004520416259765625,-0.09169556975189885,0.0947473969906384,-0.058030641220070435
0.006803013384342194,0.031777605414390564,9.85864543914795,0.0007021920755505562,-0.003549806773662567,-0.0006036758422851562,0.055889010059407815,0.018220836951904837,0.00848956662009549
0.006017560139298439,0.030921176075935364,9.860576629638672,0.005198296159505844,0.0055857449769973755,0.008396148681640625,0.0030517605376734315,-0.01000628049492157,0.017591665805576914
0.003943828400224447,0.03356742113828659,9.865148544311523,0.0004715481773018837,0.00566466897726059,-0.001529693603515625,-0.04616850361214252,-0.04823978515837533,0.006681070599082968
0.01159396767616272,0.02941640093922615,9.861075401306152,0.004986525047570467,-0.0037488527595996857,0.0027990341186523438,0.1177974444900067,0.05737289533701953,-0.014266794417648837
0.006803013384342194,0.029920361936092377,9.857004165649414,-0.00006407871842384338,0.00116058811545372,0.006781578063964844,-0.0552253211113662,-0.058277041628399966,0.04310604422346449
0.011302943341434002,0.03914027288556099,9.851926803588867,-0.005480859894305468,0.001385904848575592,-0.0024328231811523438,-0.05798334349408942,-0.12021642535367548,-0.016075290438661356
0.000513259437866509,0.02970387041568756,9.858070373535156,-0.005190574564039707,-0.0037890784442424774,-0.0023069381713867188,0.0030517605376734315,0.041941070083154196,-0.017929059808298353
0.0035818254109472036,0.037716012448072433,9.86136245727539,-0.004435534588992596,0.005354803055524826,0.0024061203002929688,0.06408686456943628,0.0620752404567353,0.0020692838493027157
0.0068633281625807285,0.03285763040184975,9.867790222167969,0.004841294139623642,-0.0042920224368572235,0.011466026306152344,-0.0587517664561423,-0.08112394436081329,-0.017929059808298353
0.008308913558721542,0.03148302808403969,9.859582901000977,-0.0002298261970281601,0.0010910630226135254,-0.0031480789184570312,-0.08064915283200484,0.02266587603898153,0.0012555875386253616
0.006803013384342194,0.03305990621447563,9.86328411102295,-0.0006211698055267334,-0.00368306040763855,-0.0034456253051757812,0.0030517605376734315,0.024474355384727527,-0.03620946081224246
0.006593630183488131,0.034285444766283035,9.865735054016113,-0.00045578135177493095,0.0009951107203960419,0.005612373352050781,0.05875192653870097,0.05836770171746131,-0.017929059808298353
0.006522651296108961,0.034494828432798386,9.861082077026367,-0.0004269401542842388,0.0008270293474197388,0.00146484375,-0.0005199481505672207,-0.11492676400661796,-0.0789641638400612
0.005861386656761169,0.03162853792309761,9.858495712280273,0.0040705446153879166,0.001161418855190277,0.0018138885498046875,-0.008944186078984588,-0.08555465605888882,-0.029925006424956373
0.006803013384342194,0.034494828432798386,9.853775978088379,-0.0009095147252082825,0.0015510469675064087,-0.0028142929077148438,-0.03255951177345078,5.336085289072462e-8,-0.007741612547706162
0.010936261154711246,0.03656145557761192,9.862020492553711,-0.0009719934314489365,0.0014411434531211853,0.00667572021484375,-0.05798334349408942,5.336085289072462e-8,0.00839901325273993
0.0046654073521494865,0.033979080617427826,9.858193397521973,-0.00093429209664464,-0.0035461075603961945,-0.0073032379150390625,-0.024180550528711195,-0.006570401857714258,0.0769088238486295
0.0057939644902944565,0.035503875464200974,9.860353469848633,-0.0006846394389867783,0.0010335221886634827,0.0019168853759765625,-0.029846779414618572,-0.05627310147851525,-0.017929059808298353
-0.003817581105977297,0.024912914261221886,9.856571197509766,-0.0147579126060009,-0.00800364650785923,-0.0026159286499023438,-0.008898909395306808,-0.04908438073792972,0.031155374290484258
0.0020120516419410706,0.027514183893799782,9.859628677368164,-0.005032919347286224,0.006274037063121796,-0.0074939727783203125,-0.046936926574195396,0.06103515739261574,-0.006882636218297722
0.006803013384342194,0.034494828432798386,9.86136245727539,-0.00016665132716298103,0.0018243193626403809,0.0020647048950195312,-0.007090670173398823,5.336085289072462e-8,-0.017929059808298353
0.01900004781782627,0.034494828432798386,9.85802173614502,0.0006263228133320808,0.002022732049226761,0.006192207336425781,0.08816280114605521,0.07027496259661495,-0.027168851672084333
0.01507607288658619,0.02970387041568756,9.856571197509766,0.00036926474422216415,-0.002761680632829666,-0.0028219223022460938,-0.1023441681732793,0.052698004376116034,0.03476890121212471
0.0020120516419410706,0.03672262281179428,9.854008674621582,-0.004468430764973164,0.0068932510912418365,-0.0026683807373046875,0.0030517605376734315,0.03265385376136159,-0.013656549698830593
0.006803013384342194,0.030287442728877068,9.86136245727539,0.0005283872596919537,-0.002544894814491272,0.0022668838500976562,-0.004382740291326776,-0.053600549841909755,-0.02536355396719195
0.007315731141716242,0.033469393849372864,9.857084274291992,-0.00010385271161794662,0.0022791102528572083,-0.0022068023681640625,0.05102316728643486,0.04797146010961432,0.04310604422346449
0.006361148785799742,0.03493669256567955,9.857012748718262,0.00004741642624139786,0.001919761300086975,-0.0022916793823242188,0.0030517605376734315,5.336085289072462e-8,-0.012299863354297141
0.006803013384342194,0.03375290334224701,9.860991477966309,0.00008705630898475647,-0.0076943207532167435,-0.0019207000732421875,0.01250364845148682,0.05158326947880235,0.03838010693666442
0.011293984018266201,0.03928578644990921,9.856270790100098,0.0006117746233940125,0.006247576326131821,-0.0064449310302734375,0.06026518696582903,-0.05721337306730271,0.04310604422346449
0.0020120516419410706,0.03928578644990921,9.863465309143066,-0.00413530133664608,0.005877405405044556,0.0077114105224609375,0.06408686456943628,0.017126219096130955,0.025979865147973208
0.0082183126360178,0.041246142238378525,9.856571197509766,0.0008465070277452469,0.010241229087114334,-0.0012426376342773438,0.0030517605376734315,-0.03606081081630212,-0.0789641638400612
0.015056672506034374,0.03276347741484642,9.851780891418457,0.004618051927536726,0.0007738247513771057,-0.00563812255859375,-0.05798334349408942,-0.022056761903233912,0.06002751772705374
0.003672426100820303,0.032834455370903015,9.859702110290527,-0.0049615162424743176,0.0007692649960517883,0.004038810729980469,0.0429343023184357,-0.10091761913209867,0.04310604422346449
0.01159396767616272,0.03608422353863716,9.854982376098633,0.004402906633913517,0.0058633387088775635,-0.005459785461425781,-0.037735020915961835,-0.020248255877061472,0.04310604422346449
0.01159396767616272,0.0329764150083065,9.858089447021484,0.004487111233174801,-0.002993810921907425,0.0040798187255859375,-0.016292322367581158,0.04169107448736115,0.02075907932178438
0.006803013384342194,0.029829761013388634,9.851780891418457,-0.00019773375242948532,-0.002813924103975296,-0.004912376403808594,-0.059587143948359816,0.06424275830115653,-0.0789641638400612
0.006803013384342194,0.03429795801639557,9.85617733001709,-0.00011464906856417656,0.0023542866110801697,0.0000133514404296875,-0.055475303366946026,5.336085289072462e-8,-0.017929059808298353
0.003853227710351348,0.03154504671692848,9.86136245727539,-0.00006854487583041191,0.0024640224874019623,0.004786491394042969,0.01717504427652597,5.336085289072462e-8,-0.04138496995475351
0.006803013384342194,0.034494828432798386,9.856571197509766,-0.00015999330207705498,0.002089839428663254,-0.0001220703125,-0.009263043855433114,-0.06103505067090996,0.018745887734029732
0.009610836394131184,0.03168700262904167,9.853763580322266,0.004459916148334742,-0.002461448311805725,-0.0042591094970703125,0.028316176710301025,-0.014758064444840598,-0.017929059808298353
0.01159396767616272,0.034494828432798386,9.856571197509766,0.004390829708427191,0.002520110458135605,0.00045680999755859375,0.020522610702199132,5.336085289072462e-8,0.01693739171301721
0.00940888561308384,0.034494828432798386,9.848082542419434,0.004306902643293142,0.0019406117498874664,-0.008776664733886719,0.06408686456943628,5.336085289072462e-8,-0.004010474971241247
0.004055175930261612,0.03826422616839409,9.852802276611328,-0.004768094047904015,0.006566718220710754,-0.0035905838012695312,0.0030517605376734315,0.048020818898538244,-0.030943398302375854
0.00775359570980072,0.038335204124450684,9.855620384216309,0.004767553880810738,0.0018789246678352356,-0.0033369064331054688,-0.04587325801309814,-0.012110032120138389,0.030995955407419912
0.010714364238083363,0.030583474785089493,9.853540420532227,0.00004375353455543518,0.002120453864336014,0.006291389465332031,-0.05798334349408942,5.336085289072462e-8,-0.017929059808298353
0.006038311403244734,0.03296542540192604,9.856571197509766,-0.0001155664213001728,0.002025030553340912,0.0015916824340820312,0.0030517605376734315,-0.06103505067090996,-0.017929059808298353
0.006803013384342194,0.034494828432798386,9.852616310119629,-0.00036975834518671036,0.002138480544090271,-0.0028972625732421875,-0.04733707961002294,-0.03974252290277701,-0.017929059808298353
0.006633996497839689,0.03218385577201843,9.859051704406738,-0.004829270765185356,0.0019215010106563568,0.0063495635986328125,0.00520492431266706,0.0294410234892375,0.013665074095079886
0.006803013384342194,0.029392899945378304,9.854331970214844,-0.0004532155580818653,-0.007661884650588036,0.0018529891967773438,-0.02548495657762496,-0.06103505067090996,0.010607662309579996
0.008972026407718658,0.029250942170619965,9.851780891418457,0.004450349602848291,0.0016147568821907043,-0.0028791427612304688,0.030684224639885602,-0.00577009578605917,-0.017929059808298353
0.009495933540165424,0.02970387041568756,9.854473114013672,-0.0006416491232812405,-0.0029526203870773315,-0.0027551651000976562,0.01063041571075793,-0.026728184408699507,-0.010350407970267159
0.006803013384342194,0.029250141233205795,9.852234840393066,-0.0006871568039059639,-0.0027234070003032684,-0.0028390884399414062,0.05830649681919565,0.06103515739261574,-0.07318380275992718
0.007185764145106077,0.02970387041568756,9.85292911529541,-0.0006494303233921528,-0.0025409534573554993,-0.0029764175415039062,0.0030517605376734315,0.05615904265546132,-0.017929059808298353
0.01159396767616272,0.030327415093779564,9.851780891418457,0.004072445910423994,0.0066227056086063385,-0.0030317306518554688,0.0030517605376734315,-0.057063188946841766,0.10016927986105253
0.00249363761395216,0.034494828432798386,9.842920303344727,0.0040128715336322784,0.002034638077020645,0.0019044876098632812,-0.1098155947124799,-0.057967441959927986,-0.07282892640777741
0.008786942809820175,0.031107382848858833,9.851780891418457,0.003922538831830025,-0.002408985048532486,-0.0027170181274414062,-0.022222847557856293,5.336085289072462e-8,-0.017929059808298353
0.0034865441266447306,0.03302033618092537,9.853255271911621,-0.005672749597579241,0.0021254830062389374,-0.00273895263671875,-0.06266495792245715,-0.023466048708504394,0.024321548244841673
0.01159396767616272,0.034494828432798386,9.850109100341797,0.004126494284719229,0.002007029950618744,-0.00244140625,-0.015377850751166364,0.021302799732314418,-0.03635867776724476
0.0036132351960986853,0.034494828432798386,9.85496997833252,-0.005040883552283049,0.0019968748092651367,0.002658843994140625,0.023289877852685666,0.04063666403424043,-0.017929059808298353
0.005272808950394392,0.034494828432798386,9.858302116394043,-0.004912495147436857,0.0012151412665843964,-0.0020341873168945312,0.02254600088296252,-0.019494186984436196,0.02361179887559545
0.01492569874972105,0.034494828432798386,9.855112075805664,0.004563138820230961,0.0012652687728404999,-0.0025081634521484375,-0.015538253474955882,0.06103515739261574,0.0006609408641177378
0.006988094188272953,0.034494828432798386,9.85196590423584,-0.00035207299515604973,0.0011109784245491028,-0.0023622512817382812,0.005409616544355881,0.05867730138593329,0.04074817821162213
0.006803013384342194,0.03902972489595413,9.861105918884277,-0.0005574417300522327,0.006088707596063614,0.007018089294433594,-0.05798334349408942,0.003262162380621559,-0.017929059808298353
0.006803013384342194,0.037385422736406326,9.851780891418457,-0.00023098895326256752,0.0012058839201927185,-0.0025386810302734375,-0.021158218501407,0.09786028238529816,0.05572118684201318
0.008774355985224247,0.03167521581053734,9.848960876464844,0.004446530248969793,0.0012532807886600494,-0.0022058486938476562,0.0030517605376734315,-0.06103505067090996,0.03229939429087503
0.008139019832015038,0.033788517117500305,9.851780891418457,-0.005282617174088955,-0.0035577602684497833,-0.0020999908447265625,0.05508870398775272,-0.026018431704399977,0.017087569163371542
0.016384921967983246,0.02970387041568756,9.85445785522461,0.008877916261553764,-0.003819849342107773,0.0028324127197265625,-0.02387095086023921,5.336085289072462e-8,0.04310604422346449
0.006803013384342194,0.030737221240997314,9.85760498046875,-0.0008679204620420933,-0.003267541527748108,0.0026493072509765625,-0.05798334349408942,0.0478706347780773,-0.004764543863866521
0.00584064144641161,0.03353245556354523,9.84985637664795,-0.0005195876583456993,0.0011783204972743988,-0.0019674301147460938,0.05182659496798406,0.04877488779116352,-0.06670389423860898
0.01159396767616272,0.03148665651679039,9.855679512023926,0.0041226111352443695,0.005665197968482971,-0.0018768310546875,0.0030517605376734315,-0.049679034082543955,0.031750024300045185
0.002832465572282672,0.034494828432798386,9.856571197509766,-0.001108374446630478,0.001088898628950119,0.0022830963134765625,-0.04753156657859641,-0.010451710214426894,0.04310604422346449
0.01077007595449686,0.034494828432798386,9.858219146728516,0.0038500246591866016,0.0014100968837738037,0.0022945404052734375,-0.047487250390270665,5.336085289072462e-8,0.03260995111964574
0.009804225526750088,0.03270508721470833,9.855676651000977,0.003446761518716812,0.0012969933450222015,0.002002716064453125,0.0030517605376734315,-0.07243538344760171,-0.0065287203614999905
0.006803013384342194,0.034494828432798386,9.851780891418457,-0.0010592993348836899,0.0015789419412612915,-0.0023651123046875,-0.025635140698085906,0.06835778719353054,0.014419146322758467
0.008983814157545567,0.034494828432798386,9.85221004486084,-0.0009738192893564701,0.0010913088917732239,0.0026102066040039062,0.03630421634676317,0.02778270158352601,0.04310604422346449
0.004121876787394285,0.03027518279850483,9.8592529296875,-0.0009944452904164791,-0.008346153423190117,0.002452850341796875,-0.03838324855687836,-0.026878341848734007,0.016227642343770988
0.00955516379326582,0.03520817682147026,9.854532241821289,-0.0006609088741242886,-0.002882968634366989,-0.0027704238891601562,0.0030517605376734315,-0.009087753453687083,-0.008841266333971603
0.0024064681492745876,0.034494828432798386,9.855782508850098,-0.005341046955436468,0.0015655867755413055,0.0020627975463867188,-0.001972964174781652,-0.005024671351602193,-0.06891472108525765
0.010343995876610279,0.034494828432798386,9.855320930480957,0.004122191108763218,0.0013906098902225494,0.001773834228515625,0.018975973061587926,5.336085289072462e-8,0.04310604422346449
0.004906415939331055,0.028706105425953865,9.85467529296875,-0.0004014763981103897,-0.008288132026791573,0.0018367767333984375,0.0399249102979575,5.336085289072462e-8,0.006232901133287037
0.003837544471025467,0.030389387160539627,9.852920532226562,-0.005004493054002523,-0.007837148383259773,0.002101898193359375,-0.03472722972107036,5.336085289072462e-8,0.005327052297194054
0.0020120516419410706,0.027949484065175056,9.855289459228516,-0.004806512035429478,-0.007867759093642235,0.007042884826660156,0.06408686456943628,0.06103515739261574,0.020755777619011765
0.01159396767616272,0.0361781120300293,9.851780891418457,0.004821724258363247,0.006280172616243362,-0.00220489501953125,0.0030517605376734315,5.336085289072462e-8,-0.0575197444041748
0.016346028074622154,0.034494828432798386,9.851741790771484,0.009011819027364254,0.0014393851161003113,-0.0018415451049804688,0.002556278338156608,-0.12157467250315598,-0.017929059808298353
0.006803013384342194,0.025009172037243843,9.856538772583008,0.00023921532556414604,-0.007645120844244957,0.0024271011352539062,-0.057574586020733245,-0.0004087174527165052,-0.07814664222324225
0.0036884439177811146,0.03138026222586632,9.859685897827148,0.00012672320008277893,0.00151728093624115,0.0022869110107421875,0.06408686456943628,-0.018321795685574085,0.0003927892381286239
0.006803013384342194,0.03798956796526909,9.850483894348145,0.00019089644774794579,0.0018187612295150757,-0.0068988800048828125,-0.035722462988335264,0.07754850041287029,0.04310604422346449
0.0020120516419410706,0.034494828432798386,9.848388671875,-0.0046118744648993015,0.0017321892082691193,-0.001934051513671875,0.0030517605376734315,5.336085289072462e-8,0.04310604422346449
0.006803013384342194,0.02970387041568756,9.858705520629883,0.000656873919069767,-0.002887789160013199,-0.0018186569213867188,-0.041061229660265486,0.06103515739261574,0.01591517452945613
0.01159396767616272,0.034810829907655716,9.851780891418457,0.005695856176316738,0.0020527541637420654,-0.0022535324096679688,0.00707751672316126,0.05700940120712791,0.03908029470808328
0.009633662179112434,0.034494828432798386,9.856571197509766,0.005289495922625065,0.001649610698223114,0.00258636474609375,-0.02192186566712616,-0.12207018138309926,0.018132428023824823
0.006803013384342194,0.038099441677331924,9.854153633117676,0.00016202731058001518,0.0064332932233810425,-0.0023508071899414062,-0.0428697223462247,0.015694280608808363,0.04310604422346449
0.0031274189241230488,0.02825901284813881,9.849220275878906,-0.0040122573263943195,-0.007870106026530266,-0.006833076477050781,0.04987748309444456,0.06103515739261574,0.04310604422346449
0.010549580678343773,0.02970387041568756,9.856571197509766,0.0005859076045453548,-0.0029864758253097534,0.0023298263549804688,0.0030517605376734315,-0.047729922209004454,-0.0789641638400612
-0.0027789026498794556,0.030677279457449913,9.868997573852539,-0.008697763085365295,0.0021083541214466095,0.0068111419677734375,-0.009349114911145852,-0.036233299773271395,0.07933938401737556
-0.001437108963727951,0.03382393345236778,9.855229377746582,-0.007862545549869537,0.002166762948036194,0.0011854171752929688,0.03844590753838529,-0.00854694120963959,-0.02647604770868422
0.006803013384342194,0.03375295177102089,9.85731315612793,0.0011417875066399574,0.002637092024087906,0.0016489028930664062,-0.05798334349408942,5.336085289072462e-8,0.033654809980099024
0.006803013384342194,0.034494828432798386,9.861343383789062,0.0009155799634754658,0.00287608802318573,0.010792732238769531,-0.027347343725003807,-0.0301621687356292,0.012706943295840562
0.006803013384342194,0.03695198893547058,9.858904838562012,0.0011200611479580402,0.00727582722902298,0.0006809234619140625,0.034355104473223666,0.03130339729640313,0.04310604422346449
0.002277375664561987,0.03928578644990921,9.856837272644043,-0.008095270954072475,0.007082369178533554,-0.0043010711669921875,0.0030517605376734315,-0.06103505067090996,0.010898448942354694
0.00420389324426651,0.032302986830472946,9.863962173461914,0.0010700053535401821,-0.0024401284754276276,0.005341529846191406,0.0030517605376734315,-0.027923200709187284,-0.02311764235976763
0.0036546550691127777,0.034494828432798386,9.860815048217773,-0.003613209817558527,0.002407241612672806,0.004904747009277344,-0.05798334349408942,0.04708436261073247,0.03613064683252286
0.010640856809914112,0.034494828432798386,9.856094360351562,0.006099109072238207,0.001999802887439728,-0.00002288818359375,-0.051912199116234,0.054963999674547105,-0.011857912095389632
0.006397436372935772,0.030109446495771408,9.856976509094238,-0.003629949875175953,0.0018920116126537323,0.004515647888183594,0.058919959864453864,0.0507013479826509,0.03277224481865958
0.007137610577046871,0.02970387041568756,9.851780891418457,0.005095963831990957,-0.0030547045171260834,-0.004889488220214844,-0.049458040110297016,-0.06103505067090996,-0.009403756424505954
0.003321760566905141,0.033185120671987534,9.856571197509766,-0.004601576365530491,0.002074737101793289,0.00028705596923828125,-0.013633457789742131,5.336085289072462e-8,-0.017929059808298353
0.008183731697499752,0.03311410918831825,9.85519027709961,0.00019015977159142494,0.0019872747361660004,0.0007495880126953125,0.0030517605376734315,0.0786250289395142,0.007926302797194223
0.006803013384342194,0.030963130295276642,9.860102653503418,0.0002566012553870678,0.002233099192380905,0.0006589889526367188,0.0030517605376734315,-0.06103505067090996,-0.017929059808298353
0.006803013384342194,0.034494828432798386,9.851780891418457,0.0003082375042140484,0.002109043300151825,-0.0038328170776367188,-0.01853868087214844,-0.021590388048968977,0.021515589473429405
0.006803013384342194,0.02970387041568756,9.851780891418457,0.0006002900190651417,-0.002821732312440872,-0.0035533905029296875,-0.01661414167136512,-0.040350436419334584,0.04310604422346449
0.005250475835055113,0.02970387041568756,9.854886054992676,-0.004363865125924349,-0.002839013934135437,0.0064849853515625,0.0030517605376734315,-0.01977870705204954,0.0035485233976596323
0.00689486600458622,0.029887575656175613,9.85647964477539,0.0004202909767627716,-0.002676166594028473,0.0018901824951171875,-0.05681316667062227,0.059864980569148595,-0.017929059808298353
0.006803013384342194,0.02986682765185833,9.851780891418457,-0.00006957445293664932,-0.002349570393562317,-0.0028944015502929688,-0.05383130885023569,-0.002075977301287196,-0.02000507713022522
0.004995665512979031,0.034494828432798386,9.851780891418457,-0.005238914862275124,0.0022901631891727448,-0.0024595260620117188,0.0030517605376734315,-0.09904524016501604,0.005095889747418129
0.003890494117513299,0.03552890568971634,9.854693412780762,-0.00040868576616048813,-0.002731945365667343,-0.0025081634521484375,0.01622551457976197,-0.013173700681235648,-0.05503349551533066
0.01354338601231575,0.034494828432798386,9.856571197509766,0.004084541462361813,0.002002127468585968,0.0026693344116210938,0.014417035234015977,-0.14690512273123585,-0.029294327834534287
0.006803013384342194,0.02970387041568756,9.848259925842285,-0.001118532381951809,-0.0025298595428466797,-0.011148452758789062,0.0287909282184698,0.12207026142437859,0.05266281956374121
0.004711633548140526,0.0338866263628006,9.851780891418457,-0.0008924263529479504,-0.002560500055551529,-0.0016012191772460938,0.029695181231556022,-0.03439162997702737,-0.017929059808298353
0.006803013384342194,0.034494828432798386,9.851780891418457,-0.0004708315245807171,0.0019523985683918,-0.001682281494140625,-0.010392052780895064,0.09518260810681516,-0.06552033718127949
0.002996348077431321,0.02970387041568756,9.852765083312988,-0.0006239339709281921,-0.0028773359954357147,0.0027761459350585938,0.05154727758352756,5.336085289072462e-8,-0.005389482827549549
0.007716329302638769,0.02582623064517975,9.856571197509766,0.004175830632448196,-0.0032129138708114624,0.0027856826782226562,0.05245153059661378,-0.011635280611969612,0.04310604422346449
0.002854389837011695,0.03365249186754227,9.856571197509766,-0.0009498093277215958,-0.002681497484445572,0.002803802490234375,-0.05798334349408942,5.336085289072462e-8,-0.028660140768034637
0.006803013384342194,0.034494828432798386,9.855769157409668,-0.0008258265443146229,0.002319302409887314,0.0027589797973632812,-0.04776655443451394,-0.01021673569872259,0.08370758347628961
0.010721021331846714,0.02970387041568756,9.846989631652832,0.0035277390852570534,-0.0028254836797714233,-0.006802558898925781,0.0030517605376734315,-0.011120988711808808,-0.006808027740796572
0.009076717309653759,0.02743016555905342,9.85405445098877,-0.0012500053271651268,-0.0028694570064544678,-0.0019283294677734375,0.09305308318965212,0.032068938772399906,0.014139837275935232
0.009391242638230324,0.034494828432798386,9.851780891418457,0.0036476142704486847,0.0014496184885501862,-0.001922607421875,0.036024898962306665,0.0659463568905458,-0.017929059808298353
0.004671263974159956,0.034494828432798386,9.85230827331543,-0.005466339644044638,0.001378186047077179,-0.0062580108642578125,-0.030825630900046024,0.027157765954896284,0.07026375681750789
0.009533200412988663,0.034494828432798386,9.851780891418457,-0.001056324690580368,0.0015516914427280426,-0.0012712478637695312,-0.031729883913132244,0.026253512941810067,0.008324406442765433
0.014719068072736263,0.034078363329172134,9.856571197509766,0.008607418276369572,0.0016165487468242645,0.0035190582275390625,0.008357350099318844,0.005305642922498304,0.03780044799171247
-0.0020881802774965763,0.02970387041568756,9.847334861755371,-0.009690936654806137,-0.002903975546360016,-0.005888938903808594,0.0030517605376734315,0.05223560590539146,-0.017929059808298353
0.002286308677867055,0.03422057256102562,9.85629653930664,-0.004730194807052612,0.001758091151714325,0.0033445358276367188,-0.05798334349408942,-0.054047180180605114,0.03961210897831208
0.006599860731512308,0.030110174790024757,9.855961799621582,-0.004113559611141682,0.006365876644849777,-0.01097869873046875,0.005639841944152912,-0.05327077977104507,-0.017929059808298353
0.006803013384342194,0.03161235526204109,9.855130195617676,0.0008103740401566029,0.0015405043959617615,0.0031576156616210938,0.0030517605376734315,0.04267430156272564,-0.017929059808298353
0.010081627406179905,0.03121621161699295,9.853547096252441,0.005135650280863047,-0.0026987679302692413,0.0033769607543945312,0.022318443525810024,-0.08030176033947299,0.004572659904398129
0.006803013384342194,0.03128731623291969,9.856571197509766,0.00027990108355879784,-0.0027547702193260193,0.0035495758056640625,-0.037810806667279886,5.336085289072462e-8,-0.017929059808298353
0.0035751760005950928,0.03928578644990921,9.853343963623047,-0.0038590477779507637,0.006229124963283539,-0.0013599395751953125,0.024259604632268804,0.06103515739261574,0.0032787742811371022
0.006803013384342194,0.027896950021386147,9.845182418823242,0.0007182275876402855,-0.00798741914331913,-0.010141372680664062,-0.015956015592237367,0.042027381262704944,-0.04094859156991978
0.008752139285206795,0.03307391330599785,9.846989631652832,-0.0038581094704568386,-0.0027368441224098206,-0.0054149627685546875,0.04598491559777198,5.336085289072462e-8,-0.017929059808298353
0.0033619552850723267,0.02970387041568756,9.852521896362305,0.0005494700744748116,-0.0027332231402397156,-0.00974273681640625,0.046889595497681326,-0.07823234642309136,0.04310604422346449
0.011005162261426449,0.02999827265739441,9.847578048706055,0.005501799751073122,-0.0026871152222156525,-0.004794120788574219,0.06408686456943628,0.003750627627983252,-0.07521357623271761
0.006803013384342194,0.034494828432798386,9.851780891418457,0.0001520998775959015,0.002036791294813156,0.00000476837158203125,0.0030517605376734315,-0.05638022339069338,-0.013274225857975162
0.00479332497343421,0.034494828432798386,9.854561805725098,-0.004201090428978205,0.0018002241849899292,-0.00012493133544921875,0.0030517605376734315,0.0354324600930874,-0.027758762570897905
0.0061733839102089405,0.032414160668849945,9.851150512695312,0.005057706497609615,-0.0027601122856140137,0.004925727844238281,0.029558710850287995,0.008021256767386615,0.04310604422346449
0.006803013384342194,0.034494828432798386,9.856571197509766,0.000014103017747402191,0.0019262060523033142,0.004649162292480469,-0.05798334349408942,0.03362395406691496,0.00948213351224251
0.009371344931423664,0.039631493389606476,9.856571197509766,0.004840298090130091,0.011259287595748901,0.0041599273681640625,-0.06238756152870471,-0.0327196210125494,-0.017929059808298353
0.01159396767616272,0.034494828432798386,9.851780891418457,0.004470911808311939,0.0015087276697158813,-0.0006847381591796875,0.0030517605376734315,-0.04926324631681943,-0.043648777458216055
0.012447016313672066,0.03757968544960022,9.848695755004883,0.004576461855322123,0.006487641483545303,-0.0055065155029296875,-0.047115792153085104,0.11120271008337428,0.05397359556446881
0.006020942237228155,0.030485941097140312,9.859798431396484,-0.004271830897778273,0.0019884631037712097,-0.00101470947265625,0.034196969585682004,-0.10214358472726306,-0.12007265787577465
0.013016151264309883,0.034494828432798386,9.855859756469727,0.014721831306815147,0.0016608983278274536,-0.0015001296997070312,0.0030517605376734315,5.336085289072462e-8,0.03404698890347271
0.006803013384342194,0.028770657256245613,9.851780891418457,0.00006409920752048492,-0.0026103518903255463,-0.0017185211181640625,-0.008837064166806458,-0.011888771343627,-0.06707535247579453
0.01058967038989067,0.034494828432798386,9.852785110473633,0.004823142662644386,0.002354089170694351,-0.0013666152954101562,0.0030517605376734315,0.012794465099741269,-0.017929059808298353
0.007309426087886095,0.03613068163394928,9.851780891418457,0.004912973381578922,-0.0029320716857910156,-0.0013437271118164062,0.009503327776000046,0.027291835097784233,-0.05167239544334309
0.006803013384342194,0.0263354554772377,9.849061012268066,-0.0001088329590857029,-0.012360140681266785,-0.005827903747558594,0.0030517605376734315,5.336085289072462e-8,0.0167201196602594
0.006803013384342194,0.028913037851452827,9.855780601501465,-0.00019168993458151817,0.001975465565919876,0.008141517639160156,-0.03250326943450396,5.336085289072462e-8,0.007551015918813757
0.008731969632208347,0.03356178477406502,9.858500480651855,0.005060602445155382,0.007040936499834061,0.007809638977050781,0.014938397447184802,-0.011886583548658479,-0.017929059808298353
0.00708758132532239,0.025482051074504852,9.852065086364746,-0.00007710093632340431,-0.007293658331036568,-0.001708984375,-0.050732750844577096,5.336085289072462e-8,-0.0789641638400612
0.002438979223370552,0.03406790271401405,9.861148834228516,-0.004990329034626484,0.0023242421448230743,0.008065223693847656,-0.05526388766779297,0.05559624574002285,0.04310604422346449
0.015815485268831253,0.029846230521798134,9.851638793945312,0.009087192825973034,-0.0024651698768138885,-0.001682281494140625,-0.11357762822276854,-0.05922144868328646,-0.07715055518233109
0.00208330643363297,0.034423574805259705,9.851780891418457,-0.0005825511179864407,-0.0025690943002700806,-0.0017566680908203125,-0.05616782051576185,-0.12116240655372225,0.04219828606935402
0.008447699248790741,0.034494828432798386,9.846989631652832,0.0037372736260294914,0.002251550555229187,-0.006613731384277344,-0.01698940186931914,-0.10294058242603893,0.0021121142713807863
0.009949729777872562,0.03613906726241112,9.848633766174316,0.0038247215561568737,0.0022124312818050385,-0.006503105163574219,0.0030517605376734315,-0.06103505067090996,-0.017929059808298353
0.006803013384342194,0.034494828432798386,9.851780891418457,-0.005971502512693405,0.0019125379621982574,-0.006318092346191406,0.0030517605376734315,0.06103515739261574,-0.05711204747776983
0.0149535546079278,0.033063460141420364,9.856571197509766,0.008249610662460327,0.0020180493593215942,0.0030755996704101562,0.0030517605376734315,5.336085289072462e-8,-0.017929059808298353
0.006803013384342194,0.026273302733898163,9.853850364685059,-0.0011862637475132942,-0.0026873312890529633,-0.006319999694824219,0.04675597992204295,0.06103515739261574,0.04310604422346449
0.006803013384342194,0.03541755676269531,9.856571197509766,-0.0011347951367497444,-0.007328702136874199,0.0029706954956054688,-0.041556711859782304,-0.08921691811448504,-0.017929059808298353
0.01088417787104845,0.03484972193837166,9.843262672424316,0.003106360323727131,0.001961018890142441,-0.010935783386230469,0.0030517605376734315,0.004521291745857543,-0.022450298193303006
0.010742219164967537,0.030129743739962578,9.85220718383789,0.003422325477004051,-0.002644415944814682,-0.0012912750244140625,-0.05255786543621177,-0.050184094555154664,0.04310604422346449
0.006803013384342194,0.02970387041568756,9.862663269042969,-0.001235010102391243,-0.0025579556822776794,-0.0016679763793945312,-0.0233216008797292,-0.06932345854829398,-0.026217464350629077
0.006803013384342194,0.03235366940498352,9.846989631652832,-0.0019119922071695328,-0.0026591792702674866,-0.005978584289550781,0.009531662388885021,-0.067514979202548,0.00934853794692397
0.004224190954118967,0.03486151248216629,9.85435962677002,-0.0015307730063796043,-0.002863895148038864,-0.0017766952514648438,-0.025130080225475197,5.336085289072462e-8,0.010252785957430231
0.004519883077591658,0.03221169859170914,9.854063987731934,-0.001432458870112896,0.00156480073928833,-0.0018396377563476562,0.03500061071064276,5.336085289072462e-8,0.045968660547960144
0.0059395721182227135,0.04321330040693283,9.848716735839844,-0.0010058935731649399,0.01081274077296257,-0.00655364990234375,0.0030517605376734315,-0.0890703892124471,-0.02892898608511133
0.007595348637551069,0.030496206134557724,9.855778694152832,-0.0008810958825051785,-0.003545403480529785,0.0029993057250976562,0.03380463391480295,-0.04084687911420344,0.002259100075721593
0.006081781350076199,0.02970387041568756,9.851780891418457,-0.001070643775165081,-0.0034144409000873566,-0.0020456314086914062,0.054898632629755965,5.336085289072462e-8,-0.017929059808298353
0.0020120516419410706,0.03384470194578171,9.855920791625977,-0.005736327264457941,-0.0035798735916614532,-0.001834869384765625,0.011334138638680808,-0.052752672569902584,0.08757637204289276
0.007382035255432129,0.034494828432798386,9.857150077819824,0.004151998087763786,0.0009562596678733826,0.00734710693359375,0.056710313626675404,0.05365860644985486,-0.017929059808298353
0.007868379354476929,0.034494828432798386,9.853375434875488,-0.0004984471015632153,0.0007719323039054871,0.002285003662109375,-0.010520625755935266,0.06103515739261574,0.07699636232779673
0.006803013384342194,0.03814931586384773,9.857707977294922,-0.0005268617533147335,0.005297970026731491,0.0025882720947265625,-0.011426479594608206,-0.032078570406346686,-0.017929059808298353
0.009583870880305767,0.030943207442760468,9.853790283203125,0.004046934191137552,-0.008920865133404732,-0.0023403167724609375,0.012870984562786568,-0.07085430137644955,0.017498107555192946
0.0125069385394454,0.03643382340669632,9.85086727142334,0.008420495316386223,0.0007819011807441711,-0.007180213928222656,0.05101569676703016,-0.011630878341606128,0.006773028023880215
0.006803013384342194,0.032626938074827194,9.850725173950195,-0.000887738075107336,0.0010803379118442535,-0.007103919982910156,-0.03418709782789722,5.336085289072462e-8,-0.017929059808298353
0.01159396767616272,0.03748900070786476,9.855374336242676,0.004009316675364971,0.0011381134390830994,0.007252693176269531,0.0030517605376734315,-0.06103505067090996,0.05836035125997561
0.005077332258224487,0.03142955154180527,9.864813804626465,-0.0055128964595496655,0.0005868934094905853,0.016229629516601562,0.0030517605376734315,-0.021984484627993423,-0.017929059808298353
0.000530248275026679,0.037631209939718246,9.8549165725708,-0.00010010553523898125,0.00015076994895935059,-0.003292083740234375,0.024130471368273253,0.02107876419145271,0.024228348512688062
0.00681319972500205,0.034494828432798386,9.856560707092285,0.0004509752616286278,0.00031384825706481934,0.0015926361083984375,0.002921986943443189,0.1218107142359181,0.042846503705110624
0.008437206037342548,0.03286063298583031,9.854937553405762,0.0001835925504565239,0.00036118924617767334,0.0014638900756835938,0.043267807649002725,0.0014221200903907017,-0.017929059808298353
0.00831547100096941,0.032982368022203445,9.851780891418457,0.0002516782842576504,0.000782448798418045,-0.0030975341796875,-0.03871515306185866,-0.02249866980644845,-0.017929059808298353
0.00010405641660327092,0.034494828432798386,9.859920501708984,-0.009072920307517052,0.000983159989118576,0.006251335144042969,0.04572291381007852,5.336085289072462e-8,0.04310604422346449
0.01159396767616272,0.034494828432798386,9.853151321411133,0.005343986209481955,0.0010771527886390686,0.0015583038330078125,-0.0405236590880311,-0.06969111482471108,0.02564635481482622
0.005503491032868624,0.034494828432798386,9.858763694763184,-0.004097023978829384,0.0011184848845005035,-0.002933502197265625,0.04753141983625096,-0.04447960593772464,0.026550602825332482
0.006458229385316372,0.03380526229739189,9.860672950744629,0.0005837581120431423,0.0008205138146877289,0.006449699401855469,0.0030517605376734315,-0.05664262538478352,0.03871362227239136
0.006387250032275915,0.030119633302092552,9.851780891418457,0.0006300364620983601,-0.0037259459495544434,-0.0034723281860351562,-0.05268667853508998,-0.010593303237572432,-0.017929059808298353
0.004072121344506741,0.03516564890742302,9.84972095489502,0.0007235207594931126,-0.00382835790514946,-0.007760047912597656,0.037842316250911855,-0.043336563107952426,0.0083154768375395
0.004671953618526459,0.037154726684093475,9.851780891418457,-0.0035976129584014416,0.0005753897130489349,-0.0027017593383789062,-0.03083442210055977,0.006737314605556445,0.07699222019159109
0.01159396767616272,0.03229266405105591,9.856571197509766,0.005499166436493397,-0.0041092634201049805,0.0022993087768554688,-0.06290891040166031,-0.09401539281068344,0.01012571208885093
0.0020120516419410706,0.029459448531270027,9.854053497314453,-0.004344214219599962,0.0012662261724472046,0.0023775100708007812,-0.05486947092365119,-0.03207443494024765,0.014145425157748883
0.00600081542506814,0.02890167385339737,9.856571197509766,-0.004241199232637882,-0.007952520623803139,0.0023012161254882812,-0.04776363292781817,5.336085289072462e-8,-0.017929059808298353
0.006803013384342194,0.02970387041568756,9.851780891418457,0.0005523231811821461,-0.002943810075521469,-0.0022182464599609375,0.0030517605376734315,-0.042407337215713346,-0.0789641638400612
0.006143024656921625,0.0379658117890358,9.860042572021484,0.00007091183215379715,0.006621643900871277,0.007384300231933594,0.03886281588202052,-0.016815979097424282,-0.017929059808298353
0.0014231684617698193,0.03390594571828842,9.86136245727539,-0.009413689374923706,-0.0030501261353492737,0.007100105285644531,0.010553922928139078,5.336085289072462e-8,0.08913681013408283
0.0035653887316584587,0.03022165037691593,9.852298736572266,0.00909241009503603,0.0017786286771297455,0.0021371841430664062,0.050894220785424424,0.047842513608603886,-0.07236784194805528
0.006803013384342194,0.034494828432798386,9.86136245727539,-0.000002791639417409897,0.0019247457385063171,0.0065631866455078125,-0.04363072814972577,0.014352655365003318,-0.017929059808298353
0.010396254248917103,0.033297114074230194,9.856571197509766,0.005071332678198814,0.002216845750808716,0.0012941360473632812,-0.027466431808442684,0.030516965046499627,-0.03318751565112172
0.003960907459259033,0.031652726233005524,9.859413146972656,-0.0039952779188752174,-0.002571895718574524,0.00556182861328125,0.0030517605376734315,0.024827764313422797,0.018278329935841286
0.00868076179176569,0.03740803524851799,9.855536460876465,0.00020376313477754593,0.006777413189411163,-0.004239082336425781,-0.020870096576223532,5.336085289072462e-8,0.05629740734700697
0.006803013384342194,0.03630147501826286,9.86316967010498,0.0005347323603928089,0.00673433393239975,0.009553909301757812,-0.05798334349408942,5.336085289072462e-8,0.0811251316397901
0.005067470949143171,0.027968330308794975,9.86309814453125,-0.004084119573235512,-0.0070601459592580795,0.008665084838867188,0.025161936654650958,0.022110229477830416,0.02099586810648697
0.011411664076149464,0.02970387041568756,9.865971565246582,0.0056161945685744286,-0.002079196274280548,0.008248329162597656,0.061764386808220384,0.05987391851200779,0.04310604422346449
0.011553873308002949,0.024973057210445404,9.870944023132324,0.0053835175931453705,-0.006629219278693199,0.01157379150390625,0.12435578679496766,-0.00025533168108211727,0.04310604422346449
0.008345284499228,0.03132821246981621,9.869319915771484,-0.004287335090339184,0.002747882157564163,0.005808830261230469,0.0030517605376734315,5.336085289072462e-8,0.001718973185128414
0.008203075267374516,0.03589489310979843,9.864458084106445,-0.00443428847938776,-0.0022822916507720947,0.0001392364501953125,-0.014784584788727288,-0.01783629196554783,-0.017929059808298353
0.009827418252825737,0.034494828432798386,9.86917781829834,0.004455658607184887,0.002082817256450653,0.008930206298828125,0.01907639818672827,-0.03852981747955595,0.0206008177022171
0.006081032566726208,0.023075269535183907,9.86799144744873,0.0041430373676121235,-0.007420172914862633,0.0035953521728515625,0.017264957313646842,5.336085289072462e-8,0.028892844112437782
0.010284962132573128,0.031012877821922302,9.86136245727539,0.004328601993620396,-0.0021300576627254486,-0.0016889572143554688,-0.007954502340420319,0.04435887700805938,0.026429760503854823
0.00804104097187519,0.03573285788297653,9.866153717041016,-0.0008777356706559658,0.002391926944255829,0.0026979446411132812,0.018823787909143578,0.04526313002114559,-0.017929059808298353
0.00925986934453249,0.034494828432798386,9.858905792236328,-0.00547421770170331,0.001758389174938202,0.0026636123657226562,0.07895466560824665,-0.0923345793054785,-0.017929059808298353
0.008995152078568935,0.034494828432798386,9.862458229064941,0.00837433710694313,0.0014050081372261047,0.0029249191284179688,0.06408686456943628,0.06103515739261574,-0.0789641638400612
0.006254777777940035,0.034494828432798386,9.865056991577148,-0.0009874161332845688,0.001439109444618225,0.0032453536987304688,-0.0440146995069142,-0.05405072867732235,-0.07197984184647359
0.01221318170428276,0.02970387041568756,9.862601280212402,0.003939388785511255,-0.003274139016866684,-0.0012273788452148438,0.05619828956276245,-0.06103505067090996,-0.017929059808298353
0.007066928315907717,0.037022266536951065,9.859098434448242,-0.005690928548574448,0.0016551874577999115,-0.0059986114501953125,-0.05798334349408942,0.03219871236663015,0.01426960753511217
0.009137510322034359,0.03461679071187973,9.86124038696289,-0.0009058862924575806,0.006213407963514328,-0.005743980407714844,0.0030517605376734315,-0.06103505067090996,0.04465977885751017
0.006803013384342194,0.02972404472529888,9.858977317810059,-0.0011336086317896843,-0.008017851039767265,-0.005227088928222656,0.03344081961979399,0.09168120234225803,0.012716988476397241
0.009279681369662285,0.03433244675397873,9.858885765075684,-0.0007682424038648605,0.00651102140545845,-0.00025653839111328125,-0.08746654873753704,5.336085289072462e-8,0.011554150437729224
0.006803013384342194,0.02970387041568756,9.86136245727539,-0.0008325669914484024,-0.0030497387051582336,0.00001811981201171875,0.011586028544751473,0.0525008893855377,-0.017929059808298353
0.01159396767616272,0.030302664265036583,9.860763549804688,0.0037225838750600815,-0.0028876066207885742,0.00014591217041015625,-0.0045766803111581145,0.007628494209684437,0.027849182536121238
0.002539742272347212,0.03396713733673096,9.865626335144043,-0.005557464435696602,0.0019007399678230286,0.004791259765625,0.05064169054911907,-0.006722533649305714,-0.017929059808298353
0.007716183550655842,0.03495141491293907,9.86136245727539,0.008615503087639809,0.006360046565532684,-0.000255584716796875,0.0030517605376734315,-0.005816679810632773,-0.012112323301759384
0.006803013384342194,0.03890030458569527,9.856956481933594,-0.0012645488604903221,0.0021483860909938812,-0.0002231597900390625,0.049354199890571666,-0.009821731985198999,0.03819515155043855
0.01159396767616272,0.034494828432798386,9.856571197509766,0.0037568509578704834,0.0019659027457237244,-0.0046024322509765625,0.0030517605376734315,0.032076142487540156,-0.017929059808298353
0.0038997142110019922,0.034494828432798386,9.853668212890625,-0.005669128615409136,0.0016109943389892578,-0.008894920349121094,0.0030517605376734315,0.024048188933115753,-0.041977195380561216
0.007960855029523373,0.02970387041568756,9.854754447937012,0.003687681630253792,-0.003010328859090805,-0.0033168792724609375,0.06408686456943628,0.06103515739261574,0.005213223592818221
0.006803013384342194,0.026212967932224274,9.860917091369629,-0.0015543298795819283,-0.0026484988629817963,0.006567955017089844,0.0030517605376734315,-0.038798622775992976,0.04310604422346449
0.008245272561907768,0.03426274284720421,9.858245849609375,-0.005911477841436863,-0.0071961116045713425,0.0020904541015625,0.0030517605376734315,0.021330654097523376,-0.03630297570693346
0.009990725666284561,0.03291035443544388,9.854987144470215,-0.0013179806992411613,0.0068299658596515656,0.0019311904907226562,0.0030517605376734315,0.0812207676283835,-0.05853941694206366
0.011552821844816208,0.02970387041568756,9.856612205505371,0.003383246250450611,-0.0027371644973754883,-0.0021772384643554688,0.003575950876045465,-0.06051086033253793,-0.07739160616515833
0.002124226652085781,0.034494828432798386,9.856571197509766,-0.005951074883341789,0.002013556659221649,-0.002010345458984375,0.004480817538939927,-0.0014290036404136053,-0.07753509349858148
0.0037685332354158163,0.02970387041568756,9.86136245727539,-0.0011615268886089325,-0.0027168206870555878,0.0026073455810546875,0.0030517605376734315,-0.022376873659725367,-0.017929059808298353
0.0020120516419410706,0.031531330198049545,9.854743957519531,-0.005548939574509859,0.0019951872527599335,-0.0064373016357421875,0.040805684535771804,-0.05222661460167938,0.0053521218928927776
0.006803013384342194,0.03160230815410614,9.852774620056152,-0.000840683002024889,-0.002791542559862137,-0.0012197494506835938,0.0030517605376734315,0.04837091945435429,-0.017929059808298353
0.008772429078817368,0.030821165069937706,9.856571197509766,-0.00020109815523028374,-0.0074263568967580795,-0.0007066726684570312,0.013907519130188893,0.02508973942068981,0.05396179614587335
0.003189288079738617,0.02970387041568756,9.852957725524902,-0.004898348357528448,-0.0024290084838867188,-0.005161285400390625,0.0030517605376734315,-0.031039928085255172,-0.002931498515470961
0.010487711988389492,0.031916383653879166,9.86025619506836,0.004688106942921877,-0.0019953064620494843,0.0042133331298828125,-0.07207665177383059,-0.03284843411142761,-0.032022374758146135
0.006803013384342194,0.03073914721608162,9.855536460876465,0.00010431045666337013,0.00215698778629303,-0.005173683166503906,-0.04479427488722124,0.09569212421064224,0.029916978951649624
0.010629669763147831,0.02587721310555935,9.856571197509766,0.0003092135302722454,-0.002668660134077072,-0.00007343292236328125,-0.04569852790030746,5.336085289072462e-8,-0.054394525982390675
0.010913882404565811,0.034494828432798386,9.855891227722168,0.005009007640182972,0.002414606511592865,0.0000629425048828125,-0.04931928855256791,0.06103515739261574,0.0344419959520496
0.010842777788639069,0.026415294036269188,9.851780891418457,0.005181277636438608,-0.007439358159899712,-0.004355430603027344,-0.006518134902307794,-0.06103505067090996,-0.017929059808298353
0.004407632630318403,0.03689040616154671,9.851780891418457,0.000456084031611681,0.006873730570077896,-0.004143714904785156,-0.05798079551336389,0.061032596071676985,0.07362231557887654
0.004478737246245146,0.02970387041568756,9.854104995727539,-0.0042638820596039295,-0.0024874769151210785,0.0009508132934570312,-0.026558670319278898,0.059220915074757546,-0.047539490665250685
0.0022966735996305943,0.036747999489307404,9.86136245727539,-0.00878333393484354,0.006715044379234314,0.0055999755859375,-0.02927875313559681,0.025078693724141427,-0.017929059808298353
0.006194232031702995,0.03388604894280434,9.8475980758667,0.005599373485893011,-0.007522029802203178,-0.003444671630859375,-0.04247203724984335,-0.007755599761270143,-0.017929059808298353
0.011056291870772839,0.03395715355873108,9.847527503967285,0.005703674163669348,0.0020621344447135925,-0.007857322692871094,0.11142234335387251,0.10837063617705196,-0.02477886576185506
0.011127396486699581,0.038819216191768646,9.860896110534668,0.0008438793011009693,0.002167966216802597,0.0017986297607421875,-0.052039384709099044,-0.005943892083924261,-0.01198510102330798
0.006407545879483223,0.03889032080769539,9.846989631652832,-0.004203844349831343,0.0024064555764198303,-0.0074920654296875,0.054010627996374974,-0.0050380649256777646,0.03302982099061641
0.003260974306613207,0.034494828432798386,9.853029251098633,-0.004426864441484213,0.002139464020729065,-0.0024175643920898438,-0.01285905841216549,-0.07694586962074888,0.027195225273625574
0.006803013384342194,0.034494828432798386,9.859210968017578,-0.00038134073838591576,0.0020440183579921722,0.0023088455200195312,0.019868433326185295,-0.044218377882398095,-0.001112393689893102
0.006803013384342194,0.02970387041568756,9.858580589294434,-0.0005238191224634647,-0.003061920404434204,0.006688117980957031,-0.040260830207117834,5.336085289072462e-8,-0.061241650553089624
0.008558450266718864,0.032739389687776566,9.854816436767578,-0.0004983283579349518,0.0019988976418972015,0.0019464492797851562,0.0030517605376734315,0.01630785037577236,0.020742385712462848
0.009909635409712791,0.03760145232081413,9.859678268432617,0.004505611956119537,0.006529558449983597,0.006587028503417969,-0.01840605247228854,5.336085289072462e-8,-0.05750635083009923
0.0036252818536013365,0.034494828432798386,9.86136245727539,-0.0004097740165889263,0.0014431066811084747,0.006504058837890625,0.04353490539814725,5.336085289072462e-8,0.022554078382068854
0.010051844641566277,0.031245995312929153,9.855029106140137,-0.00020467909052968025,0.001445423811674118,-0.0034151077270507812,-0.016594371475369105,-0.08277791735701419,0.04310604422346449
0.006803013384342194,0.0343925878405571,9.851984977722168,-0.00025931466370821,0.0013729482889175415,-0.0034322738647460938,-0.05798334349408942,0.1194652913079592,-0.019231544866508053
0.006976231001317501,0.038939349353313446,9.86136245727539,-0.00010077608749270439,0.006578613072633743,0.005725860595703125,-0.0557766054227935,0.0022067914321488072,0.04310604422346449
0.008620535023510456,0.034494828432798386,9.85954475402832,0.004407774657011032,0.0019007064402103424,0.0007085800170898438,-0.005376933021960312,-0.02315455472975479,-0.017929059808298353
0.012607920914888382,0.02781536988914013,9.851780891418457,-0.0010346202179789543,-0.0074171032756567,-0.0037889480590820312,0.040028030146168826,-0.024058781062414564,-0.017929059808298353
0.004843530710786581,0.02970387041568756,9.859402656555176,-0.0012047206982970238,-0.003019675612449646,0.005558013916015625,0.05023267961171167,0.024963140797206563,-0.05400106973360092
0.01159396767616272,0.03725532442331314,9.856571197509766,0.003759855404496193,0.006699826568365097,0.0002994537353515625,-0.032116003044649524,0.025867393810292783,-0.017929059808298353
0.01047777570784092,0.027145298197865486,9.851454734802246,0.0036382442340254784,-0.007731536403298378,-0.009305953979492188,0.049866971006425086,-0.014219840202158305,0.04310604422346449
0.007848226465284824,0.034494828432798386,9.86031723022461,-0.0010831169784069061,0.0014662928879261017,0.00527191162109375,-0.04466768960395122,0.026631361141129288,-0.05233286272989142
0.005828848108649254,0.0306780356913805,9.855597496032715,-0.005743698216974735,0.0019522719085216522,-0.004231452941894531,-0.009358746545092628,0.01241056044361895,-0.04275008064393709
0.007706072647124529,0.03359176963567734,9.859556198120117,0.003827765118330717,-0.002557959407567978,-0.0038022994995117188,0.0030517605376734315,-0.04953039742681684,0.04310604422346449
0.01159396767616272,0.030445199459791183,9.86136245727539,0.003636314533650875,-0.002877272665500641,0.0052928924560546875,-0.006392496774176582,-0.018888487943273583,-0.017929059808298353
0.013135189190506935,0.032869961112737656,9.844635963439941,0.007887633517384529,0.001858387142419815,-0.013782501220703125,0.0030517605376734315,-0.010350057789670065,-0.02827917762892792
0.0076865507289767265,0.03537836670875549,9.86136245727539,-0.001355186104774475,0.0021791234612464905,0.0051631927490234375,0.04157493459104449,5.336085289072462e-8,-0.017929059808298353
0.009330938570201397,0.03249669447541237,9.858834266662598,0.003199075348675251,0.006293606013059616,0.0002079010009765625,0.09291706637563366,5.336085289072462e-8,0.01090115200305894
0.006803013384342194,0.03668675571680069,9.853972434997559,-0.0018759779632091522,0.0010923445224761963,-0.0047206878662109375,0.030976135185624313,-0.022737939870810457,-0.012742681727064126
0.006803013384342194,0.03504236415028572,9.846989631652832,-0.0015390291810035706,0.00568312406539917,-0.009121894836425781,-0.0039236768739078715,0.013950928184015497,-0.017929059808298353
0.006326580420136452,0.034494828432798386,9.852733612060547,-0.006188614293932915,0.0008777938783168793,0.005547523498535156,-0.05798334349408942,0.054965573819707375,-0.017929059808298353
0.0056350561790168285,0.03087182715535164,9.86381721496582,-0.0012876922264695168,-0.003598008304834366,0.010243415832519531,-0.043104003170841426,-0.07591440433437117,0.02822669723010989
0.010354908183217049,0.03094293177127838,9.853019714355469,0.00315830297768116,-0.003918115049600601,-0.004212379455566406,0.0030517605376734315,5.336085289072462e-8,-0.0021438656463774203
0.007778950966894627,0.034494828432798386,9.858478546142578,0.0030264919623732567,0.0009905174374580383,0.0003871917724609375,-0.05798334349408942,-0.09776916872898725,-0.0054959143836934045
0.006803013384342194,0.032658424228429794,9.854735374450684,-0.0018444415181875229,0.0013989731669425964,0.00034236907958984375,-0.04883305112081441,-0.03763991853589734,0.04310604422346449
0.006803013384342194,0.02529694326221943,9.847373962402344,-0.001872924156486988,0.001284729689359665,0.00045299530029296875,0.0006055656390303884,0.0585889624939727,0.04310604422346449
0.01147305779159069,0.04359310120344162,9.85190200805664,-0.0013669179752469063,-0.007688147947192192,0.000885009765625,-0.000028948262693218105,0.0015403944208229928,0.04310604422346449
0.0068528191186487675,0.03444502130150795,9.86605453491211,0.003031543456017971,-0.0029036179184913635,0.0011425018310546875,0.0030517605376734315,0.05976615626959497,-0.01729455257668136
0.008397595025599003,0.03290024399757385,9.853375434875488,-0.0010277340188622475,0.002248268574476242,-0.004006385803222656,-0.037668920159443446,0.02031447669549886,0.04310604422346449
0.009928281418979168,0.037620097398757935,9.858031272888184,0.0038653486408293247,0.007452972233295441,0.005463600158691406,-0.05535762934610876,0.03981488021929683,-0.039149330311510654
0.006803013384342194,0.03118475154042244,9.850299835205078,-0.0006733294576406479,-0.002470560371875763,-0.0034227371215820312,0.08739016267662396,-0.01886583626122147,-0.06009826087777362
0.0037488453090190887,0.034494828432798386,9.859625816345215,-0.0007075686007738113,0.0022849664092063904,0.001163482666015625,-0.019074343793891977,-0.06103505067090996,-0.017929059808298353
0.006803013384342194,0.033319663256406784,9.853588104248047,-0.0007161376997828484,0.007653243839740753,0.0015077590942382812,-0.03495138532385107,-0.07600623836219611,-0.03290023415937128
0.007835964672267437,0.031582873314619064,9.856571197509766,0.0035957302898168564,-0.00185471773147583,0.001216888427734375,0.0030517605376734315,-0.01315942665308738,0.02994656087447092
0.006803013384342194,0.03254472091794014,9.853731155395508,-0.00140474084764719,0.002979408949613571,-0.0037298202514648438,0.027895426385257664,-0.03619138482332573,-0.042772718985775976
0.010397505946457386,0.035691291093826294,9.857768058776855,0.0033763227984309196,0.002937532961368561,0.0008172988891601562,-0.07322585778211169,0.015242554308661933,0.027863529935442232
0.00792837142944336,0.03562018647789955,9.856571197509766,-0.0013524172827601433,0.002319611608982086,0.0007028579711914062,0.06408686456943628,5.336085289072462e-8,-0.03226572692775429
0.009485459886491299,0.034494828432798386,9.855517387390137,-0.0060307662934064865,0.002244211733341217,-0.004406929016113281,-0.044552523543199815,-0.09520854148132005,0.04310604422346449
0.0020120516419410706,0.03830263763666153,9.85755443572998,-0.0059980666264891624,0.0021777451038360596,0.004998207092285156,0.0030517605376734315,5.336085289072462e-8,-0.06643919105773793
0.01093272864818573,0.033833589404821396,9.857232093811035,0.00357827078551054,0.00200449675321579,-0.00006961822509765625,-0.04955938571014973,0.06103515739261574,-0.07054020605612152
0.007535357028245926,0.03522717207670212,9.845860481262207,-0.0003438089042901993,0.002148713916540146,-0.014028549194335938,-0.04865354521169001,0.04237556082781692,-0.008599258190845638
0.009179744869470596,0.032080601900815964,9.859023094177246,0.0042363302782177925,0.002033151686191559,-0.004853248596191406,0.0030517605376734315,0.06151279038684062,0.01282730870469551
0.004355262033641338,0.03225616365671158,9.849332809448242,-0.005015089642256498,0.007053013890981674,-0.009003639221191406,0.0030517605376734315,-0.028519775044505587,0.04443786441055087
0.006803013384342194,0.03197610005736351,9.851780891418457,-0.00014981022104620934,0.0022551752626895905,-0.004147529602050781,0.0030517605376734315,-0.028947328878292516,-0.02106937601639725
0.004601761233061552,0.03229357674717903,9.853981971740723,-0.005170286167412996,-0.002534981817007065,0.0008029937744140625,0.036043708662950646,-0.09402702547661362,-0.05092101460368218
0.004142324440181255,0.039816200733184814,9.849650382995605,-0.00007147528231143951,0.0024005286395549774,-0.008625984191894531,-0.05122603190891217,0.06779245563757977,0.009209838082521103
0.010622035712003708,0.034494828432798386,9.860390663146973,0.004837645683437586,0.0021081529557704926,0.005890846252441406,-0.051792310620001766,-0.006190979513234761,0.036915011349376844
0.006803013384342194,0.038455814123153687,9.860947608947754,-0.00032842811197042465,-0.002690564841032028,0.0012340545654296875,0.0030517605376734315,-0.06632183053191139,-0.017929059808298353
0.011250083334743977,0.038254134356975555,9.851780891418457,-0.0005818535573780537,-0.007604124024510384,-0.003958702087402344,0.007432739920854813,-0.11768920199991788,-0.017929059808298353
0.01159396767616272,0.031004374846816063,9.85876178741455,0.0035046692937612534,-0.0026099085807800293,0.005648612976074219,-0.041415372300688,-0.06103505067090996,0.04310604422346449
0.004755269270390272,0.02628452330827713,9.848361015319824,-0.005875026807188988,-0.007339028641581535,-0.008074760437011719,-0.023035720110367145,-0.06103505067090996,0.02563223419913001
0.006803013384342194,0.02970387041568756,9.851780891418457,-0.0012826528400182724,-0.002416606992483139,-0.003185272216796875,-0.019560594565858704,-0.015810313783419242,-0.05635180206642246
0.005099156405776739,0.03108711913228035,9.851780891418457,-0.0009848824702203274,0.002310648560523987,-0.0030145645141601562,-0.036276828889017,5.336085289072462e-8,-0.057257649234988786
0.01159396767616272,0.031336620450019836,9.853413581848145,0.003783890511840582,0.0027503371238708496,0.0014591217041015625,0.022485516356210884,0.02080072746746559,-0.017929059808298353
0.01159396767616272,0.02970387041568756,9.855010032653809,0.0035415207967162132,-0.0019340291619300842,-0.0028896331787109375,-0.05798334349408942,0.06103515739261574,0.04310604422346449
0.011511225253343582,0.024995656684041023,9.861279487609863,0.003185630775988102,-0.006246110424399376,0.0063533782958984375,0.0019976435692436122,0.0010541703292827101,-0.016874949509975146
0.0066491663455963135,0.034494828432798386,9.851934432983398,-0.0013109976425766945,0.003641190007328987,-0.0029239654541015625,-0.1150985325920732,-0.05711513573713088,0.03918612928968542
0.00979573279619217,0.03748755156993866,9.853578567504883,-0.0013786591589450836,0.0029728375375270844,0.002048492431640625,0.025960641900719325,-0.022908828002193002,0.004979829892380803
0.008672352880239487,0.031573209911584854,9.8499116897583,0.0033319201320409775,0.0028005875647068024,-0.0071620941162109375,0.016457394165998614,-0.03722031546919113,0.00588567539342048
0.008743456564843655,0.037345342338085175,9.853720664978027,-0.0016110194846987724,0.007359791547060013,-0.0019960403442382812,0.027772349578065205,-0.011593899270552856,0.01838546185317933
0.008814561180770397,0.034494828432798386,9.846989631652832,-0.0012597832828760147,0.0024310611188411713,-0.006258964538574219,0.0030517605376734315,0.06103515739261574,-0.008146811519185185
0.01159396767616272,0.02970387041568756,9.856571197509766,0.0036688540130853653,-0.002226356416940689,0.0030870437622070312,0.049627113972681276,0.028919527873936448,-0.06450441991341281
0.0030759673099964857,0.03183170035481453,9.854443550109863,-0.005976656451821327,-0.0024785660207271576,0.003299713134765625,-0.04442944673600736,5.336085289072462e-8,0.015998250707300373
0.006803013384342194,0.030696680769324303,9.847982406616211,-0.0011319248005747795,0.0024303197860717773,-0.0014495849609375,-0.009596282381735688,0.01264809628026201,0.03045799129889546
-0.0018571977270767093,0.028782164677977562,9.850858688354492,-0.006029193289577961,-0.007757635787129402,-0.0059223175048828125,-0.02275672289102799,-0.049292834909747334,-0.029671262229247757
0.0034574181772768497,0.02970387041568756,9.852503776550293,-0.005912346765398979,-0.0029039420187473297,-0.0011386871337890625,0.054880143094229325,-0.10365673843268534,0.03389931607815093
0.0020120516419410706,0.03290725499391556,9.856571197509766,-0.005984979681670666,0.001856870949268341,0.0031681060791015625,0.05397428925555639,0.08161996016885902,0.05321861953734439
0.009241187945008278,0.02970387041568756,9.854133605957031,0.0032314173877239227,-0.0026442110538482666,-0.0017004013061523438,0.0030517605376734315,-0.03106145918939658,0.013132446071844507
0.007030613720417023,0.03700410947203636,9.851325035095215,0.0034521939232945442,0.006810680031776428,-0.011290550231933594,-0.02601599044538023,-0.03196728634764308,0.011138692842281958
0.00901358388364315,0.031544629484415054,9.856202125549316,0.003812460694462061,0.00634392723441124,0.007907867431640625,0.0030517605376734315,-0.06574636041391137,-0.041379667219997494
0.013733433559536934,0.034494828432798386,9.851780891418457,0.008207924664020538,0.001586679369211197,-0.00119781494140625,0.05756387382951543,0.04030209148661559,0.01584998424249019
0.002507130615413189,0.03829563036561012,9.851780891418457,-0.005727676209062338,0.006386056542396545,-0.0009450912475585938,-0.05798334349408942,-0.04842081185180711,0.030491792064148426
0.00243602623231709,0.030127843841910362,9.847414016723633,-0.005664218682795763,-0.0030531547963619232,-0.005600929260253906,0.0030517605376734315,-0.06103505067090996,-0.012527777562153343
0.015326312743127346,0.03414195775985718,9.851428031921387,-0.0055398461408913136,-0.002963706851005554,-0.0056324005126953125,0.055095987744172306,-0.004495385051779095,-0.017929059808298353
0.002293817000463605,0.039004020392894745,9.852062225341797,0.0036443620920181274,0.006079506129026413,-0.0051517486572265625,-0.0005378240362856134,-0.05744546609695091,-0.014339471899286003
0.008868719451129436,0.03792316094040871,9.85793399810791,0.0037177028134465218,0.005823373794555664,0.0043506622314453125,-0.05798334349408942,-0.04367569800849943,-0.0005697138159944327
0.009670468047261238,0.03306109830737114,9.856571197509766,-0.00042471615597605705,0.0012866593897342682,0.0039081573486328125,-0.05798334349408942,0.04276997757195871,0.04310604422346449
0.014672082848846912,0.027991030365228653,9.848702430725098,0.008556202054023743,-0.003061506897211075,-0.005695343017578125,0.06408686456943628,-0.039214063696173716,-0.05271533998319891
0.005161276087164879,0.03298734128475189,9.851780891418457,-0.0012536440044641495,-0.0032777339220046997,-0.0012760162353515625,0.0030517605376734315,-0.04011991753484666,-0.017929059808298353
0.008373643271625042,0.02970387041568756,9.851780891418457,0.0033241258934140205,-0.00296570360660553,-0.0011396408081054688,-0.05798334349408942,-0.0410257713735196,-0.017929059808298353
0.011886341497302055,0.02970387041568756,9.858070373535156,-0.005967641249299049,-0.0031070858240127563,0.008447647094726562,-0.01977646589622813,-0.019103398778290977,0.0850377094562967
0.006803013384342194,0.02984873205423355,9.84727954864502,-0.0010688956826925278,-0.0030772536993026733,-0.005793571472167969,-0.05613785839686371,0.057344187198164316,-0.017929059808298353
0.011378001421689987,0.03471079468727112,9.860930442810059,0.0036369161680340767,0.001791980117559433,0.008322715759277344,-0.055232004558190766,5.336085289072462e-8,0.1013898093193287
0.008663427084684372,0.034494828432798386,9.854710578918457,0.0035251369699835777,0.00143514946103096,-0.0015048980712890625,-0.020649262686535268,-0.02370096986335581,0.019405012661622534
0.0010843880008906126,0.03735414147377014,9.854640007019043,-0.000769179780036211,0.0013344809412956238,-0.0016813278198242188,0.0030517605376734315,0.03642667950414738,0.018497569670049438
0.00801785197108984,0.033279988914728165,9.855356216430664,0.0037024030461907387,-0.0034065134823322296,-0.0017194747924804688,-0.0425067084640091,0.04555853570274865,-0.017929059808298353
0.006803013384342194,0.035638436675071716,9.856571197509766,-0.00082055339589715,0.006375905126333237,0.002666473388671875,0.08141441416352395,0.07560435109864962,-0.03249824017411901
0.002512914827093482,0.031206458806991577,9.851780891418457,-0.004845025017857552,-0.003676522523164749,-0.0018892288208007812,0.0030517605376734315,0.05465434664522223,0.04310604422346449
0.006803013384342194,0.031849205493927,9.851280212402344,-0.0001493147574365139,-0.0038011036813259125,-0.006264686584472656,0.0030517605376734315,-0.027330761839968014,0.04310604422346449
0.0020120516419410706,0.02970387041568756,9.854354858398438,-0.0048955581150949,-0.003471601754426956,0.003261566162109375,-0.029745233711567523,0.02367927867665573,0.010309049974223543
0.006803013384342194,0.03835577145218849,9.85564136505127,0.00028455350548028946,0.0057388730347156525,0.0029153823852539062,0.06408686456943628,0.011848110373724267,-0.006080999460373672
0.006803013384342194,0.028844960033893585,9.851780891418457,0.00043759681284427643,-0.008475793525576591,-0.0021791458129882812,-0.05798334349408942,0.03282668956387464,0.02122161119464118
0.007590819150209427,0.03370702266693115,9.860574722290039,0.005228801164776087,-0.003609016537666321,0.0021390914916992188,0.0030517605376734315,0.06103515739261574,0.0021436822184456084
0.009880801662802696,0.034494828432798386,9.850924491882324,0.0048178136348724365,0.0008082166314125061,-0.0026178359985351562,-0.007860800682744206,-0.010912507859564748,-0.007016498587880716
0.007730700075626373,0.033567141741514206,9.847917556762695,-0.00007348647341132164,0.0006994567811489105,-0.007193565368652344,0.0030517605376734315,-0.011818361698237688,0.019469227445496562
0.011947162449359894,0.03192275017499924,9.856571197509766,0.00903400033712387,-0.0039060860872268677,0.0023822784423828125,0.03581911283313359,5.336085289072462e-8,0.04310604422346449
0.0020120516419410706,0.03664260730147362,9.851284980773926,-0.004964129067957401,0.0008417777717113495,-0.0071239471435546875,-0.030621432256246445,-0.027361871217203307,-0.011617791592434677
0.0047263395972549915,0.029066259041428566,9.853857040405273,-0.004616273567080498,0.0005139335989952087,0.0026912689208984375,0.0030517605376734315,-0.034578979931526706,-0.017929059808298353
0.004017621278762817,0.02970387041568756,9.85378646850586,0.00043652765452861786,-0.0033972710371017456,0.0024623870849609375,-0.022498456363036885,-0.03548483377019964,0.017555820652647568
0.007164191920310259,0.030426228418946266,9.856571197509766,0.0002891579642891884,-0.003541015088558197,0.0023212432861328125,0.05948558490509554,5.336085289072462e-8,-0.013327770138797698
0.0025922004133462906,0.029993945732712746,9.852070808410645,-0.004519554320722818,-0.0034846067428588867,-0.0028896331787109375,0.06039141206334204,0.06103515739261574,-0.07157327216808594
0.006584043148905039,0.029922841116786003,9.856351852416992,-0.00405257660895586,0.0012583136558532715,-0.0025873184204101562,-0.05519374482666812,0.002789652028274192,-0.015139461140877053
0.01129823736846447,0.02985173650085926,9.856571197509766,-0.0037893359549343586,0.0011536329984664917,0.0021648406982421875,0.0030517605376734315,5.336085289072462e-8,0.041222292724609526
0.003508576424792409,0.035991352051496506,9.849982261657715,-0.0035638022236526012,0.0014904327690601349,-0.00738525390625,-0.01985298535927343,-0.019065112366341883,0.020201298326517635
0.0035796810407191515,0.02648054249584675,9.853348731994629,-0.00398433580994606,-0.008155124261975288,-0.00250244140625,0.04411584500356857,-0.04106403110504225,0.003163991751515848
0.01474619098007679,0.037647053599357605,9.848628044128418,0.009977996349334717,0.006019014865159988,-0.007076263427734375,0.023928633942214086,-0.040158177266369305,0.06238740144614604
0.006803013384342194,0.034494828432798386,9.850005149841309,0.00036541372537612915,0.0012810006737709045,-0.006829261779785156,-0.05457613297509765,0.06103515739261574,0.020489535311040148
0.012074727565050125,0.032577332109212875,9.85800838470459,0.009669868275523186,-0.0034235604107379913,0.0026216506958007812,0.0030517605376734315,-0.018303386191326786,-0.036232512700691256
0.0054373848251998425,0.031069498509168625,9.850415229797363,-0.004248904995620251,0.0014392472803592682,-0.006966590881347656,-0.023188118706223053,0.017397665754786074,0.016866154974408094
0.009392056614160538,0.034494828432798386,9.86136245727539,0.009376784786581993,0.0016841553151607513,0.0073032379150390625,-0.08603493041533179,5.336085289072462e-8,0.0876493896999671
0.002711784327402711,0.034494828432798386,9.847339630126953,-0.004780865740031004,0.0016178078949451447,-0.007068634033203125,-0.06244052217519876,-0.0654922293520193,-0.07004981981805575
0.006803013384342194,0.030124841257929802,9.852201461791992,-0.000292701181024313,-0.0030591748654842377,-0.0022268295288085938,0.0030517605376734315,0.05030911903347763,-0.0789641638400612
0.00886837113648653,0.036560188978910446,9.857232093811035,0.004177098162472248,0.006134703755378723,-0.0024967193603515625,-0.05798334349408942,5.336085289072462e-8,0.04310604422346449
0.006803013384342194,0.02970387041568756,9.858707427978516,-0.0004952652379870415,-0.0029157400131225586,0.0021810531616210938,0.0030517605376734315,-0.06103505067090996,0.009288737106099997
0.009386400692164898,0.03228725865483284,9.85915470123291,0.004106489941477776,0.0020178481936454773,0.0063228607177734375,-0.00173606866837328,-0.0281235973922184,-0.017929059808298353
0.005864012520760298,0.02970387041568756,9.856571197509766,-0.00036998325958848,-0.0022668391466140747,0.0013675689697265625,-0.020873298227396975,0.11010771870163016,0.04310604422346449
0.009858176112174988,0.042340949177742004,9.856571197509766,0.004467140417546034,0.011849209666252136,0.0010614395141601562,0.014108449421748917,0.011056742244928376,0.032049362009495624
0.002808843506500125,0.030500661581754684,9.8653564453125,-5.681067705154419e-7,0.0020295046269893646,0.005610466003417969,-0.047832508448686875,-0.05088421562550741,-0.0789641638400612
0.007528699468821287,0.034494828432798386,9.86136245727539,0.005039485637098551,0.0020813345909118652,0.005135536193847656,0.0030517605376734315,0.06103515739261574,0.024616068469792068
0.006803013384342194,0.030622573569417,9.856571197509766,0.0004502618685364723,-0.0027252063155174255,0.00019168853759765625,0.0030517605376734315,0.04933122804340221,0.04310604422346449
0.007792819757014513,0.03251521661877632,9.860372543334961,0.0005528600886464119,0.0018955543637275696,0.0044536590576171875,0.0030517605376734315,5.336085289072462e-8,0.01788646450747833
0.004168815445154905,0.03880834951996803,9.856571197509766,-0.0038599958643317223,0.001405414193868637,-0.00017642974853515625,0.030528144145180233,0.06711749420936498,-0.017929059808298353
0.004097710829228163,0.030323514714837074,9.856571197509766,-0.004302626941353083,0.0014569610357284546,-0.00027942657470703125,-0.031412800385042336,0.03446462762378188,0.04310604422346449
0.008817564696073532,0.02970387041568756,9.859347343444824,0.004983931314200163,-0.003451600670814514,-0.00037860870361328125,0.06408686456943628,-0.01595892375871991,-0.017929059808298353
0.006803013384342194,0.024912914261221886,9.851780891418457,0.0005912259221076965,-0.008138606324791908,-0.005112648010253906,0.0030517605376734315,0.013238053869821862,0.01834834604494053
-0.002181131159886718,0.030002756044268608,9.851780891418457,-0.00876079685986042,-0.0032422728836536407,-0.004693031311035156,0.006859457597823314,-0.057227353610760076,-0.014121362748148472
0.006575357634574175,0.029931526631116867,9.856571197509766,0.0013570007868111134,-0.00305798277258873,0.00020694732666015625,0.0030517605376734315,-0.002900189035037328,0.04020579182241436
0.0023249033838510513,0.03433840349316597,9.851937294006348,0.006394902244210243,-0.0029711127281188965,0.00044345855712890625,0.0030517605376734315,-0.11808455255898526,-0.017929059808298353
0.006803013384342194,0.034494828432798386,9.851780891418457,0.0009475122205913067,0.0018074959516525269,-0.0040340423583984375,-0.05689798374629208,-0.05994969092311262,0.04310604422346449
0.005130605772137642,0.034494828432798386,9.85010814666748,-0.004463085439056158,0.0016353614628314972,-0.008134841918945312,0.06552806116473542,-0.1022055366774692,0.02324140952299436
0.006803013384342194,0.034494828432798386,9.854954719543457,0.00027754856273531914,0.0016581863164901733,-0.0033674240112304688,0.023272242090805282,0.06103515739261574,0.022885576010545867
0.01159396767616272,0.02970387041568756,9.853296279907227,0.004201908595860004,-0.002873949706554413,-0.0034246444702148438,0.04477298390691784,-0.04172117000839152,0.04310604422346449
0.0034569937270134687,0.02970387041568756,9.858016014099121,-0.0004278412088751793,-0.002734243869781494,0.005503654479980469,-0.05798334349408942,0.06103515739261574,-0.06055613034610909
0.01159396767616272,0.02970387041568756,9.85998821258545,0.004493790678679943,-0.0025059282779693604,0.0004930496215820312,-0.022978970843317858,-0.04353285100531096,0.008101668237639631
0.01159396767616272,0.02970387041568756,9.856571197509766,0.0040773362852633,-0.00229061022400856,-0.0000629425048828125,0.0030517605376734315,-0.006893448461114705,0.10069440401435016
0.01159396767616272,0.02970387041568756,9.857532501220703,0.0035566557198762894,-0.0023784227669239044,0.00460052490234375,-0.021343914269466722,0.036639482585475586,0.055349798640947044
0.006803013384342194,0.0309354979544878,9.858899116516113,-0.0013218559324741364,-0.0019850432872772217,0.0047397613525390625,-0.012638731450579688,5.336085289072462e-8,0.05879653621171762
0.005642489530146122,0.030864393338561058,9.856571197509766,-0.0008114976808428764,-0.0021224245429039,0.0000743865966796875,0.0197329234402693,-0.06103505067090996,0.011640239836235144
0.006803013384342194,0.034494828432798386,9.857660293579102,-0.0008563450537621975,0.002268437296152115,0.004351615905761719,0.0030517605376734315,-0.06103505067090996,-0.004050255487071282
0.010575654916465282,0.033476512879133224,9.86136245727539,-0.0011563897132873535,-0.002739179879426956,0.004405021667480469,-0.009921196614987311,5.336085289072462e-8,0.030133087070803755
0.006803013384342194,0.03386875241994858,9.86136245727539,-0.0011178692802786827,0.0016879700124263763,0.0041904449462890625,0.011027740621382266,0.04508319722519807,0.02715409406120674
0.006803013384342194,0.033100470900535583,9.848383903503418,-0.001242886297404766,0.0018171891570091248,-0.00995635986328125,0.0030517605376734315,-0.008881780561528886,0.034224223641295945
0.01159396767616272,0.031240439042448997,9.856571197509766,0.0030640652403235435,-0.002970263361930847,-0.00031757354736328125,0.05429920348880801,5.336085289072462e-8,0.033318376472729616
0.006837398279458284,0.02970387041568756,9.854193687438965,0.0028977487236261368,-0.0027172304689884186,-0.0000286102294921875,-0.05798334349408942,-0.03029845235391211,-0.048227558852956744
0.009110191836953163,0.03218764811754227,9.856571197509766,-0.0017351200804114342,0.0026814155280590057,-0.00025844573974609375,-0.05798334349408942,-0.09042772922742846,0.013713387344792478
0.008720277808606625,0.030022677034139633,9.86136245727539,0.007988332770764828,-0.006598090752959251,0.004050254821777344,0.0030517605376734315,0.0040615346373510585,0.04310604422346449
0.006803013384342194,0.034494828432798386,9.854406356811523,-0.0012994986027479172,0.0024613402783870697,-0.0054149627685546875,0.05821367561559223,0.06690834634645978,0.015525080014398484
0.006282430607825518,0.030224451795220375,9.860841751098633,-0.0008448157459497452,-0.002478286623954773,0.003973960876464844,0.0030517605376734315,5.336085289072462e-8,-0.017929059808298353
0.002911006798967719,0.02626134641468525,9.856122016906738,-0.005358710419386625,-0.006771428510546684,-0.0005846023559570312,-0.052257163689959314,0.0114524129691131,0.04310604422346449
0.0060462672263383865,0.025291286408901215,9.857328414916992,-0.009547398425638676,-0.0015511438250541687,0.008663177490234375,0.054446185958095514,0.05139447878127497,-0.017929059808298353
0.015770385041832924,0.030011139810085297,9.865846633911133,0.00011548958718776703,0.0032868795096874237,0.0038595199584960938,-0.05798334349408942,-0.11815568257588858,0.039191548751307134
0.008140132762491703,0.03315770626068115,9.857908248901367,-0.00032872240990400314,0.003204345703125,-0.0009517669677734375,-0.040948905064930506,-0.01703438506830602,-0.00799727439906554
0.006803013384342194,0.03252048417925835,9.86136245727539,-0.0007493500597774982,-0.001541024073958397,0.003589630126953125,0.04614553176497306,0.007211132298799634,0.000012276331218172332
0.006803013384342194,0.03928578644990921,9.858309745788574,-0.0010544396936893463,0.007290281355381012,-0.0014524459838867188,0.0030517605376734315,-0.04428750686731803,0.004214708633100537
0.006803013384342194,0.03137081861495972,9.856571197509766,-0.0009306957945227623,-0.002409469336271286,-0.0013837814331054688,-0.01818457825236559,-0.05836119169340864,-0.03649151294040961
0.006803013384342194,0.028108153492212296,9.856571197509766,-0.001047319732606411,-0.006989071145653725,-0.0013523101806640625,-0.037654459368310064,5.336085289072462e-8,0.0023998209824276978
0.008327499963343143,0.03297033905982971,9.856571197509766,0.003853735513985157,-0.002149593085050583,-0.0010499954223632812,0.04466543510791659,0.041613727931096044,0.02368460809183819
0.011353998444974422,0.03425486013293266,9.847229957580566,0.003614049404859543,0.002270899713039398,-0.010123252868652344,0.06255828957752858,-0.11901303139928386,-0.016400494821550572
0.010331925936043262,0.02970387041568756,9.86136245727539,0.008212719112634659,-0.002199597656726837,0.0039196014404296875,-0.05798334349408942,-0.09959160193776416,-0.017929059808298353
0.00568342674523592,0.0326591394841671,9.858407020568848,0.0034235557541251183,-0.0027947276830673218,0.0037746429443359375,0.0030517605376734315,0.03764914996344743,-0.04131506723746666
0.008709844201803207,0.034494828432798386,9.858478546142578,-0.0015283683314919472,0.0015653148293495178,-0.000904083251953125,0.0030517605376734315,-0.06103505067090996,0.018813674359994134
0.007638093549758196,0.034494828432798386,9.85573673248291,0.003141443245112896,0.0014934428036212921,-0.006064414978027344,0.0030517605376734315,5.336085289072462e-8,-0.05376594847555116
0.007971644401550293,0.03087250329554081,9.860076904296875,-0.0017002718523144722,-0.00334303081035614,-0.0017747879028320312,0.0030517605376734315,0.03125924119063605,0.028218086122474652
0.01159396767616272,0.030801396816968918,9.85287857055664,0.0030681081116199493,-0.0033684037625789642,-0.006320953369140625,0.017033878140203556,-0.033070842146276154,-0.050999948645320786
0.015358500182628632,0.03723293915390968,9.856571197509766,0.0030571138486266136,-0.003630705177783966,-0.0016231536865234375,-0.03183081596637505,0.06103515739261574,-0.004852796044441169
0.013518967665731907,0.032584190368652344,9.858482360839844,-0.006499975919723511,-0.007805099710822105,0.0076503753662109375,-0.05798334349408942,-0.04886464074572572,-0.05462332397937288
0.010709754191339016,0.03235651180148125,9.860478401184082,-0.0015156269073486328,0.011071592569351196,-0.0021820068359375,0.05282228180249853,0.011264636127790639,-0.0066644903815738284
0.008323362097144127,0.0329744778573513,9.860602378845215,-0.0014766892418265343,0.0014420226216316223,0.002716064453125,-0.04829897568444436,-0.009684301108578939,-0.017929059808298353
0.0028433320112526417,0.034494828432798386,9.859700202941895,-0.006467336788773537,0.0015956386923789978,0.0027294158935546875,0.013641968845778202,-0.10088976476688971,0.003251356807911187
0.0020120516419410706,0.02970387041568756,9.856571197509766,-0.00615266989916563,-0.0031918324530124664,-0.0015935897827148438,0.03459090608214778,0.027452851471381993,-0.017929059808298353
0.009349784813821316,0.03225064277648926,9.856268882751465,-0.0011510709300637245,-0.0035429298877716064,0.0028543472290039062,-0.0008031075164318509,-0.06488994540544168,0.014515927902162365
0.006358212325721979,0.037112705409526825,9.8591890335083,0.0032455287873744965,0.001689862459897995,-0.0020751953125,-0.05798334349408942,-0.027684224129516176,0.015421773403202043
0.01159396767616272,0.043019358068704605,9.86136245727539,0.00324055552482605,0.010833639651536942,0.0024261474609375,0.00978710079167292,5.336085289072462e-8,-0.017929059808298353
0.0024696385953575373,0.034494828432798386,9.865238189697266,-0.0011713840067386627,0.0012272819876670837,-0.002368927001953125,0.0030517605376734315,-0.04354656474450387,-0.012099566722865196
0.01159396767616272,0.032077476382255554,9.856571197509766,0.0036700116470456123,-0.0036228373646736145,-0.0024900436401367188,0.04896741374839325,5.336085289072462e-8,-0.017929059808298353
0.0007541457889601588,0.03928578644990921,9.86136245727539,-0.005417407490313053,0.0060240402817726135,0.0023717880249023438,-0.04195805217458667,0.045009879413326216,0.011055471589618915
0.0039006751030683517,0.03159249201416969,9.864265441894531,-0.004871157463639975,-0.003596227616071701,0.0070285797119140625,-0.03392297494630136,0.036974775504614456,0.030191687292437687
0.01159396767616272,0.0315212607383728,9.8673095703125,0.0046509066596627235,0.0015949010848999023,0.0021228790283203125,-0.04325409390980981,0.023152980584594512,-0.05581123661631958
0.01159396767616272,0.02970387041568756,9.86136245727539,0.004526098258793354,-0.002825230360031128,0.0017328262329101562,-0.01919371202180853,0.06103515739261574,-0.04017454570799354
0.0069047026336193085,0.034494828432798386,9.861260414123535,0.00006332527846097946,0.0021050013601779938,0.001678466796875,0.06279136978295527,0.17792341299064385,-0.017929059808298353
0.006803013384342194,0.03446437045931816,9.86136245727539,0.00018675066530704498,-0.002513416111469269,0.0017566680908203125,0.003439800659894781,0.12129418117993589,0.04310604422346449
0.006803013384342194,0.0280898567289114,9.866153717041016,0.00048002321273088455,-0.002634044736623764,0.006096839904785156,-0.0778945322036534,5.336085289072462e-8,0.0026328995203277303
0.008529024198651314,0.034494828432798386,9.863088607788086,0.004696505609899759,0.0020504258573055267,0.0058307647705078125,0.044563729322306865,-0.06103505067090996,0.0015940854439909788
0.006803013384342194,0.03438282757997513,9.866042137145996,0.0002670055255293846,0.001993294805288315,0.0054874420166015625,0.06266002204356474,5.336085289072462e-8,-0.017929059808298353
0.002490516286343336,0.031460344791412354,9.857850074768066,0.004934187978506088,0.0019165761768817902,-0.008693695068359375,0.0030517605376734315,5.336085289072462e-8,-0.05658731686076228
0.0038397470489144325,0.03153156489133835,9.86022663116455,-0.004727596417069435,-0.0033122189342975616,-0.0037317276000976562,0.02633592877909979,-0.0377508824294836,0.00535511176818131
0.006803013384342194,0.03928578644990921,9.857890129089355,-0.0002702111378312111,0.005736608058214188,-0.00395965576171875,0.0030517605376734315,-0.06103505067090996,-0.06216216528609429
0.005555241834372282,0.033447179943323135,9.864906311035156,-0.004929541610181332,0.010240212082862854,0.000736236572265625,0.04819071985414231,5.336085289072462e-8,0.027209891170537258
0.0024086704943329096,0.034494828432798386,9.86136245727539,-0.004806607495993376,0.0009249784052371979,0.0004062652587890625,-0.05798334349408942,0.05598236487154014,0.03805326504260211
0.009552961215376854,0.03245382010936737,9.857280731201172,-0.000023781321942806244,-0.0038267523050308228,-0.008952140808105469,0.038085161492417544,-0.026001649716165847,0.034074366356058955
0.009481857530772686,0.036040205508470535,9.85925006866455,0.00438285805284977,-0.0034837350249290466,0.0008096694946289062,-0.06520333369446892,5.336085289072462e-8,0.04310604422346449
0.009525054134428501,0.031772784888744354,9.865118980407715,0.004476656671613455,-0.004084348678588867,0.005379676818847656,0.06408686456943628,-0.026357193078976743,-0.03110767635810656
0.00487630907446146,0.03353147581219673,9.862325668334961,-0.00961080938577652,-0.003733806312084198,0.005564689636230469,-0.08220015272233987,-0.12207018138309926,0.09186838554409209
0.009809471666812897,0.02881162241101265,9.85445785522461,-0.004988666623830795,-0.008166993036866188,0.00545501708984375,-0.05798334349408942,-0.0496681217881278,0.04310604422346449
0.010841826908290386,0.037781503051519394,9.864649772644043,0.003757936879992485,0.0063799284398555756,0.005751609802246094,-0.038819326786914576,0.0418711406854409,0.04310604422346449
0.01159396767616272,0.02970387041568756,9.86218547821045,0.0035462137311697006,-0.003600984811782837,0.0009546279907226562,-0.01792396384684729,0.0715230195848761,-0.057988446125647096
0.004335376899689436,0.027380548417568207,9.85671615600586,-0.0060510532930493355,-0.002890501171350479,0.0009889602661132812,0.0030517605376734315,0.0018385215059234714,0.04310604422346449
0.010915033519268036,0.034494828432798386,9.86136245727539,-0.0011911951005458832,0.0019157156348228455,0.000934600830078125,0.0554374705222465,0.05238576334542596,0.03445666351648794
0.006803013384342194,0.037462297827005386,9.866153717041016,-0.000808272510766983,-0.007418772205710411,0.005219459533691406,0.0030517605376734315,5.336085289072462e-8,-0.010185522934834821
0.004193167667835951,0.036675941199064255,9.858752250671387,-0.0007641357369720936,0.006563134491443634,0.00027561187744140625,0.0030517605376734315,5.336085289072462e-8,0.00985756213038847
0.005729563068598509,0.03342137858271599,9.861899375915527,-0.00042431196197867393,0.0020177066326141357,0.00036525726318359375,-0.003785925832170466,0.0068377397306967885,-0.017929059808298353
0.0034089135006070137,0.030169490724802017,9.874804496765137,-0.005703100468963385,-0.002672240138053894,0.01428985595703125,-0.05798334349408942,-0.11020651632075734,-0.01199721727196748
0.0028010844253003597,0.03410031273961067,9.856966018676758,0.0036153867840766907,-0.0029743127524852753,-0.00008106231689453125,0.0030517605376734315,-0.0050259520120715705,-0.017929059808298353
0.006803013384342194,0.03324494883418083,9.864903450012207,-0.0007329070940613747,0.0017051845788955688,0.00445556640625,0.005708730805234837,-0.015922958543871563,0.04310604422346449
0.006803013384342194,0.031024979427456856,9.859213829040527,-0.0004279189743101597,-0.0029354989528656006,-0.005074501037597656,-0.024322410356121187,5.336085289072462e-8,-0.017929059808298353
0.006803013384342194,0.031529247760772705,9.86136245727539,-0.00005839066579937935,-0.003113269805908203,-0.0005016326904296875,0.0030517605376734315,0.037780524383264395,-0.017929059808298353
0.008557157590985298,0.031458016484975815,9.858325004577637,-0.00047647254541516304,-0.0031120143830776215,-0.0049648284912109375,0.019392481198826476,0.022347258386371017,0.004418136879586507
0.009911052882671356,0.03423703834414482,9.866153717041016,-0.00021620793268084526,-0.007733447477221489,0.0043888092041015625,-0.05798334349408942,0.018155656670098816,0.04310604422346449
0.0036237386520951986,0.03610651567578316,9.856571197509766,-0.00009483890607953072,0.00620713084936142,-0.00499725341796875,0.023022246495012236,-0.04050275497391116,0.042544231148751194
0.006835800129920244,0.02970387041568756,9.866121292114258,-0.00014890963211655617,-0.003478124737739563,0.004467010498046875,0.06325147373700554,-0.00041762871514925624,-0.017929059808298353
0.0069070300087332726,0.029599852859973907,9.865945816040039,-0.00015632156282663345,-0.002861563116312027,0.004498481750488281,0.0030517605376734315,5.336085289072462e-8,-0.07498874694916917
0.006803013384342194,0.026661403477191925,9.856571197509766,-0.00014297384768724442,-0.002348192036151886,-0.00441741943359375,-0.01922338065601577,-0.02227508783283631,0.06538117874704709
0.01159396767616272,0.031523481011390686,9.860210418701172,0.0047391196712851524,0.002371557056903839,0.005471229553222656,0.026232942333020693,-0.014672687080215439,0.01992485909306393
0.005793480668216944,0.034494828432798386,9.866153717041016,-0.004574418533593416,0.001976180821657181,0.005023956298828125,0.0030517605376734315,-0.02408698227316731,-0.054877134876147614
0.008764831349253654,0.03166569024324417,9.859400749206543,0.00005286838859319687,-0.0028373077511787415,0.00008106231689453125,-0.0329904673616095,0.06103515739261574,0.01811316475593127
0.005618262570351362,0.024912914261221886,9.858941078186035,-0.004647567868232727,-0.0020402148365974426,0.0046062469482421875,-0.012041543465453143,-0.030848469345083254,0.04310604422346449
0.010480322875082493,0.03560847416520119,9.86136245727539,0.004372200462967157,0.0020922981202602386,0.00008296966552734375,-0.029608456505395373,-0.06103505067090996,0.04310604422346449
0.010551427491009235,0.03345228731632233,9.867196083068848,-0.00033082254230976105,-0.0025725550949573517,0.009522438049316406,0.0030517605376734315,0.013281649686633585,0.029824441227577193
0.006803013384342194,0.02970387041568756,9.86136245727539,-0.00025317026302218437,-0.002662230283021927,-0.00043010711669921875,-0.004615580372915452,0.045700502251864415,-0.010261728902869386
0.002685004845261574,0.038612835109233856,9.860689163208008,-0.005299746058881283,0.006586812436580658,-0.00023651123046875,0.0030517605376734315,-0.1049238452454285,-0.026502234547240346
0.01159396767616272,0.02970387041568756,9.856727600097656,0.004246222786605358,-0.002670668065547943,-0.009280204772949219,-0.006427261369834889,-0.05155602876340164,0.02414799707339455
0.006803013384342194,0.034494828432798386,9.858973503112793,-0.000431558582931757,0.002301383763551712,-0.004271507263183594,0.03365890542555838,-0.00017913238315416254,-0.017929059808298353
0.004343460779637098,0.03203527629375458,9.859030723571777,-0.0003922535106539726,0.001965552568435669,-0.0040607452392578125,0.03438557352022427,-0.02970123768835912,-0.017929059808298353
0.006803013384342194,0.030390888452529907,9.865467071533203,0.004117201082408428,0.006516490131616592,-0.004153251647949219,0.01180414103094231,5.336085289072462e-8,-0.00042432216713373646
0.006803013384342194,0.030319783836603165,9.869711875915527,-0.0006944737397134304,-0.003094300627708435,0.010011672973632812,0.11727544194660319,5.336085289072462e-8,-0.11645970124824946
0.007892630994319916,0.034494828432798386,9.851780891418457,0.00881225150078535,0.001856192946434021,-0.008928298950195312,-0.003888912278249565,-0.006940619455070105,-0.017929059808298353
0.006803013384342194,0.033395249396562576,9.860262870788574,-0.000987460371106863,0.0017886832356452942,0.0007028579711914062,-0.024964741622793284,-0.09405365254220609,-0.017929059808298353
0.004756022710353136,0.03175085783004761,9.86136245727539,-0.0006586499512195587,-0.0026710964739322662,0.0008754730224609375,-0.02302614183727326,-0.0260778490140938,-0.05288624812490129
0.009618084877729416,0.035334017127752304,9.856571197509766,-0.000560833141207695,-0.0027185529470443726,-0.004128456115722656,0.0030517605376734315,5.336085289072462e-8,-0.017929059808298353
-0.002115911338478327,0.034494828432798386,9.86136245727539,-0.009914775379002094,0.0016050897538661957,0.0007143020629882812,0.06408686456943628,-0.05681191269057934,-0.017929059808298353
0.009689188562333584,0.032590046525001526,9.863266944885254,0.004244459327310324,0.0019390881061553955,0.000545501708984375,-0.09475222614782501,-0.024266168017174364,-0.017929059808298353
0.006803013384342194,0.03266115114092827,9.86319637298584,-0.0009692031890153885,0.002125687897205353,0.0004711151123046875,0.040726497030081965,-0.023360314178501422,0.04310604422346449
0.011404730379581451,0.034494828432798386,9.865775108337402,0.0036980267614126205,0.0019440874457359314,0.0052204132080078125,-0.05557252684091293,-0.002410763292323602,0.09690868495548464
0.006803013384342194,0.02982187829911709,9.86136245727539,-0.0011087609454989433,0.0018185228109359741,0.00025463104248046875,-0.05798334349408942,0.11906351076611849,-0.017929059808298353
0.006803013384342194,0.02970387041568756,9.86462688446045,-0.001028602011501789,-0.00303557887673378,0.005015373229980469,0.0030517605376734315,-0.002695176638231164,0.04310604422346449
0.01159396767616272,0.032874807715415955,9.86136245727539,0.0037727532908320427,0.001707032322883606,0.00032520294189453125,-0.016706375905586737,0.0403966735983644,-0.017929059808298353
0.006803013384342194,0.0312526598572731,9.866153717041016,-0.001238187775015831,0.002296052873134613,0.00495147705078125,-0.038252301023884515,0.041304128262624064,-0.03950208556975801
0.006803013384342194,0.032683443278074265,9.85476016998291,-0.00040282635018229485,0.002399064600467682,-0.004299163818359375,-0.011830527972696774,0.03795874963191942,-0.03281135498877517
0.0030378527007997036,0.037403207272291183,9.860336303710938,-0.0003365478478372097,0.0071855224668979645,-0.004248619079589844,0.0030517605376734315,0.07410344370896577,-0.00486076682184172
0.005539023783057928,0.03196685016155243,9.863625526428223,0.0003970731049776077,0.0023814328014850616,0.005023956298828125,-0.025777827618715703,0.03220556923622661,0.07193561903964041
-0.0003931345127057284,0.03690001741051674,9.864960670471191,-0.009010978043079376,0.006794340908527374,0.0048675537109375,0.0030517605376734315,-0.045838119891469596,-0.03337340485227317
0.006803013384342194,0.038164008408784866,9.866153717041016,0.0010792301036417484,0.0018723197281360626,0.004353523254394531,-0.05798334349408942,-0.079196950560797,-0.017929059808298353
0.006280403584241867,0.034494828432798386,9.856571197509766,0.0008045765571296215,0.0015254206955432892,-0.004917144775390625,0.0030517605376734315,5.336085289072462e-8,-0.0789641638400612
0.009426970966160297,0.034494828432798386,9.86136245727539,0.0006186878308653831,0.0012470260262489319,-0.0001163482666015625,0.0030517605376734315,-0.005821455606966493,0.009677731053566768
0.007117761764675379,0.03162722289562225,9.86136245727539,-0.00427157711237669,0.006096120923757553,-0.00034618377685546875,0.0030517605376734315,-0.004009774610047056,0.010583578222133098
0.006630466785281897,0.02953132800757885,9.868462562561035,-0.0038457117043435574,-0.007532468065619469,0.004215240478515625,-0.026366717991217738,0.0021982003348334006,-0.017929059808298353
0.006803013384342194,0.03365746885538101,9.86699104309082,0.0006230478174984455,0.002240888774394989,0.00363922119140625,-0.10835075925935017,-0.07939942831709085,-0.017929059808298353
0.006803013384342194,0.03047012723982334,9.85810375213623,0.00021794158965349197,-0.0024016201496124268,-0.005787849426269531,-0.03845966129821787,-0.06103505067090996,-0.13023742010378167
0.007498165126889944,0.037895482033491135,9.86136245727539,0.004694069270044565,-0.0025131143629550934,-0.0013904571533203125,0.0030517605376734315,-0.06103505067090996,0.04310604422346449
0.003910524770617485,0.02970387041568756,9.866153717041016,-0.0052650924772024155,-0.0025332607328891754,0.0034160614013671875,-0.05798334349408942,-0.07312798063769688,-0.005836123171404831
0.01159396767616272,0.03229749575257301,9.86136245727539,0.0037917792797088623,0.002669684588909149,-0.0014772415161132812,-0.05798334349408942,-0.02799318346775347,0.04310604422346449
0.00946774147450924,0.03503333032131195,9.868279457092285,0.0031453492119908333,0.007494036108255386,0.0033626556396484375,0.0030517605376734315,-0.12207018138309926,-0.04501644946833838
0.0029757290612906218,0.033531151711940765,9.86136245727539,0.003231991082429886,-0.006773682311177254,-0.00135040283203125,0.009190206291237273,0.054896711639051896,0.036967588464740735
0.011183233931660652,0.03969652205705643,9.86136245727539,-0.0009891698136925697,0.011582162231206894,-0.0012960433959960938,0.0030517605376734315,-0.055802432075592615,-0.07373155191485047
0.006803013384342194,0.03038313053548336,9.870265007019043,-0.0012876903638243675,0.0063942186534404755,-0.00138092041015625,-0.001275004218970974,0.11341673191108978,-0.0789641638400612
0.005855225957930088,0.032581914216279984,9.864240646362305,-0.010334362275898457,-0.0030232444405555725,-0.00156402587890625,-0.033613495339748375,0.07333056511569651,0.018736194401596802
0.011325442232191563,0.0254499651491642,9.86136245727539,0.00414966931566596,-0.007737448439002037,-0.0015201568603515625,0.06408686456943628,0.054193335556672814,-0.021349974061323124
0.007197854574769735,0.034099988639354706,9.856966018676758,-0.0008187633939087391,0.001848369836807251,-0.0062255859375,-0.055468273074577676,0.05348993279386728,0.038075903384441
0.0020120516419410706,0.03436851128935814,9.86602783203125,-0.005164832342416048,-0.003006480634212494,-0.0011577606201171875,0.0030517605376734315,-0.05781659082880591,0.04149681763746577
0.002122475067153573,0.02970387041568756,9.861417770385742,0.0038908659480512142,-0.0025892481207847595,0.0035295486450195312,0.0626801124046781,5.336085289072462e-8,-0.017225683725919268
0.010004791431128979,0.03608400747179985,9.862975120544434,-0.0007563545368611813,0.006658565253019333,-0.0062541961669921875,0.023297321691663923,-0.020543928362928978,-0.038473054872293445
0.0051427301950752735,0.03136415034532547,9.863022804260254,-0.0011357245966792107,-0.002684943377971649,-0.0014295578002929688,-0.03683194184163921,-0.16195389710262512,0.02195464423854094
0.006803013384342194,0.02970387041568756,9.866153717041016,-0.0010474743321537971,-0.002849925309419632,0.0030498504638671875,-0.03592566111614314,5.336085289072462e-8,-0.017929059808298353
0.008218077011406422,0.02774304337799549,9.869528770446777,-0.0008726436644792557,-0.007353039458394051,0.007633209228515625,0.0030517605376734315,5.336085289072462e-8,-0.017929059808298353
0.005459177307784557,0.026256749406456947,9.866153717041016,-0.005601204466074705,-0.002486269921064377,0.0031728744506835938,-0.01406821533866931,-0.043915074794567216,-0.0008090805969023063
0.003284657374024391,0.032249078154563904,9.869671821594238,-0.0010690893977880478,0.007103931158781052,0.0029964447021484375,-0.013160760674409647,0.1058577402122955,0.02689351133869485
0.011222099885344505,0.034494828432798386,9.874619483947754,0.004107431974261999,0.0021006613969802856,0.012255668640136719,-0.011160635825506617,0.056297700831697876,-0.008454133346249396
0.00881935190409422,0.02970387041568756,9.868169784545898,0.004349345341324806,-0.0022645294666290283,0.007167816162109375,0.0030517605376734315,0.086722618406961,0.017418581541592582
0.0061871930956840515,0.02970387041568756,9.866153717041016,-0.005128956865519285,-0.0019766949117183685,0.0023651123046875,-0.03138844115569772,5.336085289072462e-8,0.016511135214966187
0.009435204789042473,0.034494828432798386,9.86136245727539,0.004663313739001751,0.0026974231004714966,-0.0022220611572265625,0.0030517605376734315,0.06103515739261574,0.04913736806485021
0.0058152079582214355,0.03350702300667763,9.862350463867188,0.000016178935766220093,0.0026159435510635376,-0.0021142959594726562,0.0030517605376734315,0.035866603992206335,-0.017929059808298353
0.004969612695276737,0.03357812762260437,9.862278938293457,-0.009233933873474598,-0.002305746078491211,0.00264739990234375,-0.02030511186581654,0.04935670785065753,0.04310604422346449
0.006803013384342194,0.03928578644990921,9.862090110778809,0.0002727629616856575,0.007207334041595459,-0.0017910003662109375,-0.006218727156737938,-0.009270434333558479,-0.06969366947554323
0.006803013384342194,0.02970387041568756,9.857370376586914,-0.00015430431813001633,-0.002512812614440918,-0.00620269775390625,-0.05798334349408942,-0.06103505067090996,-0.0789641638400612
0.0044552357867360115,0.034494828432798386,9.86136245727539,-0.00017087068408727646,0.0021241605281829834,-0.0011339187622070312,0.06530231807658121,-0.02990977190145607,-0.017929059808298353
0.009079682640731335,0.02970387041568756,9.866153717041016,0.005147650837898254,-0.002615220844745636,0.0037708282470703125,-0.025952224226175814,0.02900402478448891,-0.0469330445721476
0.01159396767616272,0.030336152762174606,9.85783576965332,0.004523088224232197,-0.002490963786840439,-0.005948066711425781,0.05603180370174339,-0.01611004169410644,0.0880310465301614
0.011032790876924992,0.034494828432798386,9.857131958007812,-0.00011068256571888924,0.0024619847536087036,-0.0012826919555664062,-0.06513255052310937,5.336085289072462e-8,-0.017929059808298353
0.00893747340887785,0.034494828432798386,9.864019393920898,-0.0004594046622514725,0.0024430379271507263,0.003604888916015625,-0.024140529889043152,-0.03384276024419337,0.07029833465018108
0.01159396767616272,0.0324314720928669,9.863426208496094,0.003984217531979084,-0.0027190707623958588,0.0037240982055664062,0.029338197125717076,-0.026286383227190752,-0.009466845627889318
0.006803013384342194,0.034494828432798386,9.856989860534668,-0.0006431299261748791,0.0017059892416000366,-0.005612373352050781,0.0030517605376734315,0.06103515739261574,0.04310604422346449
0.007150877267122269,0.025608642026782036,9.86205768585205,0.004133016336709261,0.002009369432926178,0.008716583251953125,0.0030517605376734315,0.11320691703752345,0.038674378700143536
0.01159396767616272,0.03257368132472038,9.864232063293457,-0.0002581286244094372,-0.007370321080088615,0.0037565231323242188,-0.009033832311841005,0.06103515739261574,0.07966639266410314
0.006803013384342194,0.02970387041568756,9.865062713623047,0.00005330471321940422,-0.00238138809800148,0.008112907409667969,0.0030517605376734315,0.11239866019878765,0.02920875036671079
0.007008668035268784,0.034083519130945206,9.865742683410645,0.0003968239761888981,0.002319101244211197,0.0034761428833007812,0.005671725053755119,0.05841519287653405,0.04310604422346449
0.006668462883681059,0.02983842045068741,9.866153717041016,-0.004206637851893902,0.002565354108810425,0.00335693359375,0.0013376231798382394,5.336085289072462e-8,-0.017929059808298353
0.008574290201067924,0.03298499062657356,9.866153717041016,0.004930406808853149,0.0024306774139404297,0.00325775146484375,-0.03874853027534181,0.06103515739261574,-0.017929059808298353
0.01159396767616272,0.031340599060058594,9.864517211914062,0.004943765699863434,-0.0019872933626174927,0.0032901763916015625,-0.0788347104109483,0.06103515739261574,0.022254680641658916
0.0035776786971837282,0.0329292006790638,9.86292839050293,-0.00018199020996689796,-0.001918099820613861,0.0030651092529296875,0.0030517605376734315,-0.019945459717333056,0.002016458272467551
0.005150964483618736,0.03135591745376587,9.866153717041016,-0.00469590350985527,0.002754438668489456,0.0029420852661132812,0.0030517605376734315,-0.01894206223957587,-0.03897556069407201
0.006803013384342194,0.02798071876168251,9.862707138061523,-0.00036910688504576683,-0.0026819854974746704,0.00274658203125,-0.036030995439749434,-0.0390827159567832,-0.017929059808298353
0.01017055194824934,0.034494828432798386,9.859417915344238,0.004100847523659468,0.002663474529981613,-0.006366729736328125,-0.10088462878479898,-0.04290121858964345,-0.017929059808298353
0.005600565113127232,0.02970387041568756,9.867355346679688,0.00433600228279829,-0.0018229968845844269,-0.0017490386962890625,-0.07330205708003963,0.06103515739261574,-0.017929059808298353
0.006803013384342194,0.03636018931865692,9.866153717041016,-0.0006962455809116364,0.0026304349303245544,0.0029726028442382812,0.0030517605376734315,5.336085289072462e-8,0.019342005167045158
0.0055218045599758625,0.034494828432798386,9.863591194152832,-0.00036190636456012726,0.0018845424056053162,0.0029144287109375,0.04776474016551566,0.04471303298869511,0.04310604422346449
0.0008514061919413507,0.034494828432798386,9.869733810424805,0.004202589392662048,0.001891590654850006,0.0026006698608398438,-0.05798334349408942,5.336085289072462e-8,-0.03334534371375926
0.006027191877365112,0.032487258315086365,9.866929054260254,0.004399748519062996,-0.002739284187555313,-0.0025224685668945312,-0.03240760676548411,-0.035459327282517876,-0.043504789866797046
0.006803013384342194,0.03386121988296509,9.863441467285156,-0.0005390769802033901,-0.0031654536724090576,-0.0020055770874023438,-0.02342981668939159,-0.008071896216779912,0.09606919867759454
0.012661861255764961,0.031839657574892044,9.86987590789795,0.003920485731214285,-0.0034527257084846497,0.0071468353271484375,0.01665635010600168,0.04743056782428749,-0.017929059808298353
0.006803013384342194,0.034494828432798386,9.86335563659668,-0.0010977629572153091,0.0009482689201831818,0.007132530212402344,0.015750496267328738,-0.012698682368802417,-0.005230314073483128
0.01159396767616272,0.030351469293236732,9.858513832092285,0.004125202540308237,-0.00356953963637352,-0.007098197937011719,-0.05798334349408942,0.016500429693854984,-0.017929059808298353
0.006803013384342194,0.03428784757852554,9.866153717041016,-0.000628485344350338,0.006048772484064102,0.0020961761474609375,0.0030517605376734315,-0.06630881048380606,0.011270057256939007
0.014675762504339218,0.020976537838578224,9.867008209228516,0.008739149197936058,-0.012451022863388062,0.001922607421875,0.013938815270409303,5.336085289072462e-8,-0.028816114541034225
0.010027015581727028,0.034494828432798386,9.866153717041016,-0.0053902617655694485,0.0014523230493068695,0.0020923614501953125,0.0030517605376734315,-0.06103505067090996,0.0941599406910578
0.0028729650657624006,0.03363391384482384,9.87008285522461,-0.0053797755390405655,0.0013077445328235626,0.006529808044433594,-0.01888368546651342,5.336085289072462e-8,0.04310604422346449
0.009088668040931225,0.03427518159151077,9.863648414611816,-0.00048434361815452576,-0.0033288486301898956,-0.00310516357421875,0.0030517605376734315,0.06103515739261574,0.01398759542758469
0.006803013384342194,0.034494828432798386,9.866153717041016,0.00002010958269238472,0.00150250643491745,0.0017642974853515625,0.0030517605376734315,-0.03282244737606983,0.014893440928624366
0.006803013384342194,0.034494828432798386,9.865583419799805,-0.00027302326634526253,0.001325450837612152,0.0015811920166015625,-0.004211905520797121,-0.05377138461243941,-0.0789641638400612
0.0020120516419410706,0.03878672793507576,9.857569694519043,-0.00496782036498189,0.0008442290127277374,0.0016565322875976562,-0.04526769237406775,-0.06103505067090996,-0.017929059808298353
0.003157383529469371,0.034494828432798386,9.862507820129395,-0.004559921566396952,0.0009049884974956512,-0.0025501251220703125,-0.011539337798472089,5.336085289072462e-8,-0.017929059808298353
0.005590254440903664,0.034494828432798386,9.866153717041016,0.005358487833291292,0.0007837079465389252,0.002002716064453125,0.028546828996921184,0.08112511829957687,0.04310604422346449
0.0027257497422397137,0.02970387041568756,9.870587348937988,-0.004456161987036467,-0.00357702374458313,0.006371498107910156,0.05954073334655811,0.05194289494685939,0.095048885809471
0.006803013384342194,0.03506631776690483,9.857714653015137,0.0006404193118214607,0.010704614222049713,0.010863304138183594,0.0030517605376734315,0.05375457594377883,-0.021569347197663503
0.00472934078425169,0.03585347160696983,9.868870735168457,-0.004422025755047798,0.0007826685905456543,0.0013942718505859375,0.10781330874903479,-0.02641775764700772,0.02579739604398672
0.0020120516419410706,0.04107370972633362,9.863150596618652,-0.004327576141804457,0.004833638668060303,-0.0036573410034179688,0.0030517605376734315,-0.022777480262802484,0.06588356450690665
0.003728872863575816,0.034494828432798386,9.86136245727539,0.00015412969514727592,0.00013968348503112793,-0.0036420822143554688,0.024923440322655865,-0.07832682181313438,0.003942616641630773
0.006658151280134916,0.03442239761352539,9.86629867553711,0.0000886949710547924,0.00023455917835235596,0.0008907318115234375,0.0030517605376734315,0.06103515739261574,0.04126054912107887
0.006803013384342194,0.029705196619033813,9.861363410949707,-0.00017603905871510506,0.0004412457346916199,0.00054931640625,-0.05793265068384323,0.000016942070792805067,-0.017929059808298353
