Accelerometer_Gx,Accelerometer_Gy,Accelerometer_Gz,Accelerometer_X,Accelerometer_Y,Accelerometer_Z,Gyroscope_Z,Gyroscope_X,Gyroscope_Y
-0.0009604208753444254,0.035100989043712616,9.887136459350586,-0.012745209038257599,0.008374828845262527,0,0.002190943258840262,0.011825565413377936,-0.0004743529692987493
0.01159396767616272,0.03672020882368088,9.900632858276367,-0.006820054724812508,0.006750337779521942,0.005896568298339844,0.07184603950785011,0.07286066944514079,0.00724791960428783
0.0020120516419410706,0.035828761756420135,9.897961616516113,-0.012786094099283218,0.006909407675266266,0.002254486083984375,0.033483134776136333,0.016852344518669314,-0.031766556159281395
0.0050752912648022175,0.03755806386470795,9.892228126525879,-0.011711545288562775,0.0018336288630962372,0.007985115051269531,0.01647921875483092,-0.010184985991252608,0.046272477234000096
0.0073111592791974545,0.034494828432798386,9.890361785888672,-0.006330698728561401,0.001183435320854187,-0.005555152893066406,0.055503771381963225,-0.11024466933057421,-0.050550380124663126
0.006544271018356085,0.03876830264925957,9.885576248168945,-0.010649669915437698,-0.004182446748018265,-0.0049533843994140625,-0.005531332649799623,0.011825565413377936,0.003951637543940949
0.009762026369571686,0.031535811722278595,9.896026611328125,-0.0006074625998735428,-0.0042127929627895355,0.004944801330566406,-0.005531332649799623,0.026184063791772787,-0.0017318810920663478
0.0037726403679698706,0.03273424133658409,9.894899368286133,-0.004311894997954369,-0.0042108409106731415,0.0002689361572265625,0.016897914687037992,-0.010603681923459679,-0.031357925417950835
0.002244113478809595,0.039053723216056824,9.894783020019531,-0.008545608259737492,0.005267862230539322,0.000370025634765625,0.05402556903518437,-0.10581011565109054,0.00576972684578723
0.016250895336270332,0.02495758980512619,9.894899368286133,-0.007465474307537079,-0.004872113466262817,0.000335693359375,0.056072918238895694,0.011256418556445467,0.006109619637197945
0.005247804336249828,0.03132174536585808,9.893343925476074,-0.007441829890012741,-0.00464973971247673,-0.004479408264160156,0.015079830387771668,-0.007987212543242334,0.00724791960428783
0.01159396767616272,0.03294830769300461,9.893200874328613,0.0023875702172517776,-0.004186265170574188,0.004927635192871094,0.07713463363784982,-0.11024466933057421,-0.01245420295117695
0.011397896334528923,0.02501094900071621,9.894997596740723,0.0019232053309679031,-0.009193366393446922,0.00037288665771484375,0.055503771381963225,0.013074502855711791,-0.11482228345665792
0.0050604199059307575,0.03928578644990921,9.896641731262207,-0.0021532075479626656,0.005200393497943878,0.000347137451171875,0.01666867646301944,0.05066066033232172,0.00724791960428783
0.01019015908241272,0.033091019839048386,9.896303176879883,0.0028328485786914825,0.00021516531705856323,0.00005817413330078125,0.019735698204619616,-0.006058484515507091,0.05039898871490553
0.010261515155434608,0.033162374049425125,9.894899368286133,-0.0017229365184903145,-0.004659049212932587,0.0001811981201171875,0.09956388097468744,-0.04920953861838492,-0.0707621738639337
0.006803013384342194,0.03001597337424755,9.890732765197754,-0.0017522135749459267,-0.004639320075511932,-0.004494667053222656,0.0475516169190701,-0.04920953861838492,0.0032718477923028883
0.003968711942434311,0.0316605307161808,9.890108108520508,-0.0062491074204444885,-0.004395090043544769,-0.004511833190917969,-0.005531332649799623,-0.04920953861838492,-0.017679215957430716
0.01159396767616272,0.03208335489034653,9.887697219848633,0.0030096564441919327,-0.004570472985506058,-0.009068489074707031,0.055503771381963225,-0.018488254866166703,-0.053787182759948364
-0.0018692758167162538,0.02970387041568756,9.903571128845215,-0.0012594228610396385,-0.0040245093405246735,-0.00017070770263671875,0.0002628288809132641,0.011825565413377936,0.0014537584904566062
0.00470364186912775,0.03180323913693428,9.890700340270996,-0.005783478729426861,0.000734817236661911,-0.009471893310546875,-0.005531332649799623,0.08794997138430055,-0.02704195789638354
0.006803013384342194,0.03232410177588463,9.892278671264648,-0.0013567917048931122,0.0007477663457393646,-0.004559516906738281,-0.005531332649799623,-0.0768638273094294,0.00724791960428783
0.006803013384342194,0.03351910784840584,9.890108108520508,-0.001675107516348362,0.000507839024066925,-0.0041961669921875,0.006899024670241786,-0.0006047919066634728,0.00724791960428783
0.0029165437445044518,0.031512852758169174,9.894899368286133,-0.001597672700881958,0.005134880542755127,0.0007867813110351562,0.005991570005982123,-0.04920953861838492,-0.004274978882677284
0.006803013384342194,0.029539361596107483,9.894899368286133,-0.0014803316444158554,0.0006253905594348907,0.0007228851318359375,0.02393831893701375,-0.019739887031571538,-0.022221733650052197
0.006803013384342194,0.03211037442088127,9.899667739868164,-0.0011933622881770134,0.0005240477621555328,0.00039386749267578125,0.024845773601273415,-0.04920953861838492,-0.023129179976678595
0.01159396767616272,0.038523755967617035,9.886841773986816,0.003438214771449566,0.004994232207536697,-0.009333610534667969,0.004176687357889243,-0.03950151861069605,0.07799102863599967
0.01159396767616272,0.02970387041568756,9.894017219543457,0.0035724882036447525,-0.004318404942750931,-0.00002765655517578125,-0.005531332649799623,0.06161868499940226,-0.04254519164410323
-0.0002519905101507902,0.03196791559457779,9.890108108520508,-0.0053010559640824795,-0.004074908792972565,-0.004431724548339844,-0.00888020641636861,0.07620954321170978,0.0394399101709804
0.008995825424790382,0.0418839268386364,9.890108108520508,0.004337037913501263,0.005390811711549759,-0.004464149475097656,-0.06656643668156248,0.011825565413377936,-0.025851513953977834
-0.0016822206089273095,0.030800553038716316,9.894899368286133,-0.009716805070638657,-0.004364073276519775,0.00041484832763671875,-0.012517015345135945,-0.042223855923048594,-0.006723419939721696
0.006803013384342194,0.030180981382727623,9.891539573669434,-0.00033001042902469635,0.00024109706282615662,0.009319305419921875,0.055503771381963225,0.0057473373823012765,-0.09658761937374777
0.0020120516419410706,0.034494828432798386,9.891275405883789,-0.004972516093403101,0.0004049353301525116,-0.0047702789306640625,-0.005531332649799623,0.011825565413377936,-0.03891540967265094
0.005970298778265715,0.03532753884792328,9.889275550842285,0.004933567252010107,-0.0043853335082530975,0.00001811981201171875,-0.030744655805784348,0.011825565413377936,-0.08960896030067318
0.015715619549155235,0.034160178154706955,9.894564628601074,0.00944039411842823,0.0001797899603843689,0.00039005279541015625,-0.0012679872668158437,-0.04920953861838492,0.00724791960428783
0.006803013384342194,0.034494828432798386,9.894899368286133,0.00055325822904706,0.00007934868335723877,0.000850677490234375,-0.008887223368523739,0.011825565413377936,0.003892029302445377
0.00496634840965271,0.02970387041568756,9.890108108520508,0.0006989669054746628,-0.00452800840139389,-0.0037479400634765625,0.017867107858092222,0.026063788429357096,-0.053787182759948364
0.005037578288465738,0.03272939473390579,9.893134117126465,-0.0037615709006786346,-0.0044839754700660706,-0.0032215118408203125,-0.04407543749771707,0.03431655125701012,-0.015243079579557575
0.002253973390907049,0.039043866097927094,9.890108108520508,-0.0038171717897057533,0.005094222724437714,-0.0028743743896484375,-0.005531332649799623,0.06977867998430476,-0.052246184694477046
0.0020120516419410706,0.034494828432798386,9.894899368286133,-0.004055935423821211,0.0005271658301353455,0.0017614364624023438,-0.024940329032595777,0.011825565413377936,0.00724791960428783
0.006803013384342194,0.034494828432798386,9.89327621459961,0.000727169681340456,0.00017917156219482422,0.0017042160034179688,0.034827668186423924,-0.007857332227306309,-0.053787182759948364
0.005115538835525513,0.034494828432798386,9.89334774017334,0.005614956375211477,0.000392131507396698,-0.003131866455078125,-0.04679777481006961,0.03159421394465758,0.00724791960428783
0.0021047808695584536,0.03440209850668907,9.88541030883789,-0.0036183036863803864,0.00043968111276626587,-0.007701873779296875,-0.004350003408078316,0.13271444423518233,0.006066583275578249
0.005065809935331345,0.034494828432798386,9.89621639251709,0.0015332582406699657,0.00046020373702049255,0.006381988525390625,-0.027662666344948322,0.07286066944514079,0.00724791960428783
0.01159396767616272,0.035904113203287125,9.894899368286133,0.006244275718927383,0.0002444051206111908,0.0015439987182617188,0.012422433233387136,-0.02408199303342203,-0.053787182759948364
0.00546495895832777,0.03104192391037941,9.894899368286133,-0.0032022101804614067,0.00018981099128723145,0.0016307830810546875,-0.032473787563281835,0.021721682427506606,-0.009798404954852489
0.0020120516419410706,0.03480124846100807,9.889801979064941,-0.0033898567780852318,0.00021972134709358215,-0.0029544830322265625,0.055503771381963225,-0.03749851227573692,0.003344246796989032
0.006803013384342194,0.033605653792619705,9.890108108520508,0.001337460707873106,-0.004750803112983704,-0.0024595260620117188,-0.030385003657300864,-0.013028105594123306,-0.053787182759948364
0.006803013384342194,0.034494828432798386,9.88891315460205,0.0011025415733456612,0.00003993138670921326,-0.0019426345825195312,0.025040914240294795,-0.04920953861838492,-0.08435942631498948
0.006803013384342194,0.031952597200870514,9.892650604248047,0.0011584088206291199,0.0049770064651966095,-0.0066375732421875,-0.0522424494347747,0.011825565413377936,-0.10049829620987014
0.008896363899111748,0.0350990816950798,9.890108108520508,0.005880340933799744,-0.0043670982122421265,-0.00182342529296875,-0.005531332649799623,0.04619211578954666,-0.027118624101774288
0.006803013384342194,0.02970387041568756,9.890108108520508,0.0010230536572635174,-0.004173640161752701,-0.001628875732421875,-0.005531332649799623,0.017708652805433215,0.00724791960428783
0.0029939557425677776,0.034494828432798386,9.890108108520508,-0.0037930039688944817,0.0006070509552955627,-0.0015811920166015625,0.04299468012348155,-0.02419132942099512,-0.06629628402358996
0.0029227256309241056,0.034494828432798386,9.886228561401367,0.0006621670909225941,0.0000794529914855957,-0.0011644363403320312,0.055503771381963225,-0.03760787534373646,-0.004353733665200708
0.007536812219768763,0.0263805128633976,9.893431663513184,0.00046178465709090233,-0.0090488251298666,0.0038652420043945312,-0.005531332649799623,-0.09154798697301633,0.00724791960428783
0.00435591209679842,0.036907512694597244,9.894899368286133,0.00528336875140667,0.00048444420099258423,0.0036983489990234375,-0.03582967828200595,0.011825565413377936,-0.053787182759948364
0.0075712259858846664,0.033726613968610764,9.881295204162598,0.00015074526891112328,0.000531412661075592,-0.010316848754882812,0.004255421296329507,-0.04920953861838492,-0.04400042214371262
0.0061060297302901745,0.033797845244407654,9.888713836669922,-0.004300151485949755,-0.004084382206201553,-0.009594917297363281,-0.014410658612095536,-0.11024466933057421,-0.053787182759948364
0.006803013384342194,0.03354739397764206,9.8853178024292,0.00007842062041163445,0.00023861601948738098,-0.00441741943359375,-0.005531332649799623,0.011825565413377936,-0.053787182759948364
0.009002146311104298,0.03229569271206856,9.887908935546875,0.004557427018880844,-0.004156690090894699,-0.00392913818359375,0.027487589386613855,-0.04920953861838492,-0.08180338143056427
0.002566797425970435,0.02970387041568756,9.882190704345703,-0.004889547359198332,-0.003897242248058319,-0.008550643920898438,0.0015359387896066174,-0.042142267178978676,-0.04671992466075535
0.006803013384342194,0.034494828432798386,9.884350776672363,0.00018102256581187248,0.00029532238841056824,-0.012678146362304688,-0.005531332649799623,-0.04304812101765162,0.00724791960428783
0.004068978596478701,0.034494828432798386,9.888728141784668,-0.004532244987785816,0.00009400025010108948,0.006600379943847656,0.06412987341686621,0.003199463378474957,-0.07999168709343162
0.00878883246332407,0.04127160459756851,9.883678436279297,0.005488970782607794,0.00926382839679718,0.006520271301269531,0.055503771381963225,0.06242288641331837,-0.018050734225575776
0.002353483811020851,0.03004530258476734,9.880867958068848,-0.004170749802142382,-0.005002543330192566,-0.006771087646484375,0.05115406145857581,-0.21056627441630993,-0.15845850777423143
0.006532685831189156,0.03395417332649231,9.8853178024292,-0.004113625269383192,-0.009559636935591698,-0.0017681121826171875,-0.008975215414940544,-0.10335690380029236,0.0038040447598985095
0.01159396767616272,0.0363384410738945,9.883474349975586,0.005016235169023275,0.000022899359464645386,-0.001495361328125,-0.05714065556502587,0.011825565413377936,-0.053787182759948364
0.006803013384342194,0.031476378440856934,9.883544921875,0.00012058299034833908,0.00007947906851768494,-0.005860328674316406,0.017049779674364992,-0.026628426294220298,-0.031206067100730445
0.006803013384342194,0.029831988736987114,9.885445594787598,0.0003373171202838421,-0.004309188574552536,-0.0009593963623046875,0.05387159629416819,-0.047577363530589875,-0.05541936451785002
0.0020690655801445246,0.02970387041568756,9.894784927368164,-0.004271728452295065,-0.0046856589615345,0.008605003356933594,0.11581252748417753,0.01255191334292648,0.007974255861149804
0.008390470407903194,0.02970387041568756,9.88370132446289,0.00488478597253561,-0.004687778651714325,0.0034189224243164062,0.035280114858084376,0.011825565413377936,-0.012975740254644324
0.005130105186253786,0.02970387041568756,9.8853178024292,-0.004842044319957495,-0.004634540528059006,-0.0012598037719726562,0.03564232832750662,-0.029348095563928304,0.028560129189504197
0.010106172412633896,0.039613351225852966,9.883830070495605,-0.0003916979767382145,-0.004488207399845123,-0.005791664123535156,0.055503771381963225,-0.04920953861838492,0.00724791960428783
0.006803013384342194,0.0391291119158268,9.8853178024292,-0.0006624646484851837,0.004496116191148758,-0.0010194778442382812,-0.005531332649799623,-0.10625269056496621,0.00724791960428783
0.002239957917481661,0.038829974830150604,9.88554573059082,-0.005229799542576075,0.00412306934595108,-0.001129150390625,0.00027555544432770194,0.07286066944514079,0.013054804363361849
0.004930633120238781,0.03262244910001755,9.884271621704102,-0.00027967290952801704,-0.0008853413164615631,-0.005950927734375,0.031650322881472175,0.011825565413377936,0.00724791960428783
0.010319862514734268,0.030977977439761162,9.888833999633789,0.0042102886363863945,-0.005066320300102234,0.0032472610473632812,-0.021763010408070473,-0.07778131381403251,-0.1433940586523055
0.01039109192788601,0.03090674616396427,9.890108108520508,-0.0005761138163506985,-0.00041465461254119873,0.0029087066650390625,0.04017954828795204,0.04221222325711842,0.00724791960428783
0.004026892129331827,0.034494828432798386,9.888093948364258,-0.005295728333294392,-0.0004456453025341034,0.0027494430541992188,0.055503771381963225,0.0021271236787829555,0.00724791960428783
0.0031436989083886147,0.036758121103048325,9.890108108520508,-0.005314453970640898,-0.0008146762847900391,0.0027055740356445312,0.0088854357799519,-0.12466143776032573,-0.007168853828043652
0.009473095647990704,0.035555265843868256,9.886378288269043,-0.004805597010999918,0.003539733588695526,0.0024213790893554688,-0.02603769497229353,-0.0356999580486286,0.041263867499118013
0.0041692908853292465,0.02970387041568756,9.887950897216797,-0.00015049660578370094,-0.005759071558713913,-0.0023050308227539062,0.04943354747882018,-0.015656874650931962,-0.053787182759948364
0.0023463291581720114,0.024912914261221886,9.89233684539795,-0.0002592545934021473,-0.010144850239157677,0.0018434524536132812,-0.009789875556023238,0.011825565413377936,-0.025398897194598792
0.00384850543923676,0.033576600253582,9.891026496887207,-0.004803442861884832,0.000014096498489379883,0.0012693405151367188,-0.06656643668156248,-0.04920953861838492,0.00724791960428783
0.002859174506738782,0.03364770486950874,9.894052505493164,0.00006015738472342491,-0.004793953150510788,0.0012607574462890625,-0.05577440428761176,0.011825565413377936,0.04669895051051599
0.002809318946674466,0.038488518446683884,9.880526542663574,-0.004003602545708418,0.004814743995666504,-0.008314132690429688,0.014782450354611659,0.16446020300204955,0.058126130466318385
0.004453709349036217,0.034587182104587555,9.890108108520508,0.000806810799986124,0.0046799927949905396,0.0013780593872070312,0.025574496088775597,-0.01928026332519728,-0.022681357356426454
0.009479228407144547,0.03999070078134537,9.889403343200684,0.005596153438091278,0.004128254950046539,0.00139617919921875,0.003449005407018431,0.06388033138832273,-0.001732426790163488
0.0013782434398308396,0.029070062562823296,9.884683609008789,-0.008616399951279163,-0.00993628241121769,-0.008074760437011719,-0.005531332649799623,-0.03306054350166824,-0.10674779256840619
0.0020120516419410706,0.04104500263929367,9.883296966552734,-0.0037232721224427223,0.008826110512018204,-0.002933502197265625,0.042629345044165205,0.011825565413377936,-0.005626512986735137
0.0030937371775507927,0.034494828432798386,9.881608009338379,-0.003579016774892807,-0.0005988888442516327,-0.0070972442626953125,0.055503771381963225,0.025605845589848897,-0.04000690258347741
0.006803013384342194,0.034494828432798386,9.8853178024292,0.0008235094137489796,-0.0005934461951255798,-0.0016832351684570312,-0.005531332649799623,-0.0839387827116519,-0.0885163968377356
0.006803013384342194,0.03250104933977127,9.883323669433594,0.000567194540053606,-0.005199827253818512,-0.0059032440185546875,-0.015766344440637285,0.011825565413377936,-0.018152128183701415
0.0071524037048220634,0.034494828432798386,9.886016845703125,0.0002548499032855034,-0.0002653263509273529,-0.001251220703125,-0.005531332649799623,-0.044758416394078675,0.00724791960428783
0.0025686242152005434,0.02970387041568756,9.87629222869873,0.004877058323472738,-0.004598051309585571,-0.0004787445068359375,-0.17800083958818827,0.062224864288240894,0.06828302196852402
0.0033781554084271193,0.02970387041568756,9.883951187133789,-0.0040305256843566895,-0.003923483192920685,0.00006771087646484375,0.03810010253122695,0.011825565413377936,-0.053787182759948364
0.0022192334290593863,0.03887142241001129,9.880526542663574,-0.0037977765314280987,0.005625411868095398,-0.004464149475097656,-0.005531332649799623,0.07022125489818043,0.0046084996378658516
0.010156761854887009,0.02970387041568756,9.877652168273926,0.005526087712496519,-0.004122801125049591,-0.0038471221923828125,0.012778190039609597,-0.012590519919992918,-0.01106159141243482
0.0037214145995676517,0.03278546780347824,9.87573528289795,-0.003728546667844057,0.0011619515717029572,-0.007595062255859375,0.03372710059555273,0.05108399865873029,-0.03201052197869779
-0.0011406466364860535,0.034494828432798386,9.874220848083496,-0.0037447288632392883,0.0005516186356544495,-0.0024995803833007812,0.055503771381963225,-0.07008035556612247,-0.013622895675923074
0.011581704020500183,0.034500960260629654,9.880520820617676,0.005819300189614296,0.0006168484687805176,-0.0017328262329101562,0.0554256510933312,0.011825565413377936,-0.05370906580636965
0.0036625738721340895,0.03928578644990921,9.878875732421875,0.0011157514527440071,0.004818003624677658,-0.005957603454589844,0.09551181788872448,-0.009201492111623662,-0.03276013190505338
0.008524637669324875,0.02970387041568756,9.877456665039062,0.0009344760328531265,-0.00460381805896759,-0.005322456359863281,0.01640155203344847,-0.06637887328365158,-0.03185428807154036
0.006803013384342194,0.031128814443945885,9.879101753234863,0.0007638377137482166,-0.004427019506692886,-0.0002193450927734375,-0.005531332649799623,0.03655410522085043,-0.13297556556880308
0.006803013384342194,0.024183474481105804,9.87573528289795,0.0004106876440346241,0.00017661228775978088,-0.0043468475341796875,-0.005531332649799623,0.05561324117166855,0.00724791960428783
0.004939177539199591,0.034494828432798386,9.878663063049316,-0.004224652890115976,0.0003680996596813202,-0.004122734069824219,0.06904969069253812,-0.025464946257790937,-0.09107770443627716
0.004868072923272848,0.024912914261221886,9.881447792053223,0.0005176630802452564,-0.009317105636000633,0.005770683288574219,0.06723800969561869,-0.012824880785888981,-0.01740251658981917
0.006803013384342194,0.02970387041568756,9.880526542663574,0.0006700688973069191,-0.003883540630340576,0.0011224746704101562,-0.020967079926352425,0.05742492216858799,-0.053787182759948364
0.009312916547060013,0.03198492154479027,9.87573528289795,-0.004180241376161575,0.0059903524816036224,-0.0035257339477539062,-0.020061226087679483,0.05833077600726093,-0.06831707286277493
0.006299149710685015,0.03499869257211685,9.871447563171387,0.0007164562121033669,0.0014852583408355713,-0.008189201354980469,-0.01195037644828934,0.018244609211867654,-0.047368142296511956
0.008951264433562756,0.034494828432798386,9.878377914428711,0.0009686937555670738,0.0013898350298404694,0.0015354156494140625,0.055503771381963225,-0.01554241562148136,-0.026419210062722336
0.006803013384342194,0.034494828432798386,9.878307342529297,0.00040778471156954765,0.0009436421096324921,0.0014524459838867188,0.02274247554330617,0.040099373606483725,-0.053787182759948364
0.006803013384342194,0.03356761485338211,9.87573528289795,0.0005340469069778919,0.0011097528040409088,-0.00298309326171875,-0.017343691252087106,0.011825565413377936,0.019060269868942048
0.005946905352175236,0.034494828432798386,9.878813743591309,-0.0039014476351439953,0.001059841364622116,-0.007699012756347656,-0.016437837413414164,-0.03830303385477037,0.00724791960428783
0.007591294124722481,0.02970387041568756,9.88374137878418,0.0009360853582620621,-0.0038711950182914734,0.006465911865234375,-0.005531332649799623,0.011825565413377936,-0.053787182759948364
0.006728626787662506,0.03692749887704849,9.878093719482422,-0.0033454052172601223,0.005436066538095474,-0.0030393600463867188,0.055503771381963225,0.1038520391542654,-0.022795826391036975
0.006803013384342194,0.03378092870116234,9.875020980834961,0.0015794546343386173,0.0007490962743759155,-0.00266265869140625,-0.005531332649799623,0.011825565413377936,-0.0018468920728390405
0.007445806637406349,0.030346663668751717,9.879883766174316,0.006370759569108486,0.0003725588321685791,-0.0021333694458007812,0.04731480145394106,0.011825565413377936,-0.053787182759948364
0.006803013384342194,0.038284189999103546,9.8853178024292,0.0017451010644435883,0.005091354250907898,0.0071620941162109375,-0.005531332649799623,0.060100702136793374,0.00724791960428783
0.005159047432243824,0.034494828432798386,9.8853178024292,0.007095774635672569,0.00040294229984283447,0.006775856018066406,-0.03285753213684548,0.018208243790622625,-0.053787182759948364
0.0020120516419410706,0.034494828432798386,9.87573528289795,-0.002755176741629839,0.00010961294174194336,-0.0030117034912109375,-0.005531332649799623,0.05463470985135844,-0.02736682543888888
0.0024415324442088604,0.038426823914051056,9.880526542663574,-0.002353406511247158,0.0042693838477134705,0.00183868408203125,0.1110674403212963,0.017297000505807722,-0.053787182759948364
0.0016536761540919542,0.03485320508480072,9.880526542663574,-0.007148620206862688,0.004054859280586243,0.0015211105346679688,0.050938190128206384,0.06829508819138394,-0.10569113428935745
-0.0002068760950351134,0.03227589651942253,9.8853178024292,-0.006750218104571104,-0.005577903240919113,0.0057621002197265625,0.08377216344850061,-0.004557790569234798,-0.009135432209508272
0.004151747561991215,0.032634273171424866,9.880526542663574,0.007757721468806267,-0.0008591078221797943,0.0007448196411132812,0.03180096056918269,0.049157858632360246,-0.053787182759948364
0.0020120516419410706,0.03906961902976036,9.871160507202148,-0.0018466294277459383,0.003793366253376007,-0.008376121520996094,-0.005531332649799623,-0.010971418241156107,-0.053787182759948364
0.006512889172881842,0.03434976562857628,9.876025199890137,-0.006933261640369892,-0.0053880587220191956,0.005736351013183594,-0.005531332649799623,0.06916457660881185,-0.11297425037870668
0.006803013384342194,0.031203197315335274,9.873943328857422,0.002886011265218258,-0.005002867430448532,-0.0082244873046875,0.055503771381963225,0.011825565413377936,-0.011852971213917282
0.005155770108103752,0.03763854503631592,9.883670806884766,0.0027890773490071297,0.003946460783481598,0.005873680114746094,0.0764890473591514,0.05187539346795263,0.02823320058405595
0.003525645937770605,0.03928578644990921,9.8853178024292,-0.007316468749195337,0.003933042287826538,0.0055980682373046875,-0.005531332649799623,-0.06928898743732657,0.00724791960428783
0.006803013384342194,0.0377807542681694,9.8853178024292,0.0016101743094623089,-0.0007631778717041016,0.005253791809082031,-0.005531332649799623,-0.04920953861838492,-0.034613594449786254
0.01159396767616272,0.034494828432798386,9.881892204284668,0.005768791772425175,-0.0005961842834949493,-0.004489898681640625,-0.049168197297607824,-0.04920953861838492,-0.03196875377109757
0.012154246680438519,0.03928578644990921,9.879302978515625,0.0012550451792776585,0.00370614230632782,-0.0045146942138671875,0.03277949188949279,0.034549844905848365,0.00724791960428783
0.01159396767616272,0.031066695228219032,9.8853178024292,0.005158160347491503,-0.0055072121322155,0.004652976989746094,-0.11023964007018926,-0.03184765131546207,-0.010113976870031603
0.006803013384342194,0.033203110098838806,9.881818771362305,-0.000016668345779180527,-0.0004284977912902832,-0.0006122589111328125,-0.005531332649799623,-0.12191164628916092,0.00724791960428783
-0.002426233608275652,0.03928578644990921,9.884612083435059,-0.00929456576704979,0.004293721169233322,0.0037107467651367188,-0.014517086833186086,0.1294028963852104,-0.11032940636496467
0.0020120516419410706,0.03649188578128815,9.8853178024292,-0.004177844617515802,0.004442870616912842,0.0035581588745117188,0.0046201427258376095,-0.013616248914684872,0.00724791960428783
0.004080216400325298,0.03242666646838188,9.880526542663574,0.0007686302997171879,-0.005049083381891251,-0.0010786056518554688,0.029156103215227477,0.08120043714343214,-0.01909974189234131
0.004663744475692511,0.034494828432798386,9.8831787109375,0.00047109927982091904,-0.00019307807087898254,0.0034465789794921875,-0.039312928016367,-0.08299114732516552,-0.026533677429806203
0.006803013384342194,0.03727118298411369,9.882540702819824,0.0005169813521206379,-0.005006715655326843,0.008080482482910156,0.0426710999115522,-0.0010071060570330912,0.00724791960428783
-0.0021418691612780094,0.03513186424970627,9.881800651550293,-0.009029464796185493,-0.0002533271908760071,-0.0014667510986328125,0.03927260055179484,0.07286066944514079,-0.09859111262648952
0.009084351360797882,0.034723106771707535,9.880526542663574,0.005561694037169218,-0.005082320421934128,-0.0015544891357421875,0.020623916281412174,-0.04920953861838492,-0.053787182759948364
0.005937699694186449,0.034494828432798386,9.883122444152832,0.0011936193332076073,-0.0003694072365760803,-0.0020694732666015625,0.005492459268468731,0.07286066944514079,-0.04276340084683993
0.012388301081955433,0.03049820475280285,9.8853178024292,0.010551216080784798,-0.00013868138194084167,0.0026836395263671875,-0.04632737221141143,0.05262159163477652,-0.04366764718981954
0.010870613157749176,0.02563626877963543,9.877182006835938,0.0007129176519811153,-0.00499681755900383,0.0025873184204101562,-0.05735115078946656,0.06364538355304487,0.016463207163910396
0.003853952046483755,0.033573877066373825,9.882368087768555,-0.0034578396007418633,0.0001180693507194519,-0.0019702911376953125,0.04377118725474738,0.04939550119070909,0.00724791960428783
0.003003981662914157,0.03548675775527954,9.884325981140137,-0.004015231039375067,0.0002634972333908081,0.0023345947265625,-0.06656643668156248,-0.1333692886218573,-0.053787182759948364
0.004648288246244192,0.034494828432798386,9.874773025512695,-0.0036855051293969154,0.00013764947652816772,0.0022716522216796875,0.055503771381963225,0.00569128180633957,0.013382201543799543
-0.001758066238835454,0.035005245357751846,9.880016326904297,-0.007901348173618317,-0.00019334256649017334,-0.0018815994262695312,0.042498690995862266,0.011825565413377936,-0.04728463589679128
0.011154601350426674,0.02970387041568756,9.880966186523438,0.006112962495535612,-0.004868905991315842,-0.0021305084228515625,-0.005531332649799623,0.011825565413377936,0.00724791960428783
-0.0003688573488034308,0.02970387041568756,9.888903617858887,-0.0075819226913154125,-0.004676148295402527,0.007231712341308594,-0.020882903180917307,0.0575090989140231,-0.11482228345665792
0.0039535993710160255,0.03837791830301285,9.88440990447998,-0.0030221515335142612,-0.00012975558638572693,-0.0024814605712890625,0.019203290294902413,-0.02447491567368288,-0.029052573155459553
0.0020120516419410706,0.028653796762228012,9.880526542663574,-0.0030141742900013924,0.000011652708053588867,-0.0022096633911132812,-0.005531332649799623,0.0252031312330826,-0.01658084616668796
0.007029065862298012,0.03905973210930824,9.880752563476562,0.0016782279126346111,0.004723154008388519,-0.0021038055419921875,0.04974410764264419,0.006065901674058903,-0.053787182759948364
0.006648065056651831,0.03433987870812416,9.875580787658691,-0.0029483684338629246,-0.0052093081176280975,-0.011324882507324219,-0.0035573546188130472,0.07286066944514079,0.06433504589623104
0.004990932997316122,0.03928578644990921,9.883828163146973,-0.00276956707239151,0.004343356937170029,0.002964019775390625,0.055503771381963225,-0.007149393792005065,0.06828302196852402
0.0036691813729703426,0.03136099874973297,9.886974334716797,-0.0031582354567945004,-0.005311116576194763,0.00289154052734375,0.03439253711152651,-0.00928566885705878,-0.013863307996042275
0.006803013384342194,0.034482087939977646,9.880552291870117,0.0016851658001542091,-0.00041829049587249756,-0.0021295547485351562,-0.005531332649799623,0.011825565413377936,-0.0539494764589622
0.008434661664068699,0.03133552148938179,9.883686065673828,0.006152348127216101,-0.0000813119113445282,-0.0021543502807617188,-0.04577979647926003,0.03261220561568037,-0.053787182759948364
-0.001076149637810886,0.034494828432798386,9.8853178024292,-0.007787063717842102,0.0000451207160949707,0.0026111602783203125,0.055503771381963225,0.033518059454353315,-0.03613705013486975
0.008706338703632355,0.034494828432798386,9.88722038269043,0.007010648027062416,-0.000020857900381088257,0.0072460174560546875,0.01286234010461827,0.07286066944514079,-0.011145764822816633
0.008848547004163265,0.033122118562459946,9.8853178024292,-0.0026051155291497707,-0.004596438258886337,0.0019397735595703125,0.02944435854254317,-0.03172169302221352,-0.03629934383388358
0.0062596555799245834,0.03928578644990921,9.885589599609375,0.001710816752165556,0.005032259970903397,0.0019884109497070312,-0.0631053450413643,-0.04920953861838492,-0.05724827773519985
0.007761952467262745,0.034494828432798386,9.888192176818848,0.006114141549915075,0.00014997273683547974,0.006229400634765625,0.031094516237762385,-0.024800283474184073,-0.06600377316825623
0.0032426975667476654,0.030934514477849007,9.8853178024292,-0.003473409917205572,-0.004614159464836121,0.001285552978515625,-0.005531332649799623,-0.003852413454872309,0.022925898472538075
0.005643346346914768,0.034494828432798386,9.880526542663574,-0.0032591274939477444,0.000030424445867538452,-0.0036325454711914062,-0.0370189716310212,-0.04920953861838492,-0.0075258120872194805
0.0029813305009156466,0.03352554887533188,9.881011009216309,-0.0034363986924290657,-0.00016865506768226624,-0.0036258697509765625,-0.005531332649799623,0.011825565413377936,-0.04143891444197273
0.0025451236870139837,0.037156842648983,9.887979507446289,-0.008355528116226196,-0.00029785558581352234,0.000911712646484375,0.055503771381963225,-0.04241846295354106,-0.08090918693824795
-0.0005789805436506867,0.03669475391507149,9.877935409545898,-0.008259604685008526,-0.0005657374858856201,-0.008372306823730469,0.0835300118980825,-0.14325353284621778,0.012230527596072257
-0.0018321746028959751,0.0354415588080883,9.8853178024292,-0.007868176326155663,-0.000812828540802002,0.0013294219970703125,-0.005531332649799623,-0.01302658480981592,-0.004813068055700698
0.003407204756513238,0.0337972529232502,9.888712882995605,-0.002469658851623535,-0.0010413415729999542,0.006008148193359375,0.012242420396160277,0.05508691639918089,0.050509272257617435
0.006803013384342194,0.03694390505552292,9.885424613952637,0.0016047093085944653,-0.001516055315732956,-0.0035753250122070312,0.054138160434783804,-0.04784392767120549,-0.021221207653191194
0.004390150774270296,0.03446006402373314,9.880492210388184,0.001669891644269228,0.0033981017768383026,0.0010833740234375,0.08668563933590773,0.011825565413377936,-0.023048193209730353
0.006803013384342194,0.038551993668079376,9.893431663513184,0.0017919871024787426,0.003219977021217346,0.010655403137207031,0.0038169284876999774,0.06351240830764118,0.00724791960428783
0.006803013384342194,0.033584315329790115,9.8853178024292,0.0014851843006908894,-0.0018467232584953308,0.001117706298828125,0.0671033802637754,0.061261060563328626,-0.09162305235282037
0.00424819253385067,0.032258689403533936,9.878290176391602,-0.0033533992245793343,-0.0016525499522686005,-0.0034008026123046875,0.027016146251324303,-0.01666205971726099,-0.057847046535593284
0.006342371925711632,0.037120625376701355,9.883152961730957,0.006429936271160841,-0.0014238916337490082,-0.0030384063720703125,-0.005531332649799623,0.011825565413377936,0.03483129338936719
0.0025329068303108215,0.03501568362116814,9.877297401428223,-0.0029965988360345364,-0.00171642005443573,-0.007754325866699219,0.04886826928372229,-0.03593853442190303,-0.10818678802852358
0.0020120516419410706,0.037038885056972504,9.8853178024292,-0.0029220511205494404,0.003110315650701523,0.0019350051879882812,-0.005531332649799623,0.026137933334448755,-0.007064440812913053
0.008826213888823986,0.03172707185149193,9.8853178024292,0.0018601296469569206,-0.005876034498214722,0.0018548965454101562,-0.005531332649799623,-0.013949300678002331,-0.053787182759948364
0.004850788973271847,0.034494828432798386,9.883365631103516,-0.0030541815795004368,-0.0014740973711013794,-0.0025005340576171875,0.030633131623242736,0.011825565413377936,0.032118547690321755
-0.0021630669943988323,0.034494828432798386,9.879910469055176,-0.007415711879730225,-0.001501273363828659,-0.0020971298217773438,-0.005531332649799623,0.12605023399808618,-0.053787182759948364
-0.0025419641751796007,0.034494828432798386,9.871180534362793,-0.0028069624677300453,-0.001121334731578827,-0.006150245666503906,0.05248525465564072,0.014844082139700445,0.00724791960428783
0.01159396767616272,0.03332431986927986,9.877545356750488,0.006664044223725796,-0.005989260971546173,-0.0056552886962890625,0.03244214457751764,0.02673744251667605,-0.030725569295715998
0.01159396767616272,0.02970387041568756,9.877474784851074,0.005907734856009483,-0.005871966481208801,-0.0005178451538085938,0.038780213281745676,-0.015762422417949815,-0.014907850026431515
0.006708282046020031,0.025007644668221474,9.875829696655273,0.0011802325025200844,-0.009847668930888176,-0.004872322082519531,0.055503771381963225,0.07165383371573772,0.006041080122949788
0.006803013384342194,0.03451845422387123,9.880502700805664,0.0010678940452635288,0.0044794827699661255,-0.004479408264160156,0.055503771381963225,-0.04920953861838492,0.006645937063152721
0.0036328155547380447,0.03611559048295021,9.86932373046875,-0.0036942320875823498,-0.00021016225218772888,-0.008527755737304688,0.014207887371110782,0.05312144942423038,0.00724791960428783
0.008328818716108799,0.02970387041568756,9.8742094039917,0.0013106176629662514,-0.004878595471382141,-0.002838134765625,0.03606553325178295,0.03126380354355821,-0.07322541755507533
0.011475385166704655,0.0298224538564682,9.87573528289795,0.005632428452372551,-0.005132131278514862,-0.0026035308837890625,-0.005531332649799623,0.011825565413377936,0.06677232286233473
0.006803013384342194,0.03146684169769287,9.87270736694336,0.0007794150151312351,-0.00044046714901924133,-0.0020704269409179688,0.03938794003531814,-0.08778503298801532,-0.053787182759948364
0.006803013384342194,0.03266081213951111,9.872777938842773,0.0009152470156550407,-0.0007887072861194611,-0.006641387939453125,0.03213905493309832,0.058554998311107755,-0.03042246631108346
0.006803013384342194,0.031016506254673004,9.873109817504883,0.001132654957473278,-0.0051002465188503265,-0.0012683868408203125,-0.06656643668156248,-0.04920953861838492,-0.07050970365858786
0.0007703954470343888,0.03342884033918381,9.870944023132324,-0.007971622049808502,0.009270250797271729,-0.00579071044921875,-0.050748172131062516,-0.03339127406788495,0.03664648286236419
0.00640036491677165,0.02970387041568756,9.875332832336426,0.0015735155902802944,-0.0046848878264427185,-0.0005159378051757812,-0.005531332649799623,0.011825565413377936,-0.04865758729629648
0.009547015652060509,0.034494828432798386,9.870944023132324,0.000948798842728138,0.00022877007722854614,-0.004489898681640625,-0.031608781457496744,-0.07528701410650848,0.0161281026752833
-0.0005795045872218907,0.034494828432798386,9.870944023132324,-0.008284362033009529,0.0003335997462272644,-0.0043773651123046875,-0.005531332649799623,0.05885088424038682,0.00724791960428783
0.01159396767616272,0.030732590705156326,9.868210792541504,0.005569701083004475,0.00035395845770835876,0.0006246566772460938,-0.053460904489894726,-0.04920953861838492,-0.027576130049299444
0.006187427788972855,0.03093504160642624,9.879295349121094,0.00012988923117518425,-0.004262104630470276,0.005713462829589844,0.04766143355431921,-0.041367200790740896,-0.053787182759948364
0.006803013384342194,0.02717280387878418,9.873204231262207,0.0004884041845798492,-0.003984216600656509,0.0012025833129882812,-0.005531332649799623,-0.045754850280533624,-0.0249969815830992
0.0037855759728699923,0.02970387041568756,9.870057106018066,-0.004181114956736565,-0.003832835704088211,-0.0030431747436523438,0.04420674521646792,0.023122591578873246,-0.053787182759948364
0.0028278352692723274,0.034494828432798386,9.87573528289795,0.00042682746425271034,0.001141238957643509,0.0019464492797851562,0.045110971549127694,0.011825565413377936,-0.03300160977470374
0.013899356126785278,0.02887534908950329,9.874906539916992,0.009893225505948067,-0.0034744925796985626,0.0018644332885742188,0.005023737536676605,0.011825565413377936,0.06828302196852402
0.006803013384342194,0.027231043204665184,9.866153717041016,0.0005716895684599876,-0.00313660129904747,-0.007476806640625,0.025971607555988367,0.009854789033564803,-0.02228423921910707
0.004033525940030813,0.034494828432798386,9.866827011108398,-0.004648604430258274,0.0014660581946372986,-0.00693511962890625,0.04691947757530013,-0.03204095100505872,0.00724791960428783
0.010388275608420372,0.033891983330249786,9.867359161376953,-0.004417222458869219,-0.0038290806114673615,0.0023717880249023438,0.0631838121755401,-0.04152949782480804,-0.06146722688857855
0.0020120516419410706,0.02970387041568756,9.874693870544434,-0.004337560385465622,-0.0040269456803798676,0.0024900436401367188,0.09000324364268275,-0.0014422638123569504,0.00724791960428783
0.0062224380671978,0.034494828432798386,9.870944023132324,-0.00447835074737668,0.0004408620297908783,-0.0021810531616210938,0.08971947062700987,-0.04920953861838492,-0.019571495187588286
0.005881237331777811,0.034033939242362976,9.866153717041016,0.00015752017498016357,0.0006786659359931946,-0.00653076171875,0.09892421775065988,0.005954003965547053,-0.10307918724142259
0.006413104012608528,0.03410492092370987,9.866153717041016,-0.004288807511329651,-0.004558935761451721,-0.0062084197998046875,-0.0005640242150549592,0.06292605257565145,-0.09992037816274375
0.000757656351197511,0.02970387041568756,9.866153717041016,-0.004069522954523563,-0.004766751080751419,-0.00567626953125,0.010449228934767477,0.05688010786057369,0.03632189879938983
0.0086952680721879,0.033609017729759216,9.869051933288574,0.0009621721692383289,0.004956379532814026,-0.0001621246337890625,0.055503771381963225,0.011825565413377936,-0.02968051033206438
0.006555062253028154,0.029951822012662888,9.875487327575684,0.0010710526257753372,-0.004580821841955185,0.004634857177734375,0.052344968973391005,0.011825565413377936,0.06512421288984518
0.0021890236530452967,0.034317854791879654,9.87573528289795,0.0008348212577402592,-0.004338309168815613,0.004641532897949219,0.05324922198647722,0.07286066944514079,-0.05153262335930244
0.0020120516419410706,0.03302749618887901,9.866153717041016,-0.0037474683485925198,0.00020499154925346375,-0.004530906677246094,0.018117156814738158,0.011825565413377936,0.0495897213550181
0.008482331410050392,0.02970387041568756,9.864721298217773,0.006001780740916729,-0.004060845822095871,0.0003643035888671875,-0.04517250995272392,-0.006421685160707809,-0.07203442999898081
-0.002743888646364212,0.03452984243631363,9.870908737182617,-0.007994201965630054,0.0008702315390110016,0.000823974609375,-0.005531332649799623,0.011825565413377936,-0.11482228345665792
0.005193720571696758,0.034494828432798386,9.866116523742676,-0.0029883249662816525,0.0008423551917076111,-0.0129852294921875,-0.005531332649799623,0.11339397350733188,0.00724791960428783
0.008233427070081234,0.0359252467751503,9.867583274841309,0.006411732640117407,0.00546620786190033,0.001491546630859375,0.055503771381963225,0.0332316183960359,-0.032381136447397006
-0.0027789026498794556,0.03263663500547409,9.868011474609375,-0.007546383421868086,0.00536225363612175,-0.007433891296386719,0.013149848379993494,-0.030528357588591796,-0.053787182759948364
0.0021899747662246227,0.034494828432798386,9.866153717041016,-0.0028158798813819885,0.0006919540464878082,-0.0024805068969726562,0.05323708239244458,-0.10117796673335251,0.00724791960428783
0.007949510589241982,0.031526099890470505,9.864331245422363,-0.0027517033740878105,0.00019127875566482544,-0.0069980621337890625,0.07871830371036719,0.02043408504725342,0.00724791960428783
0.004909804556518793,0.03549937158823013,9.86136245727539,0.0020583737641572952,0.004706051200628281,-0.006377220153808594,0.055503771381963225,0.0487418841036506,-0.053787182759948364
-0.003809522371739149,0.02970387041568756,9.86136245727539,0.0021058320999145508,-0.0048501938581466675,-0.00572967529296875,0.14563708210356713,-0.03324108994742401,-0.08288539945494933
0.006803013384342194,0.02569463476538658,9.85256290435791,0.0023426353000104427,-0.009944522753357887,-0.014430046081542969,0.050524350033612365,0.11895750943185106,0.06330360062017316
0.007523636799305677,0.037250619381666183,9.864118576049805,-0.0030091973021626472,-0.00029216334223747253,-0.0044612884521484375,-0.005531332649799623,-0.04920953861838492,0.00724791960428783
0.006803013384342194,0.03717964142560959,9.86194133758545,0.0022323420271277428,0.004206571727991104,0.00029468536376953125,-0.005531332649799623,-0.022377994237636072,-0.02695565171941275
-0.0027789026498794556,0.02970387041568756,9.860321998596191,-0.007539636455476284,-0.0048348866403102875,-0.008665084838867188,-0.03204273859363056,-0.06246525493051361,-0.07505516787080489
0.010386217385530472,0.03868190944194794,9.85717487335205,0.006836693733930588,0.004736963659524918,-0.007985115051269531,0.06319693894535122,0.02721187385972748,-0.04609402520172029
0.006803013384342194,0.027455607429146767,9.866153717041016,0.0023680846206843853,-0.009260604158043861,0.0016756057739257812,-0.005531332649799623,0.011825565413377936,0.00724791960428783
0.006955229677259922,0.03943800553679466,9.858890533447266,0.007444757968187332,0.009514335542917252,-0.007564544677734375,-0.007470572765554337,0.10434784151889957,-0.022300017356296196
0.0011848520953208208,0.02970387041568756,9.85739803314209,-0.0016073973383754492,-0.004719458520412445,-0.007010459899902344,0.044965536544574025,0.051784199770362374,0.00724791960428783
0.006803013384342194,0.034494828432798386,9.853415489196777,0.002853045240044594,-0.00023775175213813782,-0.011359214782714844,0.055503771381963225,-0.03879883621940454,-0.053787182759948364
0.011461769230663776,0.034494828432798386,9.854109764099121,0.0025652702897787094,-0.00004594773054122925,-0.010647773742675781,-0.035206810386425744,0.04318520504872789,-0.053787182759948364
0.006803013384342194,0.02970387041568756,9.856571197509766,0.002261877991259098,-0.004488527774810791,-0.00548553466796875,-0.005531332649799623,-0.07797917585655131,-0.08605265955870472
0.01159396767616272,0.02908998355269432,9.861976623535156,0.006748751271516085,-0.0037492960691452026,-0.0006275177001953125,-0.005531332649799623,-0.04138883861658809,-0.04596648609320485
0.005772515665739775,0.03722479194402695,9.8576021194458,0.0016229418106377125,0.005545858293771744,-0.005112648010253906,-0.0403100956145492,-0.0360813814250915,0.04202669090667067
0.008919167332351208,0.034494828432798386,9.86136245727539,0.0015221750363707542,0.0008669830858707428,-0.0000362396240234375,-0.032490409468957294,0.03878464223253561,-0.01971114887723658
0.008848188444972038,0.034494828432798386,9.856571197509766,0.006226248107850552,0.0013232044875621796,-0.0040607452392578125,0.029448947575891775,0.011825565413377936,0.00724791960428783
0.006803013384342194,0.034494828432798386,9.8609619140625,0.0012324275448918343,0.000998217612504959,0.00102996826171875,-0.005531332649799623,0.011825565413377936,-0.04868022563813537
0.006803013384342194,0.034494828432798386,9.856571197509766,0.0011799996718764305,0.0010716058313846588,-0.0033636093139648438,-0.0013286318761261521,0.011825565413377936,0.011450628715594565
0.010279555805027485,0.03233269602060318,9.857885360717773,0.005688820965588093,-0.0036439746618270874,-0.0030088424682617188,0.005268290325474796,-0.004919603832260356,-0.0370420268545233
0.003844292601570487,0.027450915426015854,9.859530448913574,-0.0037416904233396053,-0.013406515121459961,0.0019741058349609375,0.09319678396648684,0.04951857799790155,-0.044796042465473244
0.011101141571998596,0.02970387041568756,9.858332633972168,-0.003407286014407873,-0.0036982856690883636,0.0018863677978515625,-0.005531332649799623,0.03426340384753096,-0.07622501785904809
0.006686057895421982,0.029820825904607773,9.86136245727539,0.0010951366275548935,-0.003521241247653961,0.00180816650390625,-0.007021301064640881,0.00884562858369542,-0.05080724259521255
0.0021040041465312243,0.03440287709236145,9.85666275024414,0.005590948276221752,-0.007797660306096077,0.0067806243896484375,0.054332340578453146,0.011825565413377936,0.00724791960428783
0.008401341736316681,0.03609315678477287,9.858169555664062,0.0004631737247109413,0.0015062391757965088,-0.002758026123046875,-0.005531332649799623,0.011825565413377936,-0.03342503814755156
0.002037054393440485,0.029728872701525688,9.856546401977539,-0.00441244849935174,-0.003548935055732727,-0.002735137939453125,0.11590182687149016,-0.048891001007053736,0.00724791960428783
0.0020120516419410706,0.034494828432798386,9.862814903259277,-0.00408733868971467,0.000992361456155777,-0.0025806427001953125,-0.04530004239113275,-0.027943157668168416,-0.03252079180457195
0.008113393560051918,0.02970387041568756,9.85962200164795,0.005176570266485214,-0.0041616372764110565,0.002483367919921875,0.09436824145042336,-0.04920953861838492,-0.03161654212653904
-0.0033507614862173796,0.03308846428990364,9.863340377807617,0.0006018290296196938,-0.003921389579772949,-0.0021209716796875,-0.06656643668156248,0.011825565413377936,-0.010668677109807234
0.0111180879175663,0.034494828432798386,9.865915298461914,0.005338812246918678,0.00037757307291030884,0.006796836853027344,0.11350760544356268,-0.10418212939024743,-0.050755912789784974
0.003038523020222783,0.03346836194396019,9.859479904174805,-0.00897834450006485,0.005071919411420822,-0.0027399063110351562,-0.02951047263927478,-0.02523039862890976,-0.016731215382607367
0.003965277224779129,0.03342611342668533,9.86331558227539,-0.003918912261724472,0.005039714276790619,0.0017061233520507812,0.01935206035276175,-0.01305782758918344,0.03213130426921594
0.005609584040939808,0.03568825498223305,9.860169410705566,-0.00387159688398242,0.005096506327390671,-0.003345489501953125,0.055503771381963225,-0.06441340630870107,0.022451773954390766
0.007253917399793863,0.030154773965477943,9.86136245727539,0.0010320688597857952,-0.0045357197523117065,0.0011625289916992188,-0.005531332649799623,0.011825565413377936,-0.053787182759948364
0.006202638149261475,0.02970387041568756,9.864058494567871,0.005588575266301632,-0.004787009209394455,0.0010366439819335938,0.0898455890028171,-0.04920953861838492,-0.0194453718092011
0.004178450908511877,0.031870268285274506,9.866153717041016,-0.004513062536716461,-0.004724238067865372,0.005587577819824219,0.0003054908827993984,-0.08264552908099229,-0.053787182759948364
0.01159396767616272,0.03928578644990921,9.86517333984375,0.004976969212293625,0.004740424454212189,0.000476837158203125,0.006955693896011735,-0.07278358969314014,0.030821932325930036
0.006138795055449009,0.033830609172582626,9.866153717041016,0.00019588414579629898,0.00009636580944061279,0.00457763671875,0.002930578040758596,0.1254338627863454,-0.062249083445346666
0.00928536243736744,0.02970387041568756,9.863844871520996,0.00014311913400888443,-0.004702374339103699,-0.0006933212280273438,0.023879488596701727,-0.019798717371883563,-0.02216291331490009
0.0020120516419410706,0.02970387041568756,9.870976448059082,-0.004085267893970013,-0.0041723959147930145,0.012976646423339844,0.025187096296788936,0.04214224049855223,-0.023068757148413114
0.006803013384342194,0.03851892799139023,9.87573528289795,0.0008589997887611389,0.005097731947898865,0.012090682983398438,0.0652732630921822,0.05332168602470282,-0.0025215725228128136
0.009506708942353725,0.034494828432798386,9.866153717041016,-0.008623011410236359,0.0002369135618209839,0.0018644332885742188,0.06436740925350927,-0.0580732031703574,-0.09709499437335262
0.005854376591742039,0.042179469019174576,9.871892929077148,0.0008167531341314316,0.009420696645975113,0.00606536865234375,0.06758904406636032,0.011825565413377936,-0.04170190007039136
0.004209986422210932,0.029308779165148735,9.870944023132324,-0.004150104708969593,-0.009710663929581642,0.005297660827636719,0.022469561461196556,-0.044176222808614427,-0.025786296986585452
0.0025492783170193434,0.030241094529628754,9.875198364257812,-0.008186137303709984,-0.008928833529353142,0.013800621032714844,-0.005531332649799623,0.038921112613803634,-0.019847617590977952
0.006803013384342194,0.030186433345079422,9.875252723693848,0.0012588826939463615,-0.003811325877904892,0.008174896240234375,-0.06041877284066176,0.017973242594491873,0.00724791960428783
0.011182384565472603,0.034494828432798386,9.871356010437012,0.0012641907669603825,0.0006140023469924927,0.00742340087890625,0.004955515686255814,0.006582141245350217,0.06303959780049631
0.0020120516419410706,0.03250991925597191,9.872928619384766,-0.0036335447803139687,0.0005168430507183075,0.0022897720336914062,0.06596479306521956,-0.03874851693512859,0.017708941287544158
0.01159396767616272,0.03161780163645744,9.872858047485352,0.0058673047460615635,0.0004282630980014801,0.005816459655761719,0.01885145551136742,0.011825565413377936,-0.017134873559459172
0.002551302080973983,0.02970387041568756,9.87573528289795,-0.003998167347162962,-0.0041624270379543304,0.0053195953369140625,0.058938689523818505,-0.038904757512392626,0.00381299104039097
0.006803013384342194,0.03469347581267357,9.880328178405762,0.0008836020715534687,0.005191408097743988,0.004756927490234375,0.05297307957276772,-0.046678846809189406,0.00724791960428783
0.006803013384342194,0.03784012794494629,9.877181053161621,0.0009262762032449245,0.004916153848171234,0.004128456115722656,0.01866941496173071,-0.006591612796738321,-0.011169264442171712
0.0051020183600485325,0.02970387041568756,9.869555473327637,-0.003845177125185728,-0.0044195689260959625,0.0035381317138671875,-0.005531332649799623,0.011825565413377936,-0.053787182759948364
0.001955363666638732,0.029760558158159256,9.871057510375977,-0.00382784241810441,-0.0041601210832595825,-0.0013837814331054688,-0.12543498336425613,0.011103379630354869,-0.053787182759948364
0.006817304063588381,0.034494828432798386,9.870972633361816,0.0010504359379410744,0.0006119273602962494,-0.0014505386352539062,0.055503771381963225,0.011825565413377936,-0.053787182759948364
0.0034858209546655416,0.031362466514110565,9.874076843261719,0.0009589307010173798,-0.004035782068967819,0.0030736923217773438,-0.005531332649799623,0.054085413231701324,-0.03265725551573337
0.011920753866434097,0.034494828432798386,9.870944023132324,0.010708499699831009,0.0009404942393302917,-0.0016603469848632812,-0.06656643668156248,-0.030252241855308743,-0.011709388831474911
0.005385934840887785,0.031120948493480682,9.877152442932129,-0.003648236393928528,0.0005460679531097412,0.0073337554931640625,0.030574781530606727,0.03675455526473444,-0.1397512599678012
-0.0025516748428344727,0.03860410302877426,9.87573528289795,-0.008090836927294731,0.005339100956916809,0.0017642974853515625,-0.06367163709266711,0.008930765824482571,-0.047997576912051025
0.00575511809438467,0.03157540410757065,9.870944023132324,0.006054427940398455,0.0006101056933403015,-0.0026998519897460938,-0.005531332649799623,-0.012017104194829192,-0.006101846461705754
0.010318849235773087,0.036735545843839645,9.87476921081543,0.005605277139693499,0.00498398020863533,-0.0031194686889648438,0.026957796158688294,-0.07775554052208629,0.00724791960428783
0.010389828123152256,0.033316291868686676,9.880526542663574,0.0011158580891788006,0.009513866156339645,0.005774497985839844,0.040163459990805485,0.011825565413377936,0.00724791960428783
0.0020120516419410706,0.03840530291199684,9.880085945129395,-0.0037043611519038677,0.004592251032590866,0.005158424377441406,0.04989525225845717,0.011825565413377936,0.06267448950480475
0.0040966845117509365,0.03241019695997238,9.87844181060791,0.0009715394116938114,-0.00477965921163559,-0.000179290771484375,0.02102612371007601,-0.04920953861838492,-0.0006722587843921931
0.006803013384342194,0.034494828432798386,9.876214981079102,0.0007400400936603546,0.00016579404473304749,0.00449371337890625,0.02804046118341465,-0.05531804893347706,-0.020215390594260745
0.005812179297208786,0.03251316398382187,9.87193489074707,-0.003820484969764948,-0.009367896243929863,-0.00027751922607421875,0.055503771381963225,0.011825565413377936,0.06828302196852402
0.00484234606847167,0.03863222897052765,9.87573528289795,0.0008407416753470898,0.004757869988679886,9.5367431640625e-7,-0.005531332649799623,-0.057535619257909794,-0.0010781501963138059
0.004309998359531164,0.034494828432798386,9.87343692779541,0.0011352533474564552,-0.00031816959381103516,-0.004530906677246094,0.02374365854566839,0.011825565413377936,0.036522925807495714
0.00922492053359747,0.032178640365600586,9.870944023132324,0.005671659484505653,0.004244856536388397,-0.004305839538574219,0.024649512384341328,0.012498979376858881,-0.05311377546657403
0.010038928128778934,0.036049868911504745,9.874958038330078,0.006035026162862778,-0.0004615709185600281,0.0006847381591796875,-0.015436654411051944,0.05305002592263615,-0.1049169683655122
0.003425024216994643,0.037872813642024994,9.871650695800781,0.005901504307985306,-0.005142237991094589,0.0009927749633789062,0.003469042407278898,0.011825565413377936,-0.04478679769770993
0.006803013384342194,0.03543264791369438,9.8853178024292,0.0014252006076276302,-0.0003981068730354309,0.010198593139648438,-0.042671473437522436,0.0980533419510568,-0.053787182759948364
0.006803013384342194,0.034494828432798386,9.877943992614746,0.0011688563972711563,-0.0005033761262893677,0.0051021575927734375,0.02260843308084467,0.01658116466427865,0.00724791960428783
0.006803013384342194,0.033930301666259766,9.876864433288574,0.0009196759201586246,-0.0002583414316177368,-0.0001068115234375,0.0016605630615329047,-0.0025582260092871195,-0.04659529038366914
0.006803013384342194,0.03498837724328041,9.884330749511719,0.00043326569721102715,0.004465177655220032,-0.00060272216796875,0.04921612868371692,-0.036634253221892295,-0.04749954006170206
-0.000054822587117087096,0.034494828432798386,9.877801895141602,-0.004039860796183348,-0.0003687851130962372,-0.0009355545043945312,-0.005531332649799623,0.011825565413377936,0.04195176226405217
0.012393131852149963,0.032498933374881744,9.877731323242188,0.0004826132208108902,-0.004800435155630112,0.003566741943359375,0.030076764690577594,0.022006629381943074,-0.053787182759948364
0.002363643143326044,0.03858260437846184,9.884614944458008,-0.004073113668709993,0.004618383944034576,0.008096694946289062,0.051024634709889355,0.06838153277306691,-0.053787182759948364
0.0017314396100118756,0.034214217215776443,9.87573528289795,-0.008615273050963879,-0.004724245518445969,-0.0014524459838867188,-0.005531332649799623,0.07286066944514079,0.0036730196869153146
0.009740030393004417,0.03155780956149101,9.877589225769043,0.005723912734538317,-0.004569590091705322,-0.0014638900756835938,-0.005531332649799623,-0.025591011272745275,0.00724791960428783
0.0020120516419410706,0.02970387041568756,9.879301071166992,-0.0034695989452302456,-0.00427444651722908,0.007885932922363281,0.0015763863160977866,-0.033602983251728905,-0.053787182759948364
0.006664359010756016,0.029981179162859917,9.880388259887695,0.0016290717758238316,-0.0042994581162929535,0.0030164718627929688,0.05197096275547991,-0.047443134305143256,0.005481511539111204
0.006803013384342194,0.02977154590189457,9.871011734008789,0.0012903963215649128,0.0003062710165977478,-0.0013227462768554688,-0.004669181349644186,0.012687716713533373,-0.053787182759948364
0.005162010435014963,0.03764478489756584,9.874226570129395,0.0014725620858371258,0.004990007728338242,-0.005877494812011719,0.034598003075582244,0.03273133371975892,-0.01365786037477972
0.006803013384342194,0.03292480483651161,9.872513771057129,0.0011928160674870014,-0.004508044570684433,-0.0010957717895507812,-0.005531332649799623,0.032857612178124815,0.06828302196852402
0.01151968538761139,0.034494828432798386,9.871092796325684,0.005856110714375973,0.00012009590864181519,-0.0056476593017578125,0.055503771381963225,-0.04826321057279436,0.006301585305472326
0.0002934649237431586,0.031422458589076996,9.877453804016113,-0.007933489046990871,0.000055305659770965576,0.0038957595825195312,-0.044672238616660156,0.050966471380238465,0.00724791960428783
0.006803013384342194,0.032705262303352356,9.880526542663574,0.0012602470815181732,0.0002455189824104309,0.004117012023925781,-0.043767985603573936,0.011825565413377936,-0.053787182759948364
0.006803013384342194,0.034494828432798386,9.874378204345703,0.00129659753292799,0.0004063062369823456,-0.000720977783203125,-0.005531332649799623,-0.005463217521084613,-0.08024471091762621
0.002299271523952484,0.0347820483148098,9.880526542663574,-0.0036972640082240105,0.00040584057569503784,0.0039920806884765625,-0.059248275852077266,0.06554252195586881,0.00724791960428783
0.006803013384342194,0.028775963932275772,9.878595352172852,0.0012517147697508335,0.0003387331962585449,-0.0008401870727539062,0.019075624454361353,0.04825371234097981,-0.053787182759948364
0.008805516175925732,0.026915417984128,9.878523826599121,0.0014491393230855465,-0.008859021589159966,0.0040283203125,0.029992587945142476,-0.013685618023442815,-0.018263270502639532
-0.001634754822589457,0.036997489631175995,9.8782377243042,-0.0034606116823852062,-0.003612261265516281,-0.005358695983886719,0.04092772080633289,0.011825565413377936,0.00724791960428783
0.006803013384342194,0.030777040868997574,9.87573528289795,0.001376601867377758,0.0008621476590633392,-0.0007371902465820312,-0.11392974315078121,-0.035537741055840795,-0.053787182759948364
0.002514089224860072,0.03928578644990921,9.880526542663574,-0.008488006889820099,0.00566617026925087,0.0038499832153320312,-0.005531332649799623,-0.11664039443635069,-0.053787182759948364
0.004227494355291128,0.034494828432798386,9.878311157226562,-0.0037578721530735493,0.0005514733493328094,0.0034465789794921875,-0.005531332649799623,0.011825565413377936,0.035471853742733976
0.006803013384342194,0.038354575634002686,9.871875762939453,0.0009240051731467247,0.0049820467829704285,-0.005984306335449219,0.0673670629183349,-0.04920953861838492,-0.09109568037359472
-0.0019186708377674222,0.02970387041568756,9.879666328430176,-0.003722545225173235,-0.004673287272453308,-0.0009403228759765625,-0.005531332649799623,0.07286066944514079,-0.0037111364280274835
0.0027961251325905323,0.026481060311198235,9.869376182556152,-0.0030612796545028687,-0.009078698232769966,-0.0053653717041015625,0.004457472165800235,0.042894228317914763,0.058294210482817556
0.009231389500200748,0.03685740754008293,9.866218566894531,0.001482705119997263,0.0048496313393116,-0.013995170593261719,0.055503771381963225,-0.04920953861838492,-0.05294893378683467
0.0020120516419410706,0.025631189346313477,9.86687183380127,-0.0033463016152381897,-0.009072089567780495,-0.008727073669433594,0.04635321220442376,-0.030908420263305984,-0.053787182759948364
0.006155717186629772,0.042134854942560196,9.866153717041016,-0.0034814411774277687,-0.004455190151929855,-0.008679389953613281,-0.005531332649799623,-0.040963232453931665,-0.0009983957315620067
0.01159396767616272,0.034494828432798386,9.871941566467285,0.005708863493055105,-0.0004022642970085144,-0.0032205581665039062,0.055503771381963225,-0.04920953861838492,-0.04108563224530307
0.006803013384342194,0.034003157168626785,9.875243186950684,0.0009080818854272366,0.004191279411315918,0.0061016082763671875,0.0007324043863516408,0.011825565413377936,0.040897338470718234
-0.002273565623909235,0.037769775837659836,9.867164611816406,-0.0082990862429142,0.004471533000469208,-0.00789642333984375,0.0009064941689076298,0.011825565413377936,0.0008100998725688518
0.007237371522933245,0.03841707110404968,9.876169204711914,0.005527807399630547,-0.004630446434020996,0.0066661834716796875,-0.005531332649799623,-0.054743112424005945,-0.053787182759948364
0.009174074046313763,0.03928578644990921,9.870944023132324,0.0053187026642262936,0.004357293248176575,-0.0027313232421875,0.07091806759565396,-0.033795242404694184,0.00724791960428783
0.004866306204348803,0.034494828432798386,9.872880935668945,0.0009547132067382336,-0.0006884373724460602,-0.0026941299438476562,-0.03020427044855998,0.011825565413377936,-0.0291142382910814
0.006510612554848194,0.02970387041568756,9.866446495056152,0.0012688301503658295,-0.005557514727115631,-0.00713348388671875,0.055503771381963225,0.12644561123758,0.0035228405690343285
0.007024434860795736,0.025355758145451546,9.87116527557373,0.005593914072960615,-0.0009756088256835938,0.0021944046020507812,-0.0027104912030108024,-0.10742385456421183,-0.053787182759948364
0.0020120516419410706,0.034494828432798386,9.864208221435547,-0.0042705531232059,-0.0008175075054168701,-0.01163482666015625,-0.023658361222322566,0.018479557047145514,0.025374954846917385
0.005079243332147598,0.03277105838060379,9.874011039733887,-0.004360220395028591,-0.005456533282995224,-0.0020151138305664062,0.016428872790128522,-0.04920953861838492,-0.03182698065507353
0.0066355993039906025,0.02821849286556244,9.878873825073242,-0.008484769612550735,-0.0012315288186073303,0.002666473388671875,-0.005531332649799623,-0.06813273779646391,-0.013808036157607402
0.006803013384342194,0.03450331464409828,9.870944023132324,0.0010067070834338665,0.003774315118789673,-0.0020751953125,-0.005531332649799623,0.011825565413377936,-0.053787182759948364
0.0020120516419410706,0.02818455547094345,9.866153717041016,-0.0035507725551724434,-0.010129021480679512,-0.006511688232421875,0.015308454961981978,0.052020881833359185,-0.032947405153326684
-0.0027789026498794556,0.034494828432798386,9.874483108520508,-0.007622102275490761,-0.0006406046450138092,0.0082855224609375,-0.028071517199797055,0.03436574996337537,-0.011999540136594879
0.006803013384342194,0.024912914261221886,9.870944023132324,0.0018829843029379845,-0.009906327351927757,-0.0011568069458007812,0.012811887418210089,-0.0308663185503752,-0.053787182759948364
0.007487347815185785,0.031072743237018585,9.872997283935547,0.006963073741644621,-0.004582926630973816,0.004055976867675781,-0.03168850257171549,0.02054632960130906,-0.03634821904007818
-0.00018311294843442738,0.03100176528096199,9.866153717041016,0.0020758546888828278,-0.00012462958693504333,-0.005185127258300781,-0.08310115072339974,-0.07717524124689966,-0.009286799440129402
0.006803013384342194,0.02970387041568756,9.871895790100098,0.0017217565327882767,-0.004493124783039093,-0.005023956298828125,0.031046998398263196,-0.07366633828251139,-0.053787182759948364
-0.00032507104333490133,0.03215770050883293,9.869717597961426,0.0016691433265805244,0.004828248172998428,-0.004878044128417969,-0.0509359623125982,0.02745602644212899,-0.053787182759948364
0.007220402825623751,0.02970387041568756,9.862196922302246,0.0019772988744080067,-0.0041181780397892,-0.009138107299804688,-0.010848714959933886,0.11262619087551369,-0.05910458174534916
0.006803013384342194,0.037224091589450836,9.870944023132324,0.0016333204694092274,0.0007494911551475525,0.00039577484130859375,-0.014035905342243976,0.04659541711569476,-0.053787182759948364
0.004670337773859501,0.03236215561628342,9.873076438903809,0.0013338718563318253,0.0008667446672916412,0.0006084442138671875,-0.03939693133903023,-0.022040033275852668,0.00724791960428783
0.005789034068584442,0.030717849731445312,9.869930267333984,0.0016132504679262638,-0.0035972297191619873,0.0005512237548828125,-0.04073097934172479,-0.001092163256540906,-0.005669807814986022
0.01159396767616272,0.026803884655237198,9.870944023132324,0.0063566965982317924,-0.008486395701766014,0.00037860870361328125,0.055503771381963225,0.003795477424837906,0.06828302196852402
0.0017701875185593963,0.034494828432798386,9.871186256408691,0.001611834391951561,0.0009210705757141113,-0.004448890686035156,-0.008612655099974517,0.014906887863552829,-0.08584539266586394
0.0044576129876077175,0.02970387041568756,9.870944023132324,0.0012268503196537495,-0.0036737769842147827,0.00030517578125,0.024348210328493852,-0.04920953861838492,0.005971903613520248
0.006803013384342194,0.03369349241256714,9.874934196472168,0.0012273169122636318,0.0009694136679172516,0.005057334899902344,-0.005531332649799623,-0.028792022115954063,-0.04357842117367964
0.003697819309309125,0.030546754598617554,9.866996765136719,-0.0036457665264606476,-0.003970574587583542,-0.004538536071777344,0.055503771381963225,-0.08876858022849717,-0.003490120986374892
0.004499158822000027,0.03716518357396126,9.870760917663574,0.0009803902357816696,0.00992441177368164,-0.004435539245605469,0.023818924028670755,0.011825565413377936,0.004913343520323949
0.0042450521141290665,0.03226182982325554,9.863920211791992,0.0007949806749820709,-0.004205942153930664,-0.008869171142578125,-0.005531332649799623,-0.016622039077592944,0.00724791960428783
0.015796145424246788,0.0356723815202713,9.870944023132324,0.010118752717971802,0.00017352402210235596,0.000885009765625,-0.005531332649799623,-0.041708736929667985,-0.04628636773101821
0.0062851617112755775,0.034494828432798386,9.870426177978516,-0.004146816208958626,0.00037247687578201294,-0.0036182403564453125,-0.05996919431484418,-0.04261229625166662,-0.04718994039323007
0.01159396767616272,0.02970387041568756,9.868244171142578,0.0050826240330934525,-0.00416218489408493,-0.0035800933837890625,0.021109526723144215,0.011825565413377936,-0.053787182759948364
0.007249885238707066,0.030150743201375008,9.874841690063477,0.000004834029823541641,-0.004251599311828613,0.0058994293212890625,0.049810782028331155,0.011825565413377936,-0.053787182759948364
0.0020120516419410706,0.03090130351483822,9.862560272216797,-0.004214650020003319,-0.004492409527301788,-0.008296012878417969,0.055503771381963225,0.027080446079057626,-0.06904205342046814
0.006803013384342194,0.034494828432798386,9.866153717041016,0.0011296505108475685,0.00020819157361984253,-0.0030050277709960938,-0.005531332649799623,0.03665794544057578,-0.07861955278198629
0.009715728461742401,0.03158210963010788,9.86906623840332,0.000788478646427393,0.0004461519420146942,-0.0026922225952148438,-0.005531332649799623,-0.012102561600733688,-0.016680199072190528
0.011126096360385418,0.03928578644990921,9.870710372924805,0.0057900696992874146,0.004760857671499252,0.0022554397583007812,0.052523514387163364,-0.043249024628785195,0.00724791960428783
0.0034224228002130985,0.03646504506468773,9.863332748413086,-0.004042207729071379,0.004657067358493805,-0.0024585723876953125,-0.005531332649799623,-0.013274312569361109,-0.053787182759948364
0.003748335875570774,0.03275854513049126,9.867889404296875,-0.003497847355902195,-0.00013546273112297058,-0.0019540786743164062,0.09441925442578689,0.03394518640131712,-0.03166755510190257
-0.0011136000975966454,0.031164221465587616,9.872405052185059,-0.0033000102266669273,-0.009500661864876747,-0.0019969940185546875,0.01568403532505334,-0.03060519721675444,0.00724791960428783
0.006782014854252338,0.034494828432798386,9.861383438110352,0.002133294939994812,-0.00006917491555213928,-0.006812095642089844,0.11627137745818487,0.012093063368919138,-0.053787182759948364
0.0020120516419410706,0.028159527108073235,9.862985610961914,-0.0024116206914186478,-0.009777126833796501,-0.0067729949951171875,-0.005531332649799623,0.07286066944514079,-0.013432434116689549
0.006803013384342194,0.02970387041568756,9.867897033691406,0.001572221051901579,-0.00444268062710762,0.0031423568725585938,-0.02775265942334853,-0.11024466933057421,-0.053787182759948364
0.0034644193947315216,0.024479057639837265,9.864701271057129,0.0012785536237061024,0.0005074888467788696,-0.006258964538574219,0.018498500149921722,-0.09174200703412701,0.025750555220308582
0.006803013384342194,0.034494828432798386,9.866153717041016,0.0011594942770898342,0.0007646866142749786,-0.0010557174682617188,-0.005531332649799623,0.07286066944514079,-0.051341951691710665
0.0008935853838920593,0.03928578644990921,9.863199234008789,0.001335024368017912,0.005405299365520477,-0.0006875991821289062,0.008717589217184126,-0.02581643419578214,0.04488992755108117
0.006803013384342194,0.02970387041568756,9.870944023132324,0.0015825582668185234,-0.0035892724990844727,0.0037708282470703125,-0.005531332649799623,0.07286066944514079,-0.053787182759948364
0.004490911029279232,0.02970387041568756,9.863675117492676,0.006211127620190382,-0.004094339907169342,-0.010467529296875,0.010258570607388917,-0.003964337843810604,-0.053787182759948364
0.011189091950654984,0.030513621866703033,9.852590560913086,0.005999780260026455,-0.004177987575531006,-0.014766693115234375,0.10622294188947963,0.011825565413377936,0.0020899474227029854
0.001319459406659007,0.02970387041568756,9.859313011169434,0.0015429197810590267,-0.00432201474905014,-0.009164810180664062,0.029397934600528242,0.0030021349444850575,0.033353761388302774
0.006252371706068516,0.03504546731710434,9.864033699035645,-0.0029186210595071316,0.005163624882698059,0.0003757476806640625,0.055503771381963225,0.06584574500242035,-0.053787182759948364
0.00303854513913393,0.02970387041568756,9.86136245727539,0.002134301234036684,-0.004388388246297836,-0.0040569305419921875,-0.053489279123419366,0.05978352522721091,-0.04071003187191188
-0.0015432771760970354,0.03032168373465538,9.86074447631836,-0.006665951572358608,-0.004017502069473267,-0.0034952163696289062,-0.013402058451181503,0.003954839611996055,0.00724791960428783
0.004274171311408281,0.034494828432798386,9.866419792175293,0.0027168109081685543,0.0009485706686973572,-0.0035123825073242188,-0.03774785420108205,0.0474400393756756,0.00724791960428783
0.00926087237894535,0.03203696757555008,9.863696098327637,0.007250935770571232,-0.0038988813757896423,-0.0030202865600585938,-0.03684360118799583,-0.04920953861838492,-0.0224749092191722
-0.0011517911916598678,0.02418973483145237,9.86696720123291,0.0022199954837560654,0.009829267859458923,0.006285667419433594,0.06586818324106089,0.052131845726945444,-0.003116490795724018
0.006803013384342194,0.034494828432798386,9.86219310760498,0.002788310870528221,0.0006545260548591614,-0.003192901611328125,-0.016114790810013716,0.07286066944514079,-0.043203724599734275
0.004327956587076187,0.034494828432798386,9.866153717041016,-0.001970518846064806,0.0005073100328445435,0.0016803741455078125,0.08703509956148908,0.009798039766515517,-0.024283401905131414
0.006803013384342194,0.02715783752501011,9.861663818359375,0.002704300917685032,-0.00392681360244751,-0.007681846618652344,-0.00936736432283448,0.015661597086412793,0.00724791960428783
0.006202394142746925,0.03030448965728283,9.862564086914062,0.0025860597379505634,-0.0034882761538028717,-0.0029630661010742188,0.04785209188169777,-0.03390620629828044,-0.046135516599896134
0.003055739216506481,0.03719841316342354,9.867197036743164,-0.0020643868483603,0.005680974572896957,0.0019311904907226562,0.02891136366344417,0.02512175593242424,0.00724791960428783
0.0056883469223976135,0.02970387041568756,9.857686042785645,0.0028048427775502205,-0.003702796995639801,-0.007254600524902344,0.027102884317698174,0.011825565413377936,0.00724791960428783
-0.0014738979516550899,0.038558799773454666,9.863394737243652,-0.011371350847184658,0.0009942278265953064,-0.0023298263549804688,-0.005531332649799623,-0.023322748138066354,-0.02790039394715646
0.00876401923596859,0.031664878129959106,9.868983268737793,0.006975483149290085,0.001204855740070343,0.0028352737426757812,-0.005531332649799623,0.011825565413377936,-0.02880464195766272
0.006169608328491449,0.025229616090655327,9.866153717041016,0.0025413413532078266,-0.0079283956438303,0.00266265869140625,0.05146910393404265,0.015860232861298514,0.0032132409005623443
0.008130615577101707,0.03316722437739372,9.86828899383545,0.002323010005056858,0.0014438927173614502,0.007359504699707031,0.028295045812556298,-0.005087610477586803,0.03445664684122141
0.007955867797136307,0.03928578644990921,9.866153717041016,0.006621848326176405,0.005887892097234726,0.0025453567504882812,-0.028705390771285973,-0.026035480496898567,-0.053787182759948364
0.006803013384342194,0.034494828432798386,9.86136245727539,0.00183473015204072,0.001164563000202179,-0.00238037109375,-0.005531332649799623,-0.010444239695022194,0.00724791960428783
0.008272573351860046,0.02970387041568756,9.866153717041016,0.0015693590976297855,-0.0035388916730880737,0.0024080276489257812,-0.005531332649799623,-0.07280130549629986,0.044691288441142146
0.0003349610778968781,0.02826709672808647,9.866153717041016,-0.0030166092328727245,-0.007913662120699883,0.00240325927734375,-0.005531332649799623,-0.009539986681935973,-0.053787182759948364
0.0036181656178086996,0.03928578644990921,9.86136245727539,0.0015035741962492466,0.006314925849437714,-0.0020036697387695312,-0.06656643668156248,-0.04920953861838492,-0.013213386148046471
0.00040053410339169204,0.032883308827877045,9.869332313537598,-0.00781918689608574,-0.003361884504556656,0.0025577545166015625,0.014998855293509993,-0.00870462252993168,-0.013282256666335215
0.006803013384342194,0.03306886553764343,9.858253479003906,0.0017733746208250523,-0.0037742778658866882,-0.006777763366699219,0.09510446113775668,0.033259979689347324,0.02541417173873876
0.006803013384342194,0.034494828432798386,9.866551399230957,0.0017576185055077076,0.0007516257464885712,0.0076694488525390625,0.03685095164548153,0.030478385149859632,-0.053787182759948364
0.0034052287228405476,0.035888005048036575,9.86136245727539,0.0015525822527706623,0.004820551723241806,-0.0020856857299804688,-0.005531332649799623,-0.013712405171593958,-0.03603861603655289
0.00497855618596077,0.03267037123441696,9.86136245727539,-0.003141334280371666,-0.004807427525520325,-0.0019159317016601562,0.040954507954484035,-0.0027236980141012567,0.0450401050014355
0.006803013384342194,0.03928578644990921,9.858467102050781,0.0015676310285925865,0.00458671897649765,-0.00649261474609375,-0.02967850596502767,0.048713496129912735,-0.016899247040833607
0.008054230362176895,0.033243611454963684,9.863651275634766,0.0013202875852584839,0.0003765001893043518,0.0031423568725585938,-0.06656643668156248,0.027765626110600974,0.023187990306670785
0.003192291362211108,0.03331458941102028,9.864973068237305,0.00128109659999609,-0.004655689001083374,-0.0013456344604492188,0.02454030939890046,-0.08017300060144768,-0.053787182759948364
0.007519181817770004,0.03245743736624718,9.86890697479248,-0.003716898150742054,-0.004506859928369522,0.0030374526977539062,-0.005531332649799623,-0.02325388595741087,-0.07974284542608233
-0.0000963186175795272,0.02970387041568756,9.853888511657715,-0.0036663454957306385,-0.004438236355781555,-0.011127471923828125,-0.005531332649799623,-0.04189427261516903,-0.053787182759948364
0.005764732137322426,0.028665591031312943,9.857609748840332,0.001415083184838295,-0.004130098968744278,-0.005915641784667969,0.09008421873694443,-0.04920953861838492,-0.0059794066496946805
0.00777031434699893,0.038318485021591187,9.862329483032227,0.006130072753876448,0.0008470043540000916,0.0037832260131835938,-0.005531332649799623,-0.07327541667423394,-0.053787182759948364
0.002302353736013174,0.03478512540459633,9.864192962646484,-0.008219202980399132,-0.004206918179988861,-0.0058441162109375,0.026835359681730526,0.011825565413377936,-0.050088885453384385
0.009272660128772259,0.03681613877415657,9.86136245727539,0.005730206612497568,0.0005935914814472198,-0.0010623931884765625,0.055503771381963225,-0.019636873905065994,0.00724791960428783
0.006803013384342194,0.03763509914278984,9.857396125793457,0.0006905011832714081,0.005137037485837936,-0.00560760498046875,-0.005531332649799623,-0.028180373339694132,-0.0032666663701108665
0.002766416873782873,0.0304582342505455,9.866153717041016,0.0009162817150354385,-0.00016879290342330933,0.0036821365356445312,0.06511411434843561,-0.03959919565191252,-0.10521195383039875
0.00913070235401392,0.036822520196437836,9.863690376281738,0.0007016435265541077,-0.00023103132843971252,-0.00127410888671875,-0.003804148563432649,-0.01782839455932,-0.024133226122303734
-0.0007287462358362973,0.034494828432798386,9.866153717041016,0.005294820759445429,-0.00032967329025268555,0.0035839080810546875,0.09912669550695373,0.02053165536676411,-0.11482228345665792
0.01159396767616272,0.034494828432798386,9.86136245727539,0.005299451760947704,-0.0007730424404144287,-0.0015811920166015625,0.06774555144788881,0.011825565413377936,0.00724791960428783
0.008988744579255581,0.025332406163215637,9.864386558532715,0.000471409410238266,-0.005205705761909485,0.008032798767089844,-0.01087550210808503,0.011825565413377936,-0.04844300329650304
0.006803013384342194,0.035056278109550476,9.866153717041016,0.0003043930046260357,-0.004750531166791916,0.0029010772705078125,0.0285625437680975,0.011825565413377936,-0.01969329466936467
0.0020120516419410706,0.034494828432798386,9.875265121459961,-0.0045215776190161705,-0.000028580427169799805,0.007323265075683594,-0.005531332649799623,0.005832207818823974,-0.04779383183550102
0.003185909241437912,0.03693807125091553,9.867422103881836,-0.004442815203219652,0.0046619512140750885,0.006804466247558594,0.055503771381963225,0.026780077838135737,-0.053787182759948364
0.006803013384342194,0.03252203390002251,9.865307807922363,0.0006048562936484814,0.00007794797420501709,-0.0027437210083007812,-0.005531332649799623,0.0010559045570016586,-0.053787182759948364
0.006803013384342194,0.034494828432798386,9.86805534362793,0.0005178060382604599,0.0000030472874641418457,0.006993293762207031,0.055503771381963225,-0.01240290316122913,-0.053787182759948364
0.0025270748883485794,0.034237317740917206,9.857086181640625,0.005291596986353397,-0.0048951804637908936,0.002025604248046875,-0.06000522623075864,0.011825565413377936,0.0006867070690756833
0.008820380084216595,0.03651219978928566,9.864767074584961,0.005042272619903088,0.0048624128103256226,0.0021791458129882812,-0.048899178557759236,-0.013875022370778442,0.00724791960428783
0.008562871254980564,0.034006211906671524,9.860091209411621,0.0006114034913480282,0.005138222128152847,-0.007122039794921875,-0.005531332649799623,0.03424555464223901,0.00724791960428783
0.0018964982591569424,0.025144021958112717,9.856801986694336,-0.003749945666640997,-0.009188978001475334,-0.007056236267089844,-0.06362221160267707,0.011825565413377936,-0.05231507355555897
0.011549392715096474,0.03924121335148811,9.86136245727539,0.001357837114483118,0.0005415864288806915,-0.0027866363525390625,0.055503771381963225,0.07286066944514079,0.00724791960428783
0.006803013384342194,0.03130359947681427,9.859770774841309,0.0010023373179137707,-0.0044056735932827,-0.0071468353271484375,0.07577886776802874,-0.008449530972687571,0.027627920092083195
0.00370916910469532,0.034494828432798386,9.858118057250977,0.00111665902659297,0.0003825537860393524,-0.0067596435546875,-0.027151949621931196,-0.09053743914097179,0.00724791960428783
0.008278955705463886,0.03117981366813183,9.859886169433594,0.005055015906691551,0.0005350634455680847,-0.00653839111328125,-0.04776344616483305,-0.0257804156200809,-0.053787182759948364
0.0037537417374551296,0.02839629165828228,9.859621047973633,0.0003308076411485672,0.0008947327733039856,-0.006262779235839844,-9.604953520330432e-7,-0.02702105544979025,0.00724791960428783
0.0038247208576649427,0.034494828432798386,9.86136245727539,-0.003641931340098381,0.0006912164390087128,-0.0013265609741210938,-0.043473687159668366,0.0497679332634599,-0.015844823247499664
0.006803013384342194,0.03103785589337349,9.853903770446777,0.0012066974304616451,-0.0044038258492946625,-0.005454063415527344,0.09954437758295587,0.07286066944514079,0.00724791960428783
0.003275058465078473,0.028440864756703377,9.86136245727539,0.0007167649455368519,-0.009003346785902977,-0.0007143020629882812,0.010558912167884361,0.011825565413377936,-0.06987743091268565
0.011212668381631374,0.02932257205247879,9.852924346923828,0.005487603601068258,-0.003800496459007263,-0.009824752807617188,0.055503771381963225,-0.044351913416757135,-0.10996467159524335
0.006803013384342194,0.033208973705768585,9.853066444396973,0.000824290793389082,-0.008272068575024605,-0.00007724761962890625,-0.031336827870739166,0.056479314494511455,-0.0021762123283891165
0.00949738547205925,0.036591410636901855,9.859265327453613,0.00594386737793684,0.0009138733148574829,-0.00018787384033203125,0.055503771381963225,0.019441199657515708,-0.027077451201189134
0.005752943456172943,0.030753938481211662,9.86136245727539,-0.004035692662000656,0.0005456656217575073,-0.00004673004150390625,0.042126258923111455,0.09376326278077476,0.00724791960428783
0.007397249341011047,0.034494828432798386,9.864965438842773,0.0009331763722002506,0.0005573630332946777,0.004612922668457031,-0.051425708220429266,0.011825565413377936,0.05314230351255074
0.004564469680190086,0.036733370274305344,9.856571197509766,-0.0038459417410194874,0.004776500165462494,-0.004314422607421875,0.02698554380219147,-0.01669266216639382,-0.021270307975483925
0.004493490792810917,0.032013390213251114,9.854262351989746,0.0007944190874695778,-0.00459684431552887,-0.0041065216064453125,-0.0371439560887045,0.009635422567331036,0.00724791960428783
0.0020120516419410706,0.03054100275039673,9.855733871459961,-0.003950297366827726,0.00023276731371879578,-0.008305549621582031,-0.04523691650216303,-0.11024466933057421,-0.014081603910164924
0.0059958393685519695,0.031318217515945435,9.86373233795166,0.0006901994347572327,-0.0039711594581604,0.006175994873046875,-0.04600023016255162,-0.04920953861838492,-0.04350407950044294
0.004239533096551895,0.0321553498506546,9.856571197509766,-0.00872982107102871,0.000609133392572403,-0.0029211044311523438,0.025699627288804344,-0.019405394525226032,0.00724791960428783
0.009508446790277958,0.033799655735492706,9.852476119995117,0.005856769625097513,0.000694815069437027,-0.007342338562011719,-0.1010327451722104,0.020681839487225056,-0.01046461186813988
0.0013878571335226297,0.034494828432798386,9.85532283782959,-0.008053332567214966,0.00048415735363960266,-0.011476516723632812,-0.05066239456004067,0.07286066944514079,0.00724791960428783
0.01159396767616272,0.0317440927028656,9.851780891418457,0.006570091936737299,-0.003867998719215393,-0.006476402282714844,0.00746451630875124,0.011825565413377936,-0.04079133713645081
0.004138595424592495,0.034494828432798386,9.852317810058594,-0.0031119720079004765,0.0004785284399986267,-0.0011234283447265625,0.0215600524041006,0.018677899337340337,0.00724791960428783
0.011111731640994549,0.030668344348669052,9.847953796386719,0.006331462413072586,-0.004374310374259949,-0.010347366333007812,-0.06042290830676079,0.06671715441055233,-0.053787182759948364
0.0024233097210526466,0.034083571285009384,9.860128402709961,0.0011392938904464245,-0.004473287612199783,-0.009752273559570312,-0.06132716131984701,0.017064854115306623,-0.048547904063179596
0.0032451001461595297,0.034494828432798386,9.858896255493164,-0.003413938917219639,0.0000917091965675354,0.004767417907714844,0.010177248667583452,-0.03350095730100184,-0.008460668383201857
0.005839261692017317,0.03161747381091118,9.853693962097168,-0.0033881468698382378,-0.004412073642015457,-0.0043048858642578125,-0.005531332649799623,-0.0004522332282488911,0.043904375943562626
0.0022813514806330204,0.0390164852142334,9.856302261352539,-0.003056289628148079,0.005257617682218552,0.0007009506225585938,-0.008962115325555872,0.06599910409362829,0.06142145661701153
0.002210372593253851,0.025111235678195953,9.861164093017578,0.0013574231415987015,-0.004077054560184479,0.0003814697265625,0.052977241719293196,0.06780758343937428,-0.05126064642717173
0.0039110444486141205,0.032595839351415634,9.853679656982422,0.0015011359937489033,-0.0039983950555324554,0.00047779083251953125,0.012890007706842111,0.03024690577001967,-0.01117340991343066
0.005413387436419725,0.03279415890574455,9.853170394897461,-0.003226619679480791,0.00036276504397392273,0.0009307861328125,0.033837877726153875,-0.009840328242431418,-0.053787182759948364
-0.0027225399389863014,0.03443846479058266,9.861249923706055,-0.007466331124305725,0.0003878548741340637,0.005767822265625,0.05478572106503919,0.012543615730301973,-0.053069142448184246
0.003600003896281123,0.03928578644990921,9.851780891418457,0.00218649348244071,0.004838190972805023,-0.0036554336547851562,0.055503771381963225,-0.06978478980196075,0.02747785269848795
0.003671108279377222,0.031362924724817276,9.85012149810791,-0.0031380727887153625,-0.00445256382226944,-0.0033884048461914062,-0.024294876156029575,-0.08910886238738132,-0.053787182759948364
0.006803013384342194,0.02970387041568756,9.846989631652832,0.001259747426956892,-0.0043834783136844635,-0.007433891296386719,0.0134190538828272,-0.04920953861838492,-0.11482228345665792
0.01143709197640419,0.02986074611544609,9.847146987915039,0.00566941499710083,-0.004101108759641647,-0.007342338562011719,-0.005531332649799623,-0.1082461453072579,0.062287409877935435
0.0020120516419410706,0.03748452290892601,9.8529691696167,-0.003725523129105568,0.00030022114515304565,-0.0070667266845703125,-0.005531332649799623,0.034773026673063825,-0.03083971483015587
0.006803013384342194,0.02970387041568756,9.853652954101562,0.001278118696063757,-0.004138614982366562,-0.0020284652709960938,0.018321982448559204,-0.012027749684980892,0.00724791960428783
0.005528812296688557,0.03322063013911247,9.851780891418457,0.0009361463598906994,0.0010999329388141632,-0.001934051513671875,-0.05033358498452803,0.011825565413377936,-0.053787182759948364
0.01159396767616272,0.03891559690237045,9.846989631652832,0.005471745040267706,0.005950648337602615,-0.006054878234863281,-0.0008152471104644907,-0.03506130868080596,-0.053787182759948364
0.0020120516419410706,0.034494828432798386,9.846989631652832,-0.003976995591074228,0.000857621431350708,-0.005410194396972656,-0.031196328745077887,-0.013839430681900328,-0.053787182759948364
0.004097735974937677,0.0338752344250679,9.849695205688477,-0.003960390109568834,-0.0036386586725711823,-0.00005626678466796875,-0.005531332649799623,-0.07578038855233613,-0.0882514335227067
0.01053308229893446,0.0334339402616024,9.849658966064453,0.005166792310774326,0.0009431280195713043,0.00033092498779296875,0.028473137659079092,0.045830035722256655,-0.053787182759948364
0.006803013384342194,0.03028734400868416,9.846989631652832,0.00020590797066688538,-0.003764461725950241,-0.004227638244628906,0.0019019141991576522,-0.04177629176942764,-0.053787182759948364
0.01159396767616272,0.03193164989352226,9.842198371887207,0.004794126842170954,0.0010871700942516327,-0.008180618286132812,-0.038185319813293435,0.04020668228164698,0.00724791960428783
0.01408616453409195,0.03200262784957886,9.842198371887207,0.009513100609183311,-0.0034889131784439087,-0.007563591003417969,0.055503771381963225,-0.019924168737029655,0.004783559087170464
0.007650906685739756,0.030551765114068985,9.850933074951172,0.004557076375931501,0.0010283589363098145,-0.002292633056640625,-0.005531332649799623,0.06205880531404496,-0.04298531529379923
0.007599424105137587,0.034494828432798386,9.846989631652832,-0.00011102156713604927,0.001169554889202118,-0.0021677017211914062,0.045357765493747294,0.011825565413377936,-0.1046762909086552
0.009243728592991829,0.02970387041568756,9.8518705368042,0.0043450575321912766,-0.0037395916879177094,0.0073795318603515625,0.02440989547443553,-0.04805691751551882,-0.02384594629807995
0.004523749463260174,0.027424609288573265,9.844477653503418,-0.004703692626208067,-0.007897263392806053,-0.0020856857299804688,-0.005531332649799623,-0.017211436378197442,0.036284913058229944
-0.0015089892549440265,0.02970387041568756,9.842833518981934,-0.0000623464584350586,-0.0027261078357696533,-0.0017910003662109375,-0.06656643668156248,-0.04920953861838492,0.00724791960428783
0.010584619827568531,0.03172256797552109,9.844970703125,0.00486757280305028,-0.002812732011079788,-0.0010967254638671875,0.029786294887866934,0.047143192951044494,-0.053787182759948364
0.006803013384342194,0.034494828432798386,9.846473693847656,0.00015067169442772865,0.0014742836356163025,-0.005522727966308594,0.08273226714736617,0.018403677914334903,-0.053787182759948364
0.0047366865910589695,0.03036217950284481,9.84426498413086,-0.00432800967246294,-0.008281359449028969,-0.0005350112915039062,-0.04024219392924575,-0.014498677338938787,-0.019076326483082197
0.011171948164701462,0.034494828432798386,9.846567153930664,0.0002240329049527645,0.0010871179401874542,-0.004894256591796875,-0.00015495991679466428,0.011825565413377936,-0.04841080002178349
0.006803013384342194,0.0404096394777298,9.846989631652832,0.00008295150473713875,0.010225966572761536,-0.000217437744140625,0.02561371631565028,-0.018064489652935015,-0.03821466161227672
0.0020120516419410706,0.032570626586675644,9.84985637664795,-0.004488552454859018,0.0008013136684894562,0.004464149475097656,-0.005531332649799623,-0.06121735802481112,-0.017265727710960452
0.0009272921597585082,0.032641731202602386,9.842198371887207,0.0006319466046988964,-0.0036506280303001404,-0.004950523376464844,-0.005531332649799623,0.07286066944514079,-0.053787182759948364
0.015967505052685738,0.025330331176519394,9.847198486328125,0.009896148927509785,-0.008210645988583565,-0.00014972686767578125,0.055503771381963225,-0.10758580475273519,-0.05112831151200273
0.002149655483663082,0.03463243320584297,9.851643562316895,0.0004435228183865547,0.005817525088787079,-0.0005035400390625,-0.005531332649799623,0.011825565413377936,-0.11482228345665792
0.006803013384342194,0.037916604429483414,9.851780891418457,0.00039083510637283325,0.000609714537858963,0.003940582275390625,0.03370765056467406,-0.04920953861838492,0.00724791960428783
0.006803013384342194,0.03613461181521416,9.84862995147705,-0.0002194349654018879,0.005472306162118912,0.0036497116088867188,-0.026421599628415848,-0.00906470156523829,-0.053787182759948364
0.006803013384342194,0.03448561951518059,9.842207908630371,-0.00008995272219181061,0.0011570043861865997,-0.005549430847167969,-0.005590002907552975,0.011825565413377936,-0.05384584968264841
0.006803013384342194,0.03135286271572113,9.846989631652832,0.00028745876625180244,0.001341264694929123,-0.0007991790771484375,0.0344961638878403,0.051853061951017854,-0.053787182759948364
0.006803013384342194,0.031201444566249847,9.8502836227417,0.00007583014667034149,-0.0033799223601818085,0.00405120849609375,0.07838173013075894,0.053782110143870444,0.030125883355663505
0.006803013384342194,0.03643284738063812,9.846989631652832,-0.000024382956326007843,-0.0035950765013694763,-0.0005340576171875,0.07367650352498707,0.03651523183951954,0.05011029983066009
0.0070209321565926075,0.02970387041568756,9.838062286376953,0.000525984913110733,-0.00394078716635704,-0.010046958923339844,0.052727566288617495,0.011825565413377936,-0.053787182759948364
0.007869352586567402,0.03156617656350136,9.848852157592773,-0.004369537346065044,0.0011723563075065613,0.003993034362792969,-0.005531332649799623,0.03899520415804241,-0.006336906855032681
0.006803013384342194,0.034494828432798386,9.849557876586914,0.00047497404739260674,0.0012029893696308136,-0.0009918212890625,-0.021892357115477587,0.011825565413377936,-0.03742615162416379
0.005589855834841728,0.03328167274594307,9.843411445617676,-0.004480278119444847,-0.0037123747169971466,-0.0010080337524414062,0.009923864657631848,-0.003629631894053534,-0.038331995457676814
0.011162735521793365,0.030997566878795624,9.838702201843262,0.005266364198178053,-0.003529537469148636,-0.010090827941894531,-0.005531332649799623,0.006331825484439829,0.00724791960428783
0.009518347680568695,0.02970387041568756,9.840123176574707,0.004757638089358807,-0.003822408616542816,-0.005252838134765625,-0.005531332649799623,-0.022766861453077228,-0.08837961296145684
0.006803013384342194,0.02970387041568756,9.845918655395508,0.00014209188520908356,-0.0034011267125606537,-0.00016307830810546875,-0.06656643668156248,0.011825565413377936,-0.0063955729439694
0.001012209220789373,0.035494670271873474,9.845990180969238,-0.009134756401181221,0.0059369951486587524,-0.004929542541503906,-0.018268968441212268,0.04738537118188905,-0.005489727859811386
0.006447712425142527,0.03263229504227638,9.85213565826416,0.005474603734910488,-0.008365074172616005,-0.000385284423828125,-0.005531332649799623,0.10105062105792881,-0.053787182759948364
0.009305034764111042,0.034494828432798386,9.846776962280273,0.005318783689290285,0.0011664889752864838,-0.0048732757568359375,0.026343559381063163,0.043700457444240726,-0.02191229739919219
-0.0002060009428532794,0.03535246104001999,9.843055725097656,-0.009092124179005623,0.0005580633878707886,-0.004977226257324219,0.016320576939186798,0.0008996106188847264,-0.003678034356442053
0.006016483064740896,0.03127693012356758,9.847776412963867,-0.003959243185818195,0.005052492022514343,0.003986358642578125,0.004488768306020645,0.021845666369198203,-0.10480218250083764
0.008518731221556664,0.0384279265999794,9.853997230529785,0.0009044837206602097,0.005183026194572449,0.008593559265136719,-0.05563761374122639,-0.06013837489893422,-0.053787182759948364
0.009091720916330814,0.02970387041568756,9.846776008605957,0.00026004621759057045,-0.0041402727365493774,-0.005673408508300781,-0.03468867650485681,0.014545981735026412,-0.021909429253349315
0.01094964798539877,0.03513914719223976,9.847634315490723,-0.0002086656168103218,0.00038927048444747925,0.0036220550537109375,0.09191364221745003,-0.004591274504423728,0.00724791960428783
0.007376228924840689,0.03506804630160332,9.851780891418457,0.004199458286166191,0.005135815590620041,0.0035829544067382812,-0.005531332649799623,-0.09563953709011842,0.00724791960428783
0.008380449377000332,0.03342365473508835,9.848060607910156,0.0037002405151724815,0.0003766976296901703,-0.001583099365234375,-0.005531332649799623,-0.0018208057027637508,0.00724791960428783
0.004087449051439762,0.02906370535492897,9.851780891418457,-0.005704623647034168,-0.008824503049254417,0.0031185150146484375,0.00262415334303361,-0.05736505129164459,-0.0355028664034234
0.010811593383550644,0.037281494587659836,9.844985008239746,0.008935829624533653,0.00048239901661872864,-0.006023406982421875,-0.015498499639552294,0.07286066944514079,0.017215099934253724
0.0020120516419410706,0.02970387041568756,9.847709655761719,-0.0053971861489117146,-0.004288583993911743,0.008182525634765625,-0.0009463013651641104,-0.04920953861838492,0.0026628879027706543
0.005518525838851929,0.034494828432798386,9.850496292114258,-0.00023370888084173203,0.0006349869072437286,0.0032796859741210938,0.022775959478495096,0.056496763493406724,0.00724791960428783
0.008665094152092934,0.028637077659368515,9.846989631652832,-0.000013652723282575607,-0.008871370926499367,-0.0016021728515625,-0.005531332649799623,0.011825565413377936,-0.053787182759948364
0.009802991524338722,0.037494808435440063,9.845198631286621,0.0003064018674194813,0.0006120651960372925,-0.00621795654296875,0.009870930691564249,-0.026393104932972204,0.00724791960428783
0.011447379365563393,0.03434823825955391,9.837700843811035,0.004826979711651802,0.0003063790500164032,-0.010590553283691406,-0.06283145712368943,0.12642581436115755,-0.051919692981011845
0.005305211991071701,0.03599262982606888,9.845193862915039,-0.00008289096876978874,0.0006596706807613373,-0.005585670471191406,-0.005531332649799623,-0.05300034696859488,-0.053787182759948364
0.003660821821540594,0.034494828432798386,9.843847274780273,-0.004341260530054569,0.0005292594432830811,-0.00536346435546875,0.015473393358267208,0.032830291421444766,-0.013756809738832306
0.0035897172056138515,0.02970387041568756,9.843775749206543,0.0007991427555680275,-0.0037749074399471283,-0.000518798828125,-0.04646755117195536,0.011825565413377936,-0.033688300585394564
0.006803013384342194,0.02038915827870369,9.851714134216309,0.000838360283523798,-0.012814860790967941,0.0041904449462890625,-0.005531332649799623,-0.10939367044867293,0.00724791960428783
0.01022555585950613,0.03141514211893082,9.853148460388184,0.00035895826295018196,-0.0034545138478279114,0.008633613586425781,-0.005531332649799623,-0.06227473000526727,-0.031986176089566394
0.003447265364229679,0.037850573658943176,9.850345611572266,-0.004524904303252697,0.005884416401386261,0.0038118362426757812,0.012752763593207168,-0.09196057308756742,-0.011036178306245613
0.010229986160993576,0.034494828432798386,9.850417137145996,0.00020636571571230888,0.0011345483362674713,-0.0010042190551757812,-0.005531332649799623,0.03810735960722009,-0.01012873281338254
0.011313477531075478,0.025193404406309128,9.846709251403809,0.0044638956896960735,-0.008135365322232246,-0.00127410888671875,-0.12045485498460447,-0.10309799694206657,-0.0466404936961742
0.008727975189685822,0.034494828432798386,9.846048355102539,-0.00021548010408878326,0.0012481287121772766,-0.005702018737792969,0.06749219411836366,-0.04920953861838492,-0.07831052674268288
0.005581490229815245,0.03205178305506706,9.849432945251465,-0.00020772311836481094,0.001531951129436493,-0.001194000244140625,0.024380253520654732,-0.03364777968773067,-0.02387560325960062
0.003162345150485635,0.02970387041568756,9.841048240661621,0.00014577852562069893,-0.003073122352361679,-0.010633468627929688,0.08723024020051047,0.05820633849831976,0.00724791960428783
-0.0012963622575625777,0.034494828432798386,9.851780891418457,-0.008632626384496689,0.0018352940678596497,0.003966331481933594,-0.06027074983474289,0.06656499593853442,-0.053787182759948364
0.01210761908441782,0.03398117795586586,9.846989631652832,0.010378771461546421,-0.0031450167298316956,-0.0011434555053710938,0.055503771381963225,-0.01542011254665582,0.00724791960428783
0.006803013384342194,0.02970387041568756,9.850772857666016,0.0004971213638782501,-0.0032385028898715973,0.0036363601684570312,-0.005531332649799623,-0.03636985019581876,-0.053787182759948364
0.006803013384342194,0.026786409318447113,9.846989631652832,0.000321793369948864,0.0013504810631275177,-0.0006437301635742188,-0.04269876751377604,-0.00010826917051528024,-0.004685913312078733
0.002719693584367633,0.030411511659622192,9.846989631652832,-0.00429070508107543,-0.002793189138174057,-0.00044918060302734375,-0.005531332649799623,0.011825565413377936,0.016263020589237537
-0.000339976919349283,0.02735184133052826,9.846989631652832,-0.008883141912519932,-0.007237592712044716,-0.00027561187744140625,-0.03660241013292976,0.04289662955629485,0.008354958866098678
0.0028065908700227737,0.03370029106736183,9.851780891418457,-0.004033134318888187,0.0019843094050884247,0.004401206970214844,0.055503771381963225,-0.04920953861838492,0.04803874481005622
0.014214619994163513,0.02970387041568756,9.847713470458984,-0.004516824148595333,-0.002637624740600586,0.004309654235839844,-0.005531332649799623,-0.04920953861838492,-0.04457088634670083
0.002933007199317217,0.028782915323972702,9.846989631652832,-0.004755026660859585,-0.0026042312383651733,-0.0005588531494140625,-0.05483379919349374,-0.1478144983861996,-0.016217358706902954
0.004237667191773653,0.02970387041568756,9.842538833618164,-0.004631402436643839,-0.0021001361310482025,-0.00024127960205078125,-0.03388486195712416,0.07718871486225456,-0.04945914067788789
0.0025932772550731897,0.02970387041568756,9.846989631652832,-0.004430124070495367,-0.0019299052655696869,-0.00034809112548828125,-0.012935924720754579,-0.04180494654742996,0.06828302196852402
0.007313133217394352,0.038775667548179626,9.842198371887207,0.0048607829958200455,0.0030289702117443085,-0.004718780517578125,0.055503771381963225,-0.04920953861838492,0.00724791960428783
0.0020120516419410706,0.02970387041568756,9.85064697265625,-0.0048058535903692245,-0.0024196356534957886,0.004975318908691406,-0.005531332649799623,0.05841049712147967,0.00724791960428783
0.0047907112166285515,0.02970387041568756,9.84900188446045,0.0003162156790494919,-0.0023185573518276215,0.0000362396240234375,-0.005531332649799623,0.037461559885110095,0.03288391240849333
0.0071708764880895615,0.03007173351943493,9.8466215133667,0.0003691096790134907,-0.002134423702955246,0.00016307830810546875,-0.010217776235353958,-0.04452309503283058,-0.04910073583934073
0.01100070122629404,0.030297135934233665,9.842198371887207,-0.0042505888268351555,0.007415115833282471,-0.004130363464355469,0.051724782460668556,-0.041651534095369126,0.003468918593424925
0.006803013384342194,0.03314698860049248,9.846989631652832,0.0005702604539692402,0.00251036137342453,0.0008344650268554688,-0.03222443229772348,0.03851866506130179,-0.009923075917525056
0.008601658046245575,0.034494828432798386,9.84399700164795,0.0002637868747115135,0.0023338384926319122,-0.003912925720214844,0.00967554992870486,-0.003381317165126547,0.022454802182792312
0.0064117214642465115,0.034494828432798386,9.845653533935547,-0.00872853584587574,0.0023989155888557434,0.005321502685546875,0.0164753234125699,0.0288473306399753,-0.053787182759948364
0.0020949949976056814,0.029786814004182816,9.846989631652832,0.0009082173928618431,0.0020003095269203186,0.0007429122924804688,-0.06445310678325177,-0.04920953861838492,0.12826146772123814
0.003668238641694188,0.026569100096821785,9.845333099365234,0.0008254507556557655,-0.0025206245481967926,-0.003955841064453125,0.034404543303426925,-0.009273662665158368,0.00724791960428783
0.0020237648859620094,0.034494828432798386,9.856547355651855,-0.0033957292325794697,0.0020411722362041473,0.01006317138671875,0.11624042816350826,0.07286066944514079,-0.053787182759948364
0.003644812386482954,0.02970387041568756,9.843831062316895,0.0014983955770730972,-0.0025438405573368073,0.0005588531494140625,-0.005531332649799623,0.031259107788503826,-0.053787182759948364
0.0020120516419410706,0.035877808928489685,9.842198371887207,-0.0036844597198069096,0.006620809435844421,-0.00415802001953125,-0.009620881734918313,-0.027501329806233217,-0.053787182759948364
0.006803013384342194,0.034494828432798386,9.846989631652832,0.0010687648318707943,0.0016963928937911987,0.000965118408203125,0.055503771381963225,-0.006551325352805824,-0.07216407019107882
0.0022140287328511477,0.030107824131846428,9.851780891418457,-0.003729045856744051,-0.0028159357607364655,0.005391120910644531,-0.005531332649799623,0.014398679100621568,-0.056360299782245306
0.006803013384342194,0.03634127974510193,9.84514331817627,0.0008914223872125149,0.006428573280572891,-0.0039920806884765625,-0.019520200400220424,-0.011697552727293087,-0.016275191866276583
0.006803013384342194,0.034494828432798386,9.846989631652832,0.000995136797428131,0.002043001353740692,0.0005846023559570312,-0.017705317752127546,-0.037035553516056995,-0.0659611711973296
0.009260622784495354,0.03216148167848587,9.839865684509277,0.010120284743607044,0.00659550353884697,0.000408172607421875,-0.005531332649799623,-0.0194835414942845,-0.08351319655931531
-0.0019475684966892004,0.03928578644990921,9.846989631652832,-0.008637516759335995,0.006193622946739197,0.00061798095703125,0.1112434244141299,-0.05450498961798109,-0.05908263709459785
0.0074736881069839,0.0365549698472023,9.84904956817627,-0.004083737265318632,0.005436684936285019,0.005085945129394531,0.020714122803223944,0.05515943379825938,-0.018997527511102473
0.01159396767616272,0.02970387041568756,9.851780891418457,0.005010694731026888,-0.004220776259899139,0.00516510009765625,0.028350887945106443,-0.04920953861838492,0.04113013186156063
0.0020120516419410706,0.034494828432798386,9.846989631652832,-0.004490770865231752,0.0007043033838272095,0.000217437744140625,0.055503771381963225,0.011825565413377936,0.05535081583220527
0.0020120516419410706,0.03991514444351196,9.849892616271973,-0.004389303270727396,0.004904668778181076,0.004726409912109375,-0.005531332649799623,0.019843353725326654,-0.053787182759948364
0.006803013384342194,0.02994716912508011,9.84471607208252,0.000546951312571764,-0.0096213947981596,-0.004471778869628906,0.02343646011557649,-0.04920953861838492,-0.053787182759948364
0.0067021711729466915,0.03204892948269844,9.846989631652832,-0.004090555943548679,-0.0044384971261024475,0.000156402587890625,-0.005531332649799623,-0.04792490276546717,-0.022627309482554762
0.006803013384342194,0.03050529584288597,9.843801498413086,0.0003840215504169464,0.0007138773798942566,0.0046710968017578125,0.024874134894584836,-0.08982491167232194,0.0580731431393979
0.006803013384342194,0.028860824182629585,9.843884468078613,0.0002615125849843025,-0.0035988688468933105,-0.004772186279296875,-0.06656643668156248,0.0010854397890766748,0.04680278072508142
0.004499573260545731,0.02970387041568756,9.851595878601074,0.0001451154239475727,-0.00276942178606987,-0.0003643035888671875,-0.034876319944047045,-0.04920953861838492,0.00724791960428783
0.01159396767616272,0.02970387041568756,9.851780891418457,0.00456621078774333,-0.0032810792326927185,0.003954887390136719,0.02706622541176225,0.07702068153650168,0.03984548600348296
0.0020120516419410706,0.02970387041568756,9.85119342803955,-0.004712901543825865,-0.0033431649208068848,-0.0011529922485351562,-0.005531332649799623,0.004338023896604349,-0.00023961982807744136
0.006803013384342194,0.03343809023499489,9.84804630279541,0.00008840952068567276,0.0013307034969329834,-0.001407623291015625,-0.08002889961821628,0.059398206508486984,-0.07443491465701634
0.0020120516419410706,0.02970387041568756,9.85448169708252,-0.004596303682774305,-0.0031955204904079437,0.00780487060546875,0.055503771381963225,0.011825565413377936,0.00724791960428783
0.007556931581348181,0.02970387041568756,9.849761962890625,-0.004584548529237509,-0.003104567527770996,-0.001964569091796875,-0.06656643668156248,-0.004284956528404523,-0.018467282383453996
0.007177058141678572,0.02528695948421955,9.851780891418457,0.004745889455080032,-0.0030570700764656067,0.002857208251953125,-0.06180123247714143,-0.04444433441396387,0.00724791960428783
0.006803013384342194,0.02970387041568756,9.847970008850098,-0.00022875936701893806,-0.002675093710422516,0.0024194717407226562,-0.02171613289880597,-0.07787506883256151,0.03591343814577786
0.0049269539304077625,0.032618772238492966,9.849905014038086,0.00020478153601288795,0.002120833843946457,0.0026569366455078125,-0.04266612401202014,0.08609514813781897,-0.01665239139772785
0.00978914089500904,0.034494828432798386,9.8499755859375,-0.00020937016233801842,0.0018044374883174896,-0.0021543502807617188,-0.005531332649799623,-0.05715304862310974,0.00724791960428783
0.006803013384342194,0.029864225536584854,9.851780891418457,-0.00025731977075338364,0.001684974879026413,0.002422332763671875,-0.06452356978949397,0.07286066944514079,-0.055830052987070174
0.005318894516676664,0.031187988817691803,9.855087280273438,-0.00015898467972874641,-0.0030993521213531494,0.00733184814453125,0.03659663382060434,-0.04920953861838492,-0.03488005186869609
0.0005458332016132772,0.034494828432798386,9.848651885986328,-0.009256740100681782,0.0013487674295902252,-0.0022611618041992188,0.03432578268456021,0.011825565413377936,-0.03260920740275858
0.006803013384342194,0.028095189481973648,9.851780891418457,0.000053585972636938095,0.0013155974447727203,0.00238037109375,0.13680940944686942,-0.1715032486142434,-0.013246121363768279
0.008429589681327343,0.034494828432798386,9.85340690612793,0.004078013822436333,0.0011934377253055573,0.006846427917480469,0.015190687559652147,-0.06993155882783668,0.00724791960428783
0.00819835253059864,0.03279701992869377,9.842501640319824,0.004415655974298716,0.0010045282542705536,-0.011377334594726562,-0.005531332649799623,0.011825565413377936,-0.01438154693179034
0.006803013384342194,0.03260122612118721,9.855122566223145,-0.00033092452213168144,-0.0037775635719299316,0.0073337554931640625,0.055503771381963225,-0.006630085971672534,-0.053787182759948364
0.008180459961295128,0.028326423838734627,9.851780891418457,0.0045357681810855865,-0.008915478363633156,0.0025243759155273438,-0.013921846519190052,0.029373762134168743,-0.03623898937421086
0.00254610157571733,0.03875173628330231,9.85204792022705,-0.004584784619510174,0.005633614957332611,0.0023813247680664062,-0.005531332649799623,0.011825565413377936,0.01064972400187111
0.0020120516419410706,0.02873590961098671,9.849869728088379,-0.004536482971161604,-0.008160503581166267,0.0021915435791015625,-0.0298831448358636,-0.012526246772686041,-0.053787182759948364
0.010358980856835842,0.032173845916986465,9.852866172790527,0.0049551972188055515,-0.0034578852355480194,0.007122993469238281,0.010201981422898304,-0.04731143972020895,-0.053787182759948364
0.006803013384342194,0.026076670736074448,9.85540771484375,-0.00006561120972037315,-0.0037606656551361084,0.0018291473388671875,0.024120386167076905,-0.04920953861838492,0.00724791960428783
0.0063222977332770824,0.03497554361820221,9.855609893798828,0.00008280156180262566,0.0011283494532108307,0.006168365478515625,0.0493796263369741,0.04836411594561072,0.00724791960428783
0.006803013384342194,0.02970387041568756,9.851240158081055,0.00012754695490002632,-0.003661610186100006,-0.0031366348266601562,0.028429621883546707,-0.022135389119968395,-0.01982621822144212
0.0020120516419410706,0.03826449066400528,9.850759506225586,-0.004413253162056208,0.005941901355981827,0.0014848709106445312,0.055503771381963225,-0.04920953861838492,-0.04077621266970959
0.006803013384342194,0.034494828432798386,9.846989631652832,0.0008557564578950405,0.0009964331984519958,-0.0029573440551757812,0.043400249285877504,-0.025002494426213474,0.00724791960428783
0.0074974182061851025,0.02970387041568756,9.846989631652832,0.0008423351682722569,-0.003816477954387665,-0.0028934478759765625,-0.04887348530709235,0.0029790830560362646,0.00724791960428783
0.004350968636572361,0.034494828432798386,9.849441528320312,-0.004116741940379143,0.0009244009852409363,0.00186920166015625,-0.036769482963330616,0.011825565413377936,0.00724791960428783
0.006803013384342194,0.03051135689020157,9.8438138961792,0.0005075470544397831,-0.003997296094894409,-0.007397651672363281,0.055503771381963225,-0.04920953861838492,-0.003039173004293674
0.006803013384342194,0.03044000081717968,9.851780891418457,0.0003423974849283695,0.0009601637721061707,0.0022153854370117188,-0.057188386847936624,0.011825565413377936,-0.0021301264774030485
0.0043213851749897,0.03201320394873619,9.851608276367188,-0.003983577713370323,-0.003625575453042984,-0.0027523040771484375,0.023888720024251825,0.1044757208028522,0.00724791960428783
0.005473462399095297,0.03036864660680294,9.842863082885742,0.0015109819360077381,-0.0035545676946640015,-0.007313728332519531,-0.05809742899756979,0.10848875042492558,-0.00122108349400656
0.006803013384342194,0.03830600529909134,9.846989631652832,0.0015021204017102718,0.005775909870862961,-0.0023193359375,0.030539643408978186,-0.0006564985731145849,0.05580096131708481
0.01159396767616272,0.03187049180269241,9.839574813842773,0.005594566930085421,-0.0034543797373771667,-0.011258125305175781,-0.03313330102458475,-0.027438737525792397,-0.11482228345665792
0.00620258180424571,0.03509525582194328,9.851780891418457,0.0052749295718967915,-0.003079567104578018,0.0029048919677734375,-0.06656643668156248,-0.04156031371735243,-0.00040131696943122283
0.010692550800740719,0.03359341248869896,9.851780891418457,0.005645182449370623,0.0016981437802314758,0.002719879150390625,-0.005531332649799623,0.06711880155026081,0.00724791960428783
0.006423660088330507,0.02529226802289486,9.847369194030762,-0.003776244353502989,-0.0029694996774196625,0.00255584716796875,-0.06656643668156248,0.06802785704010719,-0.04895435701470155
0.008755565620958805,0.031656425446271896,9.846989631652832,0.0007563619874417782,-0.002708353102207184,-0.0020542144775390625,0.019343522616299236,-0.04920953861838492,-0.0040374955731237875
0.013475204817950726,0.032613590359687805,9.848871231079102,0.010179134085774422,-0.00264165922999382,0.0025682449340820312,0.09257256870937114,0.035791872117732874,-0.02982086938548682
0.007039779331535101,0.03473159298300743,9.846989631652832,0.000264681875705719,0.0017650239169597626,-0.0019855499267578125,-0.005531332649799623,0.06682803826285925,0.004231605263792052
0.006637477315962315,0.03432929143309593,9.846989631652832,0.000670257955789566,0.0013698302209377289,-0.0018463134765625,-0.007640206916893951,0.07496954371223512,-0.051678315162960654
0.00670870766043663,0.02970387041568756,9.846895217895508,0.0007645497098565102,-0.003155570477247238,-0.0012264251708984375,0.05430235177912856,0.010624145810543271,0.006046497083281523
0.006803013384342194,0.029726946726441383,9.851758003234863,0.0007896553725004196,0.0020355693995952606,-0.0012159347534179688,-0.005531332649799623,0.011825565413377936,-0.05349320448116014
0.0004638907848857343,0.03611622378230095,9.846989631652832,0.00098745571449399,0.006856996566057205,-0.0012969970703125,0.015124680184626321,-0.06986557813323731,-0.034064117737250627
0.005110385362058878,0.02970387041568756,9.853185653686523,-0.003721867688000202,-0.002674579620361328,-0.00113677978515625,0.05184847291766925,0.05129720194645518,-0.014315544559344471
0.0098301125690341,0.02970387041568756,9.851780891418457,0.005613271612673998,-0.0030536986887454987,0.003520965576171875,0.055503771381963225,-0.04920953861838492,0.00724791960428783
0.0102113401517272,0.031086498871445656,9.853806495666504,0.0049790283665061,-0.002819627523422241,0.008058547973632812,-0.005531332649799623,-0.06682374271420155,-0.03617298866929165
0.0046348487958312035,0.034494828432798386,9.846989631652832,-0.004100926220417023,0.0019428133964538574,-0.0016870498657226562,-0.005531332649799623,-0.004881184018179034,-0.03708042999333809
0.005562862381339073,0.02970387041568756,9.850541114807129,-0.004013904370367527,-0.0025149360299110413,-0.0015115737915039062,0.010267748674086122,-0.09444558800668847,-0.008551150046911345
0.004349640104919672,0.034494828432798386,9.852949142456055,0.005358673632144928,0.0020188987255096436,0.0075054168701171875,0.025723719713884506,0.05797064361110143,0.00724791960428783
0.007278774864971638,0.034494828432798386,9.851780891418457,0.000952522736042738,0.0016707852482795715,0.0024251937866210938,0.04944272554551738,-0.043148492781939066,0.00724791960428783
0.01159396767616272,0.02970387041568756,9.860268592834473,0.005439499393105507,-0.0033051855862140656,0.010915756225585938,0.04853369673609744,0.051950418827116984,0.00724791960428783
0.008994685485959053,0.03928578644990921,9.853972434997559,0.005006363149732351,0.006265200674533844,0.005597114562988281,-0.005531332649799623,0.0066327540143170695,-0.025866036443597376
0.013856994919478893,0.03170200064778328,9.86109733581543,0.00946797989308834,0.006390821188688278,0.014056205749511719,-0.005531332649799623,0.01520029251317248,-0.050412462330260435
0.006041828542947769,0.026435282081365585,9.86136245727539,0.00033855950459837914,-0.007504170760512352,0.0080718994140625,-0.015228547084778117,0.002128350978399442,-0.053787182759948364
0.006062351632863283,0.02970387041568756,9.857312202453613,-0.0043629747815430164,-0.0025796517729759216,0.0069484710693359375,-0.014967078905613567,-0.03977379236257097,-0.044351423163921204
0.010924662463366985,0.035164132714271545,9.856571197509766,0.00044690538197755814,0.006635777652263641,0.0018739700317382812,0.055503771381963225,-0.04068282117199091,-0.045260468648607666
0.009422818198800087,0.034943483769893646,9.86136245727539,0.004701690282672644,0.006628580391407013,0.005539894104003906,0.02212834548738682,0.017541286490341458,0.034907609414160844
0.006803013384342194,0.034494828432798386,9.864053726196289,0.000319033395498991,0.0012794584035873413,0.005077362060546875,0.04796996600573338,0.046110020117374285,0.041532379310864134
0.006803013384342194,0.030159108340740204,9.85611629486084,0.0005485778674483299,0.0014310330152511597,-0.004775047302246094,-0.005531332649799623,0.01762514307065923,-0.053787182759948364
0.006803013384342194,0.034494828432798386,9.861746788024902,0.0006303749978542328,0.001566920429468155,0.008948326110839844,-0.005531332649799623,-0.04431898977052356,-0.053787182759948364
0.0026371069252490997,0.034494828432798386,9.866153717041016,0.005558084696531296,0.0011419467628002167,0.007640838623046875,-0.0015498392917846512,0.011825565413377936,-0.04582419937897173
0.01159396767616272,0.034494828432798386,9.861845016479492,0.004855714738368988,0.0010793842375278473,0.011281013488769531,-0.008605051178437588,0.005678155036528452,-0.053787182759948364
0.006803013384342194,0.03004395216703415,9.870774269104004,-0.0004222569987177849,0.0057573579251766205,0.005881309509277344,0.11653887541372608,-0.04704327475400661,0.00724791960428783
0.006803013384342194,0.03304797783493996,9.86303424835205,-0.0006568292155861855,-0.003950633108615875,0.0000476837158203125,0.03420241239267686,-0.04920953861838492,-0.014053449390158455
0.008403835818171501,0.03130469471216202,9.870932579040527,-0.0008130334317684174,-0.00392879918217659,0.013403892517089844,0.014862598355653527,-0.028815607612931764,-0.053787182759948364
0.0020120516419410706,0.037756193429231644,9.87573528289795,-0.00519956462085247,0.00557423010468483,0.012607574462890625,-0.005531332649799623,0.03388771676275381,0.00724791960428783
0.008562363684177399,0.03625417873263359,9.869184494018555,0.004888154100626707,0.005207333713769913,0.0022258758544921875,0.033090265496728374,0.07286066944514079,-0.053787182759948364
0.0056732152588665485,0.027873288840055466,9.86911392211914,0.0007362775504589081,-0.004093598574399948,0.0015125274658203125,0.03218281083246871,0.035146525962872446,-0.053787182759948364
0.008047492243349552,0.034494828432798386,9.874490737915039,0.005575650837272406,0.00038289278745651245,0.005565643310546875,-0.03485797715086585,0.05700643967979248,0.02310214936963614
0.006803013384342194,0.034494828432798386,9.86488151550293,0.0003175814636051655,0.00018091872334480286,0.009870529174804688,-0.005531332649799623,0.04297029421371049,0.00724791960428783
0.009390430524945259,0.034494828432798386,9.870944023132324,0.004716275259852409,0.000676322728395462,0.004756927490234375,-0.08549310431507937,-0.05410008746624627,0.02128406340284316
0.003042465541511774,0.03928578644990921,9.869914054870605,-0.00014569610357284546,0.004901029169559479,-0.00028705596923828125,0.06863086135819883,-0.022955331985487267,-0.005879177042054381
