Accelerometer_Gx,Accelerometer_Gy,Accelerometer_Gz,Accelerometer_X,Accelerometer_Y,Accelerometer_Z,Gyroscope_Z,Gyroscope_X,Gyroscope_Y
-0.17400100827217102,-0.09433154761791229,9.892372131347656,-0.01979999989271164,-0.010699999518692493,0.06989999860525131,0.24399999704266945,0.24399999704266945,0.12199999852133472
-0.171329066157341,-0.09469546377658844,9.921399116516113,-0.008499999530613422,-0.010799999348819256,0.09939999878406525,0,-0.12199999852133472,0
-0.156657412648201,-0.09606494754552841,9.895868301391602,0.0004999999655410647,-0.01769999973475933,0.07979999482631683,0.1830000044521087,0.1830000044521087,0
-0.13630668818950653,-0.10373596847057343,9.894182205200195,0.02070000022649765,-0.01679999940097332,0.07979999482631683,0,-0.06099999926066736,0.06099999926066736
-0.14769351482391357,-0.1013130396604538,9.937929153442383,0.008999999612569809,-0.014599999412894249,0.11899999529123306,0.1830000044521087,0.1830000044521087,0.06099999926066736
-0.14305832982063293,-0.08580818772315979,9.894852638244629,0.018699999898672104,0.005399999674409628,0.07979999482631683,0,0.1830000044521087,0.06099999926066736
-0.15206053853034973,-0.10329543799161911,9.919943809509277,0.007400000002235174,-0.011699999682605267,0.09939999878406525,0.12199999852133472,0,0.06099999926066736
-0.16686628758907318,-0.10120769590139389,9.875594139099121,-0.009099999442696571,-0.008899999782443047,0.06019999831914902,0.06099999926066736,0.1830000044521087,-0.06099999926066736
-0.13839444518089294,-0.10455957800149918,9.921197891235352,0.016699999570846558,-0.007599999662488699,0.09939999878406525,-0.06099999926066736,-0.06099999926066736,0
-0.15000152587890625,-0.08380663394927979,9.907092094421387,0.0050999997183680534,0.009499999694526196,0.08959999680519104,0.12199999852133472,0.06099999926066736,-0.12199999852133472
-0.14791378378868103,-0.10907024890184402,9.882373809814453,0.003599999938160181,-0.01489999983459711,0.06019999831914902,-0.06099999926066736,0.06099999926066736,0
-0.16975848376750946,-0.09113289415836334,9.891951560974121,-0.012299999594688416,0.003499999875202775,0.07000000029802322,-0.06099999926066736,-0.06099999926066736,-0.12199999852133472
-0.1526159942150116,-0.10537360608577728,9.878677368164062,0.004999999888241291,-0.011899999342858791,0.06019999831914902,0.06099999926066736,0.06099999926066736,0.06099999926066736
-0.1541386991739273,-0.11427046358585358,9.902188301086426,-0.0037999998312443495,-0.00969999935477972,0.07979999482631683,-0.12199999852133472,0.12199999852133472,0.06099999926066736
-0.16791972517967224,-0.11799583584070206,9.893118858337402,-0.010799999348819256,-0.01529999915510416,0.07989999651908875,0,0.12199999852133472,0.06099999926066736
-0.1462378352880478,-0.0914585068821907,9.893473625183105,0.006199999712407589,0.009800000116229057,0.05040000006556511,0,0.06099999926066736,-0.06099999926066736
-0.15795984864234924,-0.1047511175274849,9.883398056030273,-0.003700000001117587,-0.0017999999690800905,0.07000000029802322,0.06099999926066736,0.06099999926066736,-0.06099999926066736
-0.14322113990783691,-0.13320380449295044,9.885209083557129,0.01599999889731407,-0.03139999881386757,0.07000000029802322,0,0.12199999852133472,0.06099999926066736
-0.16019125282764435,-0.11895351111888885,9.900837898254395,-0.0031999999191612005,-0.02159999869763851,0.07979999482631683,0,0.06099999926066736,0.06099999926066736
-0.12657664716243744,-0.09664913266897202,9.882497787475586,0.02630000002682209,-0.001999999862164259,0.06019999831914902,0.06099999926066736,0,-0.06099999926066736
-0.14009910821914673,-0.10435846447944641,9.890188217163086,0.01640000008046627,-0.002099999925121665,0.07000000029802322,0,0,0.12199999852133472
-0.14487792551517487,-0.11708603799343109,9.89118480682373,0.006599999964237213,-0.021699998527765274,0.07000000029802322,0.06099999926066736,0.06099999926066736,-0.12199999852133472
-0.16024869680404663,-0.09296206384897232,9.906909942626953,-0.002899999963119626,0.007400000002235174,0.08959999680519104,-0.06099999926066736,0.1830000044521087,0.06099999926066736
-0.1481340527534485,-0.10543106496334076,9.891156196594238,0.0072999997064471245,-0.011899999342858791,0.07000000029802322,0,0.1830000044521087,0.06099999926066736
-0.1530756801366806,-0.09052955359220505,9.873697280883789,0.007799999788403511,0.007599999662488699,0.06019999831914902,0,0.12199999852133472,0
-0.15859192609786987,-0.09086474776268005,9.91028118133545,-0.0015999999595806003,0.007599999662488699,0.08969999849796295,0.06099999926066736,0,-0.06099999926066736
-0.11630074679851532,-0.11068873852491379,9.89172077178955,0.03749999776482582,-0.01209999993443489,0.07009999454021454,0,0.24399999704266945,0.06099999926066736
-0.15666697919368744,-0.10076715797185898,9.894832611083984,-0.003999999724328518,-0.00029999998514540493,0.07979999482631683,-0.12199999852133472,0.06099999926066736,0.06099999926066736
-0.14085566997528076,-0.09070193767547607,9.902045249938965,0.009999999776482582,0.006199999712407589,0.07970000058412552,0,0,0.06099999926066736
-0.15194562077522278,-0.07424898445606232,9.915288925170898,-0.00009999999747378752,0.019199999049305916,0.09929999709129333,-0.12199999852133472,0.1830000044521087,0.06099999926066736
-0.14224430918693542,-0.09495404362678528,9.93860912322998,0.007699999958276749,-0.00009999999747378752,0.11889999359846115,0,0.06099999926066736,0.06099999926066736
-0.17355088889598846,-0.08876742422580719,9.916199684143066,-0.02459999918937683,-0.00029999998514540493,0.09939999878406525,0,0.06099999926066736,0
-0.15612110495567322,-0.09127654135227203,9.897601127624512,-0.0038999998942017555,-0.00029999998514540493,0.07979999482631683,0.06099999926066736,0,0
-0.13157574832439423,-0.1045021116733551,9.86148738861084,0.016099998727440834,-0.0066999997943639755,0.04039999842643738,0,0.12199999852133472,0.12199999852133472
-0.12965081632137299,-0.11493125557899475,9.912713050842285,0.013299999758601189,-0.021900000050663948,0.09929999709129333,0.12199999852133472,0.06099999926066736,-0.06099999926066736
-0.13483186066150665,-0.09050082415342331,9.877432823181152,0.0024999999441206455,0.0050999997183680534,0.05999999865889549,0.06099999926066736,0.06099999926066736,-0.06099999926066736
-0.1312980204820633,-0.09965624660253525,9.920528411865234,0.009999999776482582,-0.003999999724328518,0.09919999539852142,0,0.12199999852133472,0
-0.15038460493087769,-0.095854252576828,9.89407730102539,-0.007400000002235174,-0.0032999999821186066,0.07959999889135361,0,0.1830000044521087,0
-0.14910130202770233,-0.10830410569906235,9.89597225189209,-0.006899999920278788,-0.013100000098347664,0.07959999889135361,0,0,0
-0.14220601320266724,-0.08738835901021957,9.907341003417969,-0.016699999570846558,-0.0032999999821186066,0.10909999907016754,-0.06099999926066736,0.12199999852133472,-0.1830000044521087
-0.14721468091011047,-0.11810117959976196,9.937880516052246,-0.006399999838322401,-0.02290000021457672,0.11889999359846115,0,0.06099999926066736,-0.06099999926066736
-0.1380688101053238,-0.12418245524168015,9.888503074645996,0.003499999875202775,-0.02290000021457672,0.0697999969124794,0.12199999852133472,0.06099999926066736,0.06099999926066736
-0.15056656301021576,-0.08069417625665665,9.871254920959473,-0.006099999882280827,0.01589999906718731,0.050200000405311584,0.12199999852133472,0.06099999926066736,-0.12199999852133472
-0.16021040081977844,-0.13155660033226013,9.919321060180664,-0.015699999406933784,-0.033299997448921204,0.09929999709129333,0.12199999852133472,0.12199999852133472,-0.12199999852133472
-0.16476896405220032,-0.09680236130952835,9.926063537597656,-0.025100000202655792,-0.00419999985024333,0.10909999907016754,0.12199999852133472,0.1830000044521087,-0.06099999926066736
-0.14174632728099823,-0.11665508151054382,9.916611671447754,0.004699999932199717,-0.02419999986886978,0.09929999709129333,0.06099999926066736,0.12199999852133472,-0.12199999852133472
-0.1427614539861679,-0.08679459989070892,9.898176193237305,0.004999999888241291,0.004999999888241291,0.07970000058412552,-0.06099999926066736,0.12199999852133472,-0.06099999926066736
-0.14050132036209106,-0.08709148317575455,9.917109489440918,0.0052999998442828655,0.0050999997183680534,0.09929999709129333,-0.12199999852133472,0.12199999852133472,-0.06099999926066736
-0.14030979573726654,-0.10367850959300995,9.889776229858398,0.00559999980032444,-0.00419999985024333,0.06989999860525131,-0.06099999926066736,0.12199999852133472,0
-0.13704410195350647,-0.102021723985672,9.885601997375488,0.006000000052154064,-0.003999999724328518,0.06989999860525131,0,0.06099999926066736,0
-0.13210247457027435,-0.10204087942838669,9.892841339111328,0.01589999906718731,-0.003999999724328518,0.07970000058412552,0.06099999926066736,0.12199999852133472,-0.12199999852133472
-0.1470135599374771,-0.09880391508340836,9.891194343566895,-0.0032999999821186066,-0.00419999985024333,0.06989999860525131,0,0.06099999926066736,-0.12199999852133472
-0.14170800149440765,-0.08535807579755783,9.900397300720215,0.006599999964237213,0.01529999915510416,0.07970000058412552,0.06099999926066736,0.12199999852133472,-0.06099999926066736
-0.15240530669689178,-0.08753201365470886,9.88769817352295,-0.00279999990016222,0.0052999998442828655,0.06989999860525131,-0.06099999926066736,0.12199999852133472,0
-0.16240349411964417,-0.10080546885728836,9.874932289123535,-0.012199999764561653,-0.00419999985024333,0.060099996626377106,-0.06099999926066736,0.12199999852133472,0
-0.1435084491968155,-0.11115799844264984,9.934491157531738,0.007599999662488699,-0.013799999840557575,0.11889999359846115,0.1830000044521087,0,0.06099999926066736
-0.1723059117794037,-0.08315540850162506,9.932968139648438,-0.002099999925121665,0.01489999983459711,0.07970000058412552,0,0.12199999852133472,0
-0.1723059117794037,-0.08315540850162506,9.932968139648438,-0.021299999207258224,0.01489999983459711,0.11889999359846115,0,0.06099999926066736,0.06099999926066736
-0.1516583114862442,-0.09768342226743698,9.902216911315918,0.008100000210106373,-0.02410000003874302,0.060099996626377106,0.06099999926066736,-0.06099999926066736,-0.06099999926066736
-0.12433568388223648,-0.07925765216350555,9.891424179077148,0.02759999968111515,0.014599999412894249,0.06989999860525131,0,0.12199999852133472,-0.06099999926066736
-0.1220276728272438,-0.08385452628135681,9.926542282104492,0.027899999171495438,0.014599999412894249,0.10909999907016754,-0.06099999926066736,0.06099999926066736,-0.06099999926066736
-0.13336661458015442,-0.100479856133461,9.899775505065918,0.018199998885393143,-0.004699999932199717,0.07970000058412552,0,0.06099999926066736,0
-0.16903063654899597,-0.10022128373384476,9.880899429321289,-0.02070000022649765,-0.004699999932199717,0.060099996626377106,0.06099999926066736,0.06099999926066736,0
-0.15244360268115997,-0.13040737807750702,9.879176139831543,-0.0008999999845400453,-0.034199997782707214,0.060099996626377106,0.06099999926066736,0.06099999926066736,-0.12199999852133472
-0.16180016100406647,-0.11059296131134033,9.896356582641602,-0.010499999858438969,-0.014699999243021011,0.07970000058412552,0,0.12199999852133472,0
-0.15245318412780762,-0.08239884674549103,9.901622772216797,-0.00039999998989515007,0.014599999412894249,0.07970000058412552,0,0,-0.12199999852133472
-0.14600799977779388,-0.09446562081575394,9.888819694519043,-0.00039999998989515007,0.004799999762326479,0.06989999860525131,0,0.1830000044521087,-0.12199999852133472
-0.12424948811531067,-0.1262797713279724,9.857531547546387,0.02929999865591526,-0.034199997782707214,0.04050000011920929,0.06099999926066736,0.1830000044521087,0.12199999852133472
-0.14656344056129456,-0.09776962548494339,9.912473678588867,0.00039999998989515007,-0.004900000058114529,0.09929999709129333,0.12199999852133472,0.1830000044521087,0
-0.13310803472995758,-0.10704954713582993,9.899200439453125,0.020399998873472214,-0.014999999664723873,0.07970000058412552,0.06099999926066736,0.12199999852133472,-0.12199999852133472
-0.16465403139591217,-0.11877156049013138,9.925479888916016,-0.018299998715519905,-0.024899998679757118,0.10920000076293945,-0.12199999852133472,0.06099999926066736,-0.06099999926066736
-0.18604862689971924,-0.10038408637046814,9.931474685668945,-0.037699997425079346,-0.004900000058114529,0.11899999529123306,0,0.06099999926066736,-0.06099999926066736
-0.15063358843326569,-0.10711658746004105,9.901039123535156,0.0015999999595806003,-0.014699999243021011,0.07970000058412552,0.12199999852133472,0.06099999926066736,-0.12199999852133472
-0.12181698530912399,-0.08482177555561066,9.912023544311523,0.031099999323487282,0.0142000000923872,0.09939999878406525,-0.1830000044521087,0.06099999926066736,-0.06099999926066736
-0.16120639443397522,-0.08667010813951492,9.8958101272583,-0.007899999618530273,0.004900000058114529,0.07970000058412552,0,0.06099999926066736,0
-0.14574941992759705,-0.11783303320407867,9.918785095214844,0.001999999862164259,-0.024299999698996544,0.09939999878406525,0.12199999852133472,0.06099999926066736,0.12199999852133472
-0.13991715013980865,-0.10857225954532623,9.885591506958008,0.011899999342858791,-0.014800000004470348,0.06989999860525131,0.06099999926066736,0.12199999852133472,-0.06099999926066736
-0.13761872053146362,-0.11461522430181503,9.898913383483887,0.012199999764561653,-0.01489999983459711,0.07979999482631683,-0.06099999926066736,0.06099999926066736,0
-0.13687172532081604,-0.1019163727760315,9.890284538269043,0.012299999594688416,-0.004900000058114529,0.06989999860525131,-0.12199999852133472,0.12199999852133472,0
-0.13368265330791473,-0.09342174977064133,9.917693138122559,0.022299999371170998,0.0050999997183680534,0.09939999878406525,-0.1830000044521087,-0.06099999926066736,0
-0.14163139462471008,-0.11381077766418457,9.918373107910156,0.012199999764561653,-0.013799999840557575,0.09939999878406525,0.06099999926066736,0.06099999926066736,0.06099999926066736
-0.14714764058589935,-0.10507672280073166,9.905109405517578,0.0024999999441206455,-0.00419999985024333,0.08959999680519104,0,0,-0.06099999926066736
-0.14624741673469543,-0.09051039814949036,9.886683464050293,0.0024999999441206455,0.005499999970197678,0.07000000029802322,0,0.12199999852133472,-0.06099999926066736
-0.17135781049728394,-0.06798575073480606,9.900742530822754,-0.016599999740719795,0.02499999850988388,0.07979999482631683,0,0.06099999926066736,-0.12199999852133472
-0.15137100219726562,-0.08297345787286758,9.913595199584961,0.0030999998562037945,0.015099999494850636,0.09939999878406525,0,0.12199999852133472,-0.06099999926066736
-0.14808616042137146,-0.1014375388622284,9.920969009399414,0.003399999812245369,-0.004399999976158142,0.09939999878406525,0.06099999926066736,0.06099999926066736,0.06099999926066736
-0.13233232498168945,-0.10300813615322113,9.899353981018066,0.023099999874830246,-0.0044999998062849045,0.07979999482631683,0,0,-0.06099999926066736
-0.15235742926597595,-0.08938033878803253,9.912627220153809,0.003399999812245369,0.005200000014156103,0.09939999878406525,-0.06099999926066736,0,0
-0.12826217710971832,-0.0878097414970398,9.903759002685547,0.02290000021457672,0.0052999998442828655,0.08959999680519104,-0.12199999852133472,0,-0.06099999926066736
-0.154493048787117,-0.09494446218013763,9.886807441711426,-0.006399999838322401,0.00559999980032444,0.07000000029802322,0.06099999926066736,-0.06099999926066736,-0.12199999852133472
-0.14225389063358307,-0.095729760825634,9.925354957580566,0.012899999506771564,0.005399999674409628,0.10920000076293945,0,0.06099999926066736,-0.12199999852133472
-0.15652333199977875,-0.08177635073661804,9.888915061950684,-0.006399999838322401,0.015099999494850636,0.07000000029802322,0,-0.06099999926066736,0
-0.12893255054950714,-0.10203130543231964,9.89353084564209,0.022599998861551285,-0.004399999976158142,0.07979999482631683,-0.06099999926066736,0.1830000044521087,-0.12199999852133472
-0.1720186024904251,-0.1129009798169136,9.916840553283691,-0.01599999889731407,-0.013899999670684338,0.09939999878406525,0,0,-0.1830000044521087
-0.13687172532081604,-0.09078813344240189,9.911917686462402,0.013299999758601189,0.00559999980032444,0.08959999680519104,-0.06099999926066736,0,-0.12199999852133472
-0.13617262244224548,-0.09115204960107803,9.927940368652344,0.013199999928474426,0.005699999630451202,0.10920000076293945,-0.06099999926066736,0.3049999896332302,-0.06099999926066736
-0.16485515236854553,-0.0818721204996109,9.907398223876953,-0.0142000000923872,0.01730000041425228,0.08959999680519104,-0.06099999926066736,0,-0.06099999926066736
-0.1656596064567566,-0.10209833830595016,9.893242835998535,-0.008299999870359898,-0.00139999995008111,0.07989999651908875,0.06099999926066736,0,0
-0.1380496621131897,-0.09465716034173965,9.873993873596191,0.01249999925494194,0.004699999932199717,0.060099996626377106,0.06099999926066736,0.1830000044521087,-0.1830000044521087
-0.15361198782920837,-0.09375693649053574,9.894067764282227,-0.005799999926239252,0.005399999674409628,0.07979999482631683,0,0.12199999852133472,-0.12199999852133472
-0.14114297926425934,-0.12134771794080734,9.894009590148926,0.010300000198185444,-0.018199998885393143,0.07979999482631683,0.06099999926066736,0,-0.06099999926066736
-0.17263151705265045,-0.0914776623249054,9.912014961242676,-0.02329999953508377,0.008599999360740185,0.09950000047683716,0.06099999926066736,0,0
-0.15685851871967316,-0.09923487156629562,9.92273998260498,-0.0032999999821186066,-0.0011999999405816197,0.10929999500513077,-0.06099999926066736,0.06099999926066736,0
-0.14485877752304077,-0.12365572899580002,9.887104034423828,0.004699999932199717,-0.015699999406933784,0.07009999454021454,0.06099999926066736,-0.06099999926066736,0.06099999926066736
-0.16765157878398895,-0.09316317737102509,9.88856029510498,-0.011699999682605267,0.010099999606609344,0.07009999454021454,0,0.06099999926066736,0
-0.12068691849708557,-0.06669288873672485,9.910165786743164,0.02969999983906746,0.03150000050663948,0.08949999511241913,0.12199999852133472,0.12199999852133472,-0.12199999852133472
-0.1335677206516266,-0.11703815311193466,9.887420654296875,0.015199999324977398,-0.021199999377131462,0.06989999860525131,-0.12199999852133472,-0.06099999926066736,-0.06099999926066736
-0.11899182200431824,-0.09096051007509232,9.887287139892578,0.023499999195337296,0.006599999964237213,0.0697999969124794,0,0.1830000044521087,0
-0.15950173139572144,-0.09339302033185959,9.89340591430664,-0.012199999764561653,0.0050999997183680534,0.07970000058412552,0.12199999852133472,0.12199999852133472,0
-0.11995908617973328,-0.09940725564956665,9.886673927307129,0.02719999849796295,-0.004999999888241291,0.06989999860525131,0.06099999926066736,0.1830000044521087,-0.06099999926066736
-0.13820289075374603,-0.07670064270496368,9.915529251098633,0.008100000210106373,0.014399999752640724,0.09929999709129333,0.06099999926066736,0,-0.12199999852133472
-0.15395674109458923,-0.08955271542072296,9.907302856445312,-0.011399999260902405,0.004399999976158142,0.08949999511241913,-0.06099999926066736,0,0.06099999926066736
-0.15037500858306885,-0.0988134890794754,9.910951614379883,-0.0015999999595806003,-0.0050999997183680534,0.08949999511241913,0.06099999926066736,-0.06099999926066736,-0.06099999926066736
-0.1471380591392517,-0.11530475318431854,9.916735649108887,-0.0017999999690800905,-0.024899998679757118,0.09929999709129333,-0.12199999852133472,0.06099999926066736,0
-0.15327680110931396,-0.08937075734138489,9.92197322845459,-0.011399999260902405,0.004799999762326479,0.10909999907016754,0.06099999926066736,0.12199999852133472,0
-0.170160710811615,-0.10393708199262619,9.908585548400879,-0.020899999886751175,-0.0050999997183680534,0.08949999511241913,0.12199999852133472,0,-0.12199999852133472
-0.12586797773838043,-0.10796891897916794,9.89490032196045,0.018199998885393143,-0.015199999324977398,0.07970000058412552,0,0,0
-0.15184985101222992,-0.09065405279397964,9.913919448852539,-0.0013000000035390258,0.004299999680370092,0.09929999709129333,0.1830000044521087,-0.06099999926066736,-0.12199999852133472
-0.15540285408496857,-0.09701305627822876,9.891692161560059,-0.01119999960064888,-0.0058999997563660145,0.06989999860525131,0.06099999926066736,0.1830000044521087,-0.06099999926066736
-0.14201445877552032,-0.10145668685436249,9.88251781463623,0.008700000122189522,-0.006099999882280827,0.060099996626377106,0.06099999926066736,0.06099999926066736,0
-0.15174449980258942,-0.12223836779594421,9.915739059448242,-0.0007999999797903001,-0.02579999901354313,0.09929999709129333,-0.06099999926066736,0.06099999926066736,0
-0.15223293006420135,-0.09910079836845398,9.898970603942871,-0.0005999999702908099,-0.006000000052154064,0.07970000058412552,-0.06099999926066736,0.06099999926066736,0
-0.1627865582704544,-0.10530656576156616,9.904294967651367,-0.010300000198185444,-0.0058999997563660145,0.08949999511241913,0,0.12199999852133472,-0.06099999926066736
-0.15035586059093475,-0.08221688866615295,9.898961067199707,-0.00009999999747378752,0.013599999248981476,0.07970000058412552,0,0.12199999852133472,0
-0.12661495804786682,-0.08832688629627228,9.914093017578125,0.019700000062584877,0.0037999998312443495,0.09929999709129333,0,0.06099999926066736,-0.06099999926066736
-0.15014517307281494,-0.08921752870082855,9.906171798706055,0.00019999999494757503,0.0037999998312443495,0.08949999511241913,0,0,-0.06099999926066736
-0.15069106221199036,-0.09293333441019058,9.895819664001465,0.00019999999494757503,0.0037999998312443495,0.07970000058412552,0.06099999926066736,0.12199999852133472,-0.06099999926066736
-0.13889242708683014,-0.08809704333543777,9.924616813659668,0.010400000028312206,0.003599999938160181,0.10909999907016754,0.06099999926066736,-0.06099999926066736,0
-0.14181335270404816,-0.10842860490083694,9.909390449523926,0.010199999436736107,-0.01599999889731407,0.08949999511241913,0.06099999926066736,0.06099999926066736,0.06099999926066736
-0.14603672921657562,-0.09703220427036285,9.927289009094238,0.0004999999655410647,-0.006399999838322401,0.10909999907016754,0.06099999926066736,0.06099999926066736,-0.12199999852133472
-0.12658622860908508,-0.12216175347566605,9.911018371582031,0.02029999904334545,-0.026099998503923416,0.08949999511241913,-0.12199999852133472,0,-0.06099999926066736
-0.13680468499660492,-0.11424172669649124,9.918153762817383,0.010400000028312206,-0.01589999906718731,0.09929999709129333,-0.06099999926066736,-0.12199999852133472,-0.06099999926066736
-0.1748725026845932,-0.08929414302110672,9.904678344726562,-0.028999999165534973,0.0037999998312443495,0.08949999511241913,0.12199999852133472,0,-0.12199999852133472
-0.14757859706878662,-0.11308293044567108,9.911956787109375,0.00029999998514540493,-0.01599999889731407,0.08949999511241913,0.06099999926066736,0.06099999926066736,-0.06099999926066736
-0.13645991683006287,-0.09488700330257416,9.8881196975708,0.010300000198185444,0.0032999999821186066,0.06989999860525131,-0.06099999926066736,0,-0.12199999852133472
-0.14346057176589966,-0.11474929749965668,9.89500617980957,0.010199999436736107,-0.01599999889731407,0.07970000058412552,0.06099999926066736,0.06099999926066736,-0.06099999926066736
-0.15337255597114563,-0.0932493656873703,9.90469741821289,0.020099999383091927,-0.016099998727440834,0.07970000058412552,0.12199999852133472,-0.12199999852133472,0
-0.1869584172964096,-0.10325713455677032,9.926025390625,-0.03879999741911888,-0.0071000000461936,0.10909999907016754,-0.06099999926066736,0,-0.12199999852133472
-0.17144399881362915,-0.12037088721990585,9.91174602508545,-0.019199999049305916,-0.026499999687075615,0.08949999511241913,-0.06099999926066736,0.1830000044521087,-0.06099999926066736
-0.1317194104194641,-0.08656475692987442,9.907666206359863,0.020399998873472214,0.003000000026077032,0.08949999511241913,-0.06099999926066736,0.1830000044521087,-0.1830000044521087
-0.14975252747535706,-0.10843818634748459,9.900522232055664,0.005499999970197678,-0.014599999412894249,0.07979999482631683,0.12199999852133472,0.06099999926066736,-0.06099999926066736
-0.14966633915901184,-0.09329725056886673,9.91348934173584,0.003000000026077032,0.0024999999441206455,0.09939999878406525,-0.12199999852133472,0,-0.06099999926066736
-0.12421118468046188,-0.10501926392316818,9.890859603881836,0.020099999383091927,-0.0044999998062849045,0.0697999969124794,0,-0.06099999926066736,-0.12199999852133472
-0.13187263906002045,-0.07885543256998062,9.921792030334473,0.007499999832361937,0.011299999430775642,0.10889999568462372,0,0.1830000044521087,0
-0.1349467784166336,-0.07725610584020615,9.913603782653809,-0.0015999999595806003,0.008599999360740185,0.09910000115633011,-0.06099999926066736,0,-0.12199999852133472
-0.16927963495254517,-0.09319190680980682,9.897438049316406,-0.023499999195337296,-0.0008999999845400453,0.07959999889135361,-0.06099999926066736,0.06099999926066736,-0.06099999926066736
-0.15897499024868011,-0.1164827048778534,9.937785148620605,-0.011399999260902405,-0.024899998679757118,0.11889999359846115,0.06099999926066736,-0.06099999926066736,0.06099999926066736
-0.13039779663085938,-0.090519979596138,9.893808364868164,0.013199999928474426,0.003000000026077032,0.07959999889135361,-0.06099999926066736,0,-0.06099999926066736
-0.1429721564054489,-0.10413819551467896,9.893521308898926,0.0023999998811632395,-0.005200000014156103,0.07959999889135361,0.12199999852133472,0.12199999852133472,-0.06099999926066736
-0.15775874257087708,-0.11735418438911438,9.895235061645508,-0.013299999758601189,-0.019700000062584877,0.07970000058412552,0.12199999852133472,0.06099999926066736,-0.06099999926066736
-0.13617262244224548,-0.1130254715681076,9.907569885253906,0.004799999762326479,-0.008299999870359898,0.08949999511241913,0.12199999852133472,0.12199999852133472,-0.06099999926066736
-0.1787702441215515,-0.0907689779996872,9.8980131149292,-0.033900000154972076,0.010900000110268593,0.07970000058412552,0.06099999926066736,0.06099999926066736,-0.12199999852133472
-0.14533761143684387,-0.09617029875516891,9.894354820251465,-0.004399999976158142,0.0008999999845400453,0.07970000058412552,0.06099999926066736,0.12199999852133472,-0.12199999852133472
-0.14235924184322357,-0.09422620385885239,9.885649681091309,0.005699999630451202,0.010599999688565731,0.06989999860525131,-0.06099999926066736,0,-0.12199999852133472
-0.14446613192558289,-0.13237062096595764,9.924348831176758,-0.003999999724328518,-0.0284000001847744,0.10909999907016754,-0.06099999926066736,0,0
-0.15554648637771606,-0.10362105071544647,9.946959495544434,-0.013799999840557575,0.0010999999940395355,0.12870000302791595,0.06099999926066736,0,-0.06099999926066736
-0.1433456391096115,-0.10536403208971024,9.913345336914062,0.005699999630451202,-0.008799999952316284,0.09929999709129333,-0.06099999926066736,0,-0.06099999926066736
-0.13332830369472504,-0.10386046767234802,9.936195373535156,0.01549999974668026,0.0010999999940395355,0.11889999359846115,0.06099999926066736,0.06099999926066736,-0.12199999852133472
-0.16814956068992615,-0.0809144452214241,9.96505069732666,-0.023499999195337296,0.020499998703598976,0.14839999377727509,0.06099999926066736,-0.06099999926066736,0
-0.16178098320960999,-0.12464214116334915,9.882431983947754,0.005699999630451202,0.010599999688565731,0.07970000058412552,-0.06099999926066736,0,0
-0.1638687402009964,-0.10301771014928818,9.938791275024414,-0.023499999195337296,0.0013000000035390258,0.11889999359846115,0.06099999926066736,0.12199999852133472,-0.06099999926066736
-0.17819565534591675,-0.13016794621944427,9.893253326416016,-0.032899998128414154,-0.028099998831748962,0.07970000058412552,-0.06099999926066736,0.06099999926066736,0
-0.1651424616575241,-0.07323384284973145,9.912378311157227,-0.02290000021457672,0.030700000002980232,0.09929999709129333,0.12199999852133472,0.12199999852133472,-0.12199999852133472
-0.15108370780944824,-0.10656112432479858,9.892391204833984,-0.002899999963119626,-0.008700000122189522,0.06989999860525131,-0.06099999926066736,0,-0.12199999852133472
-0.15496231615543365,-0.12037088721990585,9.900455474853516,-0.01269999984651804,-0.018299998715519905,0.07970000058412552,0.06099999926066736,0.12199999852133472,-0.06099999926066736
-0.12041877210140228,-0.10711658746004105,9.926043510437012,0.02669999934732914,-0.008700000122189522,0.10920000076293945,0.06099999926066736,0.12199999852133472,-0.12199999852133472
-0.14234966039657593,-0.10845733433961868,9.91669750213623,0.007400000002235174,-0.008799999952316284,0.09939999878406525,-0.06099999926066736,0.06099999926066736,0
-0.15496231615543365,-0.10227072238922119,9.879520416259766,-0.011899999342858791,0.0010999999940395355,0.060099996626377106,0,-0.06099999926066736,0
-0.17613662779331207,-0.09473377466201782,9.936627388000488,-0.031599998474121094,0.010799999348819256,0.11899999529123306,0,0.1830000044521087,0
-0.15475161373615265,-0.10592906177043915,9.869168281555176,-0.011500000022351742,-0.008599999360740185,0.0502999983727932,-0.12199999852133472,0.06099999926066736,0
-0.23258233070373535,-0.11249874532222748,9.992181777954102,-0.08969999849796295,-0.008299999870359898,0.1777999997138977,0.06099999926066736,0.1830000044521087,-0.06099999926066736
-0.22117634117603302,-0.046102747321128845,10.046616554260254,-0.07930000126361847,0.05999999865889549,0.23669999837875366,0,0.12199999852133472,-0.06099999926066736
-0.2364896684885025,-0.06533297896385193,9.994795799255371,-0.08869999647140503,0.04039999842643738,0.1777999997138977,-0.12199999852133472,-0.06099999926066736,0
-0.15813222527503967,-0.1280898004770279,9.94216251373291,-0.010400000028312206,-0.027799999341368675,0.12879998981952667,0.06099999926066736,-0.06099999926066736,0
-0.16027744114398956,-0.13872963190078735,9.862866401672363,-0.010499999858438969,-0.03759999945759773,0.04050000011920929,0.06099999926066736,0,-0.06099999926066736
-0.17232505977153778,-0.08232222497463226,9.89223861694336,-0.02029999904334545,0.020899999886751175,0.07000000029802322,0.06099999926066736,-0.06099999926066736,-0.06099999926066736
-0.1620587259531021,-0.09432196617126465,9.88154125213623,-0.010599999688565731,0.010900000110268593,0.060099996626377106,-0.12199999852133472,0.06099999926066736,0
-0.1577012836933136,-0.11131122708320618,9.852685928344727,-0.010400000028312206,-0.008299999870359898,0.030700000002980232,0,0,0
-0.17303375899791718,-0.08951441198587418,9.885342597961426,-0.029899999499320984,0.01119999960064888,0.07000000029802322,-0.06099999926066736,-0.06099999926066736,-0.12199999852133472
-0.17115668952465057,-0.08534850180149078,9.918622016906738,-0.02019999921321869,0.0210999995470047,0.09939999878406525,0,0.06099999926066736,-0.12199999852133472
-0.14767436683177948,-0.09960836917161942,9.891711235046387,-0.00039999998989515007,0.001500000013038516,0.07000000029802322,-0.12199999852133472,0.12199999852133472,-0.06099999926066736
-0.1353202760219574,-0.10749008506536484,9.921524047851562,0.009599999524652958,-0.007799999788403511,0.09939999878406525,0,0.1830000044521087,-0.12199999852133472
-0.1557859182357788,-0.08360552042722702,9.912138938903809,-0.009399999864399433,0.021399999037384987,0.09939999878406525,0,0.06099999926066736,-0.06099999926066736
-0.15159127116203308,-0.09461884945631027,9.926217079162598,0.00039999998989515007,0.011599999852478504,0.10920000076293945,-0.06099999926066736,0,0
-0.15115074813365936,-0.11111968755722046,9.9232759475708,0.0005999999702908099,-0.007499999832361937,0.10920000076293945,0.06099999926066736,0.06099999926066736,-0.06099999926066736
-0.15525919198989868,-0.09055829048156738,9.911535263061523,-0.008899999782443047,0.011799999512732029,0.08959999680519104,0,0,-0.12199999852133472
-0.15152423083782196,-0.10231859982013702,9.934730529785156,0.0007999999797903001,0.001999999862164259,0.11899999529123306,-0.06099999926066736,0.12199999852133472,-0.06099999926066736
-0.13926592469215393,-0.08917922526597977,9.97077751159668,0.010900000110268593,0.011899999342858791,0.1581999957561493,0.12199999852133472,0.06099999926066736,0
-0.1611393541097641,-0.09684066474437714,9.931349754333496,-0.00839999970048666,0.0017999999690800905,0.11899999529123306,-0.06099999926066736,0,-0.06099999926066736
-0.15585294365882874,-0.10220368206501007,9.914236068725586,-0.00839999970048666,0.0018999999156221747,0.09939999878406525,0.12199999852133472,0.06099999926066736,-0.06099999926066736
-0.15432065725326538,-0.07862558960914612,9.910242080688477,-0.008200000040233135,0.021199999377131462,0.08959999680519104,0,0,0
-0.13180558383464813,-0.09826761484146118,9.912521362304688,0.020999999716877937,0.001500000013038516,0.09939999878406525,0,0,-0.06099999926066736
-0.1401948630809784,-0.08463024348020554,9.893741607666016,0.01119999960064888,0.0210999995470047,0.07979999482631683,-0.06099999926066736,0.06099999926066736,-0.12199999852133472
-0.1470710188150406,-0.10217495262622833,9.902235984802246,0.001500000013038516,0.0015999999595806003,0.07979999482631683,0.12199999852133472,0.1830000044521087,0
-0.1674313247203827,-0.13477440178394318,9.893454551696777,-0.017400000244379044,-0.037699997425079346,0.07979999482631683,0,0.06099999926066736,-0.06099999926066736
-0.14078862965106964,-0.10183018445968628,9.906038284301758,0.012000000104308128,0.00139999995008111,0.08959999680519104,0,0.06099999926066736,-0.06099999926066736
-0.12382811307907104,-0.1078348457813263,9.913507461547852,0.03199999779462814,-0.00839999970048666,0.09939999878406525,0,0.1830000044521087,-0.12199999852133472
-0.11677958071231842,-0.10054689645767212,9.923831939697266,0.03240000084042549,0.0013000000035390258,0.10920000076293945,0.12199999852133472,0.12199999852133472,-0.06099999926066736
-0.1459888517856598,-0.08623914420604706,9.895044326782227,0.0032999999821186066,0.010699999518692493,0.07979999482631683,-0.12199999852133472,0.12199999852133472,-0.1830000044521087
-0.14164097607135773,-0.11665508151054382,9.916314125061035,0.020999999716877937,-0.02149999886751175,0.09950000047683716,0,0.06099999926066736,-0.06099999926066736
-0.13279201090335846,-0.09796115756034851,9.918450355529785,0.017899999395012856,-0.00139999995008111,0.09929999709129333,-0.06099999926066736,0.06099999926066736,-0.1830000044521087
-0.1429242640733719,-0.11400230973958969,9.939518928527832,0.005499999970197678,-0.008299999870359898,0.11889999359846115,0.06099999926066736,0.06099999926066736,-0.06099999926066736
-0.15786409378051758,-0.11240298300981522,9.918354034423828,-0.010599999688565731,-0.006399999838322401,0.09939999878406525,-0.12199999852133472,0.06099999926066736,-0.06099999926066736
-0.13676637411117554,-0.11338938772678375,9.912464141845703,0.006599999964237213,-0.004900000058114529,0.09939999878406525,0,0.12199999852133472,-0.06099999926066736
-0.15208926796913147,-0.08586564660072327,9.927596092224121,-0.0024999999441206455,0.019299998879432678,0.10909999907016754,0.06099999926066736,0.12199999852133472,-0.12199999852133472
-0.15080596506595612,-0.09126696735620499,9.918890953063965,-0.001999999862164259,0.007199999876320362,0.09929999709129333,0.12199999852133472,0.1830000044521087,0.06099999926066736
-0.16023913025856018,-0.09646718204021454,9.890504837036133,-0.008799999952316284,-0.002300000051036477,0.06989999860525131,-0.06099999926066736,0.12199999852133472,-0.1830000044521087
-0.13358688354492188,-0.09823888540267944,9.894210815429688,0.016200000420212746,-0.0017999999690800905,0.07970000058412552,0.1830000044521087,0.06099999926066736,-0.1830000044521087
-0.13275370001792908,-0.10395623743534088,9.915624618530273,0.020099999383091927,-0.0026000000070780516,0.09939999878406525,-0.06099999926066736,0.12199999852133472,-0.12199999852133472
-0.15620729327201843,-0.1085435226559639,9.936186790466309,-0.007699999958276749,-0.010400000028312206,0.11899999529123306,-0.06099999926066736,0.06099999926066736,-0.12199999852133472
-0.1486128866672516,-0.09683109074831009,9.913747787475586,0.001500000013038516,-0.0004999999655410647,0.09939999878406525,0,0.06099999926066736,-0.06099999926066736
-0.1566191017627716,-0.0969172790646553,9.88904857635498,-0.0064999996684491634,-0.0004999999655410647,0.07000000029802322,0.06099999926066736,0.12199999852133472,0
-0.13842317461967468,-0.10119812190532684,9.90263843536377,0.010599999688565731,-0.000699999975040555,0.08959999680519104,0,0.06099999926066736,-0.1830000044521087
-0.1648264229297638,-0.1050863042473793,9.909351348876953,-0.01529999915510416,-0.000699999975040555,0.08959999680519104,-0.06099999926066736,0,-0.06099999926066736
-0.17550456523895264,-0.0977504625916481,9.936779975891113,-0.021399999037384987,-0.0005999999702908099,0.11909999698400497,0,0.06099999926066736,-0.06099999926066736
-0.10967358946800232,-0.09262687712907791,9.927816390991211,0.03889999911189079,0.007400000002235174,0.10920000076293945,0,0.12199999852133472,0
-0.1246517151594162,-0.11663593351840973,9.903099060058594,0.01549999974668026,-0.017799999564886093,0.08949999511241913,0.12199999852133472,0,-0.1830000044521087
-0.13929466903209686,-0.08046433329582214,9.914437294006348,0.004399999976158142,0.016999999061226845,0.09929999709129333,0,0,-0.06099999926066736
-0.1494269073009491,-0.09499234706163406,9.90584659576416,-0.0044999998062849045,0.00559999980032444,0.08949999511241913,-0.12199999852133472,-0.06099999926066736,0
-0.14924496412277222,-0.11814906448125839,9.897916793823242,-0.004699999932199717,-0.023399999365210533,0.07970000058412552,0,0.24399999704266945,-0.12199999852133472
-0.13312719762325287,-0.10709742456674576,9.914158821105957,0.020600000396370888,-0.013399999588727951,0.09939999878406525,0,0.12199999852133472,-0.06099999926066736
-0.14379575848579407,-0.09223423153162003,9.91141128540039,0.000699999975040555,0.004600000102072954,0.08949999511241913,-0.12199999852133472,0,-0.12199999852133472
-0.142780601978302,-0.09340259432792664,9.905482292175293,0.007899999618530273,0.003700000001117587,0.08949999511241913,0,0.06099999926066736,0
-0.1571362465620041,-0.10720277577638626,9.950714111328125,-0.00989999994635582,-0.013599999248981476,0.13859999179840088,0.12199999852133472,0,-0.06099999926066736
-0.13601939380168915,-0.085894376039505,9.910040855407715,0.007199999876320362,0.011899999342858791,0.08949999511241913,0,0.12199999852133472,0
-0.16887740790843964,-0.08166143298149109,9.884854316711426,-0.016499999910593033,0.008200000040233135,0.06989999860525131,0.12199999852133472,0.06099999926066736,0
-0.13617262244224548,-0.08580818772315979,9.904601097106934,0.010199999436736107,0.006199999712407589,0.08949999511241913,0,-0.06099999926066736,-0.12199999852133472
-0.1735796183347702,-0.07176858931779861,9.896145820617676,-0.02319999970495701,0.01249999925494194,0.07970000058412552,0,0,-0.12199999852133472
-0.15360240638256073,-0.09742485731840134,9.894163131713867,-0.0030999998562037945,-0.013399999588727951,0.07970000058412552,0,0.06099999926066736,0
-0.15542200207710266,-0.09577763825654984,9.9131441116333,-0.0026000000070780516,-0.011099999770522118,0.09939999878406525,0,0.06099999926066736,0.06099999926066736
-0.15262556076049805,-0.09623733162879944,9.892698287963867,0.0072999997064471245,-0.011099999770522118,0.07000000029802322,-0.06099999926066736,0,-0.06099999926066736
-0.14873738586902618,-0.09828676283359528,9.931492805480957,0.007199999876320362,-0.010900000110268593,0.11899999529123306,-0.06099999926066736,0,-0.12199999852133472
-0.11536221206188202,-0.08774270862340927,9.893118858337402,0.03659999743103981,-0.0008999999845400453,0.07979999482631683,0,0.06099999926066736,-0.06099999926066736
-0.1528649926185608,-0.09545203298330307,9.882248878479004,0.007400000002235174,-0.0008999999845400453,0.06019999831914902,0.12199999852133472,0.12199999852133472,0
-0.15383224189281464,-0.08377791196107864,9.894737243652344,-0.001999999862164259,0.00839999970048666,0.07979999482631683,0.12199999852133472,0.06099999926066736,-0.12199999852133472
-0.1580747663974762,-0.10031705349683762,9.888809204101562,-0.0017999999690800905,-0.011399999260902405,0.07000000029802322,0.12199999852133472,0,-0.12199999852133472
-0.13293565809726715,-0.10927136242389679,9.899660110473633,0.027499999850988388,-0.02149999886751175,0.07979999482631683,0,-0.06099999926066736,0
-0.16110104322433472,-0.07986099272966385,9.933792114257812,-0.001999999862164259,0.007799999788403511,0.11899999529123306,0.06099999926066736,0.06099999926066736,-0.06099999926066736
-0.14769351482391357,-0.08674672245979309,9.897639274597168,0.007799999788403511,-0.002099999925121665,0.07979999482631683,-0.06099999926066736,0.12199999852133472,-0.06099999926066736
-0.1603253185749054,-0.08514739573001862,9.888895034790039,-0.001500000013038516,0.007799999788403511,0.07000000029802322,0,0,0
-0.1683506965637207,-0.0836438313126564,9.890092849731445,-0.011299999430775642,0.007799999788403511,0.07000000029802322,-0.12199999852133472,0.06099999926066736,-0.06099999926066736
-0.15787366032600403,-0.09261730313301086,9.913766860961914,-0.00139999995008111,-0.0015999999595806003,0.09939999878406525,0,0,0
-0.12765882909297943,-0.08894938230514526,9.910414695739746,0.027899999171495438,-0.0015999999595806003,0.08959999680519104,-0.12199999852133472,0,-0.06099999926066736
-0.13487015664577484,-0.09386228024959564,9.922433853149414,0.01809999905526638,-0.0011999999405816197,0.10920000076293945,0,0.06099999926066736,-0.06099999926066736
-0.14427459239959717,-0.09675447642803192,9.89126205444336,0.00839999970048666,-0.010999999940395355,0.07000000029802322,-0.12199999852133472,0,-0.12199999852133472
-0.14059710502624512,-0.07584831118583679,9.947400093078613,0.018199998885393143,0.01860000006854534,0.12879998981952667,0.06099999926066736,0,0
-0.14858415722846985,-0.10859141498804092,9.901776313781738,0.00839999970048666,-0.02070000022649765,0.07979999482631683,0,0.12199999852133472,0
-0.16355270147323608,-0.09872730076313019,9.885860443115234,-0.010799999348819256,-0.010799999348819256,0.07000000029802322,0,0,-0.06099999926066736
-0.16142664849758148,-0.07373183220624924,9.888962745666504,-0.0009999999310821295,0.01850000023841858,0.07000000029802322,0,0,-0.06099999926066736
-0.14119085669517517,-0.08266700059175491,9.884078979492188,0.01850000023841858,0.008599999360740185,0.07000000029802322,0.06099999926066736,0.06099999926066736,-0.06099999926066736
-0.13624924421310425,-0.09258856624364853,9.905118942260742,0.01860000006854534,-0.0011999999405816197,0.08959999680519104,0,-0.06099999926066736,-0.06099999926066736
-0.15662868320941925,-0.08661264181137085,9.927681922912598,-0.0010999999940395355,-0.0011999999405816197,0.10920000076293945,0.06099999926066736,0.06099999926066736,-0.12199999852133472
-0.1455961912870407,-0.09815269708633423,9.883676528930664,0.008799999952316284,-0.01119999960064888,0.07000000029802322,-0.06099999926066736,0.06099999926066736,-0.06099999926066736
-0.1697680503129959,-0.07890331000089645,9.913603782653809,-0.010599999688565731,0.008499999530613422,0.09939999878406525,0,0,0
-0.1567627489566803,-0.07494808733463287,9.893904685974121,-0.000699999975040555,0.018199998885393143,0.07979999482631683,-0.06099999926066736,0.12199999852133472,0
-0.1304456740617752,-0.08561665564775467,9.902351379394531,0.02889999933540821,0.008499999530613422,0.07979999482631683,0,0,0
-0.15194562077522278,-0.07706456631422043,9.939452171325684,0.00930000003427267,0.008499999530613422,0.11899999529123306,0.12199999852133472,0.06099999926066736,-0.24399999704266945
-0.14327861368656158,-0.09475293010473251,9.939863204956055,0.02449999935925007,0.002300000051036477,0.11909999698400497,-0.12199999852133472,-0.06099999926066736,-0.06099999926066736
-0.18523460626602173,-0.10123642534017563,9.911592483520508,-0.015399999916553497,-0.0044999998062849045,0.08989999443292618,0.06099999926066736,0.12199999852133472,-0.06099999926066736
-0.15038460493087769,-0.08010998368263245,9.929376602172852,0.016899999231100082,0.010499999858438969,0.10939999669790268,0,-0.06099999926066736,-0.06099999926066736
-0.16681841015815735,-0.11526644974946976,9.919503211975098,-0.0023999998811632395,-0.02159999869763851,0.09959999471902847,0.06099999926066736,0.12199999852133472,-0.06099999926066736
-0.15037500858306885,-0.09995312988758087,9.922242164611816,0.013199999928474426,-0.0017999999690800905,0.10939999669790268,0.06099999926066736,0,-0.1830000044521087
-0.1721431016921997,-0.0969172790646553,9.909371376037598,-0.0050999997183680534,-0.0016999999061226845,0.08980000019073486,-0.12199999852133472,-0.12199999852133472,0.06099999926066736
-0.16806338727474213,-0.1183597594499588,9.939508438110352,-0.004799999762326479,-0.01730000041425228,0.11919999867677689,0.06099999926066736,-0.06099999926066736,0
-0.1280706375837326,-0.06792829185724258,9.914944648742676,0.026799999177455902,0.024699999019503593,0.09939999878406525,0.12199999852133472,0.06099999926066736,0
-0.1292964667081833,-0.06337931007146835,9.910271644592285,0.020800000056624413,0.026599999517202377,0.08949999511241913,0,0.12199999852133472,-0.06099999926066736
-0.15944425761699677,-0.11219228804111481,9.879366874694824,-0.006199999712407589,-0.016499999910593033,0.060099996626377106,0.06099999926066736,0.1830000044521087,-0.12199999852133472
-0.15381309390068054,-0.11692323535680771,9.87903118133545,-0.0044999998062849045,-0.019999999552965164,0.06019999831914902,-0.12199999852133472,0.06099999926066736,0
-0.13882538676261902,-0.09506896138191223,9.919254302978516,0.015199999324977398,0.00969999935477972,0.09950000047683716,0.12199999852133472,0.06099999926066736,-0.06099999926066736
-0.11750741302967072,-0.10774865001440048,9.909438133239746,0.0348999984562397,-0.010199999436736107,0.08959999680519104,0.06099999926066736,0.12199999852133472,-0.12199999852133472
-0.165535107254982,-0.1152951717376709,9.884069442749023,-0.013700000010430813,-0.020099999383091927,0.07000000029802322,0,0.24399999704266945,0
-0.154952734708786,-0.09353667497634888,9.899286270141602,0.00029999998514540493,0.007799999788403511,0.07989999651908875,0.1830000044521087,0.06099999926066736,-0.12199999852133472
-0.15511554479599,-0.08898768573999405,9.9232759475708,0,0.005499999970197678,0.10929999500513077,0.12199999852133472,0,-0.06099999926066736
-0.14735832810401917,-0.07964072376489639,9.963489532470703,0.007799999788403511,0.012299999594688416,0.148499995470047,-0.12199999852133472,0.06099999926066736,-0.06099999926066736
-0.1357799619436264,-0.0982293114066124,9.881281852722168,0.012299999594688416,-0.004999999888241291,0.060099996626377106,0,0,-0.12199999852133472
-0.13415192067623138,-0.07964072376489639,9.91593074798584,0.009599999524652958,0.011500000022351742,0.09929999709129333,0.06099999926066736,0.12199999852133472,-0.06099999926066736
-0.15104539692401886,-0.09137231111526489,9.896835327148438,0,0.0009999999310821295,0.07970000058412552,0.12199999852133472,0.12199999852133472,-0.06099999926066736
-0.13520535826683044,-0.10096827894449234,9.92690658569336,0.007999999448657036,-0.007599999662488699,0.10909999907016754,0.06099999926066736,0.06099999926066736,-0.06099999926066736
-0.14876611530780792,-0.1010831966996193,9.917061805725098,-0.001500000013038516,-0.006399999838322401,0.09929999709129333,-0.06099999926066736,0.06099999926066736,0.12199999852133472
-0.14952269196510315,-0.11422257125377655,9.895637512207031,-0.00139999995008111,0.0026000000070780516,0.09929999709129333,0,0,0
-0.1310681700706482,-0.11363838613033295,9.931062698364258,-0.0011999999405816197,-0.013399999588727951,0.07970000058412552,0,0.06099999926066736,0
-0.15160085260868073,-0.09797073155641556,9.9039888381958,-0.0044999998062849045,-0.00139999995008111,0.08949999511241913,0,0.06099999926066736,-0.06099999926066736
-0.15244360268115997,-0.09150638431310654,9.875201225280762,-0.004299999680370092,0.008299999870359898,0.060099996626377106,0,0.06099999926066736,-0.06099999926066736
-0.15120820701122284,-0.08241800218820572,9.92143726348877,-0.00419999985024333,0.01809999905526638,0.09929999709129333,0,0.06099999926066736,-0.06099999926066736
-0.15467500686645508,-0.10052774101495743,9.952600479125977,-0.013799999840557575,-0.00139999995008111,0.13849999010562897,0.06099999926066736,0.12199999852133472,0
-0.15416742861270905,-0.11893436312675476,9.890658378601074,-0.013399999588727951,-0.021199999377131462,0.06989999860525131,-0.06099999926066736,0.06099999926066736,-0.12199999852133472
-0.17996734380722046,-0.11259452253580093,9.906621932983398,-0.032899998128414154,-0.01119999960064888,0.08949999511241913,0,0,-0.06099999926066736
-0.13651737570762634,-0.08225519210100174,9.89843463897705,0.006300000008195639,0.01809999905526638,0.07970000058412552,0.1830000044521087,0,-0.06099999926066736
-0.15920484066009521,-0.10072885453701019,9.931148529052734,-0.013199999928474426,-0.0018999999156221747,0.11889999359846115,-0.06099999926066736,0.1830000044521087,-0.12199999852133472
-0.14450444281101227,-0.07850108295679092,9.871896743774414,-0.002899999963119626,0.017799999564886093,0.0502999983727932,0,0.1830000044521087,-0.06099999926066736
-0.13238020241260529,-0.11136868596076965,9.927960395812988,0.017099998891353607,-0.011500000022351742,0.10909999907016754,0.06099999926066736,0.12199999852133472,0
-0.16302599012851715,-0.10819876194000244,9.913603782653809,-0.021699998527765274,-0.011699999682605267,0.09929999709129333,0.12199999852133472,0.06099999926066736,0.06099999926066736
-0.15502934157848358,-0.10807426273822784,9.909955024719238,-0.011699999682605267,-0.012000000104308128,0.08949999511241913,-0.06099999926066736,0.06099999926066736,-0.06099999926066736
-0.15454092621803284,-0.10426269471645355,9.92171573638916,-0.011500000022351742,-0.001999999862164259,0.10909999907016754,-0.12199999852133472,0.12199999852133472,0
-0.15089216828346252,-0.07314765453338623,9.924263000488281,-0.00139999995008111,0.02759999968111515,0.10909999907016754,-0.06099999926066736,-0.12199999852133472,0.06099999926066736
-0.1541195511817932,-0.10730811953544617,9.917014122009277,-0.011500000022351742,-0.011399999260902405,0.09929999709129333,0.06099999926066736,0.06099999926066736,0
-0.16292063891887665,-0.11307335644960403,9.89304256439209,-0.0210999995470047,-0.011500000022351742,0.07970000058412552,-0.12199999852133472,0.06099999926066736,-0.06099999926066736
-0.1521371454000473,-0.11315954476594925,9.867386817932129,-0.0013000000035390258,-0.01119999960064888,0.0502999983727932,0,0.1830000044521087,0
-0.1623460203409195,-0.11044930666685104,9.904735565185547,-0.010599999688565731,-0.011099999770522118,0.08949999511241913,0,0.06099999926066736,-0.12199999852133472
-0.1310681700706482,-0.1232343539595604,9.903280258178711,0.018799999728798866,-0.020899999886751175,0.08949999511241913,0,0,-0.06099999926066736
-0.1421581208705902,-0.11987289786338806,9.903529167175293,0.008999999612569809,-0.020800000056624413,0.08949999511241913,0.12199999852133472,0.12199999852133472,0
-0.15539325773715973,-0.12650004029273987,9.862875938415527,-0.010199999436736107,-0.030899999663233757,0.04050000011920929,0.12199999852133472,0,0
-0.13600023090839386,-0.11082280427217484,9.89576244354248,0.00930000003427267,-0.011599999852478504,0.07970000058412552,0.06099999926066736,0.12199999852133472,-0.1830000044521087
-0.16079458594322205,-0.1152951717376709,9.889652252197266,-0.009800000116229057,-0.02149999886751175,0.06989999860525131,0,0.12199999852133472,-0.06099999926066736
-0.1341327577829361,-0.08011956512928009,9.903298377990723,0.010400000028312206,0.017400000244379044,0.08959999680519104,0,0.06099999926066736,0
-0.15450263023376465,-0.09653420746326447,9.950368881225586,-0.008899999782443047,-0.002099999925121665,0.13859999179840088,0.06099999926066736,0.06099999926066736,-0.06099999926066736
-0.15348748862743378,-0.11737334728240967,9.894575119018555,-0.008700000122189522,-0.021800000220537186,0.07979999482631683,-0.06099999926066736,-0.06099999926066736,0
-0.11829271912574768,-0.10251971334218979,9.873467445373535,0.03009999915957451,-0.002099999925121665,0.0502999983727932,0.1830000044521087,0.1830000044521087,-0.1830000044521087
-0.14982914924621582,-0.08282022923231125,9.894497871398926,0.015099999494850636,0.014099999330937862,0.07989999651908875,0.06099999926066736,0.06099999926066736,-0.12199999852133472
-0.13455413281917572,-0.10774865001440048,9.888809204101562,0.013499999418854713,-0.008899999782443047,0.07000000029802322,0,-0.06099999926066736,-0.12199999852133472
-0.14377659559249878,-0.10880210250616074,9.870182991027832,0.0018999999156221747,-0.00559999980032444,0.05040000006556511,-0.06099999926066736,0,-0.12199999852133472
-0.13678553700447083,-0.13034991919994354,9.869751930236816,0.007799999788403511,-0.01730000041425228,0.05040000006556511,0,0,0
-0.12718956172466278,-0.13207374513149261,9.890820503234863,0.013199999928474426,-0.013399999588727951,0.07000000029802322,0.06099999926066736,0.12199999852133472,-0.12199999852133472
-0.1343434453010559,-0.12426864355802536,9.895101547241211,0.002699999837204814,-0.0031999999191612005,0.07979999482631683,0.06099999926066736,0.12199999852133472,0
-0.1468028724193573,-0.10737515985965729,9.907608032226562,-0.00559999980032444,0.004999999888241291,0.08959999680519104,-0.06099999926066736,-0.06099999926066736,-0.06099999926066736
-0.15028883516788483,-0.11099519580602646,9.892668724060059,-0.004699999932199717,0.0037999998312443495,0.07000000029802322,0.06099999926066736,0.06099999926066736,-0.06099999926066736
-0.16194380819797516,-0.1046266183257103,9.918105125427246,-0.012000000104308128,0.010900000110268593,0.09939999878406525,0.06099999926066736,0,-0.12199999852133472
-0.1505090892314911,-0.08780016005039215,9.900368690490723,-0.0018999999156221747,0.01599999889731407,0.07979999482631683,0.06099999926066736,0.12199999852133472,0.12199999852133472
-0.1585344523191452,-0.09473377466201782,9.908422470092773,-0.009399999864399433,0.012600000016391277,0.08959999680519104,0.24399999704266945,0.06099999926066736,-0.12199999852133472
-0.14349886775016785,-0.11132080107927322,9.919550895690918,0.01489999983459711,-0.009599999524652958,0.09939999878406525,0.06099999926066736,0.06099999926066736,0
-0.1395532190799713,-0.11450988054275513,9.924741744995117,0.012199999764561653,-0.008200000040233135,0.10920000076293945,0,0,0
-0.14981956779956818,-0.0939580500125885,9.93189525604248,0.0016999999061226845,0.009200000204145908,0.11899999529123306,0.12199999852133472,0.06099999926066736,-0.06099999926066736
-0.13846147060394287,-0.1280706375837326,9.895350456237793,-0.014499999582767487,-0.0007999999797903001,0.09939999878406525,0.06099999926066736,0.06099999926066736,0
-0.14471513032913208,-0.09506896138191223,9.886453628540039,0.011399999260902405,-0.02369999885559082,0.07979999482631683,0.06099999926066736,0.06099999926066736,0
-0.14471513032913208,-0.09506896138191223,9.886453628540039,0.0010999999940395355,0.011500000022351742,0.07000000029802322,-0.06099999926066736,0.06099999926066736,-0.12199999852133472
-0.15239572525024414,-0.10499053448438644,9.909371376037598,0.0007999999797903001,0.00139999995008111,0.08959999680519104,0.12199999852133472,0.06099999926066736,-0.06099999926066736
-0.13631626963615417,-0.13351984322071075,9.896404266357422,-0.013700000010430813,0.0005999999702908099,0.05040000006556511,-0.06099999926066736,0.06099999926066736,0
-0.14780844748020172,-0.11317870020866394,9.875201225280762,0.012399999424815178,-0.023000000044703484,0.07989999651908875,0,0.06099999926066736,0
-0.15000152587890625,-0.10643663257360458,9.906900405883789,0.0010999999940395355,-0.0024999999441206455,0.08969999849796295,0.06099999926066736,0.06099999926066736,0.06099999926066736
-0.16231729090213776,-0.10660901665687561,9.908241271972656,-0.00839999970048666,-0.002699999837204814,0.08969999849796295,0,0.06099999926066736,0
-0.12400049716234207,-0.08658390492200851,9.930803298950195,0.030899999663233757,0.01679999940097332,0.10929999500513077,-0.1830000044521087,0.06099999926066736,-0.06099999926066736
-0.13518621027469635,-0.10928094387054443,9.948751449584961,0.011399999260902405,-0.002199999988079071,0.12889999151229858,0.06099999926066736,0,0
-0.16919344663619995,-0.08943779766559601,9.926868438720703,-0.017899999395012856,0.01719999872148037,0.10929999500513077,0,0.06099999926066736,0
-0.1465538740158081,-0.11745953559875488,9.934366226196289,0.0017999999690800905,-0.01209999993443489,0.11909999698400497,0,0.06099999926066736,-0.06099999926066736
-0.1271129548549652,-0.08024406433105469,9.940313339233398,0.02159999869763851,0.026999998837709427,0.11909999698400497,0,0.06099999926066736,0.06099999926066736
-0.15675316751003265,-0.12743857502937317,9.890667915344238,-0.007599999662488699,-0.021900000050663948,0.07009999454021454,0,0,-0.06099999926066736
-0.1514476239681244,-0.09541372954845428,9.932498931884766,0.002099999925121665,0.01719999872148037,0.11909999698400497,0.06099999926066736,0.06099999926066736,0
-0.12486240267753601,-0.13041695952415466,9.873563766479492,0.021900000050663948,-0.022099999710917473,0.05040000006556511,0,0.12199999852133472,0.06099999926066736
-0.15779703855514526,-0.11880987137556076,9.936080932617188,-0.0071000000461936,-0.012299999594688416,0.11909999698400497,0.1830000044521087,0.06099999926066736,0.06099999926066736
-0.13497550785541534,-0.12966996431350708,9.885333061218262,0.01249999925494194,-0.022499999031424522,0.07009999454021454,-0.06099999926066736,0.06099999926066736,-0.06099999926066736
-0.15246276557445526,-0.08143159002065659,9.899564743041992,0.002899999963119626,0.026499999687075615,0.07989999651908875,0,0.12199999852133472,-0.12199999852133472
-0.15126566588878632,-0.08625829964876175,9.888195991516113,0.0031999999191612005,0.016699999570846558,0.07009999454021454,0.06099999926066736,0.12199999852133472,0
-0.13690045475959778,-0.100815050303936,9.905023574829102,0.013299999758601189,0.0066999997943639755,0.08969999849796295,0,0.1830000044521087,-0.1830000044521087
-0.13501381874084473,-0.077476367354393,9.930143356323242,0.016499999910593033,0.012799999676644802,0.10920000076293945,-0.06099999926066736,0,-0.06099999926066736
-0.15399505198001862,-0.11016201227903366,9.915825843811035,-0.0026000000070780516,-0.01209999993443489,0.09950000047683716,-0.06099999926066736,0.24399999704266945,0.12199999852133472
-0.16037319600582123,-0.09768342226743698,9.917223930358887,0.002899999963119626,-0.003700000001117587,0.09950000047683716,0.06099999926066736,0,-0.12199999852133472
-0.1563892513513565,-0.10952036082744598,9.917932510375977,0.0018999999156221747,-0.010900000110268593,0.09950000047683716,0.12199999852133472,0.12199999852133472,-0.06099999926066736
-0.13933296501636505,-0.09709924459457397,9.922816276550293,0.01719999872148037,-0.0013000000035390258,0.10929999500513077,0.06099999926066736,-0.06099999926066736,-0.12199999852133472
-0.1549910455942154,-0.09269391745328903,9.922615051269531,-0.002300000051036477,0.0064999996684491634,0.10929999500513077,-0.06099999926066736,0,-0.06099999926066736
-0.14914917945861816,-0.10762415081262589,9.900483131408691,0.005399999674409628,-0.009999999776482582,0.07979999482631683,0,0.06099999926066736,-0.06099999926066736
-0.14392982423305511,-0.1327153891324997,9.89597225189209,0.004100000020116568,-0.02319999970495701,0.07989999651908875,0,0.06099999926066736,-0.12199999852133472
-0.1336347609758377,-0.07361691445112228,9.906095504760742,0.018799999728798866,0.028199998661875725,0.08949999511241913,0.06099999926066736,0,0.06099999926066736
-0.170246884226799,-0.10036493837833405,9.905607223510742,-0.016499999910593033,-0.0011999999405816197,0.08959999680519104,-0.06099999926066736,-0.06099999926066736,-0.12199999852133472
-0.16524779796600342,-0.11403103917837143,9.903836250305176,-0.013599999248981476,-0.008799999952316284,0.08969999849796295,0,0.12199999852133472,0.06099999926066736
-0.1488044261932373,-0.10524910688400269,9.90803050994873,0.004699999932199717,0.0004999999655410647,0.08959999680519104,0.24399999704266945,0,-0.12199999852133472
-0.13056060671806335,-0.10483730584383011,9.892324447631836,0.02879999950528145,-0.0018999999156221747,0.07009999454021454,-0.12199999852133472,0.06099999926066736,0
-0.14222516119480133,-0.10536403208971024,9.908231735229492,0.014999999664723873,-0.009200000204145908,0.08959999680519104,-0.06099999926066736,0.06099999926066736,0
-0.14911088347434998,-0.09138189256191254,9.901345252990723,0.003999999724328518,0.007999999448657036,0.07979999482631683,0.12199999852133472,0,-0.12199999852133472
-0.16362932324409485,-0.12124237418174744,9.890706062316895,-0.012199999764561653,-0.01679999940097332,0.07009999454021454,-0.12199999852133472,0.06099999926066736,-0.1830000044521087
-0.1317194104194641,-0.09366117417812347,9.911094665527344,0.02149999886751175,0.010199999436736107,0.08959999680519104,0.06099999926066736,0.12199999852133472,0
-0.12630850076675415,-0.09637140482664108,9.922807693481445,0.017799999564886093,0,0.10920000076293945,-0.12199999852133472,0.06099999926066736,-0.12199999852133472
-0.1420336216688156,-0.10870634019374847,9.924559593200684,0.0064999996684491634,-0.007899999618530273,0.10920000076293945,0.12199999852133472,0.12199999852133472,-0.06099999926066736
-0.1309245228767395,-0.10194510966539383,9.921897888183594,0.013399999588727951,0.0010999999940395355,0.10909999907016754,0,0.06099999926066736,0.12199999852133472
-0.15016433596611023,-0.08537723869085312,9.906651496887207,-0.004999999888241291,0.016200000420212746,0.08949999511241913,-0.06099999926066736,0.06099999926066736,-0.06099999926066736
-0.1829170137643814,-0.09287586808204651,9.88961410522461,-0.033799998462200165,0.004799999762326479,0.07000000029802322,0.06099999926066736,0,-0.06099999926066736
-0.1304456740617752,-0.11513236910104752,9.920327186584473,0.020099999383091927,-0.02029999904334545,0.09939999878406525,-0.06099999926066736,0.12199999852133472,-0.12199999852133472
-0.13965857028961182,-0.10503841191530228,9.882527351379395,0.010599999688565731,-0.0004999999655410647,0.06019999831914902,0,0,-0.1830000044521087
-0.13589487969875336,-0.10300813615322113,9.88290023803711,0.010599999688565731,-0.0004999999655410647,0.06019999831914902,-0.06099999926066736,0.12199999852133472,-0.12199999852133472
-0.1045212671160698,-0.12624147534370422,9.890170097351074,0.05009999871253967,-0.02969999983906746,0.07000000029802322,0.06099999926066736,0.12199999852133472,0
-0.1425507664680481,-0.11397358030080795,9.861457824707031,0.01119999960064888,-0.010199999436736107,0.0405999980866909,-0.06099999926066736,0.12199999852133472,-0.06099999926066736
-0.14989617466926575,-0.12277466803789139,9.883906364440918,0.0016999999061226845,-0.019899999722838402,0.07000000029802322,-0.12199999852133472,0.1830000044521087,0
-0.1526351422071457,-0.11318828165531158,9.94656753540039,0.0023999998811632395,-0.009499999694526196,0.12879998981952667,0.06099999926066736,-0.06099999926066736,-0.12199999852133472
-0.13676637411117554,-0.08452489227056503,9.919742584228516,0.012000000104308128,0.019600000232458115,0.09939999878406525,0.06099999926066736,0,-0.12199999852133472
-0.16238433122634888,-0.07794563472270966,9.902427673339844,-0.007499999832361937,0.01939999870955944,0.08959999680519104,0.12199999852133472,0.06099999926066736,-0.06099999926066736
-0.16070838272571564,-0.10484687983989716,9.912779808044434,-0.0072999997064471245,-0.00039999998989515007,0.09939999878406525,0,0.06099999926066736,0
-0.17279432713985443,-0.0914776623249054,9.920747756958008,-0.02669999934732914,0.00930000003427267,0.09939999878406525,0.12199999852133472,0,0.06099999926066736
-0.1416984349489212,-0.07957368344068527,9.899937629699707,0.012399999424815178,0.018699999898672104,0.07979999482631683,0.06099999926066736,0.12199999852133472,-0.06099999926066736
-0.1623077243566513,-0.10296982526779175,9.86202335357666,-0.006799999624490738,-0.0009999999310821295,0.0405999980866909,0,0.12199999852133472,0.06099999926066736
-0.15331509709358215,-0.12401007115840912,9.890419006347656,-0.006399999838322401,-0.020600000396370888,0.07000000029802322,0,0.24399999704266945,-0.06099999926066736
-0.14046302437782288,-0.12991896271705627,9.88131046295166,0.026200000196695328,-0.033900000154972076,0.06039999797940254,0.12199999852133472,0.06099999926066736,0
-0.13394121825695038,-0.11303505301475525,9.878122329711914,0.020600000396370888,-0.008700000122189522,0.06019999831914902,0.06099999926066736,0,0.06099999926066736
-0.1392563432455063,-0.11027693003416061,9.907819747924805,0.007599999662488699,-0.006799999624490738,0.08959999680519104,0.06099999926066736,0.06099999926066736,0.06099999926066736
-0.14187082648277283,-0.09713754802942276,9.896634101867676,0.005499999970197678,0.0018999999156221747,0.07970000058412552,-0.06099999926066736,0.06099999926066736,0.06099999926066736
-0.1391988843679428,-0.103563591837883,9.904764175415039,0.004100000020116568,0.00139999995008111,0.08949999511241913,0.12199999852133472,0.12199999852133472,0
-0.14733916521072388,-0.09414000809192657,9.885266304016113,-0.00419999985024333,0.007999999448657036,0.06989999860525131,0.06099999926066736,0.06099999926066736,-0.12199999852133472
-0.14862246811389923,-0.09272263944149017,9.922855377197266,-0.003499999875202775,0.006300000008195639,0.10909999907016754,0,0.06099999926066736,-0.06099999926066736
-0.1486799269914627,-0.10888829082250595,9.931771278381348,-0.0030999998562037945,-0.01119999960064888,0.11889999359846115,0.06099999926066736,0,-0.06099999926066736
-0.12708422541618347,-0.12545616924762726,9.901776313781738,0.01249999925494194,-0.02410000003874302,0.07970000058412552,0.06099999926066736,-0.12199999852133472,0
-0.16635870933532715,-0.09265560656785965,9.926302909851074,-0.02239999920129776,0.012000000104308128,0.10920000076293945,0,0.06099999926066736,-0.12199999852133472
-0.17930655181407928,-0.07887458056211472,9.920087814331055,-0.026200000196695328,0.017500000074505806,0.09939999878406525,-0.06099999926066736,0.1830000044521087,0
-0.16008590161800385,-0.08821196854114532,9.875852584838867,-0.006099999882280827,0.007799999788403511,0.06019999831914902,0.06099999926066736,0,0.06099999926066736
-0.1497620940208435,-0.11723926663398743,9.887823104858398,0.003599999938160181,-0.021699998527765274,0.07000000029802322,0,0,-0.12199999852133472
-0.12311942875385284,-0.08853758126497269,9.902303695678711,0.032999999821186066,0.007699999958276749,0.07979999482631683,0,-0.12199999852133472,-0.06099999926066736
-0.14640064537525177,-0.10979808866977692,9.880056381225586,0.0032999999821186066,-0.011799999512732029,0.06019999831914902,0.06099999926066736,0.06099999926066736,-0.06099999926066736
-0.15388013422489166,-0.10913728922605515,9.900263786315918,-0.006300000008195639,-0.012000000104308128,0.07979999482631683,-0.06099999926066736,-0.12199999852133472,-0.06099999926066736
-0.13381673395633698,-0.10210791975259781,9.899650573730469,0.022699998691678047,-0.001999999862164259,0.07979999482631683,0.06099999926066736,0.1830000044521087,-0.06099999926066736
-0.13610558211803436,-0.11226890236139297,9.911324501037598,0.013399999588727951,-0.012000000104308128,0.08959999680519104,0,0.06099999926066736,0
-0.14235924184322357,-0.11551544070243835,9.888723373413086,0.013499999418854713,-0.021800000220537186,0.07000000029802322,0.12199999852133472,0.1830000044521087,-0.06099999926066736
-0.13878707587718964,-0.1145864948630333,9.885371208190918,0.0139999995008111,-0.012299999594688416,0.07000000029802322,-0.12199999852133472,0.06099999926066736,0
-0.13001471757888794,-0.11541967839002609,9.88420295715332,0.023899998515844345,-0.021699998527765274,0.07000000029802322,-0.06099999926066736,0.06099999926066736,0
-0.13905523717403412,-0.0781850516796112,9.90749454498291,0.014399999752640724,0.017400000244379044,0.08959999680519104,-0.06099999926066736,0,0
-0.154493048787117,-0.10278786718845367,9.920441627502441,-0.0050999997183680534,-0.001999999862164259,0.09939999878406525,0,0.06099999926066736,0
-0.14226345717906952,-0.10251013934612274,9.91567325592041,0.014599999412894249,-0.001999999862164259,0.09939999878406525,0,0.12199999852133472,-0.06099999926066736
-0.15193603932857513,-0.08304049074649811,9.877249717712402,0.0050999997183680534,0.017500000074505806,0.06019999831914902,0,0.06099999926066736,-0.06099999926066736
-0.13572250306606293,-0.11088984459638596,9.947266578674316,0.014999999664723873,-0.011799999512732029,0.12889999151229858,0,-0.06099999926066736,-0.12199999852133472
-0.14824895560741425,-0.10902237147092819,9.900618553161621,0.0050999997183680534,-0.011799999512732029,0.07979999482631683,0.12199999852133472,0.06099999926066736,0
-0.17059165239334106,-0.08924625813961029,9.900005340576172,-0.014299999922513962,0.007400000002235174,0.07979999482631683,-0.06099999926066736,0.06099999926066736,-0.06099999926066736
-0.13685256242752075,-0.11756487935781479,9.910931587219238,0.015199999324977398,-0.021699998527765274,0.08959999680519104,-0.06099999926066736,0.06099999926066736,-0.12199999852133472
-0.15125608444213867,-0.09545203298330307,9.898837089538574,0.005499999970197678,0.007799999788403511,0.07979999482631683,-0.06099999926066736,0.06099999926066736,-0.06099999926066736
-0.14222516119480133,-0.10420523583889008,9.916372299194336,0.01549999974668026,-0.0017999999690800905,0.09939999878406525,-0.06099999926066736,0,-0.06099999926066736
-0.15668614208698273,-0.1289421170949936,9.873276710510254,-0.003999999724328518,-0.030899999663233757,0.05040000006556511,-0.06099999926066736,0.06099999926066736,-0.06099999926066736
-0.14791378378868103,-0.11242213100194931,9.861754417419434,0.005799999926239252,-0.011099999770522118,0.0405999980866909,0,0,-0.12199999852133472
-0.16251841187477112,-0.11818736791610718,9.880582809448242,-0.0038999998942017555,-0.020800000056624413,0.06019999831914902,0,-0.06099999926066736,0.12199999852133472
-0.13357730209827423,-0.09305783361196518,9.899468421936035,0.025200000032782555,0.008499999530613422,0.07979999482631683,0.06099999926066736,0.06099999926066736,-0.06099999926066736
-0.14496412873268127,-0.11787133663892746,9.915040016174316,0.005699999630451202,-0.020999999716877937,0.09939999878406525,0.1830000044521087,0.12199999852133472,-0.12199999852133472
-0.14479175209999084,-0.10478942096233368,9.897208213806152,0.006099999882280827,-0.0017999999690800905,0.07979999482631683,0.06099999926066736,0.06099999926066736,-0.1830000044521087
-0.14071202278137207,-0.1145673394203186,9.9475736618042,0.01599999889731407,-0.011799999512732029,0.12889999151229858,-0.06099999926066736,0.06099999926066736,-0.06099999926066736
-0.1384040117263794,-0.10101615637540817,9.907886505126953,0.016200000420212746,-0.0017999999690800905,0.08959999680519104,0,0,-0.06099999926066736
-0.12974658608436584,-0.12021765857934952,9.906957626342773,0.025999998673796654,-0.021399999037384987,0.08959999680519104,0,0.06099999926066736,-0.12199999852133472
-0.1361343115568161,-0.11760319024324417,9.945839881896973,0.016300000250339508,-0.021399999037384987,0.12889999151229858,0.06099999926066736,0.06099999926066736,-0.1830000044521087
-0.15363113582134247,-0.12749603390693665,9.901996612548828,-0.003000000026077032,-0.03139999881386757,0.07979999482631683,0.06099999926066736,0.06099999926066736,0
-0.15887922048568726,-0.08722555637359619,9.878945350646973,-0.00279999990016222,0.007599999662488699,0.06019999831914902,0,0,0
-0.1253412514925003,-0.10907982289791107,9.898970603942871,0.026499999687075615,-0.011899999342858791,0.07979999482631683,0.12199999852133472,0.06099999926066736,-0.06099999926066736
-0.1412387490272522,-0.09708967059850693,9.895522117614746,0.00699999975040555,0.007199999876320362,0.09950000047683716,0,0.06099999926066736,-0.06099999926066736
-0.15590083599090576,-0.11397358030080795,9.889901161193848,-0.0023999998811632395,-0.012199999764561653,0.07000000029802322,0.06099999926066736,0.06099999926066736,-0.06099999926066736
-0.12196063250303268,-0.10865844786167145,9.899295806884766,0.03680000081658363,-0.012399999424815178,0.07979999482631683,0.06099999926066736,0,0.06099999926066736
-0.13962984085083008,-0.09808565676212311,9.875564575195312,0.017099998891353607,-0.002699999837204814,0.06019999831914902,0,0.1830000044521087,-0.06099999926066736
-0.15169662237167358,-0.10474153608083725,9.90454387664795,0.007699999958276749,-0.002699999837204814,0.08969999849796295,0.06099999926066736,0.06099999926066736,-0.06099999926066736
-0.1543015092611313,-0.08512823283672333,9.930679321289062,-0.0017999999690800905,0.016599999740719795,0.10929999500513077,-0.06099999926066736,0.06099999926066736,-0.06099999926066736
-0.15489527583122253,-0.07574296742677689,9.886846542358398,-0.0016999999061226845,0.026399999856948853,0.07000000029802322,0.12199999852133472,-0.06099999926066736,-0.12199999852133472
-0.1593485027551651,-0.09164046496152878,9.913507461547852,-0.0017999999690800905,0.0064999996684491634,0.09950000047683716,0.06099999926066736,0,0.06099999926066736
-0.14149731397628784,-0.09038589894771576,9.88681697845459,0.01759999990463257,0.006300000008195639,0.07000000029802322,0.06099999926066736,-0.06099999926066736,0.06099999926066736
-0.15122735500335693,-0.1172967329621315,9.893780708312988,0.007599999662488699,-0.023099999874830246,0.07979999482631683,-0.1830000044521087,0,-0.06099999926066736
-0.1593676507472992,-0.12264058738946915,9.929798126220703,-0.002099999925121665,-0.022499999031424522,0.10929999500513077,0.12199999852133472,0.06099999926066736,-0.06099999926066736
-0.1712045818567276,-0.11067915707826614,9.884462356567383,-0.011699999682605267,-0.012999999336898327,0.07000000029802322,0,0,0
-0.15468458831310272,-0.08223603665828705,9.90856647491455,-0.0018999999156221747,0.016200000420212746,0.08969999849796295,0.06099999926066736,0.12199999852133472,0
-0.15042290091514587,-0.105689637362957,9.890178680419922,0.008100000210106373,-0.013199999928474426,0.07000000029802322,-0.06099999926066736,0,-0.12199999852133472
-0.16062220931053162,-0.12814724445343018,9.912492752075195,-0.0015999999595806003,-0.032499998807907104,0.09950000047683716,0,0.06099999926066736,0.06099999926066736
-0.14702312648296356,-0.09849745780229568,9.892716407775879,0.008200000040233135,-0.0030999998562037945,0.07000000029802322,0,0.24399999704266945,0
-0.13085748255252838,-0.09246407449245453,9.897294998168945,0.02850000001490116,0.006599999964237213,0.07989999651908875,0.12199999852133472,0.06099999926066736,0
-0.135444775223732,-0.11897267401218414,9.915060043334961,0.01889999955892563,-0.023000000044703484,0.09950000047683716,0,0,-0.06099999926066736
-0.16754622757434845,-0.08315540850162506,9.899468421936035,-0.010499999858438969,0.016099998727440834,0.07989999651908875,0.1830000044521087,0,-0.1830000044521087
-0.1261744350194931,-0.10961613059043884,9.90225601196289,0.028699999675154686,-0.013700000010430813,0.07989999651908875,0.06099999926066736,0,0.06099999926066736
-0.1667226254940033,-0.08160397410392761,9.91304874420166,-0.010400000028312206,0.015399999916553497,0.09950000047683716,0.06099999926066736,0.12199999852133472,-0.06099999926066736
-0.14782759547233582,-0.11343728005886078,9.90645980834961,0.009399999864399433,-0.0139999995008111,0.08969999849796295,0.12199999852133472,0.12199999852133472,-0.06099999926066736
-0.14862246811389923,-0.1080646887421608,9.93021011352539,0.00969999935477972,-0.014399999752640724,0.10929999500513077,0.06099999926066736,0.06099999926066736,-0.06099999926066736
-0.14117170870304108,-0.12034215778112411,9.909552574157715,0.019700000062584877,-0.024299999698996544,0.08969999849796295,-0.06099999926066736,0.06099999926066736,-0.12199999852133472
-0.15689681470394135,-0.08946652710437775,9.908968925476074,-0.009499999694526196,-0.02410000003874302,0.07989999651908875,0.12199999852133472,0,0.06099999926066736
-0.14937902987003326,-0.10362105071544647,9.879463195800781,0.00019999999494757503,0.004900000058114529,0.08969999849796295,0.06099999926066736,0,0
-0.15833334624767303,-0.12216175347566605,9.911947250366211,0.00009999999747378752,-0.024799998849630356,0.08969999849796295,-0.06099999926066736,0.06099999926066736,-0.1830000044521087
-0.15604449808597565,-0.09700348228216171,9.892457962036133,0.00019999999494757503,-0.004999999888241291,0.07009999454021454,0.06099999926066736,0.12199999852133472,-0.06099999926066736
-0.15046121180057526,-0.11544840037822723,9.90856647491455,0.010300000198185444,-0.024699999019503593,0.08969999849796295,0.06099999926066736,0,-0.06099999926066736
-0.1513901650905609,-0.09009859710931778,9.917425155639648,0.010300000198185444,0.004399999976158142,0.09950000047683716,0,0.1830000044521087,0.06099999926066736
-0.16414646804332733,-0.10738473385572433,9.901124954223633,-0.008700000122189522,-0.014999999664723873,0.07989999651908875,0.06099999926066736,0.12199999852133472,-0.12199999852133472
-0.15137100219726562,-0.10075758397579193,9.8989896774292,0.011099999770522118,-0.005399999674409628,0.07989999651908875,0.06099999926066736,0.12199999852133472,0
-0.13720691204071045,-0.08433336019515991,9.923890113830566,0.0210999995470047,0.013899999670684338,0.10929999500513077,0,0.06099999926066736,-0.06099999926066736
-0.1306563764810562,-0.07372225821018219,9.9141206741333,0.030899999663233757,0.023599999025464058,0.09950000047683716,-0.12199999852133472,0.06099999926066736,0.12199999852133472
-0.15612110495567322,-0.08923668414354324,9.897189140319824,0.0015999999595806003,0.004299999680370092,0.07989999651908875,-0.06099999926066736,0.12199999852133472,-0.12199999852133472
-0.1490534245967865,-0.10998962074518204,9.905434608459473,0.011699999682605267,-0.014999999664723873,0.08969999849796295,0.06099999926066736,0.1830000044521087,0
-0.15574760735034943,-0.09371862560510635,9.934146881103516,0.002300000051036477,0.004299999680370092,0.11909999698400497,0.1830000044521087,0.06099999926066736,-0.06099999926066736
-0.1391988843679428,-0.10737515985965729,9.908135414123535,0.02199999988079071,-0.015599999576807022,0.08969999849796295,0.06099999926066736,0.06099999926066736,-0.06099999926066736
-0.13843274116516113,-0.09573933482170105,9.913651466369629,0.02199999988079071,0.003599999938160181,0.09950000047683716,0,0,-0.06099999926066736
-0.16029658913612366,-0.10016382485628128,9.893099784851074,0.002300000051036477,-0.006000000052154064,0.07989999651908875,-0.06099999926066736,0,-0.06099999926066736
-0.17146314680576324,-0.09808565676212311,9.876331329345703,0.002300000051036477,-0.006000000052154064,0.07989999651908875,-0.06099999926066736,-0.06099999926066736,-0.06099999926066736
-0.1286739856004715,-0.10732726752758026,9.901308059692383,0.03139999881386757,-0.01529999915510416,0.07989999651908875,0,0.12199999852133472,0.06099999926066736
-0.15080596506595612,-0.10699208825826645,9.891758918762207,0.012000000104308128,-0.015199999324977398,0.07009999454021454,0,0.12199999852133472,-0.06099999926066736
-0.14998237788677216,-0.11278605461120605,9.888733863830566,0.012199999764561653,-0.015099999494850636,0.07009999454021454,0,0.06099999926066736,-0.06099999926066736
-0.12764926254749298,-0.08741708844900131,9.89695930480957,0.03179999813437462,0.004399999976158142,0.07989999651908875,0,0.06099999926066736,0
-0.11844594776630402,-0.11415553838014603,9.872931480407715,0.04129999876022339,-0.014999999664723873,0.05049999803304672,0,-0.06099999926066736,0.06099999926066736
-0.1561785638332367,-0.10420523583889008,9.900923728942871,0.0017999999690800905,-0.0050999997183680534,0.07989999651908875,-0.06099999926066736,0.1830000044521087,-0.06099999926066736
-0.14803828299045563,-0.11001835763454437,9.917376518249512,0.01209999993443489,-0.014699999243021011,0.09950000047683716,0.1830000044521087,-0.06099999926066736,-0.12199999852133472
-0.13600023090839386,-0.11485464125871658,9.892142295837402,0.02149999886751175,-0.014999999664723873,0.07009999454021454,0,0.06099999926066736,-0.06099999926066736
-0.14773182570934296,-0.09245449304580688,9.887372970581055,0.011699999682605267,0.004399999976158142,0.07009999454021454,0,0.1830000044521087,0
-0.14658261835575104,-0.09850703179836273,9.92492389678955,0.012199999764561653,-0.005200000014156103,0.10929999500513077,-0.1830000044521087,0.12199999852133472,0.1830000044521087
-0.15268303453922272,-0.09495404362678528,9.906364440917969,0.01249999925494194,0.004999999888241291,0.08969999849796295,0,0,0
-0.1428859531879425,-0.0995413288474083,9.892659187316895,0.022299999371170998,-0.004699999932199717,0.07009999454021454,0.06099999926066736,0.12199999852133472,0
-0.16396450996398926,-0.0944177433848381,9.91069221496582,-0.0066999997943639755,0.004799999762326479,0.08969999849796295,0.06099999926066736,0,0.06099999926066736
-0.11621455103158951,-0.1332995742559433,9.871485710144043,0.0421999990940094,-0.03449999913573265,0.05049999803304672,0.12199999852133472,0.06099999926066736,-0.06099999926066736
-0.1433647871017456,-0.11232636868953705,9.910194396972656,0.022699998691678047,-0.015199999324977398,0.08969999849796295,0.12199999852133472,-0.06099999926066736,-0.06099999926066736
-0.17384777963161469,-0.08283937722444534,9.917913436889648,-0.016599999740719795,0.013799999840557575,0.09950000047683716,-0.06099999926066736,0.06099999926066736,0
-0.14483004808425903,-0.11497914046049118,9.90095329284668,0.012899999506771564,-0.025100000202655792,0.07989999651908875,-0.06099999926066736,0.12199999852133472,-0.1830000044521087
-0.15232868492603302,-0.10851480066776276,9.890993118286133,0.013199999928474426,-0.015099999494850636,0.07009999454021454,0,-0.06099999926066736,-0.12199999852133472
-0.15809392929077148,-0.09921572357416153,9.889509201049805,0.0031999999191612005,-0.0052999998442828655,0.07009999454021454,0.06099999926066736,0,0
-0.1597411334514618,-0.09009859710931778,9.908049583435059,0.0031999999191612005,0.00419999985024333,0.08969999849796295,0.06099999926066736,0.06099999926066736,-0.06099999926066736
-0.13346238434314728,-0.07417237013578415,9.935802459716797,0.03280000016093254,0.02369999885559082,0.11909999698400497,-0.12199999852133472,0.06099999926066736,-0.12199999852133472
-0.14403517544269562,-0.10740388184785843,9.91228199005127,0.013199999928474426,-0.014999999664723873,0.09950000047683716,0,0.06099999926066736,-0.06099999926066736
-0.14147816598415375,-0.11514194309711456,9.9215726852417,0.023000000044703484,-0.024699999019503593,0.10929999500513077,0,0.06099999926066736,-0.06099999926066736
-0.1645582765340805,-0.1111484244465828,9.920921325683594,-0.006099999882280827,-0.014800000004470348,0.09950000047683716,0.12199999852133472,0,-0.12199999852133472
-0.13359645009040833,-0.10426269471645355,9.885209083557129,0.03269999846816063,-0.005200000014156103,0.07009999454021454,-0.06099999926066736,0,0
-0.14043429493904114,-0.10466492176055908,9.905923843383789,0.023099999874830246,-0.005200000014156103,0.08969999849796295,0.12199999852133472,0.06099999926066736,-0.06099999926066736
-0.1535545140504837,-0.08280107378959656,9.897466659545898,0.003599999938160181,0.013799999840557575,0.07989999651908875,0,0.12199999852133472,-0.1830000044521087
-0.1472434103488922,-0.11563993990421295,9.897850036621094,0.013599999248981476,-0.025100000202655792,0.07989999651908875,0,0.06099999926066736,-0.06099999926066736
-0.12100294977426529,-0.1336730718612671,9.90638256072998,0.042799998074769974,-0.03460000082850456,0.08969999849796295,-0.06099999926066736,-0.06099999926066736,0.06099999926066736
-0.13947661221027374,-0.10861056298017502,9.869579315185547,0.022699998691678047,-0.014599999412894249,0.05049999803304672,0.06099999926066736,0.12199999852133472,-0.12199999852133472
-0.14933115243911743,-0.13033077120780945,9.882153511047363,0.013100000098347664,-0.03399999812245369,0.06030000001192093,-0.06099999926066736,0,-0.06099999926066736
-0.15221376717090607,-0.12607866525650024,9.89576244354248,0.012999999336898327,-0.03359999880194664,0.07989999651908875,0,0,0
-0.1557859182357788,-0.14216768741607666,9.891462326049805,0.0030999998562037945,-0.0429999977350235,0.07009999454021454,-0.06099999926066736,0.12199999852133472,-0.06099999926066736
-0.12671072781085968,-0.12838667631149292,9.891108512878418,0.032499998807907104,-0.03269999846816063,0.07009999454021454,0.06099999926066736,0.1830000044521087,0
-0.13274411857128143,-0.12519758939743042,9.900254249572754,0.03269999846816063,-0.032499998807907104,0.07989999651908875,0.12199999852133472,0.12199999852133472,-0.12199999852133472
-0.1256093978881836,-0.12461341172456741,9.889843940734863,0.03269999846816063,-0.032499998807907104,0.07009999454021454,0.06099999926066736,0.06099999926066736,-0.12199999852133472
-0.14743493497371674,-0.12655749917030334,9.882183074951172,0.013100000098347664,-0.03229999914765358,0.06030000001192093,0.12199999852133472,0,-0.12199999852133472
-0.1534491777420044,-0.12639470398426056,9.907235145568848,0.0031999999191612005,-0.03240000084042549,0.08969999849796295,0.06099999926066736,0,-0.06099999926066736
-0.13304099440574646,-0.12351207435131073,9.946672439575195,0.032499998807907104,-0.022599998861551285,0.1289999932050705,0.12199999852133472,0.06099999926066736,-0.1830000044521087
-0.14972379803657532,-0.12220005691051483,9.90682315826416,0.012899999506771564,-0.02279999852180481,0.08969999849796295,0.12199999852133472,0.12199999852133472,0
-0.18002481758594513,-0.10916602611541748,9.915596008300781,-0.01599999889731407,-0.013199999928474426,0.09950000047683716,0.1830000044521087,0,0
-0.16267164051532745,-0.09245449304580688,9.920671463012695,0.003499999875202775,0.005699999630451202,0.09950000047683716,0.06099999926066736,0.12199999852133472,0
-0.15921442210674286,-0.12672030925750732,9.879989624023438,0.0037999998312443495,-0.03319999948143959,0.06030000001192093,-0.06099999926066736,0,-0.06099999926066736
-0.15905161201953888,-0.14345099031925201,9.902484893798828,0.003700000001117587,-0.042500000447034836,0.08969999849796295,-0.12199999852133472,0.06099999926066736,-0.06099999926066736
-0.1456536501646042,-0.13261961936950684,9.913661003112793,0.013599999248981476,-0.032099999487400055,0.09959999471902847,0,0.12199999852133472,-0.06099999926066736
-0.14477258920669556,-0.12604035437107086,9.89228630065918,0.013799999840557575,-0.03179999813437462,0.07009999454021454,-0.06099999926066736,0.12199999852133472,0
-0.12852075695991516,-0.11548671126365662,9.888052940368652,0.033299997448921204,-0.02159999869763851,0.07009999454021454,0,-0.06099999926066736,-0.06099999926066736
-0.13985010981559753,-0.12609781324863434,9.898176193237305,0.023099999874830246,-0.031099999323487282,0.07989999651908875,0,0.12199999852133472,0
-0.13439132273197174,-0.10657070577144623,9.8982515335083,0.02319999970495701,-0.011399999260902405,0.07989999651908875,0,0.06099999926066736,-0.06099999926066736
-0.13435302674770355,-0.12555193901062012,9.874549865722656,0.023099999874830246,-0.03059999831020832,0.06030000001192093,0.06099999926066736,0.12199999852133472,0.06099999926066736
-0.13678553700447083,-0.13513831794261932,9.939940452575684,0.02329999953508377,-0.040300000458955765,0.11919999867677689,-0.06099999926066736,0.12199999852133472,-0.06099999926066736
-0.1418037712574005,-0.1526351422071457,9.914647102355957,0.023399999365210533,-0.04959999769926071,0.09959999471902847,0,0,0.06099999926066736
-0.15564225614070892,-0.11470141261816025,9.931024551391602,0.0037999998312443495,-0.010300000198185444,0.10939999669790268,0,-0.12199999852133472,-0.06099999926066736
-0.13523408770561218,-0.13233232498168945,9.926982879638672,0.022699998691678047,-0.029399998486042023,0.10939999669790268,0,-0.06099999926066736,-0.06099999926066736
-0.15596787631511688,-0.13766659796237946,9.863938331604004,0.00279999990016222,-0.03869999945163727,0.040699999779462814,0.06099999926066736,0.06099999926066736,-0.12199999852133472
-0.14379575848579407,-0.1330888867378235,9.885457992553711,0.01269999984651804,-0.028699999675154686,0.07009999454021454,0.06099999926066736,0,-0.06099999926066736
-0.14756901562213898,-0.12072522938251495,9.886673927307129,0.01249999925494194,-0.01889999955892563,0.07009999454021454,0,0.06099999926066736,-0.06099999926066736
-0.1405109167098999,-0.10269209742546082,9.871609687805176,0.022199999541044235,0.0005999999702908099,0.05049999803304672,0.06099999926066736,0.06099999926066736,-0.06099999926066736
-0.13677595555782318,-0.11821610480546951,9.8836669921875,0.022099999710917473,-0.01889999955892563,0.07009999454021454,0,0.06099999926066736,-0.12199999852133472
-0.10254845023155212,-0.1364694982767105,9.896902084350586,0.0608999989926815,-0.038100000470876694,0.07989999651908875,0,0.06099999926066736,-0.1830000044521087
-0.13534902036190033,-0.12122321873903275,9.914475440979004,0.021699998527765274,-0.018400000408291817,0.09959999471902847,0,0.06099999926066736,0
-0.14131537079811096,-0.10127473622560501,9.917482376098633,0.021699998527765274,0.0010999999940395355,0.09959999471902847,-0.06099999926066736,0.1830000044521087,-0.06099999926066736
-0.13547350466251373,-0.10939586907625198,9.906545639038086,0.02199999988079071,-0.00839999970048666,0.08980000019073486,0.06099999926066736,0,-0.06099999926066736
-0.14023318886756897,-0.11601343750953674,9.884490013122559,0.021699998527765274,-0.01809999905526638,0.07009999454021454,0,-0.12199999852133472,-0.06099999926066736
-0.14587391912937164,-0.12447933107614517,9.92171573638916,0.011500000022351742,-0.017999999225139618,0.10939999669790268,0.06099999926066736,0,0
-0.15023137629032135,-0.12173078954219818,9.918612480163574,0.011399999260902405,-0.01809999905526638,0.09959999471902847,-0.06099999926066736,0.12199999852133472,-0.06099999926066736
-0.13864342868328094,-0.1345924437046051,9.911630630493164,0.021299999207258224,-0.03720000013709068,0.08980000019073486,0.06099999926066736,0.06099999926066736,0
-0.14769351482391357,-0.10128431022167206,9.935439109802246,0.011599999852478504,0.0017999999690800905,0.11919999867677689,-0.06099999926066736,0.12199999852133472,0
-0.15621687471866608,-0.11376288533210754,9.898300170898438,0.002099999925121665,-0.007699999958276749,0.07999999821186066,-0.06099999926066736,0,-0.06099999926066736
-0.18370230495929718,-0.1291336715221405,9.914034843444824,-0.026999998837709427,-0.026999998837709427,0.09959999471902847,0.1830000044521087,0.06099999926066736,-0.06099999926066736
-0.15092089772224426,-0.10985555499792099,9.880037307739258,0.01209999993443489,-0.007799999788403511,0.06030000001192093,0,0.12199999852133472,-0.06099999926066736
-0.13768574595451355,-0.11722011864185333,9.892094612121582,0.02199999988079071,-0.017400000244379044,0.07019999623298645,0.06099999926066736,-0.06099999926066736,0
-0.18344374001026154,-0.11509406566619873,9.894248962402344,-0.026899999007582664,-0.017400000244379044,0.07999999821186066,-0.1830000044521087,0,0
-0.12006442993879318,-0.12303323298692703,9.896288871765137,0.04129999876022339,-0.016699999570846558,0.07999999821186066,0.06099999926066736,0.06099999926066736,-0.06099999926066736
-0.1472625583410263,-0.12355995923280716,9.888177871704102,0.011899999342858791,-0.016699999570846558,0.07019999623298645,-0.06099999926066736,0.1830000044521087,-0.06099999926066736
-0.12387599796056747,-0.11380119621753693,9.916496276855469,0.04149999842047691,-0.0066999997943639755,0.09959999471902847,0,0.06099999926066736,-0.06099999926066736
-0.1362396478652954,-0.1272374540567398,9.874502182006836,0.021800000220537186,-0.025999998673796654,0.06039999797940254,0,-0.06099999926066736,-0.06099999926066736
-0.12957420945167542,-0.11194329708814621,9.905932426452637,0.031099999323487282,-0.006399999838322401,0.08980000019073486,-0.06099999926066736,0.06099999926066736,-0.06099999926066736
-0.18431521952152252,-0.12497732788324356,9.871935844421387,-0.02709999866783619,-0.025499999523162842,0.050599999725818634,0,0,0
-0.13816459476947784,-0.1154005229473114,9.92807388305664,0.021699998527765274,-0.015599999576807022,0.10939999669790268,0.06099999926066736,0.12199999852133472,-0.12199999852133472
-0.14755943417549133,-0.13574165105819702,9.91234016418457,0.002300000051036477,-0.025299999862909317,0.09959999471902847,-0.06099999926066736,-0.06099999926066736,0
-0.17173129320144653,-0.11603259295225143,9.946854591369629,-0.007599999662488699,-0.014699999243021011,0.1289999932050705,-0.06099999926066736,-0.06099999926066736,-0.06099999926066736
-0.13854767382144928,-0.13645035028457642,9.886941909790039,0.021299999207258224,-0.033799998462200165,0.07019999623298645,0.1830000044521087,0.1830000044521087,-0.12199999852133472
-0.1406354010105133,-0.11069831252098083,9.908279418945312,0.021800000220537186,-0.004799999762326479,0.08980000019073486,-0.12199999852133472,0.12199999852133472,-0.12199999852133472
-0.14471513032913208,-0.11121545732021332,9.923975944519043,0.012299999594688416,-0.0044999998062849045,0.10939999669790268,0.06099999926066736,0,0
-0.12460383772850037,-0.12342588603496552,9.888713836669922,0.03189999982714653,-0.014499999582767487,0.07019999623298645,-0.12199999852133472,0,0
-0.11559205502271652,-0.11711476743221283,9.894776344299316,0.04169999808073044,-0.014099999330937862,0.07999999821186066,-0.12199999852133472,0,-0.1830000044521087
-0.14783717691898346,-0.10241437703371048,9.897753715515137,0.012199999764561653,0.005699999630451202,0.07999999821186066,-0.06099999926066736,0.1830000044521087,-0.12199999852133472
-0.12779290974140167,-0.11338938772678375,9.89020824432373,0.03229999914765358,-0.0037999998312443495,0.07019999623298645,0.06099999926066736,0.06099999926066736,0.06099999926066736
-0.13204501569271088,-0.11317870020866394,9.900742530822754,0.03240000084042549,-0.003999999724328518,0.07999999821186066,0.12199999852133472,0.12199999852133472,-0.12199999852133472
-0.14392025768756866,-0.1135043129324913,9.900157928466797,0.013100000098347664,-0.004299999680370092,0.07999999821186066,0,0,0.06099999926066736
-0.13914142549037933,-0.13230359554290771,9.844315528869629,0.02279999852180481,-0.023799998685717583,0.021199999377131462,0.06099999926066736,0,-0.12199999852133472
-0.15715539455413818,-0.10978851467370987,9.920720100402832,0.0031999999191612005,-0.004399999976158142,0.09959999471902847,0.06099999926066736,0.12199999852133472,0.06099999926066736
-0.16761326789855957,-0.11512279510498047,9.902447700500488,-0.006099999882280827,-0.014299999922513962,0.08980000019073486,0.1830000044521087,0,0
-0.15023137629032135,-0.12123279273509979,9.919301986694336,0.013199999928474426,-0.014699999243021011,0.09959999471902847,0.06099999926066736,0.06099999926066736,-0.12199999852133472
-0.14147816598415375,-0.12933477759361267,9.88197135925293,0.02290000021457672,-0.024399999529123306,0.06039999797940254,-0.06099999926066736,0,-0.06099999926066736
-0.12183613330125809,-0.10401370376348495,9.936588287353516,0.0421999990940094,0.0050999997183680534,0.11919999867677689,0.12199999852133472,0.12199999852133472,0
-0.133443221449852,-0.12574347853660583,9.9000244140625,0.03240000084042549,-0.024299999698996544,0.07999999821186066,0.06099999926066736,-0.12199999852133472,-0.12199999852133472
-0.15060485899448395,-0.11371500045061111,9.926772117614746,0.012299999594688416,-0.004900000058114529,0.10939999669790268,0,0,-0.12199999852133472
-0.13731226325035095,-0.12778332829475403,9.903557777404785,0.021900000050663948,-0.02419999986886978,0.08980000019073486,0,0.12199999852133472,0
-0.13582785427570343,-0.11329362541437149,9.89664363861084,0.02199999988079071,-0.004600000102072954,0.07999999821186066,-0.06099999926066736,0.12199999852133472,-0.06099999926066736
-0.15300863981246948,-0.09445604681968689,9.887124061584473,0.012399999424815178,0.01489999983459711,0.07019999623298645,0.06099999926066736,0.12199999852133472,-0.12199999852133472
-0.1455100029706955,-0.10532572120428085,9.906765937805176,0.012600000016391277,0.004900000058114529,0.08980000019073486,-0.06099999926066736,0,-0.06099999926066736
-0.15192647278308868,-0.11867579072713852,9.921476364135742,0.012399999424815178,-0.014299999922513962,0.07019999623298645,0.12199999852133472,0,-0.1830000044521087
-0.1372356414794922,-0.11431834101676941,9.898089408874512,0.01209999993443489,-0.014299999922513962,0.09959999471902847,0,0.06099999926066736,-0.12199999852133472
-0.15598702430725098,-0.12235328555107117,9.925995826721191,0.002199999988079071,-0.014499999582767487,0.10939999669790268,0.1830000044521087,0.24399999704266945,-0.1830000044521087
-0.1569734364748001,-0.10606313496828079,9.944584846496582,0.002899999963119626,-0.005200000014156103,0.1289999932050705,0.12199999852133472,0.06099999926066736,-0.12199999852133472
-0.12623189389705658,-0.12802274525165558,9.903451919555664,0.03240000084042549,-0.025100000202655792,0.08980000019073486,0,-0.06099999926066736,0.06099999926066736
-0.16288232803344727,-0.12219047546386719,9.919053077697754,-0.006899999920278788,-0.01529999915510416,0.09959999471902847,0.06099999926066736,0.06099999926066736,-0.1830000044521087
-0.1617235392332077,-0.1360289603471756,9.916171073913574,0.003000000026077032,-0.03500000014901161,0.09959999471902847,-0.06099999926066736,0.06099999926066736,0
-0.13665145635604858,-0.11407892405986786,9.902007102966309,0.022699998691678047,-0.005399999674409628,0.07999999821186066,0.1830000044521087,0.06099999926066736,-0.12199999852133472
-0.1463431864976883,-0.12171164155006409,9.89713191986084,0.013100000098347664,-0.015699999406933784,0.07999999821186066,-0.1830000044521087,0.06099999926066736,-0.12199999852133472
-0.14956098794937134,-0.11476845294237137,9.911861419677734,0.013199999928474426,-0.005399999674409628,0.08980000019073486,-0.06099999926066736,0.06099999926066736,-0.06099999926066736
-0.16134047508239746,-0.10635044425725937,9.89272689819336,0.003599999938160181,-0.005200000014156103,0.07019999623298645,0,0.12199999852133472,0
-0.14980041980743408,-0.1305510252714157,9.906478881835938,0.013700000010430813,-0.024799998849630356,0.08980000019073486,0,0,0
-0.1595974862575531,-0.11276689916849136,9.88278579711914,0.0038999998942017555,-0.005200000014156103,0.06039999797940254,-0.06099999926066736,0.12199999852133472,0
-0.13877750933170319,-0.12291831523180008,9.900273323059082,0.023799998685717583,-0.014800000004470348,0.07999999821186066,-0.06099999926066736,0.12199999852133472,0
-0.14400644600391388,-0.15531665086746216,9.919905662536621,0.0142000000923872,-0.05339999869465828,0.09959999471902847,0,0.12199999852133472,-0.1830000044521087
-0.14689864218235016,-0.11937489360570908,9.898223876953125,0.014299999922513962,-0.0139999995008111,0.07999999821186066,0.06099999926066736,-0.12199999852133472,-0.06099999926066736
-0.1660139411687851,-0.1342380940914154,9.927748680114746,-0.005499999970197678,-0.03350000083446503,0.10939999669790268,0,0.06099999926066736,-0.06099999926066736
-0.1414685994386673,-0.10004890710115433,9.911736488342285,0.02369999885559082,0.00559999980032444,0.08980000019073486,0,0.12199999852133472,-0.12199999852133472
-0.15012602508068085,-0.10144711285829544,9.900541305541992,0.014099999330937862,0.005499999970197678,0.07999999821186066,0.06099999926066736,0.06099999926066736,-0.06099999926066736
-0.14226345717906952,-0.11255621165037155,9.92607307434082,0.023799998685717583,-0.004299999680370092,0.10939999669790268,0.06099999926066736,-0.06099999926066736,0
-0.15721285343170166,-0.11457692086696625,9.899353981018066,0.003999999724328518,-0.0044999998062849045,0.07999999821186066,0.06099999926066736,0.12199999852133472,0
-0.14496412873268127,-0.11900140345096588,9.93900203704834,0.0139999995008111,-0.014299999922513962,0.11919999867677689,-0.06099999926066736,0.12199999852133472,-0.06099999926066736
-0.11518025398254395,-0.12957420945167542,9.905099868774414,-0.034199997782707214,-0.033399999141693115,0.07999999821186066,0.12199999852133472,0.12199999852133472,-0.12199999852133472
-0.11518025398254395,-0.12957420945167542,9.905099868774414,0.04399999976158142,-0.02369999885559082,0.08980000019073486,0.06099999926066736,0,-0.06099999926066736
-0.1536981612443924,-0.11542925238609314,9.915356636047363,0.014399999752640724,-0.02369999885559082,0.1193000003695488,-0.06099999926066736,-0.06099999926066736,0.06099999926066736
-0.1321982443332672,-0.09648633003234863,9.897994041442871,0.004399999976158142,-0.013599999248981476,0.09959999471902847,-0.06099999926066736,0,-0.06099999926066736
-0.13550224900245667,-0.12444102764129639,9.876091957092285,0.02329999953508377,-0.013599999248981476,0.06039999797940254,-0.06099999926066736,0,-0.12199999852133472
-0.13193966448307037,-0.12076353281736374,9.92051887512207,0.03269999846816063,-0.013299999758601189,0.09959999471902847,-0.06099999926066736,0.12199999852133472,-0.12199999852133472
-0.18515798449516296,-0.10208875685930252,9.918066024780273,-0.02539999969303608,0.006300000008195639,0.09959999471902847,0,0.12199999852133472,0
-0.14091312885284424,-0.11400230973958969,9.893712997436523,0.023599999025464058,-0.003399999812245369,0.07999999821186066,0.06099999926066736,-0.06099999926066736,0
-0.13497550785541534,-0.11757445335388184,9.892630577087402,0.023099999874830246,-0.013199999928474426,0.07019999623298645,0.12199999852133472,0,0
-0.1555943787097931,-0.11684662103652954,9.914810180664062,0.003399999812245369,-0.013399999588727951,0.09959999471902847,0.06099999926066736,0.1830000044521087,0
-0.14318284392356873,-0.12166375666856766,9.883848190307617,0.02319999970495701,-0.013399999588727951,0.07019999623298645,0.06099999926066736,0.06099999926066736,0
-0.13107775151729584,-0.1266532689332962,9.941108703613281,0.032899998128414154,-0.02319999970495701,0.1289999932050705,0,0,0
-0.14577814936637878,-0.138116717338562,9.914599418640137,0.013199999928474426,-0.03280000016093254,0.09959999471902847,-0.06099999926066736,0.12199999852133472,-0.12199999852133472
-0.1548856943845749,-0.1286548227071762,9.899823188781738,0.003700000001117587,-0.022499999031424522,0.07999999821186066,0,0.06099999926066736,0.06099999926066736
-0.16133089363574982,-0.11040142923593521,9.8975248336792,0.0037999998312443495,-0.002899999963119626,0.07999999821186066,-0.06099999926066736,0,0
-0.16345694661140442,-0.14256034791469574,9.900053024291992,-0.0058999997563660145,-0.03179999813437462,0.07999999821186066,0.06099999926066736,0,-0.12199999852133472
-0.15327680110931396,-0.12832920253276825,9.93343734741211,0.0037999998312443495,-0.02199999988079071,0.1193000003695488,0.1830000044521087,0.06099999926066736,-0.06099999926066736
-0.15257768332958221,-0.11359050869941711,9.90274429321289,0.013199999928474426,-0.002899999963119626,0.08980000019073486,-0.06099999926066736,0.12199999852133472,0
-0.15257768332958221,-0.11460564285516739,9.888934135437012,0.013399999588727951,-0.002699999837204814,0.07019999623298645,-0.06099999926066736,0.1830000044521087,-0.12199999852133472
-0.15260641276836395,-0.11940362304449081,9.889498710632324,0.013700000010430813,-0.012199999764561653,0.07019999623298645,-0.06099999926066736,0.12199999852133472,0.06099999926066736
-0.12786951661109924,-0.09844958037137985,9.904601097106934,0.033299997448921204,0.007400000002235174,0.08980000019073486,0,0.06099999926066736,-0.06099999926066736
-0.15979859232902527,-0.1275918036699295,9.896087646484375,0.003999999724328518,-0.021699998527765274,0.07999999821186066,0.06099999926066736,0.1830000044521087,-0.06099999926066736
-0.15613067150115967,-0.12469960004091263,9.917022705078125,0.004399999976158142,-0.02159999869763851,0.09969999641180038,-0.06099999926066736,0.06099999926066736,-0.06099999926066736
-0.12434525787830353,-0.12722787261009216,9.9227876663208,0.04339999705553055,-0.021299999207258224,0.10949999839067459,-0.12199999852133472,0,0
-0.151160329580307,-0.13310803472995758,9.887162208557129,0.013799999840557575,-0.02070000022649765,0.07019999623298645,-0.06099999926066736,0,-0.06099999926066736
-0.17828182876110077,-0.12077310681343079,9.941070556640625,-0.015399999916553497,-0.010699999518692493,0.1290999948978424,0,0.06099999926066736,-0.06099999926066736
-0.16906894743442535,-0.10658986121416092,9.898558616638184,-0.005399999674409628,-0.0007999999797903001,0.08009999990463257,0,0.06099999926066736,-0.1830000044521087
-0.16466361284255981,-0.13149912655353546,9.898195266723633,-0.005200000014156103,-0.02019999921321869,0.08009999990463257,0.06099999926066736,0.06099999926066736,-0.06099999926066736
-0.14310622215270996,-0.1324472278356552,9.904659271240234,0.02410000003874302,-0.02019999921321869,0.08989999443292618,0.06099999926066736,0.12199999852133472,-0.12199999852133472
-0.14653471112251282,-0.12093590945005417,9.910538673400879,0.014399999752640724,-0.010499999858438969,0.08989999443292618,0,0.06099999926066736,-0.12199999852133472
-0.1311926692724228,-0.12694057822227478,9.897371292114258,0.033799998462200165,-0.020099999383091927,0.08009999990463257,0,0,-0.06099999926066736
-0.15877388417720795,-0.12287043035030365,9.900483131408691,0.004299999680370092,-0.010099999606609344,0.08009999990463257,-0.06099999926066736,0,0.06099999926066736
-0.15864938497543335,-0.11925039440393448,9.914255142211914,0.004299999680370092,-0.00989999994635582,0.09969999641180038,0,0,-0.12199999852133472
-0.149407759308815,-0.1226501613855362,9.924080848693848,0.013899999670684338,-0.009800000116229057,0.10949999839067459,0,0.06099999926066736,0.12199999852133472
-0.14698483049869537,-0.14341269433498383,9.893828392028809,0.013899999670684338,-0.029099998995661736,0.08009999990463257,0.12199999852133472,0.12199999852133472,0
-0.15847700834274292,-0.1272374540567398,9.898837089538574,0.004399999976158142,-0.01939999870955944,0.08009999990463257,0.12199999852133472,0.12199999852133472,-0.06099999926066736
-0.12481452524662018,-0.12106041610240936,9.89063835144043,0.03370000049471855,-0.009800000116229057,0.07029999792575836,0,0.12199999852133472,-0.1830000044521087
-0.14181335270404816,-0.11363838613033295,9.937823295593262,0.02410000003874302,0,0.1193000003695488,0.06099999926066736,0.12199999852133472,-0.12199999852133472
-0.1515338122844696,-0.13807840645313263,9.907857894897461,0.014399999752640724,-0.02929999865591526,0.08989999443292618,-0.06099999926066736,0.06099999926066736,-0.1830000044521087
-0.12749603390693665,-0.12039003521203995,9.925125122070312,0.033900000154972076,-0.009499999694526196,0.10949999839067459,-0.06099999926066736,0,-0.12199999852133472
-0.14748281240463257,-0.12778332829475403,9.93674087524414,0.014099999330937862,-0.01899999938905239,0.1193000003695488,-0.24399999704266945,0,-0.12199999852133472
-0.12374191731214523,-0.12150094658136368,9.912291526794434,0.04360000044107437,-0.008499999530613422,0.09969999641180038,0,0.06099999926066736,-0.06099999926066736
-0.16708654165267944,-0.12354081124067307,9.903605461120605,-0.005200000014156103,-0.008499999530613422,0.08989999443292618,0,0.06099999926066736,0
-0.14576856791973114,-0.12386641651391983,9.903451919555664,0.014499999582767487,-0.008499999530613422,0.08989999443292618,0,0,-0.06099999926066736
-0.1682644933462143,-0.12622231245040894,9.902475357055664,-0.004999999888241291,-0.018299998715519905,0.08989999443292618,0,0,-0.06099999926066736
-0.1451748162508011,-0.10680054873228073,9.898309707641602,0.014499999582767487,0.0011999999405816197,0.08009999990463257,0,0.06099999926066736,-0.06099999926066736
-0.13287818431854248,-0.12508267164230347,9.908173561096191,0.03449999913573265,-0.01809999905526638,0.08989999443292618,0.06099999926066736,0,-0.06099999926066736
-0.12979446351528168,-0.13699620962142944,9.918909072875977,0.03439999744296074,-0.0279999990016222,0.09969999641180038,0,0.06099999926066736,0
-0.16356228291988373,-0.10305601358413696,9.922576904296875,-0.0044999998062849045,0.011099999770522118,0.10949999839067459,0.06099999926066736,0.12199999852133472,-0.1830000044521087
-0.14716678857803345,-0.10341036319732666,9.890313148498535,0.01529999915510416,0.010900000110268593,0.07029999792575836,0,0.1830000044521087,-0.12199999852133472
-0.13766659796237946,-0.12056242674589157,9.907944679260254,0.025599999353289604,-0.008599999360740185,0.08989999443292618,0,0,0
-0.1458835005760193,-0.11337023973464966,9.928984642028809,0.015599999576807022,0.0010999999940395355,0.10949999839067459,0.12199999852133472,0.12199999852133472,0.06099999926066736
-0.10941501706838608,-0.12493901699781418,9.911210060119629,0.05460000038146973,-0.01850000023841858,0.08989999443292618,0.1830000044521087,0,0.12199999852133472
-0.1454716920852661,-0.09451350569725037,9.892582893371582,0.015099999494850636,0.01979999989271164,0.07029999792575836,0,0,0.06099999926066736
-0.14956098794937134,-0.10703039914369583,9.924732208251953,0.014999999664723873,0.00019999999494757503,0.10949999839067459,-0.06099999926066736,0.1830000044521087,-0.12199999852133472
-0.13594278693199158,-0.1292390078306198,9.94472885131836,0.025100000202655792,-0.01899999938905239,0.1290999948978424,0.06099999926066736,0,-0.06099999926066736
-0.17864574491977692,-0.13330914080142975,9.888522148132324,-0.013899999670684338,-0.01899999938905239,0.07029999792575836,0.12199999852133472,0,-0.06099999926066736
-0.1441979855298996,-0.14351801574230194,9.894153594970703,0.015199999324977398,-0.02879999950528145,0.08009999990463257,0,-0.06099999926066736,-0.06099999926066736
-0.13534902036190033,-0.13972561061382294,9.879433631896973,0.02449999935925007,-0.0284000001847744,0.060499999672174454,-0.06099999926066736,0.12199999852133472,-0.06099999926066736
-0.15129438042640686,-0.11500786989927292,9.918813705444336,0.014800000004470348,-0.008499999530613422,0.09969999641180038,0.12199999852133472,0,-0.06099999926066736
-0.15035586059093475,-0.13887327909469604,9.871456146240234,0.014599999412894249,-0.0279999990016222,0.05069999769330025,-0.12199999852133472,0.12199999852133472,-0.06099999926066736
-0.12707464396953583,-0.11690407991409302,9.925776481628418,0.034199997782707214,-0.007999999448657036,0.10949999839067459,0,0,-0.12199999852133472
-0.13962984085083008,-0.10352528095245361,9.907666206359863,0.02410000003874302,0.011399999260902405,0.08989999443292618,0.06099999926066736,0.12199999852133472,0.06099999926066736
-0.11773726344108582,-0.1364886462688446,9.899956703186035,0.04360000044107437,-0.02759999968111515,0.08009999990463257,-0.12199999852133472,0.12199999852133472,0.06099999926066736
-0.16072756052017212,-0.10966401547193527,9.884490013122559,0.004600000102072954,0.001999999862164259,0.07029999792575836,0,0.12199999852133472,-0.06099999926066736
-0.1393425464630127,-0.1292773187160492,9.891108512878418,0.02419999986886978,-0.01730000041425228,0.07029999792575836,0.06099999926066736,0,-0.12199999852133472
-0.12553277611732483,-0.13475525379180908,9.928668022155762,0.03370000049471855,-0.026999998837709427,0.10949999839067459,-0.06099999926066736,0,-0.06099999926066736
-0.15794070065021515,-0.11730630695819855,9.931158065795898,0.00419999985024333,-0.007199999876320362,0.1193000003695488,-0.12199999852133472,0.06099999926066736,-0.06099999926066736
-0.17119498550891876,-0.13422852754592896,9.878084182739258,-0.005200000014156103,-0.026099998503923416,0.060499999672174454,0,0,-0.06099999926066736
-0.1523861587047577,-0.10279744863510132,9.886463165283203,0.014099999330937862,0.012899999506771564,0.07029999792575836,0,0.1830000044521087,-0.12199999852133472
-0.14685074985027313,-0.10807426273822784,9.9487886428833,0.014499999582767487,0.003000000026077032,0.1290999948978424,0.12199999852133472,0,-0.12199999852133472
-0.1488618701696396,-0.12491986900568008,9.897753715515137,0.014299999922513962,-0.016599999740719795,0.08009999990463257,0,0.06099999926066736,-0.06099999926066736
-0.16154158115386963,-0.11732546240091324,9.905444145202637,0.004600000102072954,-0.006799999624490738,0.08989999443292618,0.12199999852133472,-0.06099999926066736,-0.06099999926066736
-0.16210661828517914,-0.15106454491615295,9.910357475280762,0.004399999976158142,-0.03619999811053276,0.08989999443292618,-0.12199999852133472,0.12199999852133472,-0.12199999852133472
-0.13651737570762634,-0.11354261636734009,9.900943756103516,0.024000000208616257,0.0032999999821186066,0.08009999990463257,0.06099999926066736,0,-0.06099999926066736
-0.13314634561538696,-0.1240483745932579,9.925689697265625,0.033399999141693115,-0.006799999624490738,0.10949999839067459,0,0.12199999852133472,0.06099999926066736
-0.1548665463924408,-0.11448115110397339,9.921993255615234,0.00419999985024333,0.002899999963119626,0.10949999839067459,-0.06099999926066736,0.12199999852133472,-0.06099999926066736
-0.1261744350194931,-0.1306084841489792,9.898482322692871,0.03359999880194664,-0.016300000250339508,0.08009999990463257,0,0.12199999852133472,0
-0.16581283509731293,-0.11376288533210754,9.90721607208252,-0.0050999997183680534,0.0031999999191612005,0.08989999443292618,0,0.06099999926066736,0
-0.14052049815654755,-0.12765882909297943,9.89779281616211,0.02410000003874302,-0.016099998727440834,0.08009999990463257,0.12199999852133472,0.12199999852133472,-0.06099999926066736
-0.15727989375591278,-0.12246821075677872,9.90170955657959,0.004699999932199717,-0.006599999964237213,0.08009999990463257,0.06099999926066736,0,-0.12199999852133472
-0.15177324414253235,-0.12084972113370895,9.918593406677246,0.014399999752640724,-0.0066999997943639755,0.09969999641180038,0.06099999926066736,0,-0.06099999926066736
-0.162911057472229,-0.12926773726940155,9.920154571533203,-0.0050999997183680534,-0.016499999910593033,0.09969999641180038,0.06099999926066736,0.12199999852133472,-0.12199999852133472
-0.13476483523845673,-0.13013921678066254,9.907302856445312,0.024299999698996544,-0.016499999910593033,0.08989999443292618,0.12199999852133472,-0.06099999926066736,-0.1830000044521087
-0.1469273716211319,-0.10433930903673172,9.935736656188965,0.0142000000923872,0.012399999424815178,0.1193000003695488,0.06099999926066736,0.1830000044521087,-0.06099999926066736
-0.16322709619998932,-0.12515929341316223,9.897007942199707,-0.004799999762326479,-0.016899999231100082,0.08009999990463257,-0.06099999926066736,0.12199999852133472,-0.06099999926066736
-0.1558912694454193,-0.1361534595489502,9.909122467041016,0.005200000014156103,-0.02630000002682209,0.08989999443292618,0,0.1830000044521087,-0.06099999926066736
-0.13393163681030273,-0.10641747713088989,9.893204689025879,0.034699998795986176,0.002899999963119626,0.08009999990463257,-0.1830000044521087,0.12199999852133472,0
-0.1298614889383316,-0.11862790584564209,9.900915145874023,0.03460000082850456,-0.006199999712407589,0.08009999990463257,0.06099999926066736,-0.06099999926066736,-0.06099999926066736
-0.12337800115346909,-0.12706507742404938,9.924263000488281,0.04389999806880951,-0.01599999889731407,0.10949999839067459,0,0,-0.1830000044521087
-0.1657841056585312,-0.11380119621753693,9.883264541625977,-0.004999999888241291,0.003399999812245369,0.07029999792575836,0.12199999852133472,0.06099999926066736,-0.06099999926066736
-0.14358507096767426,-0.12268847227096558,9.930066108703613,0.02419999986886978,-0.006599999964237213,0.10949999839067459,0.1830000044521087,0,-0.06099999926066736
-0.12999556958675385,-0.110899418592453,9.889642715454102,0.03359999880194664,0.0026000000070780516,0.07029999792575836,0,0.12199999852133472,-0.06099999926066736
-0.15720327198505402,-0.1257147490978241,9.919388771057129,0.0044999998062849045,-0.01679999940097332,0.09969999641180038,0.06099999926066736,-0.06099999926066736,0
-0.15210843086242676,-0.13937127590179443,9.899947166442871,0.0139999995008111,-0.026499999687075615,0.08009999990463257,-0.06099999926066736,0.06099999926066736,-0.06099999926066736
-0.1533246785402298,-0.08902599662542343,9.926149368286133,0.004299999680370092,0.02239999920129776,0.10949999839067459,0,0.12199999852133472,0
-0.14150689542293549,-0.1190684363245964,9.889240264892578,0.023899998515844345,-0.006799999624490738,0.07029999792575836,0,0,-0.06099999926066736
-0.14340311288833618,-0.12068691849708557,9.87423324584961,0.023599999025464058,-0.0066999997943639755,0.060499999672174454,0.12199999852133472,0.12199999852133472,-0.24399999704266945
-0.11252748221158981,-0.12718956172466278,9.898626327514648,0.05329999700188637,-0.016899999231100082,0.08009999990463257,0.12199999852133472,0.12199999852133472,-0.06099999926066736
-0.12599247694015503,-0.11869494616985321,9.893301010131836,0.03399999812245369,-0.007400000002235174,0.08009999990463257,0,0,-0.06099999926066736
-0.16071797907352448,-0.12612654268741608,9.915987968444824,0.004999999888241291,-0.01730000041425228,0.09969999641180038,0,0.06099999926066736,-0.06099999926066736
-0.1413440853357315,-0.10112150758504868,9.859983444213867,0.024799998849630356,0.012000000104308128,0.04089999943971634,0,0.12199999852133472,-0.06099999926066736
-0.16488388180732727,-0.08864292502403259,9.901758193969727,-0.00419999985024333,0.021800000220537186,0.08009999990463257,0.06099999926066736,0.1830000044521087,-0.12199999852133472
-0.14471513032913208,-0.09455180913209915,9.910682678222656,0.015799999237060547,0.02159999869763851,0.08989999443292618,-0.12199999852133472,0.12199999852133472,-0.06099999926066736
-0.1482202410697937,-0.11474929749965668,9.91336441040039,0.016099998727440834,0.002300000051036477,0.09969999641180038,0,0.12199999852133472,-0.06099999926066736
-0.1647019237279892,-0.10031705349683762,9.903519630432129,-0.0030999998562037945,0.01209999993443489,0.08989999443292618,0,0.1830000044521087,-0.06099999926066736
-0.1265479326248169,-0.09928275644779205,9.909600257873535,0.0364999994635582,0.01209999993443489,0.08989999443292618,0.1830000044521087,0.12199999852133472,0
-0.1253603994846344,-0.10382215678691864,9.938350677490234,0.03680000081658363,0.011599999852478504,0.11939999461174011,0.06099999926066736,0.06099999926066736,-0.06099999926066736
-0.14308705925941467,-0.11107181012630463,9.934356689453125,0.026899999007582664,0.0015999999595806003,0.11939999461174011,0,-0.06099999926066736,-0.06099999926066736
-0.12158713489770889,-0.08598056435585022,9.949603080749512,0.045899998396635056,0.030700000002980232,0.1290999948978424,-0.12199999852133472,0.06099999926066736,-0.12199999852133472
-0.1535545140504837,-0.10642705857753754,9.883896827697754,0.006799999624490738,0.0015999999595806003,0.07029999792575836,0,-0.06099999926066736,0
-0.15705004334449768,-0.10339120775461197,9.89757251739502,0.0064999996684491634,0.011299999430775642,0.08009999990463257,0.06099999926066736,0.06099999926066736,-0.12199999852133472
-0.16164693236351013,-0.11263282597064972,9.918143272399902,0.006599999964237213,0.0013000000035390258,0.09969999641180038,-0.06099999926066736,0.24399999704266945,0
-0.16045939922332764,-0.11274775117635727,9.899602890014648,0.0072999997064471245,0.001500000013038516,0.08009999990463257,-0.12199999852133472,0,-0.06099999926066736
-0.15896542370319366,-0.092186339199543,9.914302825927734,0.0072999997064471245,0.021399999037384987,0.09969999641180038,0.06099999926066736,0,-0.1830000044521087
-0.15099751949310303,-0.11369584500789642,9.891289710998535,0.016999999061226845,0.0015999999595806003,0.07029999792575836,0.06099999926066736,0,0
-0.14528973400592804,-0.11566866934299469,9.899784088134766,0.016999999061226845,-0.008299999870359898,0.08009999990463257,-0.06099999926066736,0.1830000044521087,-0.12199999852133472
-0.1607658565044403,-0.10182061046361923,9.895293235778809,0.007699999958276749,0.011399999260902405,0.08009999990463257,-0.06099999926066736,0.1830000044521087,-0.1830000044521087
-0.13025414943695068,-0.10863929986953735,9.903223037719727,0.03759999945759773,0.0017999999690800905,0.08989999443292618,0.06099999926066736,0.12199999852133472,0
-0.1452801674604416,-0.12426864355802536,9.906306266784668,0.018299998715519905,-0.008100000210106373,0.08999999612569809,-0.06099999926066736,0.06099999926066736,-0.12199999852133472
-0.1225065141916275,-0.09507853537797928,9.889269828796387,0.04779999703168869,0.021399999037384987,0.07029999792575836,0,0.06099999926066736,-0.12199999852133472
-0.13834655284881592,-0.11159852892160416,9.931167602539062,0.028299998492002487,0.0016999999061226845,0.11939999461174011,0.06099999926066736,0,-0.06099999926066736
-0.14332649111747742,-0.09736739099025726,9.912693977355957,0.028299998492002487,0.011399999260902405,0.0997999981045723,-0.06099999926066736,0.06099999926066736,-0.06099999926066736
-0.14558662474155426,-0.09714712202548981,9.907934188842773,0.01860000006854534,0.011500000022351742,0.08999999612569809,0.12199999852133472,0,0
