Accelerometer_Gx,Accelerometer_Gy,Accelerometer_Gz,Accelerometer_X,Accelerometer_Y,Accelerometer_Z,Gyroscope_Z,Gyroscope_X,Gyroscope_Y
-0.13681425154209137,-0.08242757618427277,9.901546478271484,-0.0007999999797903001,0.02759999968111515,0.07970000058412552,0,0,-0.06099999926066736
-0.15245318412780762,-0.0983346551656723,9.867960929870605,-0.009099999442696571,0.0066999997943639755,0.0502999983727932,0.12199999852133472,0,0.06099999926066736
-0.1472817063331604,-0.10998962074518204,9.898807525634766,-0.007999999448657036,-0.002899999963119626,0.07970000058412552,-0.24399999704266945,0.06099999926066736,0
-0.1326962262392044,-0.12233413010835648,9.901948928833008,0.011599999852478504,-0.012799999676644802,0.07970000058412552,0.06099999926066736,0.1830000044521087,0
-0.135444775223732,-0.08514739573001862,9.905837059020996,0.0016999999061226845,0.02159999869763851,0.08949999511241913,0,0,-0.06099999926066736
-0.1192120909690857,-0.09165961295366287,9.888195991516113,0.01640000008046627,0.009099999442696571,0.0697999969124794,0,0.06099999926066736,-0.12199999852133472
-0.14395855367183685,-0.1094820573925972,9.92362117767334,-0.010900000110268593,-0.008899999782443047,0.10899999737739563,-0.12199999852133472,0.1830000044521087,-0.1830000044521087
-0.1327153891324997,-0.14056837558746338,9.8982515335083,0.008999999612569809,-0.037299998104572296,0.07959999889135361,0,0.06099999926066736,0.06099999926066736
-0.14821065962314606,-0.10858183354139328,9.8900728225708,-0.008100000210106373,-0.006199999712407589,0.06989999860525131,0.06099999926066736,-0.06099999926066736,0
-0.13631626963615417,-0.12320561707019806,9.912148475646973,0.0008999999845400453,-0.013399999588727951,0.09929999709129333,0,0.06099999926066736,0.06099999926066736
-0.15089216828346252,-0.10085335373878479,9.902619361877441,-0.0071000000461936,0.004699999932199717,0.08949999511241913,0,0.06099999926066736,0
-0.14883315563201904,-0.10009678453207016,9.872356414794922,-0.0050999997183680534,0.0030999998562037945,0.0502999983727932,0.06099999926066736,0.12199999852133472,0
-0.14941734075546265,-0.12210428714752197,9.86545181274414,-0.003599999938160181,-0.012000000104308128,0.05040000006556511,0.06099999926066736,0.06099999926066736,0.06099999926066736
-0.1309436857700348,-0.10205045342445374,9.89708423614502,0.01269999984651804,0.005699999630451202,0.07970000058412552,0.12199999852133472,0,0.06099999926066736
-0.11904928833246231,-0.08900684118270874,9.887545585632324,0.01719999872148037,0.011599999852478504,0.0697999969124794,-0.12199999852133472,0,0.12199999852133472
-0.15294159948825836,-0.10387004911899567,9.891951560974121,-0.009599999524652958,0.00139999995008111,0.0697999969124794,-0.12199999852133472,0.12199999852133472,-0.06099999926066736
-0.12354081124067307,-0.09163089096546173,9.887497901916504,0.01529999915510416,0.008799999952316284,0.0697999969124794,0.12199999852133472,0.06099999926066736,0
-0.1452418565750122,-0.12069649249315262,9.9173583984375,-0.011599999852478504,-0.01730000041425228,0.09919999539852142,0,0,0.06099999926066736
-0.14372871816158295,-0.11312124133110046,9.900359153747559,-0.011599999852478504,0.002199999988079071,0.050200000405311584,0.06099999926066736,0.12199999852133472,-0.06099999926066736
-0.14129620790481567,-0.09761639684438705,9.905089378356934,-0.0016999999061226845,0.002199999988079071,0.08940000087022781,-0.1830000044521087,0.12199999852133472,0
-0.11818736791610718,-0.11095688492059708,9.89779281616211,0.018199998885393143,-0.00699999975040555,0.07959999889135361,-0.06099999926066736,0,0.06099999926066736
-0.14941734075546265,-0.11567824333906174,9.90056037902832,-0.011099999770522118,-0.016599999740719795,0.07959999889135361,-0.12199999852133472,0.06099999926066736,0.06099999926066736
-0.14799997210502625,-0.11856086552143097,9.927183151245117,-0.010999999940395355,-0.016300000250339508,0.10909999907016754,0,0.1830000044521087,-0.06099999926066736
-0.14166970551013947,-0.08975382894277573,9.900254249572754,-0.000699999975040555,0.012999999336898327,0.07970000058412552,0,0.06099999926066736,0.06099999926066736
-0.16383042931556702,-0.11426088213920593,9.877767562866211,-0.029899999499320984,-0.0064999996684491634,0.05999999865889549,0.06099999926066736,-0.06099999926066736,0.06099999926066736
-0.1488427221775055,-0.10050859302282333,9.909907341003418,-0.010400000028312206,0.003000000026077032,0.08949999511241913,0.06099999926066736,0.06099999926066736,0.06099999926066736
-0.13145124912261963,-0.10749008506536484,9.894296646118164,0.00930000003427267,-0.006799999624490738,0.07959999889135361,0,0.06099999926066736,0.06099999926066736
-0.12671072781085968,-0.09572018682956696,9.890811920166016,0.009399999864399433,0.01269999984651804,0.0697999969124794,0.06099999926066736,0,-0.06099999926066736
-0.13478398323059082,-0.10940544307231903,9.869521141052246,-0.00029999998514540493,-0.00699999975040555,0.050200000405311584,0.06099999926066736,0,0
-0.12967953085899353,-0.09356539696455002,9.904275894165039,0.009399999864399433,0.012299999594688416,0.08949999511241913,0.06099999926066736,0.06099999926066736,0
-0.14860332012176514,-0.10625466704368591,9.886176109313965,-0.00989999994635582,-0.0072999997064471245,0.0697999969124794,-0.06099999926066736,0.06099999926066736,0
-0.1284441351890564,-0.08407478034496307,9.901680946350098,0.00969999935477972,0.022099999710917473,0.07970000058412552,-0.06099999926066736,0.12199999852133472,0.12199999852133472
-0.15632222592830658,-0.09341216832399368,9.904141426086426,-0.019199999049305916,0.012399999424815178,0.08949999511241913,-0.1830000044521087,0.1830000044521087,0.06099999926066736
-0.14948438107967377,-0.07847236096858978,9.918766021728516,-0.0072999997064471245,0.022299999371170998,0.09929999709129333,-0.06099999926066736,0.12199999852133472,0.12199999852133472
-0.1297370046377182,-0.09161173552274704,9.879989624023438,0.0066999997943639755,0.006899999920278788,0.05999999865889549,-0.06099999926066736,-0.06099999926066736,0.06099999926066736
-0.1366323083639145,-0.07448840141296387,9.915567398071289,-0.002699999837204814,0.01979999989271164,0.09910000115633011,0.06099999926066736,0.06099999926066736,0.06099999926066736
-0.15336298942565918,-0.07558973878622055,9.880372047424316,-0.01529999915510416,0.013299999758601189,0.05989999696612358,0,0.06099999926066736,0
-0.1370536834001541,-0.09282799065113068,9.922040939331055,0.0031999999191612005,-0.005200000014156103,0.10899999737739563,-0.06099999926066736,0.1830000044521087,-0.06099999926066736
-0.1833958476781845,-0.07016926258802414,9.884231567382812,-0.033799998462200165,0.010599999688565731,0.06989999860525131,0.06099999926066736,0.12199999852133472,-0.12199999852133472
-0.13658441603183746,-0.10917560011148453,9.894527435302734,0.011699999682605267,-0.022299999371170998,0.07970000058412552,0.06099999926066736,0.06099999926066736,0
-0.11636777967214584,-0.10188765078783035,9.875344276428223,0.02279999852180481,-0.009399999864399433,0.05999999865889549,0.06099999926066736,0.06099999926066736,0.06099999926066736
-0.14319241046905518,-0.1046074628829956,9.856200218200684,0.002099999925121665,-0.0064999996684491634,0.04039999842643738,-0.06099999926066736,0,0
-0.12104126065969467,-0.13096283376216888,9.899707794189453,0.009099999442696571,-0.0050999997183680534,0.0697999969124794,0,0,0
-0.14458104968070984,-0.10148542374372482,9.891156196594238,-0.014299999922513962,0.001999999862164259,0.0697999969124794,0.1830000044521087,0.06099999926066736,0
-0.11115799844264984,-0.11857043951749802,9.900444984436035,0.02499999850988388,-0.017999999225139618,0.07959999889135361,-0.12199999852133472,0,0.06099999926066736
-0.15789280831813812,-0.10942459106445312,9.900856971740723,-0.023899998515844345,-0.007899999618530273,0.07959999889135361,-0.06099999926066736,0.12199999852133472,0
-0.14365209639072418,-0.09481038898229599,9.901670455932617,-0.013799999840557575,0.011799999512732029,0.07959999889135361,0.06099999926066736,0.06099999926066736,-0.06099999926066736
-0.15267345309257507,-0.10227072238922119,9.909582138061523,-0.013599999248981476,0.0017999999690800905,0.08940000087022781,0.06099999926066736,0.12199999852133472,-0.06099999926066736
-0.13389334082603455,-0.10819876194000244,9.915021896362305,0.006199999712407589,-0.007999999448657036,0.09919999539852142,0.06099999926066736,0,0.06099999926066736
-0.14923538267612457,-0.12225751578807831,9.917683601379395,-0.013299999758601189,-0.017999999225139618,0.09919999539852142,0.12199999852133472,0.06099999926066736,-0.06099999926066736
-0.14095143973827362,-0.12726618349552155,9.911026954650879,-0.0032999999821186066,-0.028099998831748962,0.08940000087022781,0.06099999926066736,0.1830000044521087,-0.06099999926066736
-0.12686395645141602,-0.08538681268692017,9.928916931152344,0.006899999920278788,0.020600000396370888,0.10899999737739563,0,0.06099999926066736,0
-0.16913598775863647,-0.10910855978727341,9.923200607299805,-0.03199999779462814,-0.008700000122189522,0.10899999737739563,0,0,-0.12199999852133472
-0.15264472365379333,-0.10458830744028091,9.884681701660156,-0.012399999424815178,0.0009999999310821295,0.0697999969124794,-0.12199999852133472,0,0
-0.14967592060565948,-0.07435432076454163,9.900205612182617,-0.012399999424815178,0.030700000002980232,0.07959999889135361,0,-0.06099999926066736,-0.12199999852133472
-0.1380113661289215,-0.10923305153846741,9.880688667297363,-0.002699999837204814,-0.00839999970048666,0.05999999865889549,-0.06099999926066736,0.06099999926066736,-0.1830000044521087
-0.14079821109771729,-0.08877699822187424,9.885697364807129,-0.0026000000070780516,0.011299999430775642,0.0697999969124794,-0.06099999926066736,-0.06099999926066736,-0.1830000044521087
-0.14471513032913208,-0.09896671772003174,9.932039260864258,-0.01249999925494194,0.0016999999061226845,0.11879999935626984,0,0.06099999926066736,-0.12199999852133472
-0.13807840645313263,-0.1191929429769516,9.919646263122559,-0.0024999999441206455,-0.017799999564886093,0.09919999539852142,0,0,0
-0.15854403376579285,-0.08545385301113129,9.890379905700684,-0.022099999710917473,0.021199999377131462,0.0697999969124794,0,0.12199999852133472,-0.06099999926066736
-0.1560540646314621,-0.12955503165721893,9.885046005249023,-0.021699998527765274,-0.02759999968111515,0.0697999969124794,-0.06099999926066736,-0.06099999926066736,0.06099999926066736
-0.11960473656654358,-0.10808383673429489,9.883370399475098,0.01719999872148037,-0.007799999788403511,0.0697999969124794,0,0.1830000044521087,0
-0.14032894372940063,-0.07684429734945297,9.920863151550293,-0.0017999999690800905,0.02149999886751175,0.09919999539852142,0,0.1830000044521087,-0.06099999926066736
-0.14943648874759674,-0.10170568525791168,9.888781547546387,-0.011099999770522118,0.0017999999690800905,0.0697999969124794,0,0.12199999852133472,-0.12199999852133472
-0.12065818905830383,-0.10661859065294266,9.895474433898926,0.01850000023841858,-0.007799999788403511,0.07959999889135361,0,-0.06099999926066736,-0.06099999926066736
-0.14388194680213928,-0.08192000538110733,9.906076431274414,-0.010999999940395355,0.021399999037384987,0.08940000087022781,0.12199999852133472,0.12199999852133472,-0.06099999926066736
-0.11586979031562805,-0.11647312343120575,9.902705192565918,0.01860000006854534,-0.017999999225139618,0.08940000087022781,0.06099999926066736,0.12199999852133472,-0.06099999926066736
-0.14362336695194244,-0.09640971571207047,9.882240295410156,-0.00019999999494757503,0.00139999995008111,0.05999999865889549,0.06099999926066736,0.12199999852133472,0.06099999926066736
-0.136526957154274,-0.13768574595451355,9.89353084564209,0,-0.03779999911785126,0.07959999889135361,0,0.06099999926066736,-0.12199999852133472
-0.13882538676261902,-0.08725428581237793,9.9061918258667,0.00019999999494757503,0.011099999770522118,0.08949999511241913,-0.06099999926066736,0.12199999852133472,-0.12199999852133472
-0.13087664544582367,-0.08407478034496307,9.9406099319458,0.010300000198185444,0.020999999716877937,0.11889999359846115,0.12199999852133472,0,0
-0.1478467434644699,-0.1226501613855362,9.882834434509277,-0.009200000204145908,-0.018400000408291817,0.05999999865889549,0.12199999852133472,0.06099999926066736,0
-0.13247597217559814,-0.11181879788637161,9.903816223144531,0.010499999858438969,-0.008899999782443047,0.08949999511241913,0.06099999926066736,0.3049999896332302,0
-0.12088803201913834,-0.10162907093763351,9.904275894165039,0.024799998849630356,0.00029999998514540493,0.08949999511241913,-0.1830000044521087,0.12199999852133472,-0.06099999926066736
-0.13739845156669617,-0.11190499365329742,9.889509201049805,0.002699999837204814,-0.005200000014156103,0.06989999860525131,-0.12199999852133472,0,0
-0.1553453803062439,-0.10065224021673203,9.913105010986328,-0.012600000016391277,0.0031999999191612005,0.09939999878406525,-0.12199999852133472,0.12199999852133472,0
-0.1592431515455246,-0.07545565813779831,9.900138854980469,-0.009099999442696571,0.023599999025464058,0.07970000058412552,0,0,-0.06099999926066736
-0.1496567577123642,-0.1097119003534317,9.920211791992188,0.00009999999747378752,-0.012299999594688416,0.09939999878406525,0,0.12199999852133472,0.12199999852133472
-0.12483368068933487,-0.09842084348201752,9.904908180236816,0.01529999915510416,-0.002099999925121665,0.08949999511241913,0.06099999926066736,0.24399999704266945,0
-0.12021765857934952,-0.10525868088006973,9.905204772949219,0.02630000002682209,-0.001500000013038516,0.08949999511241913,0.06099999926066736,0,-0.06099999926066736
-0.12384726852178574,-0.06265147030353546,9.899046897888184,0.020099999383091927,0.02879999950528145,0.0794999971985817,-0.1830000044521087,0,-0.06099999926066736
-0.14484919607639313,-0.09236830472946167,9.924426078796387,-0.007799999788403511,-0.00009999999747378752,0.10899999737739563,-0.06099999926066736,-0.06099999926066736,-0.06099999926066736
-0.13889242708683014,-0.1255710870027542,9.89941120147705,0.0010999999940395355,-0.03059999831020832,0.07959999889135361,0.06099999926066736,0.06099999926066736,-0.06099999926066736
-0.15026967227458954,-0.1147971823811531,9.908308029174805,-0.00699999975040555,-0.008999999612569809,0.08949999511241913,0,-0.06099999926066736,-0.06099999926066736
-0.16086161136627197,-0.10110234469175339,9.919646263122559,-0.0139999995008111,0.00039999998989515007,0.09929999709129333,0,0.24399999704266945,-0.06099999926066736
-0.12056242674589157,-0.0797460675239563,9.884424209594727,0.0066999997943639755,0.0004999999655410647,0.08949999511241913,-0.12199999852133472,0,0
-0.12380895763635635,-0.12174994498491287,9.878437042236328,0.014499999582767487,-0.01759999990463257,0.05999999865889549,0.06099999926066736,0.1830000044521087,0
-0.1212136447429657,-0.09672574698925018,9.892898559570312,0.011699999682605267,0.0011999999405816197,0.0794999971985817,0.06099999926066736,0,0
-0.14992490410804749,-0.08918880671262741,9.865480422973633,-0.012899999506771564,0.007699999958276749,0.050200000405311584,0.06099999926066736,0.06099999926066736,0
-0.1503654420375824,-0.09210972487926483,9.884442329406738,-0.010199999436736107,0.005799999926239252,0.0697999969124794,0.24399999704266945,0.1830000044521087,-0.12199999852133472
-0.14991532266139984,-0.08165185898542404,9.86748218536377,-0.007999999448657036,0.015799999237060547,0.050200000405311584,0.06099999926066736,0.12199999852133472,-0.06099999926066736
-0.13178643584251404,-0.10686758160591125,9.892985343933105,0.009200000204145908,-0.010999999940395355,0.07959999889135361,0.06099999926066736,0.06099999926066736,0
-0.13748463988304138,-0.0918319970369339,9.901106834411621,-0.0004999999655410647,0.0064999996684491634,0.07959999889135361,0.06099999926066736,0.12199999852133472,-0.06099999926066736
-0.12447933107614517,-0.09097008407115936,9.89587688446045,0.015099999494850636,0.004799999762326479,0.0794999971985817,0.12199999852133472,0.06099999926066736,-0.06099999926066736
-0.1434701383113861,-0.1096065491437912,9.906661033630371,-0.003599999938160181,-0.012199999764561653,0.08940000087022781,0,0.1830000044521087,0
-0.1280706375837326,-0.10201214253902435,9.919598579406738,0.0050999997183680534,-0.002099999925121665,0.09919999539852142,0.06099999926066736,0,-0.1830000044521087
-0.13490848243236542,-0.1084190309047699,9.886109352111816,-0.003700000001117587,-0.009399999864399433,0.0697999969124794,0.06099999926066736,0,-0.06099999926066736
-0.15125608444213867,-0.1100853979587555,9.911516189575195,-0.011099999770522118,-0.007799999788403511,0.08940000087022781,0.06099999926066736,0.06099999926066736,-0.06099999926066736
-0.1427423059940338,-0.12744814157485962,9.877288818359375,-0.0009999999310821295,-0.02070000022649765,0.060099996626377106,0,-0.12199999852133472,0
-0.15083469450473785,-0.10681013017892838,9.893109321594238,-0.009099999442696571,-0.0009999999310821295,0.07970000058412552,-0.06099999926066736,0,-0.06099999926066736
-0.14789462089538574,-0.13577038049697876,9.91092300415039,-0.007499999832361937,-0.02459999918937683,0.08959999680519104,0,-0.12199999852133472,-0.12199999852133472
-0.12172121554613113,-0.09430281817913055,9.886606216430664,0.021399999037384987,0.024299999698996544,0.07000000029802322,0.06099999926066736,0.06099999926066736,0.06099999926066736
-0.15562310814857483,-0.06227797269821167,9.877450942993164,-0.017500000074505806,0.05350000038743019,0.06019999831914902,0,0,-0.12199999852133472
-0.14333607256412506,-0.12361742556095123,9.90317440032959,0.001999999862164259,-0.005200000014156103,0.08959999680519104,-0.12199999852133472,0,-0.06099999926066736
-0.1442171335220337,-0.10070012509822845,9.909102439880371,-0.007699999958276749,0.014599999412894249,0.08959999680519104,0,0.06099999926066736,0.06099999926066736
-0.11182837933301926,-0.09214803576469421,9.896711349487305,0.031599998474121094,0.024399999529123306,0.07979999482631683,0,0.06099999926066736,0
-0.15833334624767303,-0.11347558349370956,9.882009506225586,-0.01719999872148037,0.004799999762326479,0.06019999831914902,0.06099999926066736,0.1830000044521087,-0.12199999852133472
-0.15735650062561035,-0.07673895359039307,9.889116287231445,-0.016699999570846558,0.03399999812245369,0.07000000029802322,0.06099999926066736,0.06099999926066736,-0.12199999852133472
-0.1528266817331314,-0.08790551126003265,9.922118186950684,-0.0066999997943639755,0.024000000208616257,0.10920000076293945,-0.06099999926066736,0.06099999926066736,-0.06099999926066736
-0.15227122604846954,-0.1116081103682518,9.923659324645996,-0.0064999996684491634,0.004600000102072954,0.10920000076293945,0.12199999852133472,0.1830000044521087,0
-0.12532208859920502,-0.08808746933937073,9.897697448730469,0.013499999418854713,0.023799998685717583,0.07979999482631683,0,0,-0.06099999926066736
-0.10107361525297165,-0.07912357896566391,9.907426834106445,0.04319999739527702,0.03359999880194664,0.08959999680519104,-0.06099999926066736,0.12199999852133472,-0.06099999926066736
-0.1329069286584854,-0.0934792086482048,9.905674934387207,0.0139999995008111,0.023899998515844345,0.08959999680519104,-0.06099999926066736,0,-0.06099999926066736
-0.13147039711475372,-0.0997520238161087,9.900406837463379,0.0139999995008111,0.0142000000923872,0.07979999482631683,0.12199999852133472,0,-0.06099999926066736
-0.12502521276474,-0.10034578293561935,9.91891860961914,0.0139999995008111,0.013899999670684338,0.09939999878406525,0.12199999852133472,0.06099999926066736,0
-0.1396777331829071,-0.12126152962446213,9.889910697937012,0.004299999680370092,-0.006000000052154064,0.07000000029802322,-0.12199999852133472,0.12199999852133472,0
-0.11746910959482193,-0.10888829082250595,9.887986183166504,0.02419999986886978,0.004100000020116568,0.07000000029802322,0.06099999926066736,0.06099999926066736,0
-0.1410088986158371,-0.11867579072713852,9.909964561462402,0.004799999762326479,-0.005799999926239252,0.08959999680519104,0.12199999852133472,0.12199999852133472,0.06099999926066736
-0.1275056004524231,-0.08999325335025787,9.902341842651367,0.01489999983459711,0.023099999874830246,0.07979999482631683,0,0.1830000044521087,-0.12199999852133472
-0.12944012880325317,-0.07354030013084412,9.89757251739502,0.01529999915510416,0.04259999841451645,0.07979999482631683,-0.12199999852133472,0.06099999926066736,0
-0.1309053599834442,-0.09547118097543716,9.890676498413086,0.01549999974668026,0.02329999953508377,0.07000000029802322,0,0.06099999926066736,0.06099999926066736
-0.13137462735176086,-0.12003570050001144,9.89869213104248,0.015599999576807022,-0.006000000052154064,0.07979999482631683,0.06099999926066736,0,0
-0.1457398533821106,-0.08803000301122665,9.911726951599121,-0.0038999998942017555,0.023099999874830246,0.08959999680519104,0.06099999926066736,0.12199999852133472,-0.06099999926066736
-0.11842679232358932,-0.09999144077301025,9.909514427185059,0.025699999183416367,0.013100000098347664,0.08959999680519104,0.12199999852133472,0.06099999926066736,0.06099999926066736
-0.1513901650905609,-0.1308191865682602,9.886568069458008,-0.003499999875202775,-0.016499999910593033,0.07000000029802322,0.06099999926066736,0.24399999704266945,-0.06099999926066736
-0.12899959087371826,-0.11076535284519196,9.899736404418945,0.018799999728798866,-0.006099999882280827,0.07979999482631683,0,0.1830000044521087,-0.12199999852133472
-0.12999556958675385,-0.09866026043891907,9.897428512573242,0.010999999940395355,0.0017999999690800905,0.07970000058412552,0.06099999926066736,0.12199999852133472,-0.06099999926066736
-0.15907076001167297,-0.08580818772315979,9.895705223083496,-0.012600000016391277,0.014299999922513962,0.07970000058412552,0.06099999926066736,0.06099999926066736,0.06099999926066736
-0.17390522360801697,-0.09391016513109207,9.894354820251465,-0.023599999025464058,0.002899999963119626,0.07979999482631683,-0.12199999852133472,0.06099999926066736,0
-0.14314453303813934,-0.10066182166337967,9.914158821105957,0.012000000104308128,-0.005200000014156103,0.09939999878406525,-0.06099999926066736,0.06099999926066736,-0.12199999852133472
-0.142780601978302,-0.10561302304267883,9.916448593139648,0.00930000003427267,-0.011899999342858791,0.09929999709129333,0,0.06099999926066736,0
-0.13688130676746368,-0.0935845598578453,9.868343353271484,0.006300000008195639,0.0050999997183680534,0.0502999983727932,0,0,0
-0.16285361349582672,-0.09477207809686661,9.890294075012207,-0.017899999395012856,0.003700000001117587,0.06989999860525131,-0.06099999926066736,0.06099999926066736,-0.06099999926066736
-0.1418420821428299,-0.10270167887210846,9.907235145568848,0.009099999442696571,-0.004799999762326479,0.08949999511241913,0.12199999852133472,0.06099999926066736,0
-0.12406753748655319,-0.08516654372215271,9.913278579711914,0.02329999953508377,0.011599999852478504,0.09919999539852142,0,0,0.12199999852133472
-0.1111292615532875,-0.08347144722938538,9.921380043029785,0.026599999517202377,0.009200000204145908,0.09910000115633011,0.12199999852133472,0.1830000044521087,0
-0.13531069457530975,-0.09628521651029587,9.924090385437012,-0.002199999988079071,-0.010599999688565731,0.10889999568462372,-0.06099999926066736,0.12199999852133472,-0.06099999926066736
-0.10512460768222809,-0.08801085501909256,9.882862091064453,0.03720000013709068,-0.0005999999702908099,0.05989999696612358,0.06099999926066736,0,0.12199999852133472
-0.13440090417861938,-0.08949526399374008,9.907196998596191,-0.0018999999156221747,0.008899999782443047,0.06969999521970749,-0.06099999926066736,0,-0.06099999926066736
-0.1360289603471756,-0.08223603665828705,9.885390281677246,-0.0015999999595806003,-0.0013000000035390258,0.0892999991774559,0.06099999926066736,0,0
-0.17015112936496735,-0.08487924188375473,9.927824974060059,-0.03099999949336052,0.00839999970048666,0.10889999568462372,0,0.12199999852133472,-0.12199999852133472
-0.1348605901002884,-0.08314583450555801,9.888148307800293,-0.0011999999405816197,0.00839999970048666,0.06969999521970749,0.06099999926066736,0.06099999926066736,-0.06099999926066736
-0.16671305894851685,-0.09504980593919754,9.891280174255371,-0.030399998649954796,-0.001500000013038516,0.06969999521970749,0.06099999926066736,0.1830000044521087,-0.06099999926066736
-0.14381490647792816,-0.1240483745932579,9.902484893798828,-0.010300000198185444,-0.031099999323487282,0.0892999991774559,0.06099999926066736,0.12199999852133472,0
-0.12793655693531036,-0.11242213100194931,9.914820671081543,0.009499999694526196,-0.021399999037384987,0.09910000115633011,0,0,-0.06099999926066736
-0.14641979336738586,-0.10704954713582993,9.912530899047852,-0.009999999776482582,-0.021399999037384987,0.09910000115633011,0.12199999852133472,0,-0.06099999926066736
-0.1484500914812088,-0.12261185795068741,9.90225601196289,-0.009999999776482582,-0.03150000050663948,0.0794999971985817,0.06099999926066736,0.06099999926066736,-0.06099999926066736
-0.1413440853357315,-0.10215579718351364,9.884557723999023,0,-0.012000000104308128,0.06969999521970749,0.24399999704266945,0.1830000044521087,-0.12199999852133472
-0.1505090892314911,-0.10278786718845367,9.887152671813965,-0.002699999837204814,-0.008700000122189522,0.0697999969124794,0.1830000044521087,0.06099999926066736,0
-0.11918335407972336,-0.09864111244678497,9.894095420837402,0.016699999570846558,-0.006099999882280827,0.0794999971985817,0,0,0.06099999926066736
-0.15395674109458923,-0.08831731230020523,9.889652252197266,-0.015599999576807022,0.002300000051036477,0.0697999969124794,-0.12199999852133472,0.12199999852133472,-0.12199999852133472
-0.1424454152584076,-0.10135135054588318,9.903711318969727,0.003000000026077032,-0.00559999980032444,0.08940000087022781,0.12199999852133472,0.06099999926066736,-0.06099999926066736
-0.1368429809808731,-0.08963891118764877,9.932134628295898,0.002300000051036477,0.002899999963119626,0.11879999935626984,0.06099999926066736,0.12199999852133472,0
-0.12162545323371887,-0.10792103409767151,9.905118942260742,0.016999999061226845,-0.013199999928474426,0.08940000087022781,-0.06099999926066736,0.12199999852133472,-0.1830000044521087
-0.11391611397266388,-0.08835562318563461,9.892104148864746,0.019999999552965164,0.004699999932199717,0.06969999521970749,-0.06099999926066736,0.1830000044521087,-0.06099999926066736
-0.1463431864976883,-0.10640789568424225,9.911381721496582,-0.014999999664723873,-0.011799999512732029,0.0892999991774559,0.06099999926066736,0.06099999926066736,-0.12199999852133472
-0.1453663408756256,-0.10442549735307693,9.89161491394043,-0.011500000022351742,-0.0017999999690800905,0.0697999969124794,0.12199999852133472,0.06099999926066736,0.06099999926066736
-0.1260499358177185,-0.08333737403154373,9.899094581604004,0.006199999712407589,0.013499999418854713,0.0794999971985817,0.06099999926066736,0,-0.06099999926066736
-0.12036130577325821,-0.0911041647195816,9.90638256072998,0.012600000016391277,0.0026000000070780516,0.0892999991774559,0,0,0.06099999926066736
-0.12960292398929596,-0.10477984696626663,9.918986320495605,0.00279999990016222,-0.0071000000461936,0.09910000115633011,-0.06099999926066736,0.06099999926066736,0
-0.1259254366159439,-0.08916006982326508,9.914294242858887,0.002899999963119626,0.00279999990016222,0.09910000115633011,0.1830000044521087,0.12199999852133472,-0.12199999852133472
-0.1283004730939865,-0.1100853979587555,9.90748405456543,0.009099999442696571,-0.01679999940097332,0.08940000087022781,-0.12199999852133472,0.06099999926066736,-0.06099999926066736
-0.1570979505777359,-0.10362105071544647,9.900646209716797,-0.0004999999655410647,-0.004799999762326479,0.05999999865889549,0,0,-0.12199999852133472
-0.14310622215270996,-0.11007582396268845,9.900742530822754,0.0026000000070780516,-0.010900000110268593,0.07970000058412552,0,0,0.06099999926066736
-0.13372094929218292,-0.11898224800825119,9.929913520812988,0.0026000000070780516,-0.010900000110268593,0.07970000058412552,-0.06099999926066736,0.12199999852133472,-0.06099999926066736
-0.12332054227590561,-0.11863747984170914,9.920969009399414,0.01589999906718731,-0.0139999995008111,0.09919999539852142,0.06099999926066736,0,-0.06099999926066736
-0.13853809237480164,-0.10116938501596451,9.914216995239258,-0.0030999998562037945,0.004100000020116568,0.09919999539852142,-0.06099999926066736,0.06099999926066736,0
-0.14281892776489258,-0.11035354435443878,9.908576011657715,-0.0026000000070780516,-0.004399999976158142,0.08949999511241913,0.1830000044521087,0.06099999926066736,-0.06099999926066736
-0.14748281240463257,-0.09851660579442978,9.892898559570312,-0.00969999935477972,0.003499999875202775,0.07970000058412552,0,0.12199999852133472,-0.12199999852133472
-0.16643531620502472,-0.06140648573637009,9.910118103027344,-0.02329999953508377,0.033900000154972076,0.08949999511241913,0,0.12199999852133472,-0.12199999852133472
-0.1398213803768158,-0.09017521142959595,9.903644561767578,0.004799999762326479,0.003399999812245369,0.08940000087022781,0,0,-0.12199999852133472
-0.15443558990955353,-0.12308112531900406,9.915117263793945,-0.014699999243021011,-0.02589999884366989,0.09929999709129333,0.1830000044521087,0,-0.06099999926066736
-0.14725297689437866,-0.12011231482028961,9.917932510375977,-0.004900000058114529,-0.026399999856948853,0.09919999539852142,0,0,0
-0.13893073797225952,-0.09580637514591217,9.892544746398926,0.004799999762326479,-0.006799999624490738,0.0697999969124794,0,0.1830000044521087,-0.06099999926066736
-0.1337975561618805,-0.10962571203708649,9.929654121398926,0.015099999494850636,-0.016599999740719795,0.10909999907016754,0,0.12199999852133472,-0.12199999852133472
-0.14585477113723755,-0.09772173315286636,9.89500617980957,-0.004100000020116568,-0.0066999997943639755,0.07959999889135361,-0.06099999926066736,0.12199999852133472,0
-0.15623602271080017,-0.09936895221471786,9.928333282470703,-0.013599999248981476,-0.006599999964237213,0.10909999907016754,0.06099999926066736,0.06099999926066736,0
-0.13465948402881622,-0.09931148588657379,9.927404403686523,0.006099999882280827,-0.0066999997943639755,0.10909999907016754,0.1830000044521087,0.12199999852133472,-0.12199999852133472
-0.13593319058418274,-0.09083601087331772,9.916352272033691,0.010300000198185444,0.00279999990016222,0.09929999709129333,0.1830000044521087,0.1830000044521087,-0.06099999926066736
-0.14867034554481506,-0.08638279885053635,9.92264461517334,0.00279999990016222,0.0023999998811632395,0.10920000076293945,0.1830000044521087,0.06099999926066736,-0.12199999852133472
-0.14757859706878662,-0.10534486919641495,9.868593215942383,0.0015999999595806003,-0.011500000022351742,0.0502999983727932,-0.06099999926066736,0.1830000044521087,-0.06099999926066736
-0.1451556533575058,-0.08600930124521255,9.89771556854248,0.00139999995008111,0.013599999248981476,0.07970000058412552,0,0.06099999926066736,-0.12199999852133472
-0.13051272928714752,-0.09753019362688065,9.892017364501953,0.015799999237060547,-0.004600000102072954,0.06989999860525131,0.06099999926066736,0.06099999926066736,-0.06099999926066736
-0.1545122116804123,-0.09767384827136993,9.917740821838379,-0.01119999960064888,-0.003999999724328518,0.09929999709129333,-0.06099999926066736,0,-0.12199999852133472
-0.13358688354492188,-0.10013509541749954,9.872040748596191,0.01269999984651804,-0.00279999990016222,0.050200000405311584,0,0,-0.06099999926066736
-0.11796710640192032,-0.09315360337495804,9.917607307434082,0.018299998715519905,0.005499999970197678,0.09919999539852142,0,0,-0.06099999926066736
-0.14679329097270966,-0.11272858828306198,9.935304641723633,-0.0010999999940395355,-0.01119999960064888,0.07959999889135361,-0.12199999852133472,-0.06099999926066736,0
-0.14532804489135742,-0.10403285175561905,9.904314041137695,-0.007799999788403511,0.00039999998989515007,0.08949999511241913,0,0.06099999926066736,-0.06099999926066736
-0.13594278693199158,-0.09869857132434845,9.89340591430664,0.00139999995008111,0.00019999999494757503,0.07970000058412552,0.06099999926066736,-0.06099999926066736,-0.06099999926066736
-0.14487792551517487,-0.08348102867603302,9.903242111206055,-0.008499999530613422,0.019600000232458115,0.08949999511241913,0.06099999926066736,0.06099999926066736,-0.06099999926066736
-0.14130578935146332,-0.09401550889015198,9.926628112792969,0.00139999995008111,0.009599999524652958,0.10909999907016754,0,0.12199999852133472,0.06099999926066736
-0.1462186872959137,-0.10092996805906296,9.90503215789795,-0.007999999448657036,-0.00009999999747378752,0.08949999511241913,0,0.06099999926066736,-0.06099999926066736
-0.1168370470404625,-0.09462842345237732,9.911726951599121,0.02149999886751175,0.009599999524652958,0.08949999511241913,0.06099999926066736,0,-0.12199999852133472
-0.1405492126941681,-0.07115567475557327,9.866084098815918,0.0018999999156221747,0.028999999165534973,0.050200000405311584,-0.06099999926066736,0,-0.06099999926066736
-0.14314453303813934,-0.06986280530691147,9.920652389526367,0.0018999999156221747,0.029199998825788498,0.09929999709129333,0,0.12199999852133472,-0.12199999852133472
-0.13157574832439423,-0.10534486919641495,9.887325286865234,0.012000000104308128,-0.00989999994635582,0.06989999860525131,-0.06099999926066736,0.12199999852133472,-0.12199999852133472
-0.12601162493228912,-0.12081141769886017,9.917588233947754,0.012299999594688416,-0.019500000402331352,0.09929999709129333,0.12199999852133472,0.12199999852133472,0
-0.17173129320144653,-0.0991869866847992,9.902973175048828,-0.026499999687075615,-0.00029999998514540493,0.08949999511241913,0,0.06099999926066736,0
-0.15099751949310303,-0.09504980593919754,9.890303611755371,-0.0066999997943639755,0.009399999864399433,0.06989999860525131,0.06099999926066736,0,0
-0.14686989784240723,-0.09291417896747589,9.894450187683105,-0.0066999997943639755,0.009200000204145908,0.07970000058412552,0.12199999852133472,0.06099999926066736,0
-0.156657412648201,-0.10542148351669312,9.883284568786621,-0.016099998727440834,-0.010699999518692493,0.06989999860525131,0,0.06099999926066736,-0.1830000044521087
-0.16631081700325012,-0.09692686796188354,9.886444091796875,-0.025699999183416367,-0.0008999999845400453,0.06989999860525131,0.12199999852133472,0.12199999852133472,0
-0.11812033504247665,-0.09482954442501068,9.882183074951172,0.023499999195337296,0.00839999970048666,0.060099996626377106,0.06099999926066736,0.06099999926066736,-0.06099999926066736
-0.16024869680404663,-0.08297345787286758,9.927824974060059,-0.015399999916553497,0.01809999905526638,0.10909999907016754,0.24399999704266945,0.24399999704266945,-0.12199999852133472
-0.14185166358947754,-0.10246225446462631,9.856372833251953,0.012299999594688416,-0.005499999970197678,0.04050000011920929,0,0.1830000044521087,-0.06099999926066736
-0.14101848006248474,-0.08556877076625824,9.924415588378906,0.008299999870359898,0.00930000003427267,0.10909999907016754,0.06099999926066736,0.06099999926066736,0
-0.1253412514925003,-0.08167100697755814,9.91064453125,0.012399999424815178,0.006199999712407589,0.08940000087022781,0.06099999926066736,0,0
-0.15058571100234985,-0.07780198007822037,9.901853561401367,-0.005399999674409628,0.00419999985024333,0.07959999889135361,0.12199999852133472,-0.06099999926066736,0
-0.16075627505779266,-0.11166556179523468,9.907081604003906,-0.01209999993443489,-0.019700000062584877,0.08949999511241913,0,0.12199999852133472,-0.06099999926066736
-0.1419665813446045,-0.13431471586227417,9.942985534667969,0.006099999882280827,-0.04089999943971634,0.12870000302791595,-0.12199999852133472,0.06099999926066736,0.06099999926066736
-0.13064680993556976,-0.0758291557431221,9.928763389587402,0.01269999984651804,0.022299999371170998,0.10899999737739563,0,0,0
-0.14066414535045624,-0.09003156423568726,9.89272689819336,0.0018999999156221747,0.0018999999156221747,0.0697999969124794,0,0.06099999926066736,-0.06099999926066736
-0.12532208859920502,-0.08200619369745255,9.89854907989502,0.008999999612569809,0.008899999782443047,0.0794999971985817,0.06099999926066736,0.06099999926066736,-0.12199999852133472
-0.1457206904888153,-0.09028055518865585,9.908968925476074,-0.008499999530613422,-0.0008999999845400453,0.08940000087022781,0.06099999926066736,0.12199999852133472,-0.06099999926066736
-0.15192647278308868,-0.09172665327787399,9.882920265197754,-0.006300000008195639,-0.0008999999845400453,0.05999999865889549,-0.06099999926066736,0,-0.12199999852133472
-0.13641203939914703,-0.09874644875526428,9.891060829162598,0.003399999812245369,-0.010499999858438969,0.0697999969124794,0.06099999926066736,0,-0.06099999926066736
-0.1411142498254776,-0.0803302526473999,9.88769817352295,0.003399999812245369,0.008799999952316284,0.0697999969124794,-0.12199999852133472,0.1830000044521087,-0.06099999926066736
-0.1342189460992813,-0.09968498349189758,9.886147499084473,0.0038999998942017555,-0.010300000198185444,0.0697999969124794,-0.06099999926066736,0.06099999926066736,-0.06099999926066736
-0.12037088721990585,-0.07792647182941437,9.883992195129395,0.02369999885559082,0.00930000003427267,0.0697999969124794,0.06099999926066736,0.06099999926066736,-0.06099999926066736
-0.1536981612443924,-0.1319875419139862,9.896681785583496,-0.01529999915510416,-0.03969999775290489,0.07959999889135361,0.06099999926066736,0,-0.06099999926066736
-0.15808434784412384,-0.13102987408638,9.874922752380371,-0.015199999324977398,-0.039799999445676804,0.05999999865889549,0.06099999926066736,0,-0.06099999926066736
-0.16938498616218567,-0.09570102393627167,9.91157341003418,-0.02499999850988388,-0.0007999999797903001,0.08940000087022781,0.06099999926066736,0,0
-0.1401374191045761,-0.09214803576469421,9.915548324584961,0.004299999680370092,-0.0008999999845400453,0.09919999539852142,0,0.12199999852133472,-0.06099999926066736
-0.15319059789180756,-0.09943598508834839,9.905607223510742,-0.0050999997183680534,-0.010699999518692493,0.08940000087022781,0.24399999704266945,0.06099999926066736,0.06099999926066736
-0.14403517544269562,-0.08512823283672333,9.900799751281738,0.0015999999595806003,0.008799999952316284,0.07970000058412552,-0.12199999852133472,0.06099999926066736,-0.06099999926066736
-0.13559800386428833,-0.10891702026128769,9.911890029907227,0.007599999662488699,-0.014099999330937862,0.08949999511241913,-0.06099999926066736,0.1830000044521087,-0.06099999926066736
-0.13745589554309845,-0.08478347212076187,9.909706115722656,0.00559999980032444,0.011099999770522118,0.08940000087022781,-0.06099999926066736,0.12199999852133472,-0.06099999926066736
-0.1420527845621109,-0.09211929887533188,9.882708549499512,0.0038999998942017555,0.0007999999797903001,0.05999999865889549,0,0,-0.06099999926066736
-0.13787728548049927,-0.1152760237455368,9.916994094848633,-0.012299999594688416,-0.00699999975040555,0.07970000058412552,-0.06099999926066736,0.12199999852133472,-0.06099999926066736
-0.11863747984170914,-0.11698069423437119,9.904247283935547,0.020099999383091927,-0.01730000041425228,0.08949999511241913,-0.06099999926066736,-0.12199999852133472,-0.06099999926066736
-0.1440926343202591,-0.09281840920448303,9.895522117614746,-0.007699999958276749,0.00930000003427267,0.07970000058412552,0,0.12199999852133472,-0.06099999926066736
-0.12997642159461975,-0.08907388150691986,9.940208435058594,0.00989999994635582,0.007599999662488699,0.11879999935626984,0,0.12199999852133472,-0.1830000044521087
-0.13347195088863373,-0.07537904381752014,9.906814575195312,0.007899999618530273,0.021399999037384987,0.0892999991774559,0.06099999926066736,0.06099999926066736,-0.12199999852133472
-0.14739663898944855,-0.12339715659618378,9.917990684509277,-0.009499999694526196,-0.022599998861551285,0.09919999539852142,0,0.12199999852133472,0.06099999926066736
-0.1216733306646347,-0.09161173552274704,9.870565414428711,0.020099999383091927,0.006799999624490738,0.050200000405311584,-0.12199999852133472,0.06099999926066736,0
-0.15363113582134247,-0.09096051007509232,9.9158353805542,-0.018799999728798866,0.0071000000461936,0.09919999539852142,0,0.1830000044521087,-0.12199999852133472
-0.14248374104499817,-0.08319371938705444,9.908824920654297,0.0011999999405816197,0.016899999231100082,0.08940000087022781,0,0.06099999926066736,0
-0.16986382007598877,-0.07202716171741486,9.929070472717285,-0.0279999990016222,0.02669999934732914,0.10899999737739563,-0.12199999852133472,0.06099999926066736,-0.06099999926066736
-0.1378868669271469,-0.09513600170612335,9.890274047851562,0.001500000013038516,0.007400000002235174,0.0697999969124794,0.06099999926066736,0,0.06099999926066736
-0.15110285580158234,-0.10070012509822845,9.870421409606934,-0.008200000040233135,-0.0024999999441206455,0.050200000405311584,0.06099999926066736,0.06099999926066736,-0.06099999926066736
-0.14087483286857605,-0.11166556179523468,9.910558700561523,0.0016999999061226845,-0.012399999424815178,0.08940000087022781,0.06099999926066736,0,0
-0.1315087080001831,-0.1035444363951683,9.908365249633789,0.011500000022351742,-0.00279999990016222,0.08940000087022781,0,-0.06099999926066736,-0.12199999852133472
-0.14379575848579407,-0.06851247698068619,9.893329620361328,-0.008200000040233135,0.026499999687075615,0.07959999889135361,-0.06099999926066736,0.12199999852133472,-0.12199999852133472
-0.1389690339565277,-0.08644983917474747,9.886405944824219,0.0017999999690800905,0.00699999975040555,0.0697999969124794,0,0.06099999926066736,-0.06099999926066736
-0.16380169987678528,-0.09284714609384537,9.904630661010742,-0.027300000190734863,0.00699999975040555,0.08940000087022781,0.06099999926066736,0.06099999926066736,-0.06099999926066736
-0.14341269433498383,-0.10647493600845337,9.910002708435059,0.002199999988079071,-0.012600000016391277,0.08940000087022781,0,0.12199999852133472,-0.12199999852133472
-0.14282849431037903,-0.08461108803749084,9.930257797241211,0.0024999999441206455,0.016699999570846558,0.10909999907016754,0.1830000044521087,0,-0.12199999852133472
-0.12132856994867325,-0.09784623980522156,9.902983665466309,0.022099999710917473,-0.0032999999821186066,0.08940000087022781,0.06099999926066736,0,-0.12199999852133472
-0.13649822771549225,-0.11724884808063507,9.877699851989746,0.0024999999441206455,-0.023099999874830246,0.05999999865889549,0.06099999926066736,0.24399999704266945,-0.06099999926066736
-0.1315087080001831,-0.09721416234970093,9.919646263122559,0.02329999953508377,-0.0064999996684491634,0.09939999878406525,-0.06099999926066736,0.1830000044521087,-0.12199999852133472
-0.15941552817821503,-0.09034759551286697,9.941032409667969,-0.0044999998062849045,0.002099999925121665,0.12879998981952667,0,0.12199999852133472,-0.1830000044521087
-0.1344679445028305,-0.09801861643791199,9.875689506530762,0.00930000003427267,-0.004900000058114529,0.060099996626377106,0,0,-0.12199999852133472
-0.15198391675949097,-0.08475473523139954,9.9225492477417,-0.0005999999702908099,0.011299999430775642,0.10909999907016754,0,0.06099999926066736,-0.06099999926066736
-0.1491587609052658,-0.10376470535993576,9.890035629272461,-0.0005999999702908099,-0.006199999712407589,0.06989999860525131,0,0.12199999852133472,-0.06099999926066736
-0.13595235347747803,-0.11819694936275482,9.896116256713867,0.00699999975040555,-0.019999999552965164,0.07970000058412552,0,0.12199999852133472,-0.06099999926066736
-0.12939223647117615,-0.114442840218544,9.923343658447266,0.013799999840557575,-0.008499999530613422,0.10909999907016754,0,0,0
-0.14696568250656128,-0.09860280901193619,9.9039888381958,-0.009800000116229057,-0.0015999999595806003,0.08940000087022781,-0.06099999926066736,0.1830000044521087,-0.06099999926066736
-0.13270580768585205,-0.09125739336013794,9.907014846801758,0.007899999618530273,0.0064999996684491634,0.08940000087022781,0.06099999926066736,0.06099999926066736,-0.06099999926066736
-0.1407407522201538,-0.08433336019515991,9.89450740814209,-0.001500000013038516,0.01249999925494194,0.0794999971985817,0,0.12199999852133472,0
-0.1425507664680481,-0.07917146384716034,9.929089546203613,-0.0010999999940395355,0.01249999925494194,0.10899999737739563,0,0.12199999852133472,-0.12199999852133472
-0.138116717338562,-0.08445785939693451,9.912914276123047,-0.0007999999797903001,0.01249999925494194,0.09919999539852142,0.06099999926066736,-0.06099999926066736,0
-0.15338213741779327,-0.08644026517868042,9.883302688598633,-0.020600000396370888,0.0024999999441206455,0.06969999521970749,0.06099999926066736,0,-0.12199999852133472
-0.14958971738815308,-0.09126696735620499,9.918967247009277,-0.010799999348819256,0.002300000051036477,0.09919999539852142,0,0,-0.06099999926066736
-0.146946519613266,-0.0981048122048378,9.933570861816406,-0.010699999518692493,-0.007400000002235174,0.11879999935626984,0.12199999852133472,0.1830000044521087,-0.12199999852133472
-0.1318439096212387,-0.09120950847864151,9.892497062683105,0.018199998885393143,0.00139999995008111,0.06989999860525131,-0.06099999926066736,0,-0.1830000044521087
-0.1645582765340805,-0.10098742693662643,9.898463249206543,-0.015099999494850636,-0.006000000052154064,0.07979999482631683,-0.12199999852133472,0.06099999926066736,0.06099999926066736
-0.14842136204242706,-0.11212525516748428,9.890954971313477,0.003000000026077032,-0.011299999430775642,0.07000000029802322,-0.1830000044521087,0.12199999852133472,0
-0.11415553838014603,-0.10534486919641495,9.906047821044922,0.032999999821186066,-0.008599999360740185,0.08949999511241913,-0.06099999926066736,0,0
-0.1388445496559143,-0.11178048700094223,9.881607055664062,0.0023999998811632395,-0.006300000008195639,0.060099996626377106,0.06099999926066736,0,-0.06099999926066736
-0.1262989342212677,-0.11246044188737869,9.876407623291016,0.008899999782443047,-0.004900000058114529,0.05999999865889549,-0.06099999926066736,0,-0.06099999926066736
-0.1553453803062439,-0.10032662749290466,9.859437942504883,-0.014499999582767487,0.0032999999821186066,0.04050000011920929,-0.12199999852133472,-0.06099999926066736,0
-0.1600763201713562,-0.10047028213739395,9.885984420776367,-0.011899999342858791,0.00279999990016222,0.07000000029802322,0,0.06099999926066736,-0.06099999926066736
-0.14902469515800476,-0.08807788789272308,9.893416404724121,-0.0016999999061226845,0.009999999776482582,0.07970000058412552,0.12199999852133472,0.12199999852133472,-0.12199999852133472
-0.1232151910662651,-0.08915049582719803,9.893837928771973,0.022099999710917473,0.007599999662488699,0.07959999889135361,-0.06099999926066736,0.1830000044521087,-0.12199999852133472
-0.1328015774488449,-0.08494627475738525,9.914083480834961,0.010300000198185444,0.014299999922513962,0.09919999539852142,0.06099999926066736,0.06099999926066736,-0.06099999926066736
-0.12981361150741577,-0.09736739099025726,9.898674011230469,0.010499999858438969,-0.005399999674409628,0.07959999889135361,0.06099999926066736,0.12199999852133472,0
-0.15135185420513153,-0.0963139459490776,9.894832611083984,-0.008700000122189522,-0.005499999970197678,0.07959999889135361,0.06099999926066736,0.12199999852133472,-0.06099999926066736
-0.1481340527534485,-0.08877699822187424,9.907905578613281,-0.00839999970048666,0.003999999724328518,0.08940000087022781,-0.1830000044521087,0.1830000044521087,-0.06099999926066736
-0.10656112432479858,-0.12235328555107117,9.927069664001465,0.038599997758865356,-0.025599999353289604,0.10909999907016754,0,0.12199999852133472,0.06099999926066736
-0.1477413922548294,-0.09232041984796524,9.895589828491211,-0.0004999999655410647,0.0026000000070780516,0.07970000058412552,-0.06099999926066736,0,0
-0.1279269903898239,-0.10296982526779175,9.890217781066895,0.013799999840557575,-0.0052999998442828655,0.0697999969124794,0,0.06099999926066736,0
-0.14248374104499817,-0.11876197904348373,9.88785171508789,0.002899999963119626,-0.01899999938905239,0.06989999860525131,0,-0.06099999926066736,-0.06099999926066736
-0.15339170396327972,-0.10345824062824249,9.907637596130371,-0.006199999712407589,0.016899999231100082,0.12870000302791595,0,-0.06099999926066736,0
-0.1330888867378235,-0.11018116027116776,9.905386924743652,0.012899999506771564,-0.009399999864399433,0.08949999511241913,0,0.06099999926066736,-0.06099999926066736
-0.13868173956871033,-0.0996466726064682,9.90743637084961,0.002300000051036477,0.00009999999747378752,0.08949999511241913,0,0,0
-0.14314453303813934,-0.08013872057199478,9.907713890075684,0.0015999999595806003,0.01549999974668026,0.08940000087022781,0,0.1830000044521087,0
-0.1194419339299202,-0.12435483187437057,9.887334823608398,0.01640000008046627,-0.018199998885393143,0.0697999969124794,0,0,-0.06099999926066736
-0.1441979855298996,-0.11251790821552277,9.901968002319336,-0.010400000028312206,-0.0066999997943639755,0.07959999889135361,0.06099999926066736,0,-0.06099999926066736
-0.13133633136749268,-0.10576625168323517,9.920307159423828,0.009099999442696571,-0.006899999920278788,0.09929999709129333,-0.06099999926066736,0.06099999926066736,0
-0.13871046900749207,-0.06969042122364044,9.91954231262207,-0.00039999998989515007,0.03240000084042549,0.09929999709129333,0.06099999926066736,0.06099999926066736,0
-0.15175408124923706,-0.11292970180511475,9.885486602783203,-0.010099999606609344,-0.006899999920278788,0.0697999969124794,-0.06099999926066736,0.12199999852133472,-0.06099999926066736
-0.12181698530912399,-0.09731951355934143,9.919713973999023,0.019600000232458115,0.003000000026077032,0.09929999709129333,0.06099999926066736,0.06099999926066736,-0.06099999926066736
-0.1342572420835495,-0.120859295129776,9.9129056930542,0.00009999999747378752,-0.016699999570846558,0.09929999709129333,-0.06099999926066736,0.06099999926066736,-0.12199999852133472
-0.15896542370319366,-0.08168058842420578,9.881847381591797,-0.019199999049305916,0.022599998861551285,0.05999999865889549,0,0,-0.12199999852133472
-0.1419857293367386,-0.10369766503572464,9.916027069091797,0.00029999998514540493,0.002899999963119626,0.09929999709129333,-0.06099999926066736,0.12199999852133472,-0.06099999926066736
-0.1428859531879425,-0.07998549193143845,9.894248962402344,0.0005999999702908099,0.022699998691678047,0.07970000058412552,0.06099999926066736,0,-0.06099999926066736
-0.11548671126365662,-0.1191929429769516,9.924139022827148,0.02019999921321869,-0.016599999740719795,0.10909999907016754,-0.12199999852133472,0,0
-0.13906480371952057,-0.0815177783370018,9.893684387207031,0.0005999999702908099,0.02290000021457672,0.07970000058412552,0.06099999926066736,0.12199999852133472,0
-0.13787728548049927,-0.10611101984977722,9.894354820251465,0.0008999999845400453,-0.006599999964237213,0.07970000058412552,0,0,-0.06099999926066736
-0.14152604341506958,-0.10491392016410828,9.93398380279541,0.0008999999845400453,0.0030999998562037945,0.11889999359846115,0,0.06099999926066736,-0.12199999852133472
-0.16573622822761536,-0.08130709081888199,9.901920318603516,-0.028199998661875725,0.022699998691678047,0.07970000058412552,-0.06099999926066736,0.12199999852133472,0.06099999926066736
-0.13791558146476746,-0.08430462330579758,9.911640167236328,0.001500000013038516,0.02279999852180481,0.08949999511241913,0.06099999926066736,0.1830000044521087,0
-0.1442171335220337,-0.09270349144935608,9.89651870727539,-0.007699999958276749,0.012799999676644802,0.07970000058412552,0.12199999852133472,0.12199999852133472,-0.12199999852133472
-0.14343184232711792,-0.10613017529249191,9.896806716918945,0.002300000051036477,-0.00699999975040555,0.07970000058412552,0,0.06099999926066736,0
-0.13939042389392853,-0.12567643821239471,9.911506652832031,0.0024999999441206455,-0.026599999517202377,0.08949999511241913,0,0,-0.06099999926066736
-0.12132856994867325,-0.09232999384403229,9.924291610717773,0.02199999988079071,0.01249999925494194,0.10909999907016754,-0.12199999852133472,0.06099999926066736,-0.12199999852133472
-0.13510000705718994,-0.09545203298330307,9.908978462219238,-0.016899999231100082,0.012799999676644802,0.13849999010562897,0.12199999852133472,0,-0.06099999926066736
-0.13832738995552063,-0.08836519718170166,9.89494800567627,0.002300000051036477,0.012399999424815178,0.07970000058412552,0,0,0
-0.1592239886522293,-0.11027693003416061,9.903787612915039,-0.01719999872148037,-0.0071000000461936,0.08949999511241913,0,0.06099999926066736,-0.12199999852133472
-0.13759955763816833,-0.09287586808204651,9.878514289855957,0.0023999998811632395,0.012399999424815178,0.060099996626377106,-0.06099999926066736,0.06099999926066736,0.06099999926066736
-0.1292390078306198,-0.10169611126184464,9.897255897521973,0.012399999424815178,0.002699999837204814,0.07970000058412552,0,0.06099999926066736,-0.24399999704266945
-0.12616485357284546,-0.10100658237934113,9.846212387084961,0.027699999511241913,-0.00279999990016222,0.030799999833106995,0,0.12199999852133472,-0.06099999926066736
-0.1306755244731903,-0.11122503876686096,9.909399032592773,0.01679999940097332,-0.008100000210106373,0.08949999511241913,0.06099999926066736,0.12199999852133472,-0.12199999852133472
-0.15256811678409576,-0.08085697889328003,9.910961151123047,-0.001999999862164259,0.014499999582767487,0.08949999511241913,0,0.1830000044521087,-0.06099999926066736
-0.1273619532585144,-0.10849564522504807,9.901622772216797,0.01269999984651804,-0.010900000110268593,0.07970000058412552,-0.06099999926066736,0.1830000044521087,-0.24399999704266945
-0.13606727123260498,-0.10862013697624207,9.913833618164062,0.00969999935477972,-0.012000000104308128,0.09939999878406525,0.12199999852133472,-0.06099999926066736,0.12199999852133472
-0.1533055305480957,-0.10184933990240097,9.91281795501709,-0.008200000040233135,-0.002199999988079071,0.09939999878406525,0.06099999926066736,0.06099999926066736,-0.06099999926066736
-0.13314634561538696,-0.11781387776136398,9.900100708007812,0.016099998727440834,-0.017099998891353607,0.07970000058412552,0.06099999926066736,0.12199999852133472,0.06099999926066736
-0.1431349515914917,-0.11088984459638596,9.877355575561523,-0.00279999990016222,0.0016999999061226845,0.09939999878406525,0.06099999926066736,-0.06099999926066736,-0.12199999852133472
-0.1431349515914917,-0.11088984459638596,9.877355575561523,0.0050999997183680534,-0.005799999926239252,0.060099996626377106,0.06099999926066736,-0.06099999926066736,-0.12199999852133472
-0.15760551393032074,-0.08228392153978348,9.900138854980469,-0.011699999682605267,0.018299998715519905,0.07970000058412552,-0.06099999926066736,-0.06099999926066736,-0.06099999926066736
-0.15168704092502594,-0.08452489227056503,9.931589126586914,-0.001999999862164259,0.01529999915510416,0.11889999359846115,0.12199999852133472,0,-0.06099999926066736
-0.14471513032913208,-0.10046070069074631,9.889479637145996,-0.0017999999690800905,-0.011599999852478504,0.08949999511241913,-0.06099999926066736,0,-0.12199999852133472
-0.14471513032913208,-0.10046070069074631,9.889479637145996,-0.0015999999595806003,-0.00139999995008111,0.06989999860525131,-0.06099999926066736,0.1830000044521087,-0.12199999852133472
-0.12135729193687439,-0.09505938738584518,9.925766944885254,-0.008799999952316284,0.006599999964237213,0.07970000058412552,-0.12199999852133472,-0.06099999926066736,-0.06099999926066736
-0.1233396902680397,-0.08157524466514587,9.886703491210938,0.024699999019503593,0.00559999980032444,0.10909999907016754,0,0.06099999926066736,0
-0.15005898475646973,-0.08350975811481476,9.91588306427002,0.024899998679757118,0.01529999915510416,0.06989999860525131,-0.06099999926066736,0.12199999852133472,-0.12199999852133472
-0.1410950869321823,-0.09369947761297226,9.918717384338379,-0.004399999976158142,0.014800000004470348,0.09929999709129333,-0.06099999926066736,0.12199999852133472,0.06099999926066736
-0.1410950869321823,-0.09369947761297226,9.918717384338379,0.00559999980032444,0.005200000014156103,0.09929999709129333,-0.06099999926066736,0.12199999852133472,0.06099999926066736
-0.14353717863559723,-0.12061987817287445,9.904735565185547,-0.013599999248981476,-0.004299999680370092,0.08949999511241913,0,0.12199999852133472,-0.06099999926066736
-0.1580556184053421,-0.10030747205018997,9.92967414855957,0.006300000008195639,-0.023899998515844345,0.08949999511241913,-0.1830000044521087,0.06099999926066736,0
-0.14057794213294983,-0.10991300642490387,9.907350540161133,0.006399999838322401,-0.013399999588727951,0.08949999511241913,0.06099999926066736,0.06099999926066736,-0.12199999852133472
-0.12978488206863403,-0.11234551668167114,9.91092300415039,0.01640000008046627,-0.013599999248981476,0.08949999511241913,0,0,-0.12199999852133472
-0.13763786852359772,-0.09400593489408493,9.879319190979004,0.006599999964237213,0.0058999997563660145,0.060099996626377106,0.06099999926066736,0.06099999926066736,-0.06099999926066736
-0.1407407522201538,-0.11258494108915329,9.89779281616211,0.0066999997943639755,-0.013700000010430813,0.07970000058412552,0,0,-0.06099999926066736
-0.1354639232158661,-0.10657070577144623,9.898127555847168,0.0066999997943639755,-0.013700000010430813,0.07970000058412552,0,0.12199999852133472,0
-0.15496231615543365,-0.11061212420463562,9.898444175720215,-0.01249999925494194,-0.013700000010430813,0.07970000058412552,0,-0.06099999926066736,-0.06099999926066736
-0.1522616595029831,-0.10726024210453033,9.895944595336914,-0.00279999990016222,-0.013700000010430813,0.07970000058412552,0.06099999926066736,0.12199999852133472,-0.06099999926066736
-0.14908215403556824,-0.07140467315912247,9.921121597290039,-0.0024999999441206455,0.025299999862909317,0.09929999709129333,0.06099999926066736,0.06099999926066736,0
-0.136526957154274,-0.09991482645273209,9.877690315246582,0.007400000002235174,-0.00419999985024333,0.060099996626377106,-0.06099999926066736,0,-0.12199999852133472
-0.16155114769935608,-0.1078156903386116,9.89494800567627,-0.01209999993443489,-0.013799999840557575,0.07970000058412552,0,0.12199999852133472,-0.12199999852133472
-0.11560162901878357,-0.09979990124702454,9.909638404846191,0.027300000190734863,-0.003999999724328518,0.08949999511241913,0,0,-0.06099999926066736
-0.1435946375131607,-0.10078631341457367,9.927030563354492,0.007599999662488699,-0.003999999724328518,0.10909999907016754,0,0.12199999852133472,0
-0.14541423320770264,-0.1053161472082138,9.921131134033203,-0.0016999999061226845,-0.003999999724328518,0.09929999709129333,-0.06099999926066736,0,-0.12199999852133472
-0.15576677024364471,-0.11401188373565674,9.91385269165039,-0.011500000022351742,-0.013599999248981476,0.09929999709129333,0,0,-0.12199999852133472
-0.1566191017627716,-0.08568369597196579,9.9111328125,-0.011500000022351742,0.015699999406933784,0.08949999511241913,-0.06099999926066736,0,-0.06099999926066736
-0.14983871579170227,-0.09020394086837769,9.879712104797363,-0.0015999999595806003,0.006300000008195639,0.060099996626377106,0.06099999926066736,0.1830000044521087,0
-0.15773001313209534,-0.0878097414970398,9.93398380279541,-0.010799999348819256,0.006099999882280827,0.11889999359846115,0.1830000044521087,0,-0.12199999852133472
-0.1294018030166626,-0.09258856624364853,9.879931449890137,0.018400000408291817,0.00559999980032444,0.060099996626377106,0.1830000044521087,0.12199999852133472,-0.06099999926066736
-0.13038823008537292,-0.09590214490890503,9.873113632202148,0.018699999898672104,-0.004600000102072954,0.0502999983727932,0,0.06099999926066736,-0.12199999852133472
-0.136823832988739,-0.09766427427530289,9.878036499023438,0.008999999612569809,-0.0044999998062849045,0.060099996626377106,0,0,-0.12199999852133472
-0.11776599287986755,-0.08676587045192719,9.923142433166504,0.02850000001490116,0.005200000014156103,0.10909999907016754,0.12199999852133472,0.12199999852133472,-0.06099999926066736
-0.15245318412780762,-0.095729760825634,9.919100761413574,-0.0004999999655410647,0.004799999762326479,0.09929999709129333,0,0.1830000044521087,-0.06099999926066736
-0.13335703313350677,-0.12493901699781418,9.893425941467285,0.019500000402331352,-0.034199997782707214,0.07970000058412552,0.12199999852133472,0.12199999852133472,-0.06099999926066736
-0.16692373156547546,-0.10111192613840103,9.901345252990723,-0.019299998879432678,-0.0050999997183680534,0.07970000058412552,-0.06099999926066736,0,0.06099999926066736
-0.1335102617740631,-0.09831549972295761,9.879921913146973,0.01979999989271164,-0.004900000058114529,0.060099996626377106,-0.06099999926066736,0,-0.06099999926066736
-0.1580173224210739,-0.09540415555238724,9.907293319702148,-0.009499999694526196,0.004900000058114529,0.08949999511241913,-0.06099999926066736,0.06099999926066736,0.06099999926066736
-0.17105135321617126,-0.0950210765004158,9.9059419631958,-0.019099999219179153,0.0050999997183680534,0.08949999511241913,0,0,0
-0.14483962953090668,-0.09700348228216171,9.900263786315918,0.00039999998989515007,-0.004600000102072954,0.07970000058412552,-0.12199999852133472,0,-0.06099999926066736
-0.11525686830282211,-0.10502883791923523,9.91663932800293,0.02969999983906746,-0.004299999680370092,0.09929999709129333,-0.06099999926066736,0.06099999926066736,-0.12199999852133472
-0.15245318412780762,-0.07879796624183655,9.938943862915039,0.0004999999655410647,0.015399999916553497,0.11899999529123306,0.12199999852133472,0,-0.06099999926066736
-0.1705150455236435,-0.07877881824970245,9.878552436828613,-0.01899999938905239,0.014999999664723873,0.060099996626377106,-0.06099999926066736,0.06099999926066736,0
-0.11892478913068771,-0.1182544082403183,9.9136323928833,0.029999999329447746,-0.023899998515844345,0.09929999709129333,0.06099999926066736,0.06099999926066736,-0.12199999852133472
-0.15265429019927979,-0.08392155170440674,9.926063537597656,0.0007999999797903001,0.014999999664723873,0.10920000076293945,0.1830000044521087,0.06099999926066736,-0.06099999926066736
-0.12818555533885956,-0.10158119350671768,9.907379150390625,0.020499998703598976,-0.004999999888241291,0.08949999511241913,0.06099999926066736,0.06099999926066736,-0.06099999926066736
-0.11550586670637131,-0.10115022957324982,9.889259338378906,0.030299998819828033,-0.0050999997183680534,0.06989999860525131,0.06099999926066736,0.12199999852133472,-0.06099999926066736
-0.15174449980258942,-0.09580637514591217,9.9202880859375,0.0011999999405816197,-0.0052999998442828655,0.09929999709129333,0.06099999926066736,0.06099999926066736,-0.12199999852133472
-0.12140518426895142,-0.07535989582538605,9.917366981506348,0.030700000002980232,0.023799998685717583,0.09929999709129333,-0.06099999926066736,0.06099999926066736,0
-0.14333607256412506,-0.08279149979352951,9.917157173156738,0.01119999960064888,0.014099999330937862,0.09929999709129333,0,0.12199999852133472,0.06099999926066736
-0.11607089638710022,-0.09553822129964828,9.909341812133789,0.03099999949336052,0.004299999680370092,0.08949999511241913,0,-0.12199999852133472,0
-0.13243766129016876,-0.0948965772986412,9.899219512939453,0.02070000022649765,0.00419999985024333,0.07970000058412552,0.06099999926066736,0.06099999926066736,-0.12199999852133472
-0.1362588107585907,-0.10019255429506302,9.889269828796387,0.010999999940395355,-0.00559999980032444,0.06989999860525131,0.06099999926066736,0.1830000044521087,-0.06099999926066736
-0.13028287887573242,-0.1061684787273407,9.910701751708984,0.021199999377131462,-0.01549999974668026,0.08949999511241913,0,0.06099999926066736,0
-0.1451748162508011,-0.11228806525468826,9.908997535705566,0.011500000022351742,0.023499999195337296,0.10920000076293945,0.06099999926066736,0,0
-0.124402716755867,-0.11175175756216049,9.888742446899414,0.031300000846385956,-0.015799999237060547,0.06989999860525131,0.06099999926066736,0.06099999926066736,-0.06099999926066736
-0.1359236091375351,-0.0745171383023262,9.893473625183105,0.011799999512732029,0.023099999874830246,0.07970000058412552,0,0,0
-0.16377298533916473,-0.07390422374010086,9.92335319519043,-0.017500000074505806,0.023000000044703484,0.10920000076293945,0.24399999704266945,0,-0.12199999852133472
-0.14992490410804749,-0.12174037098884583,9.905242919921875,0.01759999990463257,-0.027799999341368675,0.08980000019073486,0,0.06099999926066736,0
-0.14009910821914673,-0.08833646029233932,9.870221138000488,0.012199999764561653,0.00039999998989515007,0.0502999983727932,-0.12199999852133472,0.1830000044521087,0
-0.16540102660655975,-0.08974425494670868,9.906843185424805,-0.012299999594688416,0.00029999998514540493,0.08959999680519104,0,0.06099999926066736,-0.1830000044521087
-0.13224612176418304,-0.09609368443489075,9.90317440032959,0.019899999722838402,-0.007199999876320362,0.08949999511241913,0.06099999926066736,-0.06099999926066736,-0.12199999852133472
-0.14957056939601898,-0.10911813378334045,9.883293151855469,-0.00009999999747378752,-0.01269999984651804,0.06989999860525131,-0.1830000044521087,0,0
-0.1439872831106186,-0.08473558723926544,9.910127639770508,-0.00029999998514540493,0.013299999758601189,0.08949999511241913,0,-0.06099999926066736,0
-0.1388445496559143,-0.08751286566257477,9.91745376586914,0.0071000000461936,0.0026000000070780516,0.09929999709129333,0.12199999852133472,0.06099999926066736,-0.12199999852133472
-0.12920069694519043,-0.0936037078499794,9.936808586120605,0.013899999670684338,0.0016999999061226845,0.11879999935626984,-0.12199999852133472,0.06099999926066736,-0.06099999926066736
-0.15333425998687744,-0.09040506184101105,9.902034759521484,-0.012000000104308128,0.001500000013038516,0.07970000058412552,-0.06099999926066736,0,0.06099999926066736
-0.134822279214859,-0.11198160797357559,9.907599449157715,0.005699999630451202,-0.014399999752640724,0.08949999511241913,0,0.06099999926066736,0.06099999926066736
-0.14423628151416779,-0.09284714609384537,9.905540466308594,-0.0032999999821186066,0.0038999998942017555,0.08949999511241913,0,0.1830000044521087,0.06099999926066736
-0.13101071119308472,-0.10528741776943207,9.870441436767578,0.016699999570846558,-0.005799999926239252,0.0502999983727932,0.12199999852133472,0,-0.1830000044521087
-0.15470373630523682,-0.09740570187568665,9.941912651062012,-0.012600000016391277,-0.006099999882280827,0.12870000302791595,0,0.12199999852133472,0
-0.11211567372083664,-0.12312900274991989,9.875334739685059,0.03659999743103981,-0.025699999183416367,0.060099996626377106,0,0.06099999926066736,-0.12199999852133472
-0.13268665969371796,-0.09467631578445435,9.874914169311523,0.01719999872148037,0.003599999938160181,0.060099996626377106,0.06099999926066736,-0.06099999926066736,-0.06099999926066736
-0.14589308202266693,-0.09258856624364853,9.871169090270996,-0.0024999999441206455,0.003399999812245369,0.0502999983727932,0,0.06099999926066736,-0.06099999926066736
-0.1494939625263214,-0.11191456764936447,9.905386924743652,-0.0023999998811632395,-0.01599999889731407,0.08949999511241913,-0.06099999926066736,0,0
-0.1468220204114914,-0.07564719021320343,9.917837142944336,-0.0023999998811632395,0.02319999970495701,0.09929999709129333,-0.06099999926066736,0,0
-0.14518438279628754,-0.09286629408597946,9.917089462280273,-0.0023999998811632395,0.0037999998312443495,0.09929999709129333,0.12199999852133472,0.06099999926066736,0
-0.15335340797901154,-0.0856645330786705,9.896835327148438,-0.012000000104308128,0.013199999928474426,0.07970000058412552,0.12199999852133472,0.06099999926066736,-0.06099999926066736
-0.1335485726594925,-0.09097008407115936,9.929597854614258,0.017500000074505806,0.0030999998562037945,0.10909999907016754,0.12199999852133472,0.06099999926066736,-0.06099999926066736
-0.1473679095506668,-0.1130254715681076,9.893166542053223,-0.0018999999156221747,-0.016699999570846558,0.07970000058412552,-0.06099999926066736,0.06099999926066736,-0.12199999852133472
-0.15515385568141937,-0.08974425494670868,9.878255844116211,-0.011500000022351742,0.002899999963119626,0.060099996626377106,0.1830000044521087,0.06099999926066736,-0.06099999926066736
-0.13136504590511322,-0.09268433600664139,9.905665397644043,0.017999999225139618,0.0023999998811632395,0.08949999511241913,0.12199999852133472,0,-0.06099999926066736
-0.14544296264648438,-0.10057562589645386,9.883216857910156,-0.001500000013038516,-0.007599999662488699,0.060099996626377106,0.06099999926066736,0.06099999926066736,-0.06099999926066736
-0.14841178059577942,-0.10786356776952744,9.905740737915039,-0.00139999995008111,-0.017500000074505806,0.08949999511241913,-0.06099999926066736,0.06099999926066736,-0.06099999926066736
-0.14370957016944885,-0.11109095811843872,9.94656753540039,-0.0010999999940395355,-0.016999999061226845,0.12870000302791595,0.06099999926066736,0.06099999926066736,-0.06099999926066736
-0.11877156049013138,-0.1047511175274849,9.888195991516113,0.028299998492002487,-0.0072999997064471245,0.06989999860525131,0.12199999852133472,0.06099999926066736,-0.12199999852133472
-0.17383819818496704,-0.07861600816249847,9.908585548400879,-0.03019999898970127,0.011799999512732029,0.08949999511241913,0,0.06099999926066736,-0.06099999926066736
-0.11951854825019836,-0.10455000400543213,9.900915145874023,0.028599999845027924,-0.007699999958276749,0.07970000058412552,0.06099999926066736,0.12199999852133472,-0.06099999926066736
-0.15147635340690613,-0.09032844752073288,9.898674011230469,-0.00029999998514540493,0.0018999999156221747,0.07970000058412552,0,0.06099999926066736,-0.12199999852133472
-0.11434707790613174,-0.10299855470657349,9.916505813598633,0.03889999911189079,-0.007799999788403511,0.09929999709129333,0.12199999852133472,0,-0.12199999852133472
-0.17224843800067902,-0.09553822129964828,9.886052131652832,-0.01979999989271164,0.001500000013038516,0.06989999860525131,-0.06099999926066736,0.06099999926066736,0
-0.1384902000427246,-0.11081323027610779,9.898176193237305,0.009599999524652958,-0.017799999564886093,0.07970000058412552,0,-0.06099999926066736,-0.12199999852133472
-0.12708422541618347,-0.07803182303905487,9.916093826293945,0.019199999049305916,0.011500000022351742,0.09929999709129333,-0.06099999926066736,0.1830000044521087,-0.12199999852133472
-0.16164693236351013,-0.10086292773485184,9.916295051574707,-0.009599999524652958,-0.007799999788403511,0.09929999709129333,0.06099999926066736,0.06099999926066736,0
-0.15279795229434967,-0.10694419592618942,9.872213363647461,0.00029999998514540493,-0.01769999973475933,0.0502999983727932,-0.06099999926066736,0.06099999926066736,0
-0.15058571100234985,-0.11021946370601654,9.878715515136719,0.00039999998989515007,-0.017500000074505806,0.060099996626377106,0,0,0.06099999926066736
-0.12615527212619781,-0.10975020378828049,9.912367820739746,0.019999999552965164,-0.017400000244379044,0.09929999709129333,0.12199999852133472,0.06099999926066736,-0.06099999926066736
-0.15765339136123657,-0.07854897528886795,9.895312309265137,-0.009099999442696571,0.011500000022351742,0.07970000058412552,0,0.06099999926066736,-0.06099999926066736
-0.11875240504741669,-0.08823111653327942,9.908106803894043,0.029999999329447746,0.001999999862164259,0.08949999511241913,0.06099999926066736,0.06099999926066736,-0.12199999852133472
-0.11875240504741669,-0.08823111653327942,9.908106803894043,0.029999999329447746,0.001999999862164259,0.08949999511241913,0.06099999926066736,0.06099999926066736,-0.12199999852133472
-0.15445473790168762,-0.10162907093763351,9.89992904663086,-0.008899999782443047,-0.007899999618530273,0.07970000058412552,0.1830000044521087,0,-0.06099999926066736
-0.1476360410451889,-0.09340259432792664,9.922931671142578,0.0007999999797903001,0.0013000000035390258,0.10909999907016754,-0.06099999926066736,-0.06099999926066736,0
-0.15290328860282898,-0.08625829964876175,9.922911643981934,0.0005999999702908099,0.001500000013038516,0.10909999907016754,0.1830000044521087,0,-0.06099999926066736
-0.1632845550775528,-0.10637917369604111,9.909552574157715,-0.01889999955892563,-0.01850000023841858,0.08949999511241913,0,0,-0.12199999852133472
-0.1409035623073578,-0.08600930124521255,9.904352188110352,0.010400000028312206,0.010799999348819256,0.08949999511241913,-0.12199999852133472,0.06099999926066736,0
-0.1588888019323349,-0.09010817855596542,9.903844833374023,-0.008899999782443047,0.0013000000035390258,0.08949999511241913,0,0.06099999926066736,-0.06099999926066736
-0.1379251778125763,-0.10232818126678467,9.893281936645508,0.010699999518692493,-0.008299999870359898,0.07970000058412552,0.06099999926066736,-0.06099999926066736,-0.06099999926066736
-0.1478850543498993,-0.08448658883571625,9.86721420288086,0.000699999975040555,0.010999999940395355,0.09929999709129333,0,0,0.12199999852133472
-0.12354081124067307,-0.07176858931779861,9.866783142089844,0.030299998819828033,0.020399998873472214,0.0502999983727932,0,0.1830000044521087,0
-0.13489890098571777,-0.10626424849033356,9.898271560668945,0.011099999770522118,-0.01860000006854534,0.07970000058412552,0,0.12199999852133472,-0.1830000044521087
-0.12405795603990555,-0.10002974420785904,9.917760848999023,0.030899999663233757,-0.008799999952316284,0.09929999709129333,0.06099999926066736,0.1830000044521087,-0.06099999926066736
-0.1426369696855545,-0.12447933107614517,9.881196022033691,0.011799999512732029,-0.0284000001847744,0.060099996626377106,-0.06099999926066736,-0.06099999926066736,-0.12199999852133472
-0.15792153775691986,-0.11602301895618439,9.924646377563477,-0.007899999618530273,-0.028099998831748962,0.10909999907016754,-0.06099999926066736,0.06099999926066736,0
-0.15634137392044067,-0.0921671912074089,9.884385108947754,-0.007699999958276749,0.0013000000035390258,0.06989999860525131,-0.06099999926066736,0.06099999926066736,-0.06099999926066736
-0.12943054735660553,-0.07788816839456558,9.869292259216309,0.02159999869763851,0.01119999960064888,0.0502999983727932,0,0,0
-0.13538731634616852,-0.07677725702524185,9.903404235839844,0.011799999512732029,0.01119999960064888,0.08949999511241913,0,0.06099999926066736,0
-0.14551958441734314,-0.11405976861715317,9.883820533752441,0.002099999925121665,-0.017999999225139618,0.06989999860525131,0.06099999926066736,0.1830000044521087,-0.06099999926066736
-0.1491396129131317,-0.08501331508159637,9.900856971740723,0.0026000000070780516,0.011099999770522118,0.07970000058412552,0.06099999926066736,0.06099999926066736,0
-0.12875059247016907,-0.10206960886716843,9.897247314453125,0.022299999371170998,-0.008599999360740185,0.07970000058412552,0,-0.06099999926066736,-0.06099999926066736
-0.13357730209827423,-0.09944556653499603,9.916860580444336,0.02199999988079071,-0.008499999530613422,0.09929999709129333,-0.1830000044521087,-0.06099999926066736,-0.06099999926066736
-0.14234966039657593,-0.0741819441318512,9.898002624511719,0.012000000104308128,0.021199999377131462,0.07970000058412552,0,0,-0.06099999926066736
-0.1350521296262741,-0.09352709352970123,9.905473709106445,0.011899999342858791,0.001500000013038516,0.08949999511241913,0.06099999926066736,0.12199999852133472,-0.06099999926066736
-0.1288176327943802,-0.0690775066614151,9.884471893310547,0.021900000050663948,0.020899999886751175,0.06989999860525131,-0.12199999852133472,0.06099999926066736,0
-0.1371111422777176,-0.10514376312494278,9.913125038146973,0.012199999764561653,-0.008100000210106373,0.09929999709129333,0.06099999926066736,0.12199999852133472,0
-0.142780601978302,-0.11440453678369522,9.896902084350586,0.012399999424815178,-0.017999999225139618,0.07970000058412552,-0.06099999926066736,0,0
-0.15643712878227234,-0.10311347991228104,9.899343490600586,-0.00699999975040555,-0.007999999448657036,0.07970000058412552,0.06099999926066736,0.06099999926066736,-0.1830000044521087
-0.11645397543907166,-0.07629841566085815,9.923391342163086,0.032099999487400055,0.0210999995470047,0.10909999907016754,0.12199999852133472,0,-0.06099999926066736
-0.1435946375131607,-0.11715307831764221,9.90416145324707,0.012399999424815178,-0.0279999990016222,0.08949999511241913,0.06099999926066736,-0.12199999852133472,0
-0.13845188915729523,-0.11081323027610779,9.914868354797363,0.012000000104308128,-0.018299998715519905,0.09929999709129333,-0.06099999926066736,0,-0.24399999704266945
-0.14718593657016754,-0.08640195429325104,9.865001678466797,0.002199999988079071,0.00139999995008111,0.0502999983727932,0.06099999926066736,0.06099999926066736,-0.12199999852133472
-0.150489941239357,-0.10183018445968628,9.904831886291504,0.0023999998811632395,-0.008499999530613422,0.08949999511241913,-0.06099999926066736,0.12199999852133472,-0.06099999926066736
-0.13872963190078735,-0.11794795095920563,9.891529083251953,0.01249999925494194,-0.027899999171495438,0.06989999860525131,-0.06099999926066736,0.06099999926066736,-0.06099999926066736
-0.13606727123260498,-0.08499416708946228,9.918219566345215,0.012799999676644802,0.01119999960064888,0.09929999709129333,0,0.12199999852133472,0
-0.12694057822227478,-0.10079588741064072,9.921026229858398,0.02290000021457672,-0.008299999870359898,0.09939999878406525,0,0.12199999852133472,-0.1830000044521087
-0.14995364844799042,-0.10205045342445374,9.899574279785156,0.003700000001117587,-0.008299999870359898,0.07970000058412552,0.06099999926066736,0.06099999926066736,-0.1830000044521087
-0.12563812732696533,-0.10641747713088989,9.926772117614746,0.023399999365210533,-0.018199998885393143,0.10920000076293945,-0.1830000044521087,0,0.12199999852133472
-0.13842317461967468,-0.09573933482170105,9.916227340698242,0.013599999248981476,0.0017999999690800905,0.09939999878406525,-0.12199999852133472,0,-0.06099999926066736
-0.136574849486351,-0.0783287063241005,9.90908432006836,0.013599999248981476,0.011899999342858791,0.08959999680519104,0.12199999852133472,0.06099999926066736,-0.06099999926066736
-0.13672807812690735,-0.09005071222782135,9.906258583068848,0.013700000010430813,0.0017999999690800905,0.08959999680519104,-0.06099999926066736,0.06099999926066736,-0.12199999852133472
-0.15894626080989838,-0.12185529619455338,9.9005126953125,-0.00559999980032444,-0.02719999849796295,0.07979999482631683,0.06099999926066736,0.06099999926066736,0
-0.12320561707019806,-0.10922347754240036,9.877930641174316,0.033399999141693115,-0.017400000244379044,0.060099996626377106,-0.06099999926066736,0.1830000044521087,-0.06099999926066736
-0.14329776167869568,-0.09140104800462723,9.90161418914795,0.0142000000923872,0.002300000051036477,0.07979999482631683,0.06099999926066736,0.06099999926066736,-0.06099999926066736
-0.13394121825695038,-0.10339120775461197,9.894670486450195,0.024000000208616257,-0.007599999662488699,0.07979999482631683,0.1830000044521087,-0.06099999926066736,0
-0.1344679445028305,-0.10821791738271713,9.88736343383789,0.013899999670684338,-0.01769999973475933,0.06989999860525131,0,0.12199999852133472,0.06099999926066736
-0.12967953085899353,-0.08072290569543839,9.881521224975586,0.014099999330937862,-0.01759999990463257,0.10920000076293945,-0.12199999852133472,0.12199999852133472,-0.1830000044521087
-0.14863203465938568,-0.10014466941356659,9.928629875183105,0.004799999762326479,-0.007599999662488699,0.10920000076293945,-0.06099999926066736,0.06099999926066736,-0.12199999852133472
-0.14863203465938568,-0.10014466941356659,9.928629875183105,0.004799999762326479,-0.007599999662488699,0.10920000076293945,-0.06099999926066736,0.06099999926066736,-0.12199999852133472
-0.1315470188856125,-0.1368621587753296,9.88264274597168,-0.004799999762326479,-0.026999998837709427,0.07000000029802322,0.06099999926066736,0.12199999852133472,0
-0.1315470188856125,-0.1368621587753296,9.88264274597168,0.024699999019503593,-0.04659999907016754,0.06019999831914902,0.06099999926066736,0.12199999852133472,0
-0.17733372747898102,-0.10609186440706253,9.911487579345703,-0.023899998515844345,-0.01730000041425228,0.08959999680519104,-0.12199999852133472,0.1830000044521087,0
-0.15815138816833496,-0.10223241150379181,9.893195152282715,-0.003599999938160181,-0.00699999975040555,0.07979999482631683,-0.06099999926066736,0,-0.12199999852133472
-0.16598521173000336,-0.10109277069568634,9.880755424499512,-0.013399999588727951,-0.006799999624490738,0.06019999831914902,0,0.06099999926066736,-0.24399999704266945
-0.1484500914812088,-0.09187988191843033,9.887843132019043,0.006300000008195639,0.002899999963119626,0.07000000029802322,0.06099999926066736,0.06099999926066736,0
-0.15456965565681458,-0.11859917640686035,9.901766777038574,0.006300000008195639,0.002899999963119626,0.07000000029802322,0.06099999926066736,0.12199999852133472,-0.06099999926066736
-0.1590994894504547,-0.09795157611370087,9.915328025817871,-0.002899999963119626,-0.0071000000461936,0.09939999878406525,0.06099999926066736,0,0
-0.14984829723834991,-0.09603621810674667,9.89989948272705,0.006799999624490738,-0.0072999997064471245,0.07979999482631683,0,0,0
-0.13877750933170319,-0.10281659662723541,9.906651496887207,0.016599999740719795,-0.007199999876320362,0.08959999680519104,-0.06099999926066736,0.12199999852133472,-0.06099999926066736
-0.13963942229747772,-0.0812687799334526,9.913517951965332,0.016899999231100082,0.012399999424815178,0.09939999878406525,0,0.12199999852133472,-0.12199999852133472
-0.14049175381660461,-0.08651687949895859,9.925354957580566,0.01719999872148037,0.0026000000070780516,0.10920000076293945,0,0.12199999852133472,-0.06099999926066736
-0.11870452016592026,-0.10230902582406998,9.891883850097656,0.03709999844431877,-0.0071000000461936,0.07000000029802322,0,0.06099999926066736,-0.06099999926066736
-0.15725117921829224,-0.07828081399202347,9.867328643798828,-0.0018999999156221747,0.012399999424815178,0.05040000006556511,0,0.12199999852133472,0.24399999704266945
-0.14070244133472443,-0.09199480712413788,9.897801399230957,0.017999999225139618,0.0026000000070780516,0.07979999482631683,0,0.06099999926066736,-0.06099999926066736
-0.12966996431350708,-0.10232818126678467,9.889183044433594,0.027899999171495438,-0.0071000000461936,0.07000000029802322,-0.06099999926066736,0.1830000044521087,-0.06099999926066736
-0.12889423966407776,-0.09842084348201752,9.900693893432617,0.0284000001847744,-0.006899999920278788,0.07979999482631683,-0.06099999926066736,0.12199999852133472,-0.1830000044521087
-0.15523046255111694,-0.09686940163373947,9.894220352172852,-0.0005999999702908099,-0.0066999997943639755,0.07979999482631683,0.06099999926066736,0,-0.06099999926066736
-0.16269078850746155,-0.10884040594100952,9.9331693649292,-0.0005999999702908099,-0.016699999570846558,0.11909999698400497,0.06099999926066736,0,0
-0.1632845550775528,-0.08675629645586014,9.894832611083984,-0.010400000028312206,0.0026000000070780516,0.07979999482631683,0,0.12199999852133472,-0.06099999926066736
-0.12955503165721893,-0.1149216815829277,9.920297622680664,0.028999999165534973,-0.026599999517202377,0.09950000047683716,0,0,0
-0.1400512307882309,-0.12709380686283112,9.896623611450195,0.019199999049305916,-0.036399997770786285,0.07979999482631683,-0.06099999926066736,0.06099999926066736,0
-0.16842730343341827,-0.09557653218507767,9.9059419631958,-0.00989999994635582,0.002899999963119626,0.08959999680519104,0.1830000044521087,0.12199999852133472,-0.1830000044521087
-0.16381128132343292,-0.09486784785985947,9.91006088256836,-0.009599999524652958,0.0023999998811632395,0.08969999849796295,0.12199999852133472,0.12199999852133472,-0.1830000044521087
-0.1418037712574005,-0.10072885453701019,9.908384323120117,0.020099999383091927,-0.007599999662488699,0.08969999849796295,0,0.06099999926066736,0.06099999926066736
-0.129947692155838,-0.08794381469488144,9.91887092590332,0.029999999329447746,-0.017400000244379044,0.07000000029802322,0,-0.06099999926066736,-0.06099999926066736
-0.14072160422801971,-0.08750328421592712,9.887372970581055,0.019999999552965164,0.0018999999156221747,0.07000000029802322,0.12199999852133472,0.12199999852133472,-0.12199999852133472
-0.13135547935962677,-0.07485232502222061,9.915653228759766,0.019999999552965164,0.0018999999156221747,0.07000000029802322,0.12199999852133472,0.12199999852133472,-0.12199999852133472
-0.13922761380672455,-0.08219773322343826,9.908164024353027,0.020600000396370888,0.010999999940395355,0.08969999849796295,0.06099999926066736,-0.06099999926066736,-0.06099999926066736
-0.13939042389392853,-0.1065036728978157,9.908758163452148,0.020399998873472214,-0.018400000408291817,0.08959999680519104,0,0,-0.06099999926066736
-0.1452801674604416,-0.11103349924087524,9.896575927734375,0.010599999688565731,-0.018400000408291817,0.07979999482631683,-0.12199999852133472,0,0.06099999926066736
-0.14483004808425903,-0.09310571104288101,9.925296783447266,0.010499999858438969,0.00139999995008111,0.10929999500513077,0.06099999926066736,0.06099999926066736,0
-0.134822279214859,-0.07804139703512192,9.875545501708984,0.020499998703598976,0.010999999940395355,0.06019999831914902,0.1830000044521087,0.06099999926066736,-0.06099999926066736
-0.13351984322071075,-0.08938991278409958,9.909150123596191,0.030399998649954796,0.000699999975040555,0.08959999680519104,0,0.12199999852133472,-0.12199999852133472
-0.12863565981388092,-0.07082048803567886,9.919417381286621,0.030499998480081558,0.02019999921321869,0.09950000047683716,-0.06099999926066736,0.06099999926066736,-0.12199999852133472
-0.1381550133228302,-0.10681970417499542,9.934605598449707,0.020600000396370888,-0.01860000006854534,0.11909999698400497,-0.12199999852133472,0,-0.12199999852133472
-0.14840218424797058,-0.11052592098712921,9.893837928771973,0.010699999518692493,-0.01809999905526638,0.07979999482631683,-0.06099999926066736,0,-0.06099999926066736
-0.13288776576519012,-0.1085435226559639,9.89892292022705,0.029999999329447746,-0.017799999564886093,0.07979999482631683,-0.12199999852133472,0,-0.06099999926066736
-0.12732364237308502,-0.11875240504741669,9.903040885925293,0.02969999983906746,-0.026999998837709427,0.08969999849796295,-0.06099999926066736,0.06099999926066736,0
-0.14185166358947754,-0.12081141769886017,9.907532691955566,0.01979999989271164,-0.026599999517202377,0.08969999849796295,-0.12199999852133472,-0.06099999926066736,0
-0.15027925372123718,-0.10946290194988251,9.872481346130371,0.00969999935477972,-0.016200000420212746,0.05040000006556511,-0.06099999926066736,0.1830000044521087,-0.12199999852133472
-0.11690407991409302,-0.11541967839002609,9.868056297302246,0.039000000804662704,-0.02539999969303608,0.05040000006556511,-0.12199999852133472,0.06099999926066736,-0.12199999852133472
-0.16054558753967285,-0.11722011864185333,9.906717300415039,0,-0.024899998679757118,0.08969999849796295,-0.06099999926066736,0.06099999926066736,0
-0.13525323569774628,-0.09536584466695786,9.881847381591797,0.01939999870955944,0.004600000102072954,0.06019999831914902,0.12199999852133472,0.06099999926066736,-0.06099999926066736
-0.13993629813194275,-0.11702857911586761,9.878313064575195,0.019299998879432678,-0.024799998849630356,0.06019999831914902,0.12199999852133472,-0.06099999926066736,-0.06099999926066736
-0.12384726852178574,-0.0900411382317543,9.909523963928223,0.03839999809861183,0.00419999985024333,0.08969999849796295,0.06099999926066736,0.06099999926066736,0
-0.1210891455411911,-0.10936713218688965,9.90579891204834,0.03819999843835831,-0.015399999916553497,0.08959999680519104,-0.06099999926066736,-0.06099999926066736,-0.06099999926066736
-0.13731226325035095,-0.10842860490083694,9.884308815002441,0.018199998885393143,-0.014999999664723873,0.07000000029802322,-0.06099999926066736,0.12199999852133472,0
-0.11358092725276947,-0.11559205502271652,9.89722728729248,0.04739999771118164,-0.024399999529123306,0.07979999482631683,0.12199999852133472,-0.06099999926066736,-0.06099999926066736
-0.12919111549854279,-0.11574528366327286,9.903203010559082,0.027400000020861626,-0.02449999935925007,0.08959999680519104,0,0.12199999852133472,0
-0.1483830362558365,-0.12090718746185303,9.894545555114746,0.007999999448657036,-0.024299999698996544,0.07979999482631683,-0.12199999852133472,0.06099999926066736,-0.12199999852133472
-0.12423034012317657,-0.1334049254655838,9.896125793457031,0.03720000013709068,-0.033399999141693115,0.07979999482631683,0,0,-0.06099999926066736
-0.148488387465477,-0.09510727226734161,9.898290634155273,0.007599999662488699,0.005699999630451202,0.07979999482631683,0.06099999926066736,0.06099999926066736,-0.06099999926066736
-0.1360481083393097,-0.09180326759815216,9.894220352172852,0.017400000244379044,0.005399999674409628,0.07979999482631683,0.06099999926066736,0,-0.06099999926066736
-0.1698255091905594,-0.08700528740882874,9.875832557678223,-0.012000000104308128,0.005200000014156103,0.06019999831914902,0.06099999926066736,0.06099999926066736,0
-0.14098018407821655,-0.07822335511445999,9.891146659851074,0.01719999872148037,0.014599999412894249,0.07000000029802322,0.06099999926066736,0.1830000044521087,-0.06099999926066736
-0.1386146992444992,-0.09244491904973984,9.89864444732666,0.017500000074505806,0.004600000102072954,0.07979999482631683,0,0.06099999926066736,0.06099999926066736
-0.13441047072410583,-0.11094730347394943,9.912991523742676,0.017500000074505806,-0.014800000004470348,0.09939999878406525,-0.12199999852133472,0.12199999852133472,0.06099999926066736
-0.13552139699459076,-0.0907498225569725,9.894909858703613,0.01769999973475933,0.004999999888241291,0.07979999482631683,0,0.06099999926066736,0
-0.12066776305437088,-0.10029789805412292,9.911755561828613,0.03709999844431877,-0.004699999932199717,0.08959999680519104,0.12199999852133472,0.12199999852133472,-0.1830000044521087
-0.14916835725307465,-0.08749370276927948,9.890523910522461,0.007999999448657036,0.004699999932199717,0.07000000029802322,0.12199999852133472,0.06099999926066736,0
-0.15886007249355316,-0.09744400531053543,9.900273323059082,-0.001500000013038516,-0.0052999998442828655,0.07979999482631683,0,-0.06099999926066736,-0.1830000044521087
-0.13972561061382294,-0.08491755276918411,9.931741714477539,0.017799999564886093,0.0142000000923872,0.11909999698400497,0,0.12199999852133472,-0.12199999852133472
-0.1656404584646225,-0.10882125794887543,9.90650749206543,-0.01119999960064888,-0.015099999494850636,0.08959999680519104,0.06099999926066736,0.06099999926066736,0.06099999926066736
-0.1508251279592514,-0.10807426273822784,9.895130157470703,0.008499999530613422,-0.01529999915510416,0.07979999482631683,0,0.12199999852133472,0
-0.16249924898147583,-0.095270074903965,9.920623779296875,-0.0008999999845400453,0.00419999985024333,0.09950000047683716,-0.06099999926066736,0,-0.06099999926066736
-0.1501164436340332,-0.09871772676706314,9.899956703186035,0.008799999952316284,-0.0052999998442828655,0.07979999482631683,0,0,0
-0.14911088347434998,-0.06560112535953522,9.915270805358887,0.008799999952316284,0.033799998462200165,0.09950000047683716,0,0,0.06099999926066736
-0.16179057955741882,-0.09629479050636292,9.944862365722656,-0.0008999999845400453,-0.0052999998442828655,0.12889999151229858,0,0.12199999852133472,-0.06099999926066736
-0.16429011523723602,-0.09028055518865585,9.885342597961426,-0.010400000028312206,0.004399999976158142,0.07000000029802322,0.06099999926066736,0.12199999852133472,-0.06099999926066736
-0.1550101935863495,-0.1131499707698822,9.911813735961914,-0.00019999999494757503,-0.01529999915510416,0.08969999849796295,0.06099999926066736,0.06099999926066736,-0.06099999926066736
-0.14702312648296356,-0.08372044563293457,9.867443084716797,0.009499999694526196,0.013599999248981476,0.05040000006556511,-0.06099999926066736,0.06099999926066736,0
-0.13068510591983795,-0.1018972247838974,9.901326179504395,0.02889999933540821,-0.005699999630451202,0.07979999482631683,0.1830000044521087,0.06099999926066736,0.06099999926066736
-0.1568489372730255,-0.11059296131134033,9.90633487701416,-0.00019999999494757503,-0.015799999237060547,0.08969999849796295,-0.06099999926066736,0.12199999852133472,-0.12199999852133472
-0.12670116126537323,-0.08790551126003265,9.918956756591797,0.029099998995661736,0.0037999998312443495,0.09950000047683716,0,0.12199999852133472,-0.06099999926066736
-0.14375744760036469,-0.10777737945318222,9.905290603637695,0.00969999935477972,-0.01549999974668026,0.08969999849796295,0.06099999926066736,-0.06099999926066736,0
-0.1276109516620636,-0.09696517139673233,9.908173561096191,0.02889999933540821,-0.005799999926239252,0.08969999849796295,-0.1830000044521087,0.06099999926066736,-0.06099999926066736
-0.1466783732175827,-0.08594226092100143,9.903825759887695,0.00930000003427267,0.0139999995008111,0.08969999849796295,0,0.12199999852133472,0
-0.14548127353191376,-0.09146808087825775,9.903768539428711,0.009499999694526196,0.00419999985024333,0.08969999849796295,-0.12199999852133472,0.06099999926066736,0
-0.1338646113872528,-0.08992621302604675,9.903280258178711,0.028999999165534973,0.004399999976158142,0.08969999849796295,0,0.06099999926066736,-0.12199999852133472
-0.13736014068126678,-0.1080646887421608,9.898999214172363,0.019099999219179153,-0.01489999983459711,0.07989999651908875,0.12199999852133472,-0.12199999852133472,-0.06099999926066736
-0.14666879177093506,-0.10344866663217545,9.891280174255371,0.008799999952316284,-0.0052999998442828655,0.05040000006556511,-0.06099999926066736,0.06099999926066736,-0.1830000044521087
-0.12397176027297974,-0.11009497195482254,9.905961990356445,0.03819999843835831,-0.01489999983459711,0.08969999849796295,0.06099999926066736,0.12199999852133472,0
-0.12136687338352203,-0.10891702026128769,9.897046089172363,0.038100000470876694,-0.01489999983459711,0.07979999482631683,0.06099999926066736,0.12199999852133472,0
-0.1183597594499588,-0.11935574561357498,9.899343490600586,0.03799999877810478,-0.02459999918937683,0.07979999482631683,-0.12199999852133472,0.06099999926066736,-0.06099999926066736
-0.14686033129692078,-0.07670064270496368,9.903692245483398,0.008599999360740185,0.014699999243021011,0.08969999849796295,-0.06099999926066736,0.1830000044521087,-0.06099999926066736
-0.16702908277511597,-0.07598238438367844,9.896672248840332,-0.010300000198185444,0.024399999529123306,0.07989999651908875,0,0.12199999852133472,-0.06099999926066736
-0.1253603994846344,-0.09553822129964828,9.894421577453613,0.02879999950528145,0.004699999932199717,0.07989999651908875,-0.06099999926066736,0.06099999926066736,0
-0.14881399273872375,-0.09831549972295761,9.922586441040039,0.00930000003427267,-0.004799999762326479,0.10929999500513077,0,0.1830000044521087,-0.1830000044521087
-0.13449667394161224,-0.10056604444980621,9.897294998168945,0.019600000232458115,-0.004799999762326479,0.07989999651908875,-0.06099999926066736,0,-0.06099999926066736
-0.1601625233888626,-0.08109639585018158,9.919934272766113,0,0.014800000004470348,0.09950000047683716,0.06099999926066736,0.06099999926066736,-0.06099999926066736
-0.12941139936447144,-0.08072290569543839,9.90851879119873,0.029600000008940697,0.014699999243021011,0.08969999849796295,0,0.06099999926066736,-0.06099999926066736
-0.13454455137252808,-0.08831731230020523,9.914140701293945,0.019899999722838402,0.004900000058114529,0.09950000047683716,0,0.06099999926066736,-0.12199999852133472
-0.1513039767742157,-0.0966682881116867,9.88121509552002,0.010199999436736107,-0.004799999762326479,0.06030000001192093,0,0.1830000044521087,-0.12199999852133472
-0.1262797713279724,-0.08398859202861786,9.884049415588379,0.030299998819828033,0.014699999243021011,0.07009999454021454,0.12199999852133472,0.12199999852133472,-0.12199999852133472
-0.14993450045585632,-0.09459012001752853,9.882603645324707,0.010999999940395355,0.0044999998062849045,0.06030000001192093,0.12199999852133472,0.12199999852133472,-0.12199999852133472
-0.14876611530780792,-0.10426269471645355,9.881627082824707,0.011299999430775642,-0.005499999970197678,0.06030000001192093,0,0.12199999852133472,0
-0.15846742689609528,-0.12016976624727249,9.913134574890137,0.0017999999690800905,-0.025100000202655792,0.09950000047683716,0.06099999926066736,0.12199999852133472,0
-0.13807840645313263,-0.09793242812156677,9.898961067199707,0.021699998527765274,-0.005699999630451202,0.07989999651908875,0.06099999926066736,0,-0.12199999852133472
-0.1542440503835678,-0.08853758126497269,9.879692077636719,0.002099999925121665,0.0038999998942017555,0.06030000001192093,0,0.12199999852133472,-0.06099999926066736
-0.15739482641220093,-0.0595964714884758,9.907302856445312,0.0023999998811632395,0.032899998128414154,0.08969999849796295,0.06099999926066736,0.12199999852133472,-0.06099999926066736
-0.1292773187160492,-0.10210791975259781,9.89713191986084,0.03179999813437462,-0.006300000008195639,0.07989999651908875,0,0.1830000044521087,-0.1830000044521087
-0.16035404801368713,-0.097271628677845,9.909590721130371,0.00279999990016222,-0.006300000008195639,0.08969999849796295,0,0.12199999852133472,-0.06099999926066736
-0.13396036624908447,-0.11651142686605453,9.890140533447266,0.032499998807907104,-0.02579999901354313,0.07009999454021454,-0.06099999926066736,0.06099999926066736,-0.06099999926066736
-0.1490725725889206,-0.0947912335395813,9.90372085571289,0.013100000098347664,0.003599999938160181,0.08969999849796295,-0.06099999926066736,0.06099999926066736,-0.12199999852133472
-0.13914142549037933,-0.10466492176055908,9.912779808044434,0.023000000044703484,-0.0058999997563660145,0.08969999849796295,0,-0.06099999926066736,-0.06099999926066736
-0.15102624893188477,-0.09545203298330307,9.913182258605957,0.013100000098347664,0.003700000001117587,0.09950000047683716,0,0,-0.12199999852133472
-0.1534491777420044,-0.11513236910104752,9.919341087341309,0.0032999999821186066,-0.025599999353289604,0.09950000047683716,0,0,0
-0.169538214802742,-0.1261744350194931,9.882497787475586,-0.006399999838322401,-0.03539999946951866,0.06030000001192093,0,0,-0.1830000044521087
-0.1306755244731903,-0.09703220427036285,9.897255897521973,0.03269999846816063,-0.0058999997563660145,0.07989999651908875,-0.06099999926066736,0.06099999926066736,-0.06099999926066736
-0.16919344663619995,-0.0904146358370781,9.890371322631836,-0.006199999712407589,0.0038999998942017555,0.07009999454021454,0,0.12199999852133472,-0.06099999926066736
-0.1329452395439148,-0.11923124641180038,9.904630661010742,0.03319999948143959,-0.025299999862909317,0.08969999849796295,0,0.12199999852133472,-0.12199999852133472
-0.13284945487976074,-0.10876379162073135,9.893885612487793,0.032999999821186066,-0.01529999915510416,0.07989999651908875,0,0.06099999926066736,-0.12199999852133472
-0.15502934157848358,-0.10904151946306229,9.901604652404785,0.003700000001117587,-0.015099999494850636,0.07989999651908875,0,0.06099999926066736,-0.06099999926066736
-0.15662868320941925,-0.10420523583889008,9.888263702392578,0.0037999998312443495,-0.0052999998442828655,0.07009999454021454,0.1830000044521087,-0.06099999926066736,0.06099999926066736
-0.14402560889720917,-0.11857043951749802,9.891098976135254,0.013299999758601189,-0.02499999850988388,0.07009999454021454,0.06099999926066736,0.1830000044521087,0.06099999926066736
-0.1652861088514328,-0.1069825068116188,9.934453010559082,-0.005699999630451202,-0.01529999915510416,0.11909999698400497,-0.06099999926066736,0,0.06099999926066736
-0.14977167546749115,-0.09934978932142258,9.924559593200684,0.013599999248981476,-0.0052999998442828655,0.10929999500513077,0.06099999926066736,0.12199999852133472,-0.12199999852133472
-0.12170206755399704,-0.0988134890794754,9.896987915039062,0.042799998074769974,-0.005399999674409628,0.07989999651908875,0,0.06099999926066736,0.06099999926066736
-0.13645035028457642,-0.10416693240404129,9.91789436340332,0.023099999874830246,-0.0052999998442828655,0.09950000047683716,0,0.12199999852133472,-0.06099999926066736
-0.16614802181720734,-0.1209838017821312,9.91446590423584,-0.005799999926239252,-0.024699999019503593,0.09950000047683716,0,0.06099999926066736,0
-0.12137644737958908,-0.08754158765077591,9.937910079956055,0.042899999767541885,0.004600000102072954,0.11909999698400497,0.12199999852133472,0,0
-0.1465921849012375,-0.10107361525297165,9.902178764343262,0.013299999758601189,-0.005399999674409628,0.07989999651908875,-0.06099999926066736,0,-0.06099999926066736
-0.1473679095506668,-0.09710881859064102,9.899248123168945,0.013100000098347664,-0.005200000014156103,0.07989999651908875,0.06099999926066736,0,0.12199999852133472
-0.12564770877361298,-0.10914686322212219,9.906181335449219,0.03229999914765358,-0.014999999664723873,0.08969999849796295,0.06099999926066736,0.06099999926066736,-0.06099999926066736
-0.12232455611228943,-0.07402871549129486,9.90894889831543,0.04179999977350235,0.02369999885559082,0.08969999849796295,-0.12199999852133472,0,-0.06099999926066736
-0.1568872481584549,-0.10856268554925919,9.929500579833984,0.0026000000070780516,-0.014999999664723873,0.10929999500513077,-0.06099999926066736,0.06099999926066736,-0.12199999852133472
-0.1487182378768921,-0.09930191189050674,9.858163833618164,0.012299999594688416,-0.004900000058114529,0.040699999779462814,0.12199999852133472,0.24399999704266945,-0.12199999852133472
-0.13536816835403442,-0.08461108803749084,9.903912544250488,0.022699998691678047,0.0044999998062849045,0.08969999849796295,0,0.06099999926066736,-0.1830000044521087
-0.12655749917030334,-0.08155608177185059,9.910319328308105,0.03280000016093254,0.014299999922513962,0.08969999849796295,0,-0.06099999926066736,0.06099999926066736
-0.1414685994386673,-0.08674672245979309,9.916027069091797,0.02279999852180481,0.0044999998062849045,0.09950000047683716,-0.12199999852133472,-0.06099999926066736,-0.06099999926066736
-0.14167927205562592,-0.11376288533210754,9.899985313415527,0.02279999852180481,0.0044999998062849045,0.09950000047683716,0,-0.1830000044521087,0
-0.1566191017627716,-0.0984591543674469,9.914724349975586,0.0024999999441206455,-0.004900000058114529,0.09950000047683716,0,0.06099999926066736,-0.06099999926066736
-0.14369040727615356,-0.09222465008497238,9.909141540527344,0.012399999424815178,0.004799999762326479,0.08969999849796295,0,0.06099999926066736,-0.12199999852133472
-0.1517828106880188,-0.11738292127847672,9.892505645751953,0.012600000016391277,-0.02449999935925007,0.07009999454021454,0.12199999852133472,0,-0.06099999926066736
-0.12491986900568008,-0.11040142923593521,9.88100528717041,0.032099999487400055,-0.014999999664723873,0.06030000001192093,0,0.06099999926066736,-0.12199999852133472
-0.1397351771593094,-0.10807426273822784,9.885765075683594,0.02239999920129776,-0.01489999983459711,0.07009999454021454,0.12199999852133472,0.06099999926066736,-0.06099999926066736
-0.13614389300346375,-0.10195468366146088,9.891883850097656,0.022499999031424522,-0.005399999674409628,0.07009999454021454,0,0.12199999852133472,0
-0.15212757885456085,-0.10349655151367188,9.913335800170898,0.012899999506771564,-0.005399999674409628,0.09950000047683716,0,-0.06099999926066736,0.06099999926066736
-0.13793475925922394,-0.1110047698020935,9.890734672546387,0.022199999541044235,-0.014999999664723873,0.07009999454021454,0.12199999852133472,0,-0.12199999852133472
-0.17508317530155182,-0.09085516631603241,9.860501289367676,-0.016599999740719795,0.004100000020116568,0.040699999779462814,0,0.06099999926066736,0
-0.15004940330982208,-0.1255040466785431,9.908221244812012,0.012799999676644802,-0.03460000082850456,0.08969999849796295,0,0.06099999926066736,-0.06099999926066736
-0.13095326721668243,-0.08794381469488144,9.912961959838867,0.03199999779462814,0.00419999985024333,0.09950000047683716,0,0,0
-0.14712847769260406,-0.1023760661482811,9.896759033203125,0.012199999764561653,-0.005499999970197678,0.07989999651908875,-0.12199999852133472,0,0.06099999926066736
-0.14308705925941467,-0.07150044292211533,9.881349563598633,0.021699998527765274,0.023799998685717583,0.06030000001192093,0,0.12199999852133472,0
-0.1460941880941391,-0.09098923951387405,9.912521362304688,0.01209999993443489,0.004100000020116568,0.09950000047683716,-0.12199999852133472,-0.06099999926066736,-0.12199999852133472
-0.15145720541477203,-0.10282617062330246,9.931474685668945,0.011799999512732029,-0.005200000014156103,0.11909999698400497,0.06099999926066736,0,0
-0.12418245524168015,-0.06660669296979904,9.901670455932617,0.040699999779462814,0.033299997448921204,0.07989999651908875,0.06099999926066736,0.12199999852133472,-0.06099999926066736
-0.14924496412277222,-0.10457872599363327,9.87472152709961,0.011399999260902405,-0.0058999997563660145,0.06030000001192093,0.12199999852133472,-0.06099999926066736,-0.06099999926066736
-0.1303403526544571,-0.11736376583576202,9.908490180969238,0.030499998480081558,-0.025499999523162842,0.08969999849796295,0.06099999926066736,0.12199999852133472,-0.06099999926066736
-0.14620910584926605,-0.10621636360883713,9.898022651672363,0.011099999770522118,-0.015699999406933784,0.07989999651908875,0.06099999926066736,0.06099999926066736,0
-0.12919111549854279,-0.09985736012458801,9.909486770629883,0.011099999770522118,-0.015699999406933784,0.07989999651908875,0.06099999926066736,0.06099999926066736,0
-0.15223293006420135,-0.08808746933937073,9.896231651306152,0.011099999770522118,0.003599999938160181,0.07989999651908875,0.06099999926066736,0.06099999926066736,-0.06099999926066736
-0.1293635070323944,-0.10661859065294266,9.925814628601074,0.011099999770522118,0.003599999938160181,0.07989999651908875,0,0.12199999852133472,-0.06099999926066736
-0.13408486545085907,-0.09308656305074692,9.920536994934082,0.020899999886751175,0.003599999938160181,0.09950000047683716,0,0.06099999926066736,-0.1830000044521087
-0.15423446893692017,-0.07713159918785095,9.873946189880371,0.00139999995008111,0.013199999928474426,0.06030000001192093,0.06099999926066736,0.06099999926066736,-0.06099999926066736
-0.14773182570934296,-0.07064810395240784,9.913335800170898,0.01119999960064888,0.022599998861551285,0.09950000047683716,-0.12199999852133472,0,-0.06099999926066736
-0.16348567605018616,-0.09830592572689056,9.890007019042969,-0.008200000040233135,-0.006300000008195639,0.07009999454021454,-0.06099999926066736,0.12199999852133472,-0.06099999926066736
-0.15739482641220093,-0.06450936943292618,9.926820755004883,0.0017999999690800905,0.03269999846816063,0.10929999500513077,0.06099999926066736,0.12199999852133472,-0.06099999926066736
-0.140070378780365,-0.10115022957324982,9.909975051879883,0.02149999886751175,-0.0064999996684491634,0.08969999849796295,-0.06099999926066736,-0.06099999926066736,-0.06099999926066736
-0.11098561435937881,-0.10314220935106277,9.924042701721191,0.0502999983727932,-0.006300000008195639,0.10929999500513077,-0.06099999926066736,0,0
-0.16381128132343292,-0.10229945182800293,9.929932594299316,-0.00839999970048666,-0.006099999882280827,0.10929999500513077,0,0.06099999926066736,-0.06099999926066736
-0.12862609326839447,-0.11126334220170975,9.896001815795898,0.030499998480081558,-0.015699999406933784,0.07989999651908875,0,0.06099999926066736,-0.12199999852133472
-0.1152760237455368,-0.0894569531083107,9.927231788635254,0.04010000079870224,0.003700000001117587,0.10929999500513077,0.06099999926066736,0.06099999926066736,-0.12199999852133472
-0.13628754019737244,-0.10116938501596451,9.900483131408691,0.020399998873472214,-0.006099999882280827,0.07989999651908875,-0.06099999926066736,0.06099999926066736,-0.12199999852133472
-0.13876792788505554,-0.09778877347707748,9.907196998596191,0.020399998873472214,-0.005799999926239252,0.08969999849796295,0.12199999852133472,0.06099999926066736,-0.06099999926066736
-0.1516583114862442,-0.10024043917655945,9.891519546508789,0.010599999688565731,-0.006099999882280827,0.07009999454021454,0,0.06099999926066736,-0.1830000044521087
-0.14462894201278687,-0.11354261636734009,9.879146575927734,0.010599999688565731,-0.015699999406933784,0.06030000001192093,0,0.1830000044521087,0
-0.16859009861946106,-0.10707827657461166,9.881742477416992,-0.008299999870359898,-0.01549999974668026,0.06030000001192093,0,0,-0.12199999852133472
-0.14759774506092072,-0.09332598000764847,9.889116287231445,0.010999999940395355,0.003999999724328518,0.07009999454021454,-0.06099999926066736,0,0.06099999926066736
-0.14939819276332855,-0.09634267538785934,9.895293235778809,0.010900000110268593,-0.005499999970197678,0.07989999651908875,0,0.12199999852133472,-0.12199999852133472
-0.13462117314338684,-0.10415735095739365,9.90859603881836,0.0210999995470047,-0.00559999980032444,0.08969999849796295,-0.1830000044521087,0.1830000044521087,-0.12199999852133472
-0.14525143802165985,-0.0991678312420845,9.906661033630371,0.011799999512732029,-0.0050999997183680534,0.08969999849796295,0.06099999926066736,0.06099999926066736,-0.12199999852133472
-0.10939586907625198,-0.07792647182941437,9.896998405456543,0.0510999970138073,0.0142000000923872,0.07989999651908875,-0.06099999926066736,0,-0.1830000044521087
-0.14269442856311798,-0.10075758397579193,9.904687881469727,0.021699998527765274,-0.0050999997183680534,0.08969999849796295,0.06099999926066736,0,-0.1830000044521087
-0.13335703313350677,-0.08701486885547638,9.873984336853027,0.03139999881386757,0.004399999976158142,0.06030000001192093,0.06099999926066736,0.12199999852133472,-0.12199999852133472
-0.15250106155872345,-0.10463619232177734,9.927968978881836,0.01209999993443489,-0.005399999674409628,0.10929999500513077,0.12199999852133472,0.1830000044521087,-0.12199999852133472
-0.12572431564331055,-0.08338525146245956,9.931053161621094,0.03219999745488167,0.013700000010430813,0.10929999500513077,-0.1830000044521087,-0.06099999926066736,-0.06099999926066736
-0.15191689133644104,-0.11384908109903336,9.865020751953125,0.012399999424815178,-0.014999999664723873,0.05049999803304672,0,0.06099999926066736,-0.06099999926066736
-0.14673584699630737,-0.09813353419303894,9.914006233215332,0.012600000016391277,-0.005200000014156103,0.09950000047683716,0.06099999926066736,0,-0.06099999926066736
-0.15028883516788483,-0.07766789942979813,9.893952369689941,0.01249999925494194,0.014099999330937862,0.07989999651908875,0.06099999926066736,-0.06099999926066736,0
-0.13193008303642273,-0.12122321873903275,9.866705894470215,0.03189999982714653,-0.025100000202655792,0.05049999803304672,0.12199999852133472,0.06099999926066736,-0.06099999926066736
-0.15519215166568756,-0.0996466726064682,9.897994041442871,0.002699999837204814,-0.0058999997563660145,0.07989999651908875,0.1830000044521087,0.12199999852133472,0
-0.1390935331583023,-0.09638097882270813,9.886223793029785,0.022599998861551285,-0.006300000008195639,0.07009999454021454,0.12199999852133472,0.1830000044521087,0
-0.14048217236995697,-0.08315540850162506,9.899076461791992,0.023000000044703484,0.012799999676644802,0.07989999651908875,-0.06099999926066736,0,-0.06099999926066736
-0.14828728139400482,-0.08086655288934708,9.91059684753418,0.013199999928474426,0.012999999336898327,0.08969999849796295,-0.06099999926066736,0.12199999852133472,0
-0.12722787261009216,-0.08617210388183594,9.904362678527832,0.03309999778866768,0.013100000098347664,0.08969999849796295,-0.06099999926066736,0.12199999852133472,0
-0.13062764704227448,-0.08491755276918411,9.923774719238281,0.033399999141693115,0.013299999758601189,0.10929999500513077,0.1830000044521087,0,-0.06099999926066736
-0.1591378003358841,-0.09086474776268005,9.92024040222168,0.0038999998942017555,0.002899999963119626,0.09950000047683716,-0.12199999852133472,0.12199999852133472,0
-0.1248815581202507,-0.08209238201379776,9.898721694946289,0.03319999948143959,0.012899999506771564,0.07989999651908875,0,0.12199999852133472,-0.06099999926066736
-0.1358182728290558,-0.11886732280254364,9.92138957977295,0.023499999195337296,-0.025999998673796654,0.09950000047683716,0.06099999926066736,-0.12199999852133472,0.06099999926066736
-0.12832920253276825,-0.08808746933937073,9.905118942260742,0.032600000500679016,0.0030999998562037945,0.08969999849796295,0.06099999926066736,0.06099999926066736,0
-0.13307930529117584,-0.09346006065607071,9.897677421569824,0.03229999914765358,0.002899999963119626,0.07989999651908875,-0.12199999852133472,0.06099999926066736,-0.12199999852133472
-0.16177141666412354,-0.10348697751760483,9.888263702392578,0.003000000026077032,-0.006399999838322401,0.07009999454021454,0,0.06099999926066736,0.06099999926066736
-0.1322173923254013,-0.12954546511173248,9.890782356262207,0.032099999487400055,-0.03529999777674675,0.07009999454021454,0.12199999852133472,0,0.06099999926066736
-0.15049950778484344,-0.09510727226734161,9.895072937011719,0.012399999424815178,0.003399999812245369,0.07989999651908875,0.06099999926066736,0,0.06099999926066736
-0.1620587259531021,-0.11388739198446274,9.900148391723633,0.0024999999441206455,-0.016099998727440834,0.07989999651908875,0,0.06099999926066736,0
-0.13172897696495056,-0.09738655388355255,9.9227876663208,0.03179999813437462,-0.006199999712407589,0.10929999500513077,0,0,-0.06099999926066736
-0.1337592601776123,-0.0927896797657013,9.896537780761719,0.03139999881386757,0.003499999875202775,0.07989999651908875,-0.12199999852133472,0.06099999926066736,-0.06099999926066736
-0.13158532977104187,-0.09966582804918289,9.895752906799316,0.031099999323487282,-0.0058999997563660145,0.07989999651908875,-0.06099999926066736,0.12199999852133472,-0.12199999852133472
-0.13972561061382294,-0.09581594914197922,9.895800590515137,0.021299999207258224,-0.005699999630451202,0.07989999651908875,0,0,-0.06099999926066736
-0.1422155797481537,-0.10656112432479858,9.878572463989258,0.020999999716877937,-0.015199999324977398,0.06030000001192093,-0.12199999852133472,0,0
-0.1285877823829651,-0.0931248739361763,9.906631469726562,0.030499998480081558,0.0044999998062849045,0.08969999849796295,0.06099999926066736,0.06099999926066736,-0.06099999926066736
-0.14190912246704102,-0.10397539287805557,9.906545639038086,0.020600000396370888,-0.0052999998442828655,0.08969999849796295,0.06099999926066736,0.1830000044521087,-0.12199999852133472
-0.14518438279628754,-0.10109277069568634,9.936846733093262,0.01119999960064888,-0.005399999674409628,0.11909999698400497,0,0.06099999926066736,-0.06099999926066736
-0.13724522292613983,-0.10397539287805557,9.936473846435547,0.020899999886751175,-0.005399999674409628,0.11909999698400497,0.06099999926066736,0.06099999926066736,-0.06099999926066736
-0.14257949590682983,-0.09706093370914459,9.909926414489746,0.020899999886751175,-0.005499999970197678,0.08969999849796295,-0.12199999852133472,0.06099999926066736,-0.06099999926066736
-0.15658079087734222,-0.09642887115478516,9.917817115783691,0.00139999995008111,-0.0050999997183680534,0.09950000047683716,0.06099999926066736,0.12199999852133472,0
-0.1283387839794159,-0.12235328555107117,9.866849899291992,0.03059999831020832,-0.02449999935925007,0.05049999803304672,-0.12199999852133472,0,0.06099999926066736
-0.14004163444042206,-0.1104205846786499,9.879327774047852,0.020499998703598976,-0.014099999330937862,0.06030000001192093,0,-0.06099999926066736,-0.06099999926066736
-0.15317144989967346,-0.11514194309711456,9.872241973876953,0.010300000198185444,-0.023499999195337296,0.05049999803304672,0.06099999926066736,0.12199999852133472,0
-0.14889061450958252,-0.09356539696455002,9.897294998168945,0.010499999858438969,0.005499999970197678,0.07989999651908875,0.06099999926066736,0,0
-0.1241728737950325,-0.07879796624183655,9.87477970123291,0.03929999843239784,0.01489999983459711,0.06030000001192093,-0.06099999926066736,0.1830000044521087,-0.06099999926066736
-0.1473008692264557,-0.11548671126365662,9.914963722229004,0.010300000198185444,-0.023799998685717583,0.09950000047683716,0.06099999926066736,0.06099999926066736,-0.06099999926066736
-0.12150094658136368,-0.09680236130952835,9.854687690734863,0.03909999877214432,-0.004299999680370092,0.0405999980866909,0.12199999852133472,0.12199999852133472,-0.1830000044521087
-0.14840218424797058,-0.07540777325630188,9.905128479003906,0.010099999606609344,0.024699999019503593,0.08969999849796295,-0.12199999852133472,0.24399999704266945,0
-0.11630074679851532,-0.11376288533210754,9.91451358795166,0.04019999876618385,-0.014099999330937862,0.09950000047683716,0.12199999852133472,0.06099999926066736,-0.06099999926066736
-0.15923357009887695,-0.09779834747314453,9.88361930847168,0.0010999999940395355,-0.004600000102072954,0.07009999454021454,0.06099999926066736,0.06099999926066736,0
-0.13452540338039398,-0.10455957800149918,9.912454605102539,0.020899999886751175,-0.004799999762326479,0.09950000047683716,-0.06099999926066736,0.06099999926066736,-0.06099999926066736
-0.13327084481716156,-0.11341812461614609,9.921676635742188,0.030799999833106995,-0.014399999752640724,0.10929999500513077,0,0,0
-0.1460750252008438,-0.0961032584309578,9.874348640441895,0.01119999960064888,-0.004600000102072954,0.06030000001192093,-0.12199999852133472,0.06099999926066736,-0.06099999926066736
-0.14722426235675812,-0.09328767657279968,9.887899398803711,0.011299999430775642,0.005499999970197678,0.07009999454021454,-0.06099999926066736,0.06099999926066736,-0.06099999926066736
-0.15625517070293427,-0.08261910825967789,9.949823379516602,0.0016999999061226845,0.015399999916553497,0.12889999151229858,-0.06099999926066736,0,-0.12199999852133472
-0.13743674755096436,-0.09028055518865585,9.896261215209961,0.021199999377131462,0.005799999926239252,0.07989999651908875,-0.06099999926066736,0.12199999852133472,-0.1830000044521087
-0.1410088986158371,-0.11368627101182938,9.913996696472168,0.02149999886751175,-0.013499999418854713,0.09950000047683716,-0.06099999926066736,0.12199999852133472,-0.12199999852133472
-0.1395915448665619,-0.09311529248952866,9.917530059814453,0.002300000051036477,-0.003599999938160181,0.09950000047683716,0,0.12199999852133472,0
-0.12020807713270187,-0.12420160323381424,9.90710163116455,0.041600000113248825,-0.02290000021457672,0.08969999849796295,0.1830000044521087,0,-0.06099999926066736
-0.14532804489135742,-0.09078813344240189,9.899238586425781,0.012000000104308128,0.005799999926239252,0.07989999651908875,-0.06099999926066736,0.1830000044521087,-0.06099999926066736
-0.1452801674604416,-0.12555193901062012,9.885821342468262,0.012399999424815178,-0.03269999846816063,0.07009999454021454,0.06099999926066736,0.06099999926066736,-0.06099999926066736
-0.12386641651391983,-0.10788273066282272,9.850090980529785,0.04099999740719795,-0.012999999336898327,0.030899999663233757,0.06099999926066736,0.12199999852133472,-0.12199999852133472
-0.14326903223991394,-0.10026916861534119,9.89326286315918,0.021399999037384987,-0.0032999999821186066,0.07989999651908875,0,0.06099999926066736,-0.06099999926066736
-0.13337619602680206,-0.0816231220960617,9.908835411071777,0.03099999949336052,0.016099998727440834,0.08969999849796295,-0.06099999926066736,0.1830000044521087,0
-0.1590994894504547,-0.12538912892341614,9.90798282623291,0.002099999925121665,-0.03240000084042549,0.08969999849796295,0,0.12199999852133472,-0.06099999926066736
-0.13636414706707,-0.11470141261816025,9.884424209594727,0.021699998527765274,-0.012600000016391277,0.07009999454021454,0,0.06099999926066736,-0.06099999926066736
-0.15175408124923706,-0.09710881859064102,9.916065216064453,0.012000000104308128,-0.00279999990016222,0.09950000047683716,0.06099999926066736,-0.12199999852133472,-0.06099999926066736
-0.13691003620624542,-0.1045212671160698,9.93272876739502,0.021199999377131462,-0.002899999963119626,0.11909999698400497,0.1830000044521087,0,-0.06099999926066736
-0.14268484711647034,-0.11445241421461105,9.912579536437988,0.020999999716877937,-0.013100000098347664,0.09950000047683716,0.12199999852133472,0,-0.06099999926066736
-0.11930786073207855,-0.08306922018527985,9.92019271850586,0.04019999876618385,0.015699999406933784,0.09950000047683716,0.12199999852133472,0,0
-0.13651737570762634,-0.09139146655797958,9.900042533874512,0.020399998873472214,0.005499999970197678,0.07989999651908875,0.06099999926066736,0.12199999852133472,-0.12199999852133472
-0.1448013186454773,-0.0807037502527237,9.887239456176758,0.010699999518692493,0.014999999664723873,0.07009999454021454,0,0.12199999852133472,-0.12199999852133472
-0.1318822056055069,-0.09830592572689056,9.87602424621582,0.03019999898970127,-0.0044999998062849045,0.06030000001192093,0,0,0
-0.1184842512011528,-0.1101907417178154,9.896672248840332,0.03959999978542328,-0.014099999330937862,0.07989999651908875,0.06099999926066736,0.1830000044521087,-0.06099999926066736
-0.13560758531093597,-0.11348515748977661,9.906593322753906,0.02019999921321869,-0.0142000000923872,0.08969999849796295,0.06099999926066736,0.06099999926066736,0
-0.1267969161272049,-0.0938527062535286,9.903491020202637,0.029899999499320984,0.0050999997183680534,0.08969999849796295,-0.06099999926066736,0,-0.06099999926066736
-0.13635456562042236,-0.10355401039123535,9.903844833374023,0.019899999722838402,-0.004399999976158142,0.08969999849796295,0.06099999926066736,0.1830000044521087,-0.06099999926066736
-0.1475115567445755,-0.08064629137516022,9.889287948608398,0.010400000028312206,0.014800000004470348,0.07009999454021454,0,0.12199999852133472,-0.06099999926066736
-0.1461995393037796,-0.10524910688400269,9.907398223876953,0.010599999688565731,-0.004699999932199717,0.08969999849796295,0,0.06099999926066736,-0.06099999926066736
-0.15860150754451752,-0.11033438891172409,9.91141128540039,0.0009999999310821295,-0.014399999752640724,0.08969999849796295,0,0.06099999926066736,-0.12199999852133472
