Accelerometer_Gx,Accelerometer_Gy,Accelerometer_Gz,Accelerometer_X,Accelerometer_Y,Accelerometer_Z,Gyroscope_Z,Gyroscope_X,Gyroscope_Y
-0.15347790718078613,-0.090979665517807,9.913459777832031,0.0072999997064471245,-0.0009999999310821295,0.09950000047683716,0.12199999852133472,0.06099999926066736,0
-0.15739482641220093,-0.08719681948423386,9.876618385314941,0.006300000008195639,-0.0011999999405816197,0.06030000001192093,-0.06099999926066736,-0.1830000044521087,0
-0.15641798079013824,-0.11461522430181503,9.908068656921387,0.004900000058114529,-0.01809999905526638,0.08969999849796295,0.12199999852133472,0.24399999704266945,0.06099999926066736
-0.14460979402065277,-0.06922116130590439,9.89833927154541,0.012199999764561653,0.016899999231100082,0.07979999482631683,0,0,0
-0.14098018407821655,-0.10771992802619934,9.923467636108398,0.012199999764561653,0.016899999231100082,0.07979999482631683,0,0.12199999852133472,0
-0.14523227512836456,-0.10834241658449173,9.898138046264648,0.018299998715519905,-0.01889999955892563,0.10920000076293945,-0.12199999852133472,0,0.06099999926066736
-0.15255853533744812,-0.12447933107614517,9.911544799804688,0.0050999997183680534,-0.01979999989271164,0.08959999680519104,0.06099999926066736,0.12199999852133472,0.06099999926066736
-0.14879484474658966,-0.09176496416330338,9.88552474975586,0.0038999998942017555,0.00699999975040555,0.07000000029802322,0,0.12199999852133472,-0.12199999852133472
-0.15122735500335693,-0.09738655388355255,9.918909072875977,0.0031999999191612005,-0.0023999998811632395,0.09939999878406525,0.06099999926066736,0,0.06099999926066736
-0.16068923473358154,-0.10155245661735535,9.911650657653809,-0.005499999970197678,-0.002199999988079071,0.08959999680519104,0.12199999852133472,0,0.12199999852133472
-0.13687172532081604,-0.09413043409585953,9.909926414489746,0.010900000110268593,0.005499999970197678,0.08949999511241913,0,0.12199999852133472,0
-0.1729954332113266,-0.08852799981832504,9.927260398864746,-0.02319999970495701,0.004399999976158142,0.10920000076293945,0.06099999926066736,0.12199999852133472,0
-0.16618631780147552,-0.08892065286636353,9.902705192565918,-0.010599999688565731,0.0031999999191612005,0.08959999680519104,0.1830000044521087,0.12199999852133472,0.06099999926066736
-0.13713987171649933,-0.08890149742364883,9.930755615234375,0.01529999915510416,0.001999999862164259,0.10920000076293945,0.12199999852133472,0.06099999926066736,0.06099999926066736
-0.15869726240634918,-0.07983226329088211,9.897361755371094,-0.003399999812245369,0.008599999360740185,0.07979999482631683,-0.06099999926066736,0.06099999926066736,0
-0.14508862793445587,-0.0887482687830925,9.916247367858887,0.004999999888241291,-0.0008999999845400453,0.09939999878406525,0.1830000044521087,-0.06099999926066736,0.06099999926066736
-0.14645810425281525,-0.08179550617933273,9.894047737121582,0.003399999812245369,0.006300000008195639,0.07970000058412552,0,0.12199999852133472,-0.06099999926066736
-0.14149731397628784,-0.10086292773485184,9.863679885864258,0.013499999418854713,-0.013199999928474426,0.04050000011920929,-0.06099999926066736,-0.06099999926066736,-0.06099999926066736
-0.12319604307413101,-0.08525273203849792,9.942113876342773,0.032999999821186066,0.0064999996684491634,0.12870000302791595,0,0,-0.06099999926066736
-0.1834150105714798,-0.09765470027923584,9.887277603149414,-0.035499997437000275,-0.012999999336898327,0.06989999860525131,0.06099999926066736,0.12199999852133472,0.06099999926066736
-0.15122735500335693,-0.10812214761972427,9.913067817687988,0.0038999998942017555,-0.023000000044703484,0.09929999709129333,0,0.06099999926066736,0
-0.11566866934299469,-0.09893798828125,9.909984588623047,0.03350000083446503,-0.013199999928474426,0.08949999511241913,0.1830000044521087,0.12199999852133472,0.06099999926066736
-0.14395855367183685,-0.12092633545398712,9.892256736755371,0.004399999976158142,-0.033299997448921204,0.06989999860525131,-0.12199999852133472,0.06099999926066736,0
-0.14897680282592773,-0.07894162088632584,9.884346961975098,0.0044999998062849045,0.006199999712407589,0.06989999860525131,0.12199999852133472,0,0.06099999926066736
-0.14497369527816772,-0.10801680386066437,9.919829368591309,0.0044999998062849045,-0.023399999365210533,0.09929999709129333,0.06099999926066736,0.06099999926066736,0.06099999926066736
-0.15076766908168793,-0.08042602241039276,9.903327941894531,0.004699999932199717,0.005699999630451202,0.08949999511241913,0,0.06099999926066736,-0.12199999852133472
-0.1309053599834442,-0.09771215915679932,9.93681812286377,0.024399999529123306,-0.013799999840557575,0.11889999359846115,0.06099999926066736,0.06099999926066736,0.06099999926066736
-0.1581992655992508,-0.10259632766246796,9.880363464355469,-0.004699999932199717,-0.013899999670684338,0.060099996626377106,-0.06099999926066736,0.12199999852133472,0
-0.15099751949310303,-0.11271901428699493,9.900205612182617,0.0052999998442828655,-0.023499999195337296,0.07970000058412552,-0.12199999852133472,0.24399999704266945,-0.06099999926066736
-0.1579502671957016,-0.100479856133461,9.892841339111328,-0.004100000020116568,-0.0064999996684491634,0.07979999482631683,0,0.06099999926066736,-0.06099999926066736
-0.1579502671957016,-0.100479856133461,9.892841339111328,-0.004100000020116568,-0.0064999996684491634,0.07979999482631683,0,0.06099999926066736,-0.06099999926066736
-0.14759774506092072,-0.08362467586994171,9.882268905639648,0.0026000000070780516,0.011099999770522118,0.060099996626377106,-0.06099999926066736,0,0
-0.12272677570581436,-0.08066544681787491,9.93135929107666,0.025999998673796654,0.008999999612569809,0.11889999359846115,0.06099999926066736,0.12199999852133472,-0.06099999926066736
-0.15020263195037842,-0.11945150792598724,9.901766777038574,-0.0024999999441206455,-0.023099999874830246,0.07970000058412552,0.06099999926066736,-0.12199999852133472,-0.12199999852133472
-0.12683522701263428,-0.08893980085849762,9.894631385803223,0.01249999925494194,0.0044999998062849045,0.07959999889135361,0.06099999926066736,0.06099999926066736,0.06099999926066736
-0.1378006786108017,-0.09106585383415222,9.88681697845459,0.0018999999156221747,0.0030999998562037945,0.0697999969124794,0.06099999926066736,0,-0.06099999926066736
-0.16006673872470856,-0.11342769861221313,9.896940231323242,-0.0139999995008111,-0.013100000098347664,0.07970000058412552,-0.12199999852133472,0,-0.1830000044521087
-0.15465585887432098,-0.06669288873672485,9.886425018310547,-0.010799999348819256,0.027400000020861626,0.0697999969124794,0,0.12199999852133472,-0.06099999926066736
-0.1373218446969986,-0.09873687475919724,9.903461456298828,0.00699999975040555,-0.009599999524652958,0.08940000087022781,0.12199999852133472,-0.1830000044521087,0
-0.13678553700447083,-0.09040506184101105,9.881292343139648,0.0064999996684491634,-0.00009999999747378752,0.05999999865889549,0,0.06099999926066736,0.06099999926066736
-0.14576856791973114,-0.0931440219283104,9.883609771728516,-0.0030999998562037945,-0.00009999999747378752,0.0697999969124794,-0.06099999926066736,0,0.12199999852133472
-0.14573027193546295,-0.08444827795028687,9.927384376525879,-0.0030999998562037945,0.009800000116229057,0.10909999907016754,-0.12199999852133472,-0.06099999926066736,-0.12199999852133472
-0.11453860998153687,-0.09469546377658844,9.907244682312012,0.03579999879002571,0.00029999998514540493,0.08940000087022781,0.12199999852133472,0.12199999852133472,-0.06099999926066736
-0.16765157878398895,-0.11523772031068802,9.90251350402832,-0.022499999031424522,-0.02929999865591526,0.08940000087022781,0,0.06099999926066736,0
-0.1348414421081543,-0.11181879788637161,9.888082504272461,0.006899999920278788,-0.019500000402331352,0.0697999969124794,0.06099999926066736,0.06099999926066736,0
-0.1742021143436432,-0.10301771014928818,9.899889945983887,-0.03199999779462814,-0.00989999994635582,0.07959999889135361,-0.06099999926066736,0.12199999852133472,-0.06099999926066736
-0.13584700226783752,-0.08011956512928009,9.898050308227539,0.007499999832361937,0.009800000116229057,0.07959999889135361,0,0.06099999926066736,0
-0.15717455744743347,-0.0798705667257309,9.927978515625,-0.011899999342858791,0.009800000116229057,0.10909999907016754,0.06099999926066736,0,0.06099999926066736
-0.1450120061635971,-0.09136273711919785,9.891788482666016,-0.002099999925121665,-0.00009999999747378752,0.0697999969124794,0.06099999926066736,0.06099999926066736,0.06099999926066736
-0.1435084491968155,-0.09381440281867981,9.905014038085938,0.007799999788403511,-0.00019999999494757503,0.08949999511241913,-0.12199999852133472,0.06099999926066736,0.06099999926066736
-0.13422852754592896,-0.08777143061161041,9.916898727416992,0.007999999448657036,0,0.09929999709129333,0,0.06099999926066736,-0.1830000044521087
-0.12444102764129639,-0.09936895221471786,9.914523124694824,0.027699999511241913,-0.00969999935477972,0.09929999709129333,-0.12199999852133472,0.1830000044521087,0
-0.1620587259531021,-0.092061847448349,9.900368690490723,-0.010900000110268593,0.00029999998514540493,0.07970000058412552,0,0.06099999926066736,0
-0.1387583464384079,-0.0799950659275055,9.880535125732422,0.008700000122189522,0.010099999606609344,0.060099996626377106,-0.06099999926066736,0.12199999852133472,0
-0.1424071192741394,-0.12019850313663483,9.874052047729492,0.009099999442696571,-0.02879999950528145,0.060099996626377106,-0.06099999926066736,0.06099999926066736,0.12199999852133472
-0.1425507664680481,-0.10369766503572464,9.913019180297852,0.02879999950528145,0.010499999858438969,0.08949999511241913,0.1830000044521087,0.12199999852133472,-0.06099999926066736
-0.13739845156669617,-0.09366117417812347,9.905052185058594,0.009599999524652958,0,0.08949999511241913,0,0.1830000044521087,-0.12199999852133472
-0.19276195764541626,-0.08967721462249756,9.905099868774414,-0.048499997705221176,0,0.08949999511241913,0,0.06099999926066736,-0.06099999926066736
-0.12478578835725784,-0.0950210765004158,9.89299488067627,0.020099999383091927,0,0.07970000058412552,0,0,0.1830000044521087
-0.17307205498218536,-0.09919656068086624,9.877260208129883,-0.028699999675154686,-0.009599999524652958,0.060099996626377106,0,-0.12199999852133472,0.06099999926066736
-0.15062402188777924,-0.10340078175067902,9.915987968444824,0.00029999998514540493,-0.009599999524652958,0.09929999709129333,-0.06099999926066736,0,0.06099999926066736
-0.1586589515209198,-0.07176858931779861,9.896135330200195,-0.009399999864399433,0.01979999989271164,0.07970000058412552,0.06099999926066736,0.1830000044521087,0.06099999926066736
-0.1353011280298233,-0.10503841191530228,9.885496139526367,0.010599999688565731,-0.00969999935477972,0.06989999860525131,0.06099999926066736,0.06099999926066736,0.06099999926066736
-0.14959929883480072,-0.1030655950307846,9.892573356628418,0.0008999999845400453,-0.009800000116229057,0.06989999860525131,0.06099999926066736,-0.06099999926066736,-0.12199999852133472
-0.15134228765964508,-0.09175538271665573,9.848194122314453,0.0007999999797903001,-0.00019999999494757503,0.030700000002980232,0.12199999852133472,0.06099999926066736,-0.06099999926066736
-0.1514476239681244,-0.10080546885728836,9.923266410827637,0.0008999999845400453,-0.010300000198185444,0.10909999907016754,-0.06099999926066736,0.06099999926066736,-0.24399999704266945
-0.13199713826179504,-0.10658986121416092,9.902849197387695,0.020999999716877937,-0.01809999905526638,0.08949999511241913,-0.12199999852133472,0,0
-0.16819746792316437,-0.0721612423658371,9.899219512939453,-0.011099999770522118,0.012199999764561653,0.07970000058412552,0.06099999926066736,0,-0.06099999926066736
-0.1615128517150879,-0.08459193259477615,9.900742530822754,-0.0011999999405816197,0.0013000000035390258,0.07970000058412552,-0.06099999926066736,-0.06099999926066736,0
-0.15031756460666656,-0.11403103917837143,9.882009506225586,0.005399999674409628,-0.019099999219179153,0.060099996626377106,0.06099999926066736,-0.06099999926066736,0.1830000044521087
-0.13170024752616882,-0.08358637243509293,9.869378089904785,0.016899999231100082,0.006799999624490738,0.050200000405311584,-0.06099999926066736,0,0
-0.18074306845664978,-0.09394846856594086,9.896288871765137,-0.025499999523162842,-0.002199999988079071,0.07970000058412552,0.06099999926066736,0.1830000044521087,-0.06099999926066736
-0.17256447672843933,-0.07933426648378372,9.901776313781738,-0.019899999722838402,0.00559999980032444,0.07979999482631683,-0.06099999926066736,0.06099999926066736,0.06099999926066736
-0.16297809779644012,-0.06560112535953522,9.927374839782715,-0.008499999530613422,0.020899999886751175,0.10920000076293945,0.06099999926066736,0.06099999926066736,-0.06099999926066736
-0.15042290091514587,-0.11595597863197327,9.904928207397461,0.008599999360740185,-0.030399998649954796,0.08959999680519104,0,0.06099999926066736,0
-0.15731820464134216,-0.08391197770833969,9.901106834411621,-0.0009999999310821295,0.006599999964237213,0.07979999482631683,-0.06099999926066736,0.1830000044521087,-0.12199999852133472
-0.14213895797729492,-0.12124237418174744,9.91287612915039,0.015199999324977398,-0.026399999856948853,0.09939999878406525,0.06099999926066736,0,0
-0.14153562486171722,-0.07763917744159698,9.908221244812012,0.015199999324977398,0.01249999925494194,0.08959999680519104,-0.06099999926066736,0.1830000044521087,-0.06099999926066736
-0.1597411334514618,-0.07017884403467178,9.881319999694824,-0.0037999998312443495,0.022499999031424522,0.06019999831914902,0,0.06099999926066736,-0.06099999926066736
-0.155824214220047,-0.11400230973958969,9.8841552734375,-0.013399999588727951,-0.016599999740719795,0.06019999831914902,0.06099999926066736,-0.06099999926066736,-0.06099999926066736
-0.1483638882637024,-0.09449435770511627,9.902246475219727,0.006099999882280827,0.002199999988079071,0.07979999482631683,0,0.06099999926066736,-0.06099999926066736
-0.15058571100234985,-0.06701849400997162,9.899065971374512,0.006199999712407589,0.031599998474121094,0.07979999482631683,0,0.06099999926066736,0
-0.1660330891609192,-0.0830787941813469,9.93925952911377,-0.013100000098347664,0.012000000104308128,0.11899999529123306,-0.12199999852133472,0,0
-0.13736014068126678,-0.1126711368560791,9.883456230163574,0.016200000420212746,-0.016999999061226845,0.07000000029802322,0,0.06099999926066736,0.06099999926066736
-0.15773001313209534,-0.10534486919641495,9.902925491333008,-0.0030999998562037945,-0.016999999061226845,0.08959999680519104,0.06099999926066736,0,-0.12199999852133472
-0.13110649585723877,-0.09777919948101044,9.906890869140625,0.026099998503923416,-0.0072999997064471245,0.08959999680519104,0,0.06099999926066736,-0.12199999852133472
-0.15029840171337128,-0.10455000400543213,9.874683380126953,0.0066999997943639755,-0.0072999997064471245,0.06019999831914902,0,0,0.06099999926066736
-0.13051272928714752,-0.10658986121416092,9.896883010864258,0.02630000002682209,-0.017099998891353607,0.07979999482631683,0.06099999926066736,-0.06099999926066736,0.06099999926066736
-0.12269805371761322,-0.10753796249628067,9.907800674438477,0.03579999879002571,-0.01719999872148037,0.08959999680519104,-0.06099999926066736,0.06099999926066736,0.12199999852133472
-0.14792335033416748,-0.08101020753383636,9.891826629638672,0.006599999964237213,0.012199999764561653,0.07000000029802322,0.24399999704266945,0.06099999926066736,0.06099999926066736
-0.13568420708179474,-0.10613017529249191,9.896241188049316,0.014999999664723873,-0.017899999395012856,0.07979999482631683,0.12199999852133472,0.12199999852133472,0.06099999926066736
-0.15339170396327972,-0.09792285412549973,9.912732124328613,-0.0032999999821186066,-0.0058999997563660145,0.09939999878406525,0,0,-0.12199999852133472
-0.13467863202095032,-0.11620496958494186,9.912616729736328,0.011500000022351742,-0.01889999955892563,0.09939999878406525,-0.12199999852133472,0.12199999852133472,-0.06099999926066736
-0.15672443807125092,-0.0961032584309578,9.881991386413574,-0.005499999970197678,0.0004999999655410647,0.06019999831914902,0.1830000044521087,0.06099999926066736,0
-0.15399505198001862,-0.10242395102977753,9.903510093688965,-0.004399999976158142,-0.00009999999747378752,0.08959999680519104,0,0.1830000044521087,-0.06099999926066736
-0.1444086730480194,-0.1136288121342659,9.905157089233398,0.00419999985024333,-0.007999999448657036,0.08959999680519104,0,0.06099999926066736,0
-0.1578066200017929,-0.08466854691505432,9.941520690917969,-0.004699999932199717,0.01769999973475933,0.12889999151229858,0,0.06099999926066736,0
-0.13405613601207733,-0.10307516902685165,9.891318321228027,0.018299998715519905,-0.001500000013038516,0.06989999860525131,-0.06099999926066736,0.12199999852133472,0.06099999926066736
-0.13999375700950623,-0.11342769861221313,9.896164894104004,0.0066999997943639755,-0.008799999952316284,0.07970000058412552,-0.12199999852133472,-0.06099999926066736,0.12199999852133472
-0.14099933207035065,-0.09465716034173965,9.933082580566406,0.005200000014156103,0.008999999612569809,0.11889999359846115,0.1830000044521087,0,0
-0.17148229479789734,-0.0899166390299797,9.881674766540527,-0.01809999905526638,0.006199999712407589,0.060099996626377106,-0.12199999852133472,0,0.06099999926066736
-0.13783897459506989,-0.09261730313301086,9.891146659851074,0.01119999960064888,0.0064999996684491634,0.06989999860525131,0,0,0.12199999852133472
-0.12078268080949783,-0.09125739336013794,9.911630630493164,0.030799999833106995,0.0064999996684491634,0.08959999680519104,0.06099999926066736,-0.06099999926066736,0
-0.12470917403697968,-0.09232041984796524,9.897418975830078,0.02070000022649765,0.005799999926239252,0.07970000058412552,0,0.12199999852133472,0
-0.1625758707523346,-0.07500555366277695,9.884854316711426,-0.008299999870359898,0.02539999969303608,0.06989999860525131,-0.06099999926066736,0.06099999926066736,0.06099999926066736
-0.1377144753932953,-0.07623138278722763,9.876053810119629,0.011399999260902405,0.025499999523162842,0.060099996626377106,0,0,-0.06099999926066736
-0.17539921402931213,-0.07637502998113632,9.898520469665527,-0.027699999511241913,0.025499999523162842,0.07970000058412552,-0.06099999926066736,0.06099999926066736,0.12199999852133472
-0.156494602560997,-0.07658572494983673,9.91823959350586,-0.007899999618530273,0.025599999353289604,0.09939999878406525,-0.06099999926066736,0.06099999926066736,-0.06099999926066736
-0.14385321736335754,-0.08450574427843094,9.890485763549805,0.0018999999156221747,0.01599999889731407,0.07000000029802322,0,0.06099999926066736,0
-0.13550224900245667,-0.07498639822006226,9.888924598693848,0.011899999342858791,0.025699999183416367,0.07000000029802322,0.06099999926066736,0.06099999926066736,0.12199999852133472
-0.12033258378505707,-0.10006805509328842,9.912885665893555,0.031599998474121094,-0.0037999998312443495,0.09939999878406525,0.06099999926066736,0,-0.06099999926066736
-0.16048812866210938,-0.09623733162879944,9.903711318969727,-0.007499999832361937,-0.0038999998942017555,0.08959999680519104,0.06099999926066736,0.06099999926066736,-0.1830000044521087
-0.13228443264961243,-0.07506301254034042,9.873170852661133,0.021900000050663948,0.025200000032782555,0.0502999983727932,0,0.06099999926066736,-0.12199999852133472
-0.14305832982063293,-0.09690770506858826,9.91103744506836,0.012299999594688416,-0.004100000020116568,0.08959999680519104,0.06099999926066736,0.06099999926066736,-0.12199999852133472
-0.14958971738815308,-0.08202534914016724,9.896279335021973,0.0026000000070780516,0.015199999324977398,0.07979999482631683,0.06099999926066736,0,-0.06099999926066736
-0.1707257330417633,-0.09399636089801788,9.877326965332031,-0.01679999940097332,0.005200000014156103,0.060099996626377106,0,0.06099999926066736,0
-0.12624147534370422,-0.07860642671585083,9.90420913696289,0.02239999920129776,0.014999999664723873,0.08959999680519104,0,-0.06099999926066736,-0.06099999926066736
-0.13779109716415405,-0.11335108429193497,9.905118942260742,0.012199999764561653,-0.014599999412894249,0.08959999680519104,0.06099999926066736,0.12199999852133472,-0.06099999926066736
-0.15897499024868011,-0.07819462567567825,9.884451866149902,-0.00699999975040555,0.014499999582767487,0.07000000029802322,0.12199999852133472,0.1830000044521087,0.06099999926066736
-0.1362588107585907,-0.10522037744522095,9.9042387008667,0.012999999336898327,-0.0052999998442828655,0.08959999680519104,0.12199999852133472,0.12199999852133472,0
-0.15675316751003265,-0.10115981101989746,9.90126895904541,-0.006099999882280827,-0.00559999980032444,0.07979999482631683,-0.06099999926066736,0.1830000044521087,0.06099999926066736
-0.15206053853034973,-0.0878097414970398,9.889030456542969,0.004100000020116568,0.00419999985024333,0.07000000029802322,0,0.1830000044521087,-0.06099999926066736
-0.15185941755771637,-0.09611283242702484,9.89015007019043,0.0044999998062849045,-0.005499999970197678,0.07000000029802322,0.06099999926066736,0.06099999926066736,0
-0.14943648874759674,-0.08539638668298721,9.89651870727539,0.004699999932199717,0.013799999840557575,0.07979999482631683,0,0.06099999926066736,-0.06099999926066736
-0.15849615633487701,-0.11875240504741669,9.916324615478516,-0.004799999762326479,-0.025200000032782555,0.09939999878406525,0.12199999852133472,0,0.12199999852133472
-0.14358507096767426,-0.09325893968343735,9.903874397277832,0.014599999412894249,0.003700000001117587,0.08959999680519104,0,0.12199999852133472,0
-0.15516342222690582,-0.08591353893280029,9.90210247039795,-0.0044999998062849045,0.013499999418854713,0.07979999482631683,-0.06099999926066736,-0.06099999926066736,-0.06099999926066736
-0.13182474672794342,-0.09005071222782135,9.895819664001465,0.02449999935925007,0.0037999998312443495,0.07979999482631683,0,0.12199999852133472,-0.06099999926066736
-0.11663593351840973,-0.10612060129642487,9.936176300048828,0.03460000082850456,-0.015599999576807022,0.11899999529123306,0,-0.06099999926066736,0.06099999926066736
-0.14139197766780853,-0.07710287719964981,9.892180442810059,0.014699999243021011,0.013599999248981476,0.07000000029802322,0.1830000044521087,0.06099999926066736,0
-0.15637968480587006,-0.10070012509822845,9.861812591552734,-0.004600000102072954,-0.006300000008195639,0.0405999980866909,-0.06099999926066736,0.06099999926066736,0.06099999926066736
-0.149407759308815,-0.09809523075819016,9.91174602508545,0.0052999998442828655,-0.006199999712407589,0.08959999680519104,0,-0.12199999852133472,0
-0.14597927033901215,-0.10370723903179169,9.917932510375977,0.004900000058114529,-0.006099999882280827,0.09939999878406525,0,0.06099999926066736,-0.06099999926066736
-0.1438244730234146,-0.10537360608577728,9.902820587158203,0.0050999997183680534,-0.01589999906718731,0.08959999680519104,0.06099999926066736,0.06099999926066736,-0.06099999926066736
-0.15838122367858887,-0.11253705620765686,9.906393051147461,-0.0044999998062849045,-0.01599999889731407,0.08959999680519104,0,0.12199999852133472,0
-0.14654429256916046,-0.07867346704006195,9.902092933654785,0.005499999970197678,0.013299999758601189,0.07979999482631683,0.06099999926066736,0.06099999926066736,0
-0.13940957188606262,-0.07513962686061859,9.893732070922852,0.015399999916553497,0.02279999852180481,0.07979999482631683,0.06099999926066736,0.12199999852133472,0
-0.13912226259708405,-0.092521533370018,9.897141456604004,0.015699999406933784,0.003000000026077032,0.07979999482631683,0,0,0.12199999852133472
-0.12659581005573273,-0.0706193745136261,9.909428596496582,0.02539999969303608,0.022499999031424522,0.08959999680519104,0.06099999926066736,0.06099999926066736,0
-0.1442171335220337,-0.0611383356153965,9.895245552062988,0.0058999997563660145,0.03199999779462814,0.07979999482631683,0.06099999926066736,0.06099999926066736,-0.06099999926066736
-0.15012602508068085,-0.09144892543554306,9.898463249206543,0.006099999882280827,0.0023999998811632395,0.07979999482631683,-0.06099999926066736,-0.06099999926066736,0
-0.13747507333755493,-0.07936299592256546,9.897850036621094,0.015599999576807022,0.012299999594688416,0.07979999482631683,0,0.1830000044521087,-0.06099999926066736
-0.14472469687461853,-0.0696616917848587,9.903386116027832,0.006300000008195639,0.022099999710917473,0.08959999680519104,0.06099999926066736,0.12199999852133472,0.06099999926066736
-0.141861230134964,-0.10560344904661179,9.921945571899414,0.01640000008046627,-0.01719999872148037,0.10920000076293945,0.06099999926066736,0,0
-0.12863565981388092,-0.10482773184776306,9.911879539489746,0.026099998503923416,-0.007499999832361937,0.08959999680519104,0,0,0.06099999926066736
-0.13053187727928162,-0.10221325606107712,9.894728660583496,0.02589999884366989,-0.007400000002235174,0.07979999482631683,0.06099999926066736,0.12199999852133472,0
-0.14449486136436462,-0.09029971063137054,9.886588096618652,0.006599999964237213,0.002199999988079071,0.07000000029802322,-0.12199999852133472,0.24399999704266945,-0.06099999926066736
-0.13942871987819672,-0.0949157327413559,9.908384323120117,0.01730000041425228,-0.0005999999702908099,0.08959999680519104,-0.1830000044521087,0.06099999926066736,0
-0.15877388417720795,-0.11156979948282242,9.871427536010742,-0.0013000000035390258,-0.00930000003427267,0.05049999803304672,0.12199999852133472,0,-0.06099999926066736
-0.141861230134964,-0.10067139565944672,9.937995910644531,0.013599999248981476,-0.00009999999747378752,0.11899999529123306,0.1830000044521087,0.1830000044521087,-0.06099999926066736
-0.1339891105890274,-0.11013327538967133,9.897994041442871,0.024899998679757118,-0.013399999588727951,0.07979999482631683,0,0.12199999852133472,-0.06099999926066736
-0.1382412165403366,-0.07505343854427338,9.909629821777344,0.011500000022351742,0.019500000402331352,0.08949999511241913,-0.12199999852133472,0.1830000044521087,-0.12199999852133472
-0.14980041980743408,-0.07656657695770264,9.869043350219727,0.003700000001117587,0.01939999870955944,0.0502999983727932,0.06099999926066736,0.1830000044521087,0
-0.18936219811439514,-0.10262506455183029,9.882105827331543,-0.025699999183416367,-0.007499999832361937,0.06030000001192093,0,0,-0.06099999926066736
-0.17183664441108704,-0.08592311292886734,9.896749496459961,-0.0050999997183680534,0.00930000003427267,0.07989999651908875,0.12199999852133472,0,-0.06099999926066736
-0.12868355214595795,-0.10310390591621399,9.915366172790527,0.027499999850988388,-0.008700000122189522,0.09939999878406525,-0.12199999852133472,0,0.12199999852133472
-0.12211386114358902,-0.08365340530872345,9.89722728729248,0.02889999933540821,0.008499999530613422,0.07970000058412552,0.06099999926066736,0.06099999926066736,-0.06099999926066736
-0.14287637174129486,-0.09510727226734161,9.897954940795898,0.0071000000461936,-0.0011999999405816197,0.07959999889135361,0.12199999852133472,0.1830000044521087,-0.06099999926066736
-0.1561594158411026,-0.09866026043891907,9.912464141845703,-0.00989999994635582,-0.009399999864399433,0.09929999709129333,0.06099999926066736,0,0
-0.16667474806308746,-0.07957368344068527,9.894804954528809,-0.015699999406933784,0.007599999662488699,0.07970000058412552,0.06099999926066736,-0.06099999926066736,-0.06099999926066736
-0.15055698156356812,-0.09513600170612335,9.912158012390137,0.002699999837204814,-0.0018999999156221747,0.09929999709129333,0,0.1830000044521087,-0.06099999926066736
-0.14270399510860443,-0.09096051007509232,9.896347045898438,0.00989999994635582,-0.0015999999595806003,0.07970000058412552,0.06099999926066736,0.12199999852133472,-0.06099999926066736
-0.1361343115568161,-0.10617805272340775,9.894968032836914,0.007699999958276749,-0.016899999231100082,0.07970000058412552,-0.06099999926066736,0.06099999926066736,-0.06099999926066736
-0.1637442409992218,-0.08451531827449799,9.90007209777832,-0.021399999037384987,0.012600000016391277,0.07970000058412552,0.12199999852133472,0.06099999926066736,-0.06099999926066736
-0.12343546003103256,-0.09803777188062668,9.889710426330566,0.027699999511241913,-0.007199999876320362,0.06989999860525131,0,0.12199999852133472,-0.12199999852133472
-0.15797899663448334,-0.10432016104459763,9.883121490478516,-0.011099999770522118,-0.007199999876320362,0.060099996626377106,0.12199999852133472,0.06099999926066736,0.06099999926066736
-0.163533553481102,-0.06848374009132385,9.901365280151367,-0.02070000022649765,0.021699998527765274,0.07970000058412552,0.06099999926066736,0.06099999926066736,0.06099999926066736
-0.15147635340690613,-0.10228987038135529,9.89722728729248,-0.0008999999845400453,-0.007799999788403511,0.07970000058412552,0,-0.06099999926066736,0.06099999926066736
-0.1403672695159912,-0.09434112906455994,9.902216911315918,0.008599999360740185,0.0018999999156221747,0.07970000058412552,-0.12199999852133472,0.06099999926066736,0.12199999852133472
-0.15965496003627777,-0.07497682422399521,9.914207458496094,-0.010699999518692493,0.021900000050663948,0.09929999709129333,0,0.12199999852133472,0.06099999926066736
-0.12399092316627502,-0.07975564897060394,9.88890552520752,0.028699999675154686,0.012000000104308128,0.06989999860525131,0.06099999926066736,0.06099999926066736,0.12199999852133472
-0.17683574557304382,-0.10469365119934082,9.916131973266602,-0.029899999499320984,-0.007599999662488699,0.09929999709129333,0.06099999926066736,0.12199999852133472,0.06099999926066736
-0.15350663661956787,-0.09190861880779266,9.895282745361328,-0.00989999994635582,0.0018999999156221747,0.07970000058412552,0.06099999926066736,0.06099999926066736,-0.12199999852133472
-0.14518438279628754,-0.09293333441019058,9.898098945617676,0,0.0016999999061226845,0.07970000058412552,-0.06099999926066736,0.06099999926066736,-0.12199999852133472
-0.14389152824878693,-0.09905291348695755,9.908347129821777,0.00009999999747378752,-0.007799999788403511,0.08949999511241913,0,0.06099999926066736,0.06099999926066736
-0.17814776301383972,-0.07908527553081512,9.929788589477539,-0.028999999165534973,0.012199999764561653,0.10909999907016754,0.06099999926066736,0.06099999926066736,-0.06099999926066736
-0.16194380819797516,-0.08833646029233932,9.881157875061035,-0.009200000204145908,0.002199999988079071,0.060099996626377106,0,0,0
-0.15823757648468018,-0.07604942470788956,9.89264965057373,-0.009200000204145908,0.021800000220537186,0.06989999860525131,0.06099999926066736,-0.06099999926066736,0.12199999852133472
-0.14188039302825928,-0.11363838613033295,9.89859676361084,0.010199999436736107,-0.017500000074505806,0.07970000058412552,0.12199999852133472,0.06099999926066736,0
-0.14818193018436432,-0.09445604681968689,9.89832878112793,0.0004999999655410647,0.0016999999061226845,0.07970000058412552,0,0.12199999852133472,0.06099999926066736
-0.1602199673652649,-0.10033620148897171,9.861841201782227,-0.008799999952316284,-0.007999999448657036,0.04050000011920929,0.12199999852133472,0.06099999926066736,0
-0.17379990220069885,-0.0914585068821907,9.930832862854004,-0.028199998661875725,0.00139999995008111,0.10909999907016754,0,0.06099999926066736,0
-0.14979083836078644,-0.07491935789585114,9.87756633758545,0.0013000000035390258,0.020899999886751175,0.060099996626377106,-0.06099999926066736,0,0
-0.1298423409461975,-0.10872548818588257,9.906805038452148,0.020800000056624413,-0.017999999225139618,0.08949999511241913,0.06099999926066736,-0.06099999926066736,-0.06099999926066736
-0.14778926968574524,-0.11224975436925888,9.891021728515625,0.0009999999310821295,-0.01809999905526638,0.06989999860525131,0.1830000044521087,0.06099999926066736,0.06099999926066736
-0.14747324585914612,-0.08938991278409958,9.925354957580566,0.0011999999405816197,0.0008999999845400453,0.10909999907016754,-0.1830000044521087,0,0
-0.15120820701122284,-0.12582966685295105,9.886903762817383,0.0011999999405816197,-0.03759999945759773,0.06989999860525131,-0.12199999852133472,0.12199999852133472,-0.06099999926066736
-0.17288053035736084,-0.09167876839637756,9.893770217895508,-0.027699999511241913,0.0018999999156221747,0.07970000058412552,0.06099999926066736,0,0
-0.15792153775691986,-0.1000010147690773,9.908930778503418,-0.008100000210106373,-0.007999999448657036,0.08949999511241913,0.06099999926066736,0.1830000044521087,0.06099999926066736
-0.14617080986499786,-0.08294472843408585,9.894421577453613,0.002099999925121665,0.011299999430775642,0.07970000058412552,0,0.12199999852133472,0
-0.15765339136123657,-0.11308293044567108,9.892582893371582,-0.007199999876320362,-0.017899999395012856,0.06989999860525131,0,0,0.06099999926066736
-0.15067189931869507,-0.10273998230695724,9.915529251098633,0.0024999999441206455,-0.008100000210106373,0.09929999709129333,0.06099999926066736,0.12199999852133472,-0.06099999926066736
-0.13739845156669617,-0.08870038390159607,9.878620147705078,0.012600000016391277,0.00139999995008111,0.060099996626377106,0.06099999926066736,0.06099999926066736,0
-0.1641177386045456,-0.08111555129289627,9.897055625915527,-0.016499999910593033,0.010999999940395355,0.07970000058412552,0.12199999852133472,0.1830000044521087,0
-0.14131537079811096,-0.10148542374372482,9.922262191772461,0.013199999928474426,-0.008799999952316284,0.10920000076293945,-0.06099999926066736,0,-0.06099999926066736
-0.1589079648256302,-0.10776780545711517,9.92563247680664,-0.006300000008195639,-0.018400000408291817,0.10920000076293945,0.12199999852133472,0,-0.06099999926066736
-0.12724703550338745,-0.09860280901193619,9.92558479309082,0.023000000044703484,-0.008899999782443047,0.10920000076293945,-0.06099999926066736,0.12199999852133472,-0.06099999926066736
-0.14264653623104095,-0.09073066711425781,9.894268989562988,0.013399999588727951,0.0009999999310821295,0.07970000058412552,0.06099999926066736,0.12199999852133472,0.06099999926066736
-0.13677595555782318,-0.09527964890003204,9.904879570007324,0.013700000010430813,0.0007999999797903001,0.08949999511241913,0.06099999926066736,0,0
-0.1320067048072815,-0.09146808087825775,9.907293319702148,0.0038999998942017555,0.020099999383091927,0.0502999983727932,0.12199999852133472,0,0
-0.14767436683177948,-0.10969274491071701,9.933093070983887,0.003999999724328518,-0.01979999989271164,0.11899999529123306,-0.06099999926066736,0,0
-0.1477222442626953,-0.08568369597196579,9.910634994506836,0.0038999998942017555,0.00969999935477972,0.08949999511241913,0.06099999926066736,0.06099999926066736,0.06099999926066736
-0.16261418163776398,-0.09030928462743759,9.895685195922852,-0.00559999980032444,-0.00019999999494757503,0.07970000058412552,-0.06099999926066736,0.06099999926066736,0
-0.16566917300224304,-0.10824665427207947,9.890907287597656,-0.015199999324977398,-0.019600000232458115,0.06989999860525131,-0.12199999852133472,-0.06099999926066736,-0.06099999926066736
-0.14105679094791412,-0.08948568254709244,9.922615051269531,0.013899999670684338,0.00029999998514540493,0.10920000076293945,0,0.06099999926066736,0.06099999926066736
-0.15456008911132812,-0.07943003624677658,9.93272876739502,-0.005399999674409628,0.009999999776482582,0.11899999529123306,0.06099999926066736,0.06099999926066736,-0.06099999926066736
-0.1267969161272049,-0.08296387642621994,9.925507545471191,0.024000000208616257,0.009800000116229057,0.10920000076293945,0,0.12199999852133472,0.06099999926066736
-0.1431349515914917,-0.07195054739713669,9.91816234588623,0.014499999582767487,0.019600000232458115,0.09939999878406525,-0.06099999926066736,0.06099999926066736,0
-0.14333607256412506,-0.08848011493682861,9.882134437561035,0.014499999582767487,0.00009999999747378752,0.060099996626377106,0.12199999852133472,0.06099999926066736,0.06099999926066736
-0.14767436683177948,-0.08244673162698746,9.8985013961792,0.004900000058114529,0.009499999694526196,0.07970000058412552,0.06099999926066736,0.12199999852133472,-0.06099999926066736
-0.12845370173454285,-0.0673058032989502,9.881991386413574,0.024699999019503593,0.019099999219179153,0.060099996626377106,-0.06099999926066736,0.06099999926066736,0.06099999926066736
-0.14633360505104065,-0.0755993127822876,9.909333229064941,0.005200000014156103,0.019099999219179153,0.08959999680519104,-0.06099999926066736,0.24399999704266945,0
-0.15572845935821533,-0.09510727226734161,9.921504974365234,0.00279999990016222,-0.0031999999191612005,0.09950000047683716,-0.06099999926066736,0,0
-0.14553873240947723,-0.08315540850162506,9.906957626342773,0.0066999997943639755,0.003599999938160181,0.08949999511241913,0.12199999852133472,0,0
-0.1471572071313858,-0.06688442081212997,9.893933296203613,0.003999999724328518,0.014800000004470348,0.07959999889135361,-0.06099999926066736,0.06099999926066736,-0.06099999926066736
-0.13933296501636505,-0.07694964855909348,9.896623611450195,0.009599999524652958,-0.003399999812245369,0.07959999889135361,-0.06099999926066736,0.06099999926066736,0
-0.151572123169899,-0.09426451474428177,9.917760848999023,-0.00019999999494757503,-0.010300000198185444,0.09919999539852142,0,-0.06099999926066736,0
-0.16001886129379272,-0.08152735978364944,9.904908180236816,-0.008200000040233135,-0.0004999999655410647,0.08940000087022781,-0.12199999852133472,0.06099999926066736,-0.06099999926066736
-0.15030798316001892,-0.08521442115306854,9.904017448425293,0.0009999999310821295,-0.00029999998514540493,0.08940000087022781,-0.1830000044521087,0.12199999852133472,0.06099999926066736
-0.13918931782245636,-0.09647675603628159,9.868927955627441,0.007699999958276749,-0.013799999840557575,0.050200000405311584,0.12199999852133472,-0.12199999852133472,-0.06099999926066736
-0.16702908277511597,-0.08273403346538544,9.896317481994629,-0.01769999973475933,0.00419999985024333,0.07970000058412552,0,0,0
-0.1494939625263214,-0.10309432446956635,9.874578475952148,0.0011999999405816197,-0.011699999682605267,0.060099996626377106,-0.06099999926066736,0,-0.12199999852133472
-0.18953457474708557,-0.08425674587488174,9.929558753967285,-0.032099999487400055,0.006599999964237213,0.10920000076293945,0.06099999926066736,0.06099999926066736,0
-0.14679329097270966,-0.09547118097543716,9.908498764038086,0.016999999061226845,-0.013100000098347664,0.0502999983727932,0,0.06099999926066736,-0.06099999926066736
-0.13630668818950653,-0.07438305765390396,9.904601097106934,0.01719999872148037,0.01640000008046627,0.08959999680519104,0,0.12199999852133472,-0.06099999926066736
-0.15769170224666595,-0.0969172790646553,9.90807819366455,-0.001999999862164259,-0.012899999506771564,0.08959999680519104,-0.06099999926066736,0,0.1830000044521087
-0.13789643347263336,-0.08082824945449829,9.889297485351562,0.017500000074505806,0.0066999997943639755,0.07000000029802322,0,0.1830000044521087,0.06099999926066736
-0.16607141494750977,-0.08861419558525085,9.905434608459473,-0.011299999430775642,-0.003000000026077032,0.08959999680519104,0.12199999852133472,0.06099999926066736,-0.12199999852133472
-0.1337975561618805,-0.07332003116607666,9.89561939239502,0.0279999990016222,0.016200000420212746,0.07979999482631683,-0.06099999926066736,-0.06099999926066736,0
-0.1269884556531906,-0.07958326488733292,9.858020782470703,0.027699999511241913,0.0064999996684491634,0.04050000011920929,0,0.06099999926066736,-0.06099999926066736
-0.14241668581962585,-0.0824563056230545,9.889595031738281,0.01809999905526638,0.0064999996684491634,0.07000000029802322,0,0,0
-0.17609833180904388,-0.08181466162204742,9.902552604675293,-0.020999999716877937,0.0064999996684491634,0.08959999680519104,-0.12199999852133472,0.12199999852133472,0
-0.13693876564502716,-0.09789411723613739,9.924051284790039,0.018400000408291817,-0.012600000016391277,0.10920000076293945,0.06099999926066736,-0.06099999926066736,0
-0.17991946637630463,-0.06973830610513687,9.875659942626953,-0.020899999886751175,0.016499999910593033,0.06019999831914902,-0.1830000044521087,0.06099999926066736,0
-0.12448891252279282,-0.09603621810674667,9.891481399536133,0.03799999877810478,-0.012299999594688416,0.07000000029802322,0,-0.06099999926066736,0
-0.16077543795108795,-0.08588480204343796,9.914752960205078,-0.0013000000035390258,0.007199999876320362,0.09939999878406525,0,0.06099999926066736,0
-0.13512873649597168,-0.08356721699237823,9.904994010925293,0.018699999898672104,0.006899999920278788,0.08959999680519104,0.06099999926066736,0,0
-0.15969325602054596,-0.08667010813951492,9.880142211914062,0.018699999898672104,0.006899999920278788,0.08959999680519104,0.06099999926066736,0,0
-0.13585658371448517,-0.09748231619596481,9.905041694641113,0.01860000006854534,-0.012899999506771564,0.08959999680519104,0,0.06099999926066736,0
-0.1538897156715393,-0.08609548956155777,9.905434608459473,-0.000699999975040555,0.006599999964237213,0.08959999680519104,0,-0.1830000044521087,-0.06099999926066736
-0.1346116065979004,-0.08584649860858917,9.933676719665527,-0.000699999975040555,0.006599999964237213,0.08959999680519104,0.06099999926066736,0.06099999926066736,0.06099999926066736
-0.1550101935863495,-0.09009859710931778,9.883513450622559,-0.0010999999940395355,-0.0032999999821186066,0.07000000029802322,0,0.24399999704266945,-0.06099999926066736
-0.1589079648256302,-0.08172847330570221,9.910079956054688,0.0031999999191612005,0.006099999882280827,0.08959999680519104,0.12199999852133472,0.1830000044521087,0
-0.14973336458206177,-0.08314583450555801,9.89494800567627,0.007699999958276749,0.0031999999191612005,0.07970000058412552,0,0,0
-0.1432594656944275,-0.08048348128795624,9.891156196594238,0.011299999430775642,0.001999999862164259,0.0697999969124794,0.12199999852133472,0.06099999926066736,0
-0.15244360268115997,-0.08713936805725098,9.91775131225586,0.0009999999310821295,-0.006399999838322401,0.09929999709129333,-0.1830000044521087,0.06099999926066736,-0.06099999926066736
-0.12313857674598694,-0.09914868324995041,9.900091171264648,0.022699998691678047,-0.011899999342858791,0.07959999889135361,-0.12199999852133472,0.12199999852133472,0.1830000044521087
-0.165994793176651,-0.09543287754058838,9.907580375671387,-0.02070000022649765,-0.002199999988079071,0.08949999511241913,-0.12199999852133472,0.12199999852133472,0.06099999926066736
-0.1448875069618225,-0.09863153100013733,9.887956619262695,-0.0007999999797903001,-0.008899999782443047,0.06989999860525131,0,0,0
-0.12450806796550751,-0.08033982664346695,9.912435531616211,0.014999999664723873,0.00839999970048666,0.09919999539852142,0,-0.06099999926066736,-0.06099999926066736
-0.14057794213294983,-0.07392337173223495,9.869359016418457,0.003399999812245369,0.012899999506771564,0.05009999871253967,0,0.06099999926066736,-0.12199999852133472
-0.16122554242610931,-0.09355582296848297,9.914389610290527,-0.013399999588727951,-0.00559999980032444,0.09919999539852142,0,0.12199999852133472,0
-0.1708502322435379,-0.09555738419294357,9.901134490966797,-0.018299998715519905,-0.0044999998062849045,0.07970000058412552,0.06099999926066736,0.06099999926066736,0.12199999852133472
-0.1602008193731308,-0.09863153100013733,9.933744430541992,-0.0072999997064471245,-0.012299999594688416,0.11889999359846115,0.06099999926066736,0.06099999926066736,0.06099999926066736
-0.12995727360248566,-0.09685025364160538,9.904840469360352,0.017400000244379044,-0.010099999606609344,0.08949999511241913,0.06099999926066736,0.06099999926066736,0.12199999852133472
-0.13070425391197205,-0.0789128839969635,9.896135330200195,0.013499999418854713,0.0071000000461936,0.07959999889135361,0.06099999926066736,-0.06099999926066736,0
-0.15265429019927979,-0.0760781541466713,9.929482460021973,-0.005399999674409628,0.013700000010430813,0.10899999737739563,0.06099999926066736,0,-0.06099999926066736
-0.16492219269275665,-0.09107543528079987,9.931530952453613,-0.0210999995470047,-0.005200000014156103,0.11879999935626984,0,0.12199999852133472,0
-0.14591223001480103,-0.077016681432724,9.904400825500488,-0.0010999999940395355,0.0044999998062849045,0.08940000087022781,0.06099999926066736,0.12199999852133472,0
-0.16201083362102509,-0.0983538031578064,9.9059419631958,-0.010599999688565731,-0.015099999494850636,0.08940000087022781,-0.06099999926066736,0,0.06099999926066736
-0.13079045712947845,-0.10511502623558044,9.891538619995117,0.018699999898672104,-0.01489999983459711,0.0697999969124794,0.06099999926066736,0.06099999926066736,0
-0.15799815952777863,-0.10502883791923523,9.902628898620605,-0.010400000028312206,-0.015099999494850636,0.08940000087022781,0.1830000044521087,0.06099999926066736,-0.06099999926066736
-0.14370957016944885,-0.08527188748121262,9.894909858703613,-0.0004999999655410647,0.0038999998942017555,0.07959999889135361,-0.06099999926066736,-0.06099999926066736,0
-0.1466783732175827,-0.10287406295537949,9.868439674377441,-0.0005999999702908099,-0.015399999916553497,0.050200000405311584,0.12199999852133472,0.12199999852133472,0
-0.14118129014968872,-0.09104669839143753,9.880295753479004,0.009399999864399433,-0.006199999712407589,0.05999999865889549,0.12199999852133472,0.06099999926066736,-0.06099999926066736
-0.156283900141716,-0.10817961394786835,9.88758373260498,-0.00989999994635582,-0.026099998503923416,0.0697999969124794,-0.12199999852133472,0,-0.06099999926066736
-0.1359236091375351,-0.07525454461574554,9.885601997375488,0.009599999524652958,0.013299999758601189,0.0697999969124794,-0.12199999852133472,0.06099999926066736,0.1830000044521087
-0.1323227435350418,-0.09796115756034851,9.889805793762207,0.019500000402331352,-0.015699999406933784,0.0697999969124794,0.06099999926066736,0,-0.06099999926066736
-0.14446613192558289,-0.06842628121376038,9.910262107849121,0,0.013499999418854713,0.08940000087022781,0,0,-0.06099999926066736
-0.14470554888248444,-0.08153693377971649,9.876320838928223,0,0.003700000001117587,0.05999999865889549,0.06099999926066736,-0.06099999926066736,0.1830000044521087
-0.15343961119651794,-0.10204087942838669,9.91794204711914,-0.009999999776482582,-0.01599999889731407,0.09919999539852142,0.06099999926066736,-0.06099999926066736,0.06099999926066736
-0.15088258683681488,-0.11709561944007874,9.92912769317627,-0.00029999998514540493,-0.0357000008225441,0.10899999737739563,0.12199999852133472,0.06099999926066736,0.06099999926066736
-0.17828182876110077,-0.09325893968343735,9.908661842346191,-0.029500000178813934,-0.006599999964237213,0.08940000087022781,0.06099999926066736,0.06099999926066736,0
-0.14078862965106964,-0.10486603528261185,9.929003715515137,0.00969999935477972,-0.016599999740719795,0.10899999737739563,0,-0.06099999926066736,0
-0.150489941239357,-0.09761639684438705,9.911870002746582,-0.00009999999747378752,-0.016599999740719795,0.08940000087022781,0.12199999852133472,0.1830000044521087,0
-0.15539325773715973,-0.0956052616238594,9.879051208496094,-0.009399999864399433,-0.0071000000461936,0.05999999865889549,0,0,-0.12199999852133472
-0.191708505153656,-0.09791327267885208,9.902121543884277,-0.048499997705221176,-0.01679999940097332,0.07959999889135361,0.06099999926066736,0,-0.06099999926066736
-0.16202999651432037,-0.0996466726064682,9.89353084564209,-0.00930000003427267,-0.016999999061226845,0.07959999889135361,-0.06099999926066736,0.12199999852133472,0.06099999926066736
-0.1625758707523346,-0.08198704570531845,9.900455474853516,-0.008899999782443047,0.002699999837204814,0.07959999889135361,0,0.06099999926066736,-0.06099999926066736
-0.1449258178472519,-0.07531201094388962,9.902820587158203,0.0008999999845400453,0.01249999925494194,0.08940000087022781,0,0.06099999926066736,-0.06099999926066736
-0.1465921849012375,-0.09707050770521164,9.883245468139648,0.0010999999940395355,-0.01679999940097332,0.05999999865889549,0.06099999926066736,0.1830000044521087,0.06099999926066736
-0.1424071192741394,-0.11171344667673111,9.93246078491211,0.011399999260902405,-0.02669999934732914,0.11889999359846115,-0.06099999926066736,0.06099999926066736,0
-0.1636389046907425,-0.09108500927686691,9.92410945892334,-0.01769999973475933,-0.006899999920278788,0.10909999907016754,0.06099999926066736,0.06099999926066736,0
-0.15174449980258942,-0.10444465279579163,9.885754585266113,0.0018999999156221747,-0.01679999940097332,0.0697999969124794,0.12199999852133472,0,0.06099999926066736
-0.12347377091646194,-0.10590990632772446,9.925172805786133,0.031300000846385956,-0.026899999007582664,0.10909999907016754,-0.06099999926066736,0.12199999852133472,-0.06099999926066736
-0.16683755815029144,-0.09157342463731766,9.918909072875977,-0.01730000041425228,-0.0071000000461936,0.09929999709129333,-0.06099999926066736,0.06099999926066736,0.06099999926066736
-0.1532384753227234,-0.08464939892292023,9.899688720703125,-0.0072999997064471245,0.00279999990016222,0.07970000058412552,0,0.24399999704266945,0
-0.13156618177890778,-0.11275732517242432,9.906651496887207,0.033299997448921204,-0.025599999353289604,0.08959999680519104,0.12199999852133472,0,0.06099999926066736
-0.15113158524036407,-0.09415916353464127,9.872261047363281,0.006300000008195639,-0.0032999999821186066,0.0502999983727932,-0.06099999926066736,0.06099999926066736,-0.06099999926066736
-0.13501381874084473,-0.07422982901334763,9.902351379394531,0.01119999960064888,0.011399999260902405,0.07959999889135361,0.1830000044521087,0.06099999926066736,0.06099999926066736
-0.17646223306655884,-0.11483548581600189,9.896835327148438,-0.020899999886751175,-0.0210999995470047,0.07979999482631683,0.06099999926066736,0.06099999926066736,0
-0.15326720476150513,-0.103563591837883,9.894719123840332,-0.0010999999940395355,-0.008899999782443047,0.07979999482631683,0.06099999926066736,0.1830000044521087,0.06099999926066736
-0.1563030630350113,-0.09611283242702484,9.910070419311523,-0.0007999999797903001,-0.0072999997064471245,0.08959999680519104,0.12199999852133472,0.06099999926066736,-0.06099999926066736
-0.1201506182551384,-0.08617210388183594,9.906181335449219,0.02879999950528145,0.01249999925494194,0.08949999511241913,0.06099999926066736,0.24399999704266945,0
-0.17311036586761475,-0.12507309019565582,9.907244682312012,-0.024799998849630356,-0.038599997758865356,0.08959999680519104,0.06099999926066736,0.06099999926066736,0
-0.169997900724411,-0.08998367190361023,9.885428428649902,-0.011599999852478504,0.00009999999747378752,0.07000000029802322,-0.06099999926066736,0.12199999852133472,0
-0.143613800406456,-0.08796297013759613,9.885946273803711,0.013700000010430813,0.00009999999747378752,0.06989999860525131,0.06099999926066736,0.06099999926066736,0.06099999926066736
-0.15164874494075775,-0.09719501435756683,9.890111923217773,0.002899999963119626,-0.007699999958276749,0.06989999860525131,0.06099999926066736,0.12199999852133472,-0.06099999926066736
-0.1580747663974762,-0.09903375804424286,9.911870002746582,-0.005499999970197678,-0.0064999996684491634,0.08959999680519104,0.12199999852133472,0.12199999852133472,0
-0.16037319600582123,-0.09948386996984482,9.901403427124023,-0.004299999680370092,-0.005499999970197678,0.07979999482631683,0.06099999926066736,0.06099999926066736,-0.06099999926066736
-0.13844232261180878,-0.10694419592618942,9.912627220153809,0.012299999594688416,-0.012799999676644802,0.09939999878406525,0.06099999926066736,0.06099999926066736,0.06099999926066736
-0.13849978148937225,-0.08218815922737122,9.896308898925781,0.009499999694526196,0.012600000016391277,0.07970000058412552,-0.06099999926066736,0.12199999852133472,0.12199999852133472
-0.15345875918865204,-0.09381440281867981,9.900693893432617,-0.007799999788403511,0.002199999988079071,0.07970000058412552,-0.06099999926066736,0.12199999852133472,0
-0.17990031838417053,-0.1253603994846344,9.92308521270752,-0.022699998691678047,-0.030700000002980232,0.10929999500513077,0.12199999852133472,0,0
-0.14392982423305511,-0.10206002742052078,9.878897666931152,0.004600000102072954,-0.0013000000035390258,0.06019999831914902,0.1830000044521087,-0.06099999926066736,0.06099999926066736
-0.15194562077522278,-0.12428779900074005,9.912128448486328,0.0044999998062849045,-0.021399999037384987,0.09939999878406525,0,0.06099999926066736,-0.06099999926066736
-0.1372356414794922,-0.07209420204162598,9.91092300415039,0.014399999752640724,0.027499999850988388,0.08959999680519104,0.06099999926066736,0,0.06099999926066736
-0.14520354568958282,-0.13387417793273926,9.921552658081055,0.004600000102072954,-0.03139999881386757,0.09939999878406525,0,0.1830000044521087,-0.06099999926066736
-0.12764926254749298,-0.08606676757335663,9.918047904968262,0.024699999019503593,0.01759999990463257,0.09939999878406525,0.06099999926066736,0.06099999926066736,0.06099999926066736
-0.15441642701625824,-0.08055052161216736,9.896653175354004,-0.004399999976158142,0.017400000244379044,0.07979999482631683,-0.06099999926066736,0.06099999926066736,0.06099999926066736
-0.16729724407196045,-0.0787883922457695,9.896844863891602,-0.014099999330937862,0.017500000074505806,0.07979999482631683,-0.06099999926066736,0.06099999926066736,0
-0.15033671259880066,-0.09765470027923584,9.863450050354004,0.00559999980032444,-0.0017999999690800905,0.0405999980866909,0,0.06099999926066736,0
-0.1628248691558838,-0.10455957800149918,9.867463111877441,-0.013700000010430813,-0.0017999999690800905,0.05040000006556511,0.12199999852133472,0.06099999926066736,0.06099999926066736
-0.14535677433013916,-0.11920251697301865,9.910961151123047,0.006000000052154064,-0.021699998527765274,0.08959999680519104,0.06099999926066736,0.06099999926066736,0.06099999926066736
-0.1361534595489502,-0.1012938842177391,9.906737327575684,0.01589999906718731,-0.002300000051036477,0.08959999680519104,0,0,0
-0.1261935830116272,-0.08384493738412857,9.906181335449219,0.025699999183416367,0.01719999872148037,0.08959999680519104,0.06099999926066736,0.06099999926066736,0.06099999926066736
-0.15564225614070892,-0.09496361762285233,9.910347938537598,-0.003499999875202775,0.007199999876320362,0.08959999680519104,0.06099999926066736,0.06099999926066736,-0.06099999926066736
-0.14770309627056122,-0.09499234706163406,9.923659324645996,0.006399999838322401,0.00699999975040555,0.10929999500513077,0.06099999926066736,0.06099999926066736,0
-0.13810713589191437,-0.09628521651029587,9.901144981384277,0.016300000250339508,-0.00279999990016222,0.07979999482631683,-0.06099999926066736,0,-0.06099999926066736
-0.18765753507614136,-0.08434294164180756,9.899209976196289,0.016300000250339508,-0.01249999925494194,0.07979999482631683,0,0.12199999852133472,0
-0.16949990391731262,-0.07289864867925644,9.91076946258545,-0.012600000016391277,0.026399999856948853,0.08959999680519104,0.06099999926066736,0.06099999926066736,-0.06099999926066736
-0.13876792788505554,-0.07948749512434006,9.889873504638672,0.01679999940097332,0.01640000008046627,0.07000000029802322,0.06099999926066736,0.06099999926066736,-0.06099999926066736
-0.16056475043296814,-0.0736839547753334,9.877154350280762,-0.0024999999441206455,0.025999998673796654,0.06019999831914902,-0.06099999926066736,0.06099999926066736,-0.12199999852133472
-0.14220601320266724,-0.08107724785804749,9.927940368652344,0.017099998891353607,0.016300000250339508,0.10929999500513077,0.12199999852133472,0.06099999926066736,0
-0.14979083836078644,-0.07598238438367844,9.906967163085938,0.007499999832361937,0.025699999183416367,0.08959999680519104,-0.06099999926066736,0.06099999926066736,0.06099999926066736
-0.1676803082227707,-0.08724471181631088,9.927739143371582,-0.011799999512732029,0.006300000008195639,0.10929999500513077,0.06099999926066736,0,-0.06099999926066736
-0.13906480371952057,-0.0942070484161377,9.87460708618164,0.017400000244379044,0.006099999882280827,0.06019999831914902,-0.06099999926066736,-0.12199999852133472,0
-0.13968729972839355,-0.08783847093582153,9.908490180969238,0.016999999061226845,0.006199999712407589,0.08959999680519104,0.06099999926066736,0.12199999852133472,0
-0.16428054869174957,-0.0624503567814827,9.888781547546387,-0.011899999342858791,0.03539999946951866,0.07000000029802322,0.06099999926066736,0.12199999852133472,0
-0.1399267315864563,-0.0651797503232956,9.871264457702637,0.01769999973475933,0.03500000014901161,0.05040000006556511,0.06099999926066736,0,0
-0.16561172902584076,-0.11176133900880814,9.87863826751709,-0.011599999852478504,-0.0139999995008111,0.06019999831914902,-0.06099999926066736,-0.06099999926066736,0
-0.1445906162261963,-0.09056786447763443,9.938943862915039,0.007699999958276749,0.005699999630451202,0.11909999698400497,0.06099999926066736,0,0.12199999852133472
-0.1363832950592041,-0.09534668922424316,9.902782440185547,0.017500000074505806,0.005499999970197678,0.08959999680519104,0.12199999852133472,0.06099999926066736,0
-0.13974477350711823,-0.12334927171468735,9.886837005615234,0.01759999990463257,-0.02410000003874302,0.07000000029802322,0,0.06099999926066736,0.06099999926066736
-0.1588696390390396,-0.07793605327606201,9.91108512878418,-0.0017999999690800905,0.014999999664723873,0.08959999680519104,0.12199999852133472,0.06099999926066736,0.06099999926066736
-0.13262920081615448,-0.09416873753070831,9.923410415649414,0.02759999968111515,0.004799999762326479,0.10929999500513077,0,0.12199999852133472,0.06099999926066736
-0.14435121417045593,-0.0944368913769722,9.878993034362793,0.008299999870359898,0.004799999762326479,0.06019999831914902,0.12199999852133472,0.1830000044521087,0
-0.154033362865448,-0.06879020482301712,9.878447532653809,-0.0008999999845400453,0.024000000208616257,0.06019999831914902,-0.06099999926066736,0.06099999926066736,0.06099999926066736
-0.1623268723487854,-0.09403466433286667,9.884681701660156,-0.000699999975040555,0.0044999998062849045,0.07000000029802322,-0.06099999926066736,0.06099999926066736,0.06099999926066736
-0.14613249897956848,-0.07039910554885864,9.891845703125,0.009099999442696571,0.02419999986886978,0.07000000029802322,0,0.06099999926066736,0
-0.1598656326532364,-0.10597694665193558,9.895561218261719,-0.00039999998989515007,-0.01489999983459711,0.07989999651908875,0.06099999926066736,0,0.06099999926066736
-0.13738887012004852,-0.1085435226559639,9.913009643554688,0.01899999938905239,-0.014999999664723873,0.09950000047683716,0,0,0.06099999926066736
-0.1323610544204712,-0.107691191136837,9.883657455444336,0.028699999675154686,-0.014999999664723873,0.07000000029802322,0.06099999926066736,0.12199999852133472,0
-0.13318464159965515,-0.0569915771484375,9.89494800567627,0.02889999933540821,0.04339999705553055,0.07979999482631683,0.06099999926066736,0.06099999926066736,-0.12199999852133472
-0.15315230190753937,-0.09142019599676132,9.928380966186523,0.009399999864399433,0.00419999985024333,0.10929999500513077,0.06099999926066736,-0.12199999852133472,-0.12199999852133472
-0.15336298942565918,-0.09188945591449738,9.907713890075684,-0.0005999999702908099,0.003999999724328518,0.08969999849796295,0,0,0.06099999926066736
-0.1491396129131317,-0.06439444422721863,9.907379150390625,0.008999999612569809,0.033299997448921204,0.08959999680519104,0.12199999852133472,0.1830000044521087,0
-0.17113754153251648,-0.09985736012458801,9.895033836364746,-0.009999999776482582,-0.006099999882280827,0.07979999482631683,0.06099999926066736,0.06099999926066736,0
-0.14590264856815338,-0.07496725022792816,9.893559455871582,0.00969999935477972,0.02290000021457672,0.07979999482631683,0.12199999852133472,0.1830000044521087,-0.06099999926066736
-0.12935392558574677,-0.08171889185905457,9.881368637084961,0.029600000008940697,0.01269999984651804,0.06019999831914902,0.12199999852133472,0,-0.06099999926066736
-0.16544891893863678,-0.08786720037460327,9.913700103759766,-0.009499999694526196,0.0024999999441206455,0.09950000047683716,0.06099999926066736,0.12199999852133472,0.06099999926066736
-0.16746003925800323,-0.09029971063137054,9.881301879882812,-0.009099999442696571,0.002300000051036477,0.06019999831914902,0.12199999852133472,0.06099999926066736,0.06099999926066736
-0.15531665086746216,-0.09854534268379211,9.869272232055664,0.0007999999797903001,-0.007599999662488699,0.05040000006556511,0,-0.12199999852133472,0
-0.13809755444526672,-0.0706193745136261,9.852858543395996,0.01979999989271164,0.02149999886751175,0.030799999833106995,0.12199999852133472,0.06099999926066736,0
-0.16214491426944733,-0.09071151912212372,9.906153678894043,0.00039999998989515007,0.001500000013038516,0.08959999680519104,0.1830000044521087,0.12199999852133472,0.06099999926066736
-0.12671072781085968,-0.11617624759674072,9.903874397277832,0.029999999329447746,-0.028199998661875725,0.08959999680519104,-0.06099999926066736,-0.06099999926066736,-0.06099999926066736
-0.15833334624767303,-0.09774088859558105,9.921073913574219,0.00039999998989515007,-0.00839999970048666,0.09950000047683716,0.12199999852133472,0.12199999852133472,-0.06099999926066736
-0.1460750252008438,-0.08324160426855087,9.905204772949219,0.010499999858438969,0.010699999518692493,0.08959999680519104,0,0.12199999852133472,0
-0.1380305141210556,-0.06667372584342957,9.93632984161377,0.020499998703598976,0.03019999898970127,0.11909999698400497,-0.06099999926066736,0.1830000044521087,-0.06099999926066736
-0.15866853296756744,-0.06780379265546799,9.929482460021973,0.00139999995008111,0.020499998703598976,0.10929999500513077,0,0.06099999926066736,-0.06099999926066736
-0.14783717691898346,-0.06716214865446091,9.88744068145752,0.011299999430775642,0.020399998873472214,0.07000000029802322,0,0.12199999852133472,0
-0.14987702667713165,-0.08820239454507828,9.898674011230469,0.011599999852478504,0.0007999999797903001,0.07989999651908875,-0.06099999926066736,0.06099999926066736,0
-0.15511554479599,-0.08527188748121262,9.91162109375,-0.007699999958276749,-0.028199998661875725,0.08969999849796295,0.06099999926066736,0.06099999926066736,-0.06099999926066736
-0.15511554479599,-0.08527188748121262,9.91162109375,0.0018999999156221747,0.010799999348819256,0.08969999849796295,0.06099999926066736,0.06099999926066736,-0.06099999926066736
-0.17161637544631958,-0.10967358946800232,9.925518035888672,-0.007599999662488699,-0.01860000006854534,0.10929999500513077,0.12199999852133472,0.12199999852133472,-0.12199999852133472
-0.15431107580661774,-0.099397674202919,9.89931583404541,0.0024999999441206455,-0.009099999442696571,0.07989999651908875,0,0.06099999926066736,0.12199999852133472
-0.15695428848266602,-0.08132623881101608,9.909897804260254,0.0026000000070780516,0.010400000028312206,0.08969999849796295,0,0.06099999926066736,0
-0.1581992655992508,-0.09023267030715942,9.875219345092773,0.03199999779462814,-0.009099999442696571,0.07989999651908875,0,0.12199999852133472,-0.06099999926066736
-0.14483004808425903,-0.09627564251422882,9.866658210754395,0.012899999506771564,-0.008700000122189522,0.05049999803304672,-0.06099999926066736,0,-0.1830000044521087
-0.1337975561618805,-0.09511684626340866,9.909744262695312,0.03229999914765358,0.0011999999405816197,0.08969999849796295,0.06099999926066736,0.12199999852133472,0
-0.17232505977153778,-0.08395986258983612,9.897639274597168,-0.006399999838322401,0.010799999348819256,0.07989999651908875,-0.06099999926066736,0.06099999926066736,0
-0.1391126960515976,-0.07052360475063324,9.890791893005371,0.02290000021457672,0.020600000396370888,0.07009999454021454,-0.06099999926066736,0.12199999852133472,0
-0.1664736270904541,-0.0790373831987381,9.89931583404541,-0.006099999882280827,0.010900000110268593,0.07989999651908875,0,-0.12199999852133472,0
-0.1584099531173706,-0.08895896375179291,9.889211654663086,0.0032999999821186066,0.0010999999940395355,0.07009999454021454,0,0.06099999926066736,-0.06099999926066736
-0.13183431327342987,-0.08277233690023422,9.91549015045166,0.03269999846816063,0.010799999348819256,0.09950000047683716,0.06099999926066736,0.06099999926066736,0.06099999926066736
-0.1637634038925171,-0.08926542103290558,9.942602157592773,-0.006300000008195639,0.0007999999797903001,0.12889999151229858,0.06099999926066736,0.12199999852133472,-0.1830000044521087
-0.14876611530780792,-0.10611101984977722,9.934605598449707,0.013499999418854713,-0.018799999728798866,0.11909999698400497,0.12199999852133472,0,0
-0.13938084244728088,-0.12168290466070175,9.910951614379883,0.02319999970495701,-0.028699999675154686,0.08969999849796295,0.12199999852133472,0.12199999852133472,-0.12199999852133472
-0.14342226088047028,-0.08752243965864182,9.931598663330078,0.023399999365210533,0.00019999999494757503,0.11909999698400497,0.06099999926066736,0.12199999852133472,0.06099999926066736
-0.16830278933048248,-0.09345047920942307,9.925153732299805,-0.00559999980032444,0.00009999999747378752,0.10929999500513077,-0.06099999926066736,0,-0.06099999926066736
-0.17283262312412262,-0.11276689916849136,9.879490852355957,-0.015099999494850636,-0.01899999938905239,0.06030000001192093,0.06099999926066736,0.06099999926066736,0.06099999926066736
-0.13853809237480164,-0.09136273711919785,9.889240264892578,0.024000000208616257,0.00029999998514540493,0.07009999454021454,0,0.12199999852133472,0.06099999926066736
-0.14355634152889252,-0.09932105988264084,9.89096450805664,0.02410000003874302,-0.00930000003427267,0.07009999454021454,0.06099999926066736,0.12199999852133472,-0.06099999926066736
-0.1391988843679428,-0.0978558138012886,9.895743370056152,0.024299999698996544,-0.009399999864399433,0.07989999651908875,0.1830000044521087,0.06099999926066736,-0.06099999926066736
-0.16217364370822906,-0.07913315296173096,9.886070251464844,0.004799999762326479,0.009499999694526196,0.07009999454021454,0,0.06099999926066736,0.06099999926066736
-0.14718593657016754,-0.10636959224939346,9.891481399536133,0.014599999412894249,-0.019600000232458115,0.07009999454021454,-0.06099999926066736,0,-0.06099999926066736
-0.15767253935337067,-0.10968316346406937,9.875382423400879,0.004799999762326479,-0.019299998879432678,0.06030000001192093,-0.06099999926066736,0,0
-0.12159671634435654,-0.09742485731840134,9.917769432067871,0.043699998408555984,-0.00930000003427267,0.09950000047683716,0.1830000044521087,0.06099999926066736,-0.06099999926066736
-0.15730862319469452,-0.09426451474428177,9.89992904663086,0.004600000102072954,0,0.07989999651908875,0,-0.06099999926066736,0.06099999926066736
-0.14535677433013916,-0.08124962449073792,9.895733833312988,0.014099999330937862,0.00969999935477972,0.07989999651908875,0.1830000044521087,0.12199999852133472,0
-0.15225207805633545,-0.08278191834688187,9.888216018676758,0.014299999922513962,0.009099999442696571,0.07009999454021454,0.1830000044521087,0.12199999852133472,0
-0.13998419046401978,-0.08786720037460327,9.932048797607422,0.024299999698996544,-0.0010999999940395355,0.11909999698400497,0.06099999926066736,-0.06099999926066736,0
-0.16759411990642548,-0.05845683068037033,9.918851852416992,-0.0050999997183680534,0.027799999341368675,0.09950000047683716,0,0.06099999926066736,0.06099999926066736
-0.16563087701797485,-0.09009859710931778,9.901134490966797,-0.004900000058114529,-0.001500000013038516,0.07989999651908875,0,0,-0.12199999852133472
-0.1590133011341095,-0.08153693377971649,9.87183952331543,0.004699999932199717,0.008100000210106373,0.05049999803304672,-0.12199999852133472,0,0
-0.16381128132343292,-0.11081323027610779,9.900321006774902,-0.004999999888241291,-0.02070000022649765,0.07989999651908875,0.06099999926066736,0.06099999926066736,-0.06099999926066736
-0.151409313082695,-0.11407892405986786,9.906890869140625,0.014599999412894249,-0.02070000022649765,0.08969999849796295,0,0.1830000044521087,0
-0.13442005217075348,-0.09179369360208511,9.888331413269043,0.024699999019503593,-0.0010999999940395355,0.07009999454021454,-0.06099999926066736,0,0.12199999852133472
-0.14676456153392792,-0.08861419558525085,9.890341758728027,0.014800000004470348,-0.0008999999845400453,0.07009999454021454,0.06099999926066736,0.12199999852133472,0.06099999926066736
-0.1533438265323639,-0.08742666989564896,9.903433799743652,0.0052999998442828655,-0.0010999999940395355,0.08969999849796295,0.1830000044521087,0.12199999852133472,-0.06099999926066736
-0.14686033129692078,-0.08811619877815247,9.891289710998535,0.01529999915510416,-0.0015999999595806003,0.07009999454021454,0.12199999852133472,0.12199999852133472,-0.06099999926066736
-0.14973336458206177,-0.08482177555561066,9.901124954223633,0.01549999974668026,0.007699999958276749,0.07989999651908875,0.06099999926066736,0.1830000044521087,0
-0.15748101472854614,-0.09553822129964828,9.904621124267578,0.006099999882280827,-0.002099999925121665,0.08969999849796295,-0.06099999926066736,0,0.06099999926066736
-0.1278599500656128,-0.08095274865627289,9.933696746826172,0.03529999777674675,0.007699999958276749,0.11909999698400497,0,0.24399999704266945,0
-0.1730145812034607,-0.08712979406118393,9.911286354064941,-0.012899999506771564,-0.001999999862164259,0.08969999849796295,0,0,0
-0.15897499024868011,-0.06823474913835526,9.918277740478516,0.006599999964237213,0.017500000074505806,0.09950000047683716,0.06099999926066736,0.06099999926066736,-0.06099999926066736
-0.15010687708854675,-0.08486008644104004,9.900693893432617,0.016499999910593033,0.007499999832361937,0.07989999651908875,-0.06099999926066736,0.06099999926066736,-0.12199999852133472
-0.1375516802072525,-0.07667191326618195,9.873812675476074,0.026499999687075615,0.007599999662488699,0.06030000001192093,0.12199999852133472,0,0
-0.152031809091568,-0.06874231994152069,9.905272483825684,0.016599999740719795,0.017099998891353607,0.08969999849796295,0,0.06099999926066736,-0.06099999926066736
-0.1575576364994049,-0.06676950305700302,9.893071174621582,0.00699999975040555,0.026899999007582664,0.07989999651908875,-0.06099999926066736,0.12199999852133472,-0.06099999926066736
-0.14970465004444122,-0.05685750022530556,9.932670593261719,0.026899999007582664,0.026999998837709427,0.08969999849796295,-0.12199999852133472,0.12199999852133472,0.06099999926066736
-0.15306609869003296,-0.13585658371448517,9.900435447692871,0.01759999990463257,-0.050999999046325684,0.07989999651908875,0.06099999926066736,0.06099999926066736,0
-0.14151647686958313,-0.0841418206691742,9.892352104187012,0.027499999850988388,0.007599999662488699,0.07009999454021454,0.12199999852133472,0.12199999852133472,0
-0.15712666511535645,-0.09037632495164871,9.890801429748535,0.008200000040233135,-0.0024999999441206455,0.07009999454021454,0,0.1830000044521087,0
-0.15558481216430664,-0.07829996943473816,9.886588096618652,0.008599999360740185,0.007199999876320362,0.07009999454021454,0,0,0
-0.12760137021541595,-0.08416098356246948,9.873573303222656,0.03749999776482582,0.0071000000461936,0.05049999803304672,0,0,0.06099999926066736
-0.1461995393037796,-0.06564901024103165,9.886444091796875,0.01769999973475933,0.026399999856948853,0.07009999454021454,0.06099999926066736,0.06099999926066736,0
-0.14033852517604828,-0.056455276906490326,9.923611640930176,0.027499999850988388,0.03579999879002571,0.10929999500513077,0.06099999926066736,0.06099999926066736,0.06099999926066736
-0.16419434547424316,-0.08474516123533249,9.92273998260498,-0.0015999999595806003,0.006199999712407589,0.10929999500513077,0,0.06099999926066736,0
-0.14557704329490662,-0.07998549193143845,9.905444145202637,0.017899999395012856,0.006099999882280827,0.08969999849796295,0,0.06099999926066736,-0.06099999926066736
-0.177956223487854,-0.0799759104847908,9.927318572998047,-0.01119999960064888,0.006099999882280827,0.10929999500513077,0,0,-0.12199999852133472
-0.13237062096595764,-0.10520122200250626,9.906669616699219,0.03739999979734421,-0.013299999758601189,0.08969999849796295,-0.06099999926066736,-0.06099999926066736,0
-0.1648072600364685,-0.10656112432479858,9.91282844543457,-0.0018999999156221747,-0.02279999852180481,0.09950000047683716,0.06099999926066736,0,0
-0.1546367108821869,-0.08006210625171661,9.89194107055664,0.007699999958276749,0.006300000008195639,0.07009999454021454,0,0.06099999926066736,0
-0.15068146586418152,-0.11943235993385315,9.913844108581543,0.01759999990463257,-0.032600000500679016,0.09950000047683716,-0.06099999926066736,0.06099999926066736,-0.06099999926066736
-0.14254119992256165,-0.08088570833206177,9.918468475341797,0.027300000190734863,0.006599999964237213,0.09950000047683716,0,0.12199999852133472,-0.06099999926066736
-0.15515385568141937,-0.0911041647195816,9.903653144836426,0.007899999618530273,-0.0030999998562037945,0.08969999849796295,0,-0.12199999852133472,0.12199999852133472
-0.1395723819732666,-0.09258856624364853,9.903883934020996,0.026999998837709427,-0.003000000026077032,0.08969999849796295,0,0.12199999852133472,0
-0.13842317461967468,-0.06221093609929085,9.853326797485352,0.026799999177455902,0.02579999901354313,0.030899999663233757,0,0.06099999926066736,0.12199999852133472
-0.14675499498844147,-0.0710790604352951,9.89113712310791,0.016999999061226845,0.015799999237060547,0.07009999454021454,0,0,-0.12199999852133472
-0.1214434877038002,-0.08525273203849792,9.892621040344238,0.045899998396635056,0.0058999997563660145,0.07009999454021454,0,0.06099999926066736,0
-0.16962440311908722,-0.08615295588970184,9.890581130981445,-0.00279999990016222,0.0058999997563660145,0.07009999454021454,-0.06099999926066736,0,0.06099999926066736
-0.13986925780773163,-0.07206546515226364,9.911324501037598,0.026200000196695328,0.015699999406933784,0.08969999849796295,0,0.06099999926066736,0.06099999926066736
-0.15003982186317444,-0.08237969130277634,9.89641284942627,0.01640000008046627,0.005799999926239252,0.07989999651908875,0.1830000044521087,0.12199999852133472,0.06099999926066736
-0.16215449571609497,-0.08831731230020523,9.922262191772461,0.006899999920278788,-0.004299999680370092,0.10929999500513077,-0.06099999926066736,0.06099999926066736,-0.06099999926066736
-0.16451038420200348,-0.0664534643292427,9.902111053466797,-0.0026000000070780516,0.024899998679757118,0.07989999651908875,0.12199999852133472,0,0.06099999926066736
-0.14220601320266724,-0.09219592064619064,9.895647048950195,0.026399999856948853,-0.004699999932199717,0.07989999651908875,0.06099999926066736,0.1830000044521087,0
-0.15569014847278595,-0.09098923951387405,9.911582946777344,0.0072999997064471245,-0.004799999762326479,0.08969999849796295,0,-0.12199999852133472,0.06099999926066736
-0.1635144054889679,-0.10221325606107712,9.919053077697754,-0.002699999837204814,-0.014800000004470348,0.09950000047683716,-0.1830000044521087,0.1830000044521087,-0.06099999926066736
-0.156906396150589,-0.08837477117776871,9.905147552490234,0.007499999832361937,-0.0044999998062849045,0.08969999849796295,0.06099999926066736,0.06099999926066736,0
-0.14208151400089264,-0.10442549735307693,9.884749412536621,0.027300000190734863,-0.014399999752640724,0.07009999454021454,-0.06099999926066736,0.1830000044521087,-0.06099999926066736
-0.14081737399101257,-0.08921752870082855,9.910538673400879,0.027699999511241913,-0.004399999976158142,0.08969999849796295,0.06099999926066736,0,0
-0.1725548952817917,-0.085894376039505,9.872308731079102,-0.011399999260902405,0.0050999997183680534,0.05049999803304672,0,0,-0.12199999852133472
-0.14652514457702637,-0.07615476846694946,9.918344497680664,0.017899999395012856,0.01489999983459711,0.09950000047683716,0.1830000044521087,0,0.06099999926066736
-0.15587210655212402,-0.09134358167648315,9.921351432800293,0.008100000210106373,-0.0050999997183680534,0.09950000047683716,0.12199999852133472,0.12199999852133472,0
-0.13779109716415405,-0.10474153608083725,9.882804870605469,0.0279999990016222,-0.01529999915510416,0.06030000001192093,0,0.06099999926066736,0.12199999852133472
-0.17704643309116364,-0.07913315296173096,9.902810096740723,-0.010900000110268593,0.00419999985024333,0.08969999849796295,0.06099999926066736,0.06099999926066736,-0.06099999926066736
-0.15769170224666595,-0.07292738556861877,9.926101684570312,0.008700000122189522,0.013899999670684338,0.10929999500513077,-0.06099999926066736,0.06099999926066736,0
-0.1422155797481537,-0.10500010848045349,9.917464256286621,0.02850000001490116,-0.01529999915510416,0.09950000047683716,0,0,0
-0.15104539692401886,-0.08350975811481476,9.908490180969238,0.018699999898672104,0.00419999985024333,0.08969999849796295,0,0.06099999926066736,0
-0.1565329134464264,-0.09068278223276138,9.917328834533691,0.008899999782443047,-0.005399999674409628,0.09950000047683716,-0.12199999852133472,0,-0.12199999852133472
-0.14854584634304047,-0.09224380552768707,9.95459270477295,0.01860000006854534,-0.0050999997183680534,0.1387999951839447,0,0.06099999926066736,0.06099999926066736
-0.14493539929389954,-0.11051634699106216,9.93321704864502,0.01860000006854534,-0.02449999935925007,0.11909999698400497,0,0.12199999852133472,0
-0.1761845052242279,-0.08262868970632553,9.905233383178711,-0.010300000198185444,0.004799999762326479,0.08969999849796295,-0.12199999852133472,0,-0.06099999926066736
-0.1789522022008896,-0.10038408637046814,9.913039207458496,-0.010199999436736107,-0.014299999922513962,0.09950000047683716,0,0.12199999852133472,0
-0.14922580122947693,-0.09048167616128922,9.899574279785156,0.019199999049305916,-0.004399999976158142,0.07989999651908875,0.12199999852133472,-0.06099999926066736,-0.06099999926066736
-0.17113754153251648,-0.10174399614334106,9.898482322692871,-0.0004999999655410647,-0.014399999752640724,0.07989999651908875,0.12199999852133472,0,-0.06099999926066736
-0.15363113582134247,-0.07478528469800949,9.917922973632812,0.009099999442696571,0.014399999752640724,0.09950000047683716,-0.12199999852133472,0.06099999926066736,-0.06099999926066736
-0.14438951015472412,-0.08571241796016693,9.8881196975708,0.01889999955892563,0.004900000058114529,0.07009999454021454,0,0.12199999852133472,0.06099999926066736
-0.15887922048568726,-0.09472420066595078,9.908184051513672,0.00930000003427267,-0.004799999762326479,0.08969999849796295,0,0.1830000044521087,0
-0.147865891456604,-0.08463024348020554,9.902216911315918,0.01939999870955944,0.004900000058114529,0.07989999651908875,0,0.1830000044521087,0.06099999926066736
-0.1596166342496872,-0.08699571341276169,9.91756820678711,0.009999999776482582,-0.004799999762326479,0.09959999471902847,0.12199999852133472,0.1830000044521087,0
-0.14112383127212524,-0.08734047412872314,9.908403396606445,0.02979999966919422,-0.0050999997183680534,0.08969999849796295,-0.06099999926066736,0,0
-0.1349659413099289,-0.08734047412872314,9.91304874420166,-0.009200000204145908,0.014399999752640724,0.08969999849796295,0,-0.06099999926066736,0.06099999926066736
-0.17675912380218506,-0.09693644195795059,9.901335716247559,-0.00969999935477972,-0.014699999243021011,0.07989999651908875,0.12199999852133472,0.24399999704266945,0
-0.15252980589866638,-0.09207142144441605,9.923727035522461,0.02029999904334545,-0.005200000014156103,0.10939999669790268,0.06099999926066736,0.06099999926066736,0
-0.16356228291988373,-0.08266700059175491,9.900205612182617,0.0007999999797903001,0.004299999680370092,0.07989999651908875,0,0,0
-0.13210247457027435,-0.06717172265052795,9.909197807312012,0.03999999910593033,0.014099999330937862,0.08969999849796295,0.06099999926066736,0.12199999852133472,0
-0.16925090551376343,-0.10265379399061203,9.90268611907959,0.0010999999940395355,-0.015399999916553497,0.08980000019073486,-0.06099999926066736,0,0.12199999852133472
-0.15358325839042664,-0.08291599154472351,9.915356636047363,0.010900000110268593,0.004299999680370092,0.09959999471902847,-0.12199999852133472,0,0.06099999926066736
-0.15712666511535645,-0.060487110167741776,9.88273811340332,0.010900000110268593,0.02419999986886978,0.06030000001192093,0.12199999852133472,0.1830000044521087,0
-0.1539088636636734,-0.06554366648197174,9.884673118591309,0.011299999430775642,0.023799998685717583,0.07009999454021454,-0.12199999852133472,0.06099999926066736,0
-0.16667474806308746,-0.10590033233165741,9.907255172729492,0.0016999999061226845,-0.024799998849630356,0.08980000019073486,0.12199999852133472,0,-0.06099999926066736
-0.13551181554794312,-0.08657433092594147,9.902973175048828,0.031099999323487282,-0.005499999970197678,0.08980000019073486,0,0.12199999852133472,0
-0.14225389063358307,-0.07244853675365448,9.858699798583984,0.031300000846385956,0.0139999995008111,0.040699999779462814,0.06099999926066736,0.12199999852133472,0.12199999852133472
-0.16427096724510193,-0.04918648302555084,9.90922737121582,0.002300000051036477,0.033399999141693115,0.08980000019073486,0,0,0
-0.16426138579845428,-0.08202534914016724,9.891088485717773,0.002199999988079071,0.0038999998942017555,0.07019999623298645,-0.06099999926066736,0.06099999926066736,0.12199999852133472
-0.16112977266311646,-0.07269754260778427,9.905367851257324,0.012000000104308128,0.013799999840557575,0.08980000019073486,0.06099999926066736,0.06099999926066736,-0.06099999926066736
-0.16724935173988342,-0.08465897291898727,9.94946002960205,0.0023999998811632395,0.003700000001117587,0.1289999932050705,0,0.06099999926066736,0.12199999852133472
-0.14991532266139984,-0.06521805375814438,9.935898780822754,0.02199999988079071,0.02319999970495701,0.11919999867677689,-0.12199999852133472,0,0
-0.1401948630809784,-0.06975746154785156,9.89985179901123,0.03139999881386757,0.013499999418854713,0.07999999821186066,-0.06099999926066736,0.06099999926066736,-0.06099999926066736
-0.17181749641895294,-0.06546705216169357,9.929482460021973,0.002099999925121665,0.02329999953508377,0.10939999669790268,0,0.06099999926066736,0
-0.13466905057430267,-0.07792647182941437,9.90307903289795,0.03139999881386757,0.003599999938160181,0.08980000019073486,0.06099999926066736,0,0
-0.17300501465797424,-0.09685025364160538,9.882163047790527,-0.007699999958276749,-0.015799999237060547,0.06030000001192093,0,0.06099999926066736,0.12199999852133472
-0.1421964317560196,-0.08864292502403259,9.884404182434082,0.031199999153614044,-0.006000000052154064,0.07019999623298645,0.06099999926066736,0,0
-0.15511554479599,-0.08028237521648407,9.89576244354248,0.011500000022351742,0.003499999875202775,0.07999999821186066,-0.06099999926066736,0,-0.06099999926066736
-0.1502601057291031,-0.11258494108915329,9.896347045898438,0.020999999716877937,-0.025299999862909317,0.07999999821186066,0.06099999926066736,0.12199999852133472,-0.06099999926066736
-0.14587391912937164,-0.10227072238922119,9.917635917663574,0.0210999995470047,-0.015599999576807022,0.09959999471902847,0.12199999852133472,0.12199999852133472,0
-0.16862842440605164,-0.08667010813951492,9.898702621459961,0.001999999862164259,-0.006099999882280827,0.07999999821186066,0.12199999852133472,0,0.06099999926066736
-0.16313132643699646,-0.08285853266716003,9.895608901977539,0.001999999862164259,0.0031999999191612005,0.07999999821186066,0.12199999852133472,0.12199999852133472,0
-0.13008177280426025,-0.09496361762285233,9.904189109802246,0.041099999099969864,-0.006799999624490738,0.08980000019073486,0.06099999926066736,0.06099999926066736,0.06099999926066736
-0.18606777489185333,-0.10121726989746094,9.865862846374512,-0.01719999872148037,-0.016499999910593033,0.05049999803304672,-0.06099999926066736,0.06099999926066736,0
-0.1485937386751175,-0.09123823791742325,9.91282844543457,0.021900000050663948,-0.0064999996684491634,0.09959999471902847,-0.12199999852133472,0.06099999926066736,0.12199999852133472
-0.16876249015331268,-0.07246769964694977,9.92322826385498,0.0023999998811632395,0.013299999758601189,0.10939999669790268,0,0,0.12199999852133472
-0.15829505026340485,-0.10064265877008438,9.918545722961426,0.01209999993443489,-0.01589999906718731,0.09959999471902847,0.06099999926066736,0.06099999926066736,0
-0.16089993715286255,-0.0779743567109108,9.899008750915527,0.01209999993443489,0.003399999812245369,0.07999999821186066,0.06099999926066736,0,0
-0.16344735026359558,-0.07971733808517456,9.906440734863281,0.002300000051036477,0.0031999999191612005,0.08980000019073486,0.1830000044521087,0.12199999852133472,0
-0.16122554242610931,-0.10466492176055908,9.882307052612305,0.012199999764561653,-0.016599999740719795,0.06030000001192093,-0.06099999926066736,0.06099999926066736,0
-0.14968548715114594,-0.11913547664880753,9.895723342895508,0.02199999988079071,-0.0357000008225441,0.07999999821186066,0,0.06099999926066736,0.06099999926066736
-0.12559981644153595,-0.09576806426048279,9.894402503967285,0.04129999876022339,-0.01589999906718731,0.07999999821186066,0,0.1830000044521087,0.06099999926066736
-0.1344487965106964,-0.07829039543867111,9.898683547973633,0.031599998474121094,0.003599999938160181,0.07999999821186066,-0.06099999926066736,0.1830000044521087,0.06099999926066736
-0.1406545490026474,-0.08250419050455093,9.910577774047852,0.03139999881386757,0.0032999999821186066,0.07999999821186066,-0.06099999926066736,0.1830000044521087,0.06099999926066736
-0.1406545490026474,-0.08250419050455093,9.910577774047852,0.031599998474121094,0.003499999875202775,0.08980000019073486,-0.1830000044521087,0.06099999926066736,-0.06099999926066736
-0.1520988494157791,-0.08668925613164902,9.92574691772461,0.002300000051036477,0.02329999953508377,0.08980000019073486,-0.06099999926066736,0,-0.06099999926066736
-0.13749422132968903,-0.09409212321043015,9.886301040649414,0.021699998527765274,-0.0058999997563660145,0.10939999669790268,0,0.06099999926066736,-0.1830000044521087
-0.14966633915901184,-0.09407297521829605,9.906124114990234,0.021199999377131462,-0.005699999630451202,0.08980000019073486,0.06099999926066736,0.06099999926066736,0
-0.16710570454597473,-0.06678865104913712,9.91610336303711,0.0017999999690800905,0.02329999953508377,0.09959999471902847,-0.24399999704266945,0,0
-0.1535736620426178,-0.08274361491203308,9.914724349975586,0.011599999852478504,0.004299999680370092,0.09959999471902847,0.06099999926066736,0.12199999852133472,-0.06099999926066736
-0.151868999004364,-0.08819281309843063,9.898635864257812,0.021699998527765274,-0.005499999970197678,0.07999999821186066,-0.06099999926066736,0,0.06099999926066736
-0.15765339136123657,-0.09067320823669434,9.885169982910156,0.011899999342858791,-0.005399999674409628,0.07019999623298645,0.06099999926066736,0.06099999926066736,0
-0.13939042389392853,-0.075350321829319,9.91059684753418,0.031599998474121094,0.0139999995008111,0.08980000019073486,0.06099999926066736,-0.06099999926066736,0
-0.12814724445343018,-0.0874553993344307,9.874242782592773,0.041200000792741776,-0.005699999630451202,0.06030000001192093,-0.06099999926066736,-0.06099999926066736,0
-0.15370774269104004,-0.09080728143453598,9.91304874420166,0.011599999852478504,-0.005499999970197678,0.09959999471902847,-0.12199999852133472,0,-0.06099999926066736
-0.15198391675949097,-0.07996633648872375,9.874520301818848,0.021299999207258224,0.0044999998062849045,0.06030000001192093,0,0.12199999852133472,0.12199999852133472
-0.13857640326023102,-0.11772768199443817,9.888522148132324,0.03139999881386757,-0.03460000082850456,0.07019999623298645,0,0,0.06099999926066736
-0.1619725376367569,-0.07881712168455124,9.916831016540527,0.011799999512732029,0.0044999998062849045,0.09959999471902847,0.06099999926066736,0.12199999852133472,0
-0.1572224497795105,-0.09889010339975357,9.899765968322754,0.01209999993443489,-0.015099999494850636,0.07999999821186066,-0.06099999926066736,0.24399999704266945,0
-0.13818374276161194,-0.08069417625665665,9.93294906616211,0.03240000084042549,0.0044999998062849045,0.11919999867677689,0,0,0
-0.1508251279592514,-0.06275681406259537,9.908528327941895,0.022599998861551285,0.02410000003874302,0.08980000019073486,-0.06099999926066736,0.1830000044521087,0.12199999852133472
-0.14233051240444183,-0.09774088859558105,9.941596984863281,0.03280000016093254,-0.014800000004470348,0.1289999932050705,0,0.06099999926066736,0
-0.14829686284065247,-0.08616252988576889,9.912435531616211,0.02319999970495701,0.004699999932199717,0.09959999471902847,0.06099999926066736,0.06099999926066736,0.06099999926066736
-0.142780601978302,-0.07996633648872375,9.892295837402344,0.03309999778866768,0.0044999998062849045,0.07019999623298645,0.1830000044521087,-0.12199999852133472,0.12199999852133472
-0.1516774594783783,-0.07173985987901688,9.948951721191406,0.023000000044703484,0.013799999840557575,0.1289999932050705,-0.12199999852133472,-0.06099999926066736,-0.06099999926066736
-0.16681841015815735,-0.07307104021310806,9.92273998260498,0.0031999999191612005,0.014099999330937862,0.10939999669790268,0.12199999852133472,0,0
-0.11017158627510071,-0.08463024348020554,9.9061918258667,0.06189999729394913,0.003999999724328518,0.08980000019073486,0.06099999926066736,0,-0.06099999926066736
-0.15845784544944763,-0.0784531980752945,9.929137229919434,0.012899999506771564,0.0037999998312443495,0.10939999669790268,0.12199999852133472,0.1830000044521087,0
-0.14762647449970245,-0.07598238438367844,9.923583030700684,0.023099999874830246,0.013299999758601189,0.10939999669790268,0,0.06099999926066736,0
-0.15441642701625824,-0.09758765995502472,9.90161418914795,0.013299999758601189,-0.01640000008046627,0.07999999821186066,-0.12199999852133472,-0.06099999926066736,-0.06099999926066736
-0.13853809237480164,-0.08712979406118393,9.890715599060059,0.03269999846816063,-0.006199999712407589,0.07019999623298645,0,0,-0.06099999926066736
-0.1446768194437027,-0.09058701246976852,9.86610221862793,0.02279999852180481,-0.006199999712407589,0.050599999725818634,0.06099999926066736,0.12199999852133472,0.06099999926066736
-0.11936531960964203,-0.0751204788684845,9.936635971069336,0.05249999836087227,0.013100000098347664,0.11919999867677689,0.12199999852133472,0.12199999852133472,0
-0.1576150804758072,-0.08982086926698685,9.890178680419922,0.013599999248981476,-0.0066999997943639755,0.07019999623298645,0.12199999852133472,0.06099999926066736,0
-0.14757859706878662,-0.07628884166479111,9.900406837463379,0.02319999970495701,0.012299999594688416,0.07999999821186066,-0.06099999926066736,0.06099999926066736,0
-0.171329066157341,-0.10056604444980621,9.926934242248535,0.003700000001117587,-0.016699999570846558,0.10939999669790268,0.06099999926066736,0.06099999926066736,0.06099999926066736
-0.15360240638256073,-0.08582733571529388,9.926848411560059,0.013599999248981476,0.0026000000070780516,0.10939999669790268,0,0.1830000044521087,0
-0.1392563432455063,-0.10434888303279877,9.949105262756348,0.033399999141693115,-0.01679999940097332,0.1289999932050705,0.06099999926066736,0.12199999852133472,0.06099999926066736
-0.13831782341003418,-0.10550767928361893,9.911928176879883,0.033299997448921204,-0.026399999856948853,0.08980000019073486,0.12199999852133472,0.06099999926066736,0.06099999926066736
-0.20444567501544952,-0.08049306273460388,9.914963722229004,-0.034699998795986176,0.0024999999441206455,0.09959999471902847,0.06099999926066736,0,0.06099999926066736
-0.16550637781620026,-0.07215166836977005,9.910127639770508,0.004299999680370092,0.012000000104308128,0.08980000019073486,0,0.12199999852133472,-0.06099999926066736
-0.13832738995552063,-0.09196607023477554,9.90792465209961,0.03370000049471855,-0.007400000002235174,0.08980000019073486,0,0.06099999926066736,0
-0.151409313082695,-0.10944374650716782,9.921581268310547,0.023799998685717583,-0.026799999177455902,0.10939999669790268,0,0.06099999926066736,0.12199999852133472
-0.13789643347263336,-0.09310571104288101,9.888052940368652,0.033299997448921204,-0.0071000000461936,0.07019999623298645,0.06099999926066736,0.06099999926066736,0.12199999852133472
-0.14733916521072388,-0.0990433320403099,9.848702430725098,0.023099999874830246,-0.016699999570846558,0.030899999663233757,0.06099999926066736,0,0
-0.15322890877723694,-0.07694964855909348,9.894660949707031,0.013100000098347664,0.0026000000070780516,0.07999999821186066,-0.06099999926066736,0,0
-0.16770905256271362,-0.06760267913341522,9.917414665222168,0.0031999999191612005,0.01249999925494194,0.09959999471902847,0.06099999926066736,0,0
-0.15016433596611023,-0.09685982763767242,9.88420295715332,0.022499999031424522,-0.01679999940097332,0.07019999623298645,0,0,0.06099999926066736
-0.1470135599374771,-0.08145074546337128,9.903011322021484,0.022299999371170998,0.002699999837204814,0.08980000019073486,0.06099999926066736,0.06099999926066736,0.06099999926066736
-0.14323072135448456,-0.09517430514097214,9.898961067199707,0.03179999813437462,-0.0071000000461936,0.07999999821186066,0,0.12199999852133472,0
-0.13532984256744385,-0.07694964855909348,9.907426834106445,0.03179999813437462,0.0024999999441206455,0.08980000019073486,0,0.06099999926066736,0
-0.15049950778484344,-0.07471824437379837,9.89167308807373,0.021900000050663948,0.012199999764561653,0.07009999454021454,-0.06099999926066736,0.06099999926066736,0
-0.14257949590682983,-0.07715075463056564,9.925278663635254,0.03150000050663948,0.0024999999441206455,0.10939999669790268,0.06099999926066736,0.1830000044521087,0.06099999926066736
-0.14577814936637878,-0.08818323165178299,9.907560348510742,0.02199999988079071,-0.0072999997064471245,0.08980000019073486,0.06099999926066736,0,0.06099999926066736
-0.17807115614414215,-0.07897992432117462,9.909706115722656,-0.0072999997064471245,0.002199999988079071,0.08980000019073486,0.06099999926066736,0.12199999852133472,0.06099999926066736
-0.13594278693199158,-0.09571061283349991,9.874454498291016,0.031700000166893005,-0.007599999662488699,0.06030000001192093,0,0.1830000044521087,0.06099999926066736
-0.1747671514749527,-0.09483911842107773,9.891806602478027,-0.006799999624490738,-0.007499999832361937,0.07019999623298645,0.06099999926066736,-0.06099999926066736,0
-0.13747507333755493,-0.08326075971126556,9.918976783752441,0.03179999813437462,0.0017999999690800905,0.09959999471902847,0.12199999852133472,0,-0.06099999926066736
-0.15174449980258942,-0.08597099035978317,9.895513534545898,0.021800000220537186,0.001500000013038516,0.07989999651908875,0.12199999852133472,0.12199999852133472,0.12199999852133472
-0.1538035124540329,-0.09048167616128922,9.894651412963867,0.01209999993443489,-0.008499999530613422,0.07989999651908875,0,0.06099999926066736,0.06099999926066736
-0.14212939143180847,-0.0835384801030159,9.892966270446777,0.03150000050663948,0.0011999999405816197,0.07989999651908875,0.06099999926066736,0.06099999926066736,-0.12199999852133472
-0.15692555904388428,-0.08545385301113129,9.892515182495117,0.011899999342858791,0.0009999999310821295,0.07009999454021454,0,0,-0.06099999926066736
-0.15062402188777924,-0.0886237695813179,9.905693054199219,0.02149999886751175,-0.008599999360740185,0.08969999849796295,0.06099999926066736,0.06099999926066736,0
-0.16398365795612335,-0.07876923680305481,9.891357421875,0.001999999862164259,0.0008999999845400453,0.07009999454021454,-0.12199999852133472,0.06099999926066736,-0.06099999926066736
-0.17048631608486176,-0.0846015065908432,9.920433044433594,0.002099999925121665,0.0011999999405816197,0.09959999471902847,0.06099999926066736,0.1830000044521087,-0.06099999926066736
-0.15542200207710266,-0.09541372954845428,9.926504135131836,0.012299999594688416,-0.008599999360740185,0.10939999669790268,0,0.06099999926066736,0
-0.16631081700325012,-0.07369352877140045,9.918574333190918,0.0026000000070780516,0.010900000110268593,0.09959999471902847,0.06099999926066736,0,0.06099999926066736
-0.17445111274719238,-0.07579084485769272,9.922863960266113,-0.00699999975040555,0.010599999688565731,0.10939999669790268,0,0,0
-0.15289372205734253,-0.10837114602327347,9.877796173095703,0.02199999988079071,-0.028199998661875725,0.06030000001192093,0.06099999926066736,0.06099999926066736,-0.06099999926066736
-0.13752295076847076,-0.10458830744028091,9.899133682250977,0.031599998474121094,-0.018299998715519905,0.07989999651908875,0,0,0
-0.1468411684036255,-0.09522219002246857,9.908997535705566,0.02149999886751175,-0.00839999970048666,0.08969999849796295,-0.12199999852133472,0.06099999926066736,0
-0.17539921402931213,-0.07947792112827301,9.898002624511719,-0.007599999662488699,0.0015999999595806003,0.07989999651908875,-0.06099999926066736,0,0
-0.16290149092674255,-0.0648062527179718,9.874090194702148,0.002099999925121665,0.0210999995470047,0.06030000001192093,0,0.12199999852133472,0.06099999926066736
-0.14012783765792847,-0.07710287719964981,9.898098945617676,0.03150000050663948,0.00139999995008111,0.07989999651908875,0,0.12199999852133472,0.06099999926066736
-0.14918750524520874,-0.09331640601158142,9.873505592346191,0.021699998527765274,-0.008200000040233135,0.05049999803304672,0.12199999852133472,0.12199999852133472,-0.06099999926066736
-0.14910130202770233,-0.10424354672431946,9.887287139892578,0.021699998527765274,-0.01809999905526638,0.07009999454021454,-0.06099999926066736,0.06099999926066736,0.12199999852133472
-0.15667656064033508,-0.09188945591449738,9.89375114440918,0.011899999342858791,-0.007999999448657036,0.07989999651908875,0.06099999926066736,0.12199999852133472,-0.06099999926066736
-0.12209471315145493,-0.10284532606601715,9.923592567443848,0.050999999046325684,-0.017799999564886093,0.10939999669790268,0.1830000044521087,0.06099999926066736,0.12199999852133472
-0.13773363828659058,-0.07496725022792816,9.89107894897461,0.031199999153614044,0.010799999348819256,0.07009999454021454,0.06099999926066736,0,-0.06099999926066736
-0.14591223001480103,-0.12342588603496552,9.897830963134766,0.0210999995470047,-0.03790000081062317,0.07989999651908875,-0.06099999926066736,0.12199999852133472,0.06099999926066736
-0.1669333130121231,-0.09249279648065567,9.895675659179688,0.0017999999690800905,-0.008200000040233135,0.07989999651908875,-0.06099999926066736,0,0
-0.16002844274044037,-0.09065405279397964,9.892200469970703,0.011500000022351742,-0.007899999618530273,0.07009999454021454,-0.12199999852133472,0,0
-0.17158764600753784,-0.09351751953363419,9.90677547454834,0.0015999999595806003,-0.007499999832361937,0.08969999849796295,0,0,0.06099999926066736
-0.14874696731567383,-0.08844181150197983,9.882834434509277,0.020899999886751175,-0.007400000002235174,0.06030000001192093,0,0.12199999852133472,-0.12199999852133472
-0.16692373156547546,-0.10059478133916855,9.911831855773926,0.0015999999595806003,-0.017099998891353607,0.08980000019073486,-0.06099999926066736,0.06099999926066736,0.06099999926066736
-0.16248968243598938,-0.08133582025766373,9.899967193603516,0.011500000022351742,0.0026000000070780516,0.07989999651908875,0.12199999852133472,0.12199999852133472,0
-0.14525143802165985,-0.10506714880466461,9.934911727905273,0.011599999852478504,-0.017099998891353607,0.07009999454021454,0.06099999926066736,0.12199999852133472,-0.06099999926066736
-0.15838122367858887,-0.08547300100326538,9.869742393493652,0.011599999852478504,0.0023999998811632395,0.05049999803304672,-0.06099999926066736,0,0
-0.13735057413578033,-0.08512823283672333,9.900378227233887,0.030799999833106995,0.0024999999441206455,0.07989999651908875,0.12199999852133472,0,0.06099999926066736
-0.14484919607639313,-0.08835562318563461,9.894373893737793,0.020800000056624413,-0.007499999832361937,0.07989999651908875,-0.12199999852133472,0.1830000044521087,0.06099999926066736
-0.16104358434677124,-0.08180508762598038,9.904112815856934,0.011299999430775642,0.0024999999441206455,0.08969999849796295,0.1830000044521087,0,-0.06099999926066736
-0.16146495938301086,-0.07924807816743851,9.915308952331543,0.01119999960064888,0.001999999862164259,0.09959999471902847,0.06099999926066736,0.06099999926066736,-0.06099999926066736
-0.1537652164697647,-0.08838435262441635,9.897476196289062,0.011299999430775642,-0.007799999788403511,0.07989999651908875,0.06099999926066736,0.12199999852133472,0
-0.1704767346382141,-0.08400775492191315,9.90029239654541,0.0016999999061226845,0.0016999999061226845,0.07989999651908875,0,0.12199999852133472,0
-0.1566191017627716,-0.09345047920942307,9.913134574890137,0.011799999512732029,-0.007899999618530273,0.09959999471902847,0.06099999926066736,-0.06099999926066736,0
-0.17567694187164307,-0.07538862526416779,9.919915199279785,-0.007899999618530273,0.011299999430775642,0.09959999471902847,0,0,0
-0.13551181554794312,-0.09889010339975357,9.894201278686523,0.030899999663233757,-0.017799999564886093,0.07989999651908875,0.12199999852133472,-0.06099999926066736,0
-0.13143210113048553,-0.09040506184101105,9.931598663330078,0.04019999876618385,-0.008299999870359898,0.11919999867677689,0.06099999926066736,0.06099999926066736,0
-0.16686628758907318,-0.08404605835676193,9.914101600646973,0.0010999999940395355,0.0013000000035390258,0.09950000047683716,-0.06099999926066736,-0.06099999926066736,-0.06099999926066736
-0.15822799503803253,-0.08421843498945236,9.883925437927246,0.010599999688565731,0.00139999995008111,0.07009999454021454,0.12199999852133472,0,0.06099999926066736
-0.14681245386600494,-0.10703039914369583,9.887967109680176,0.02019999921321869,-0.027899999171495438,0.07009999454021454,0.06099999926066736,0.06099999926066736,0
-0.16533400118350983,-0.08137413114309311,9.921208381652832,0.000699999975040555,0.0011999999405816197,0.09950000047683716,0.06099999926066736,-0.06099999926066736,0.06099999926066736
-0.14152604341506958,-0.08864292502403259,9.910184860229492,0.029600000008940697,-0.008599999360740185,0.08969999849796295,0,0.12199999852133472,0
-0.16768987476825714,-0.10737515985965729,9.886204719543457,0.0004999999655410647,-0.027899999171495438,0.07009999454021454,0.06099999926066736,0,-0.06099999926066736
-0.1515338122844696,-0.1090032085776329,9.88338851928711,0.019899999722838402,-0.027699999511241913,0.07009999454021454,0,0,-0.06099999926066736
-0.1524723321199417,-0.08298303186893463,9.900915145874023,0.019700000062584877,0.0015999999595806003,0.07989999651908875,0,0.06099999926066736,0
-0.14868949353694916,-0.07538862526416779,9.863967895507812,0.019500000402331352,0.01119999960064888,0.040699999779462814,-0.06099999926066736,0.1830000044521087,0
-0.16088078916072845,-0.0833086371421814,9.907732963562012,0.009999999776482582,0.001500000013038516,0.08969999849796295,0.12199999852133472,0.12199999852133472,0
-0.14824895560741425,-0.0866030678153038,9.91921615600586,0.019999999552965164,-0.00839999970048666,0.09950000047683716,0,0.06099999926066736,-0.12199999852133472
-0.1502601057291031,-0.09354624897241592,9.92415714263916,0.010199999436736107,-0.008299999870359898,0.07009999454021454,0.12199999852133472,0,0.06099999926066736
-0.18475575745105743,-0.08285853266716003,9.879989624023438,-0.018699999898672104,0.0011999999405816197,0.06030000001192093,0.12199999852133472,0.06099999926066736,0
-0.16452954709529877,-0.09222465008497238,9.839997291564941,0.0008999999845400453,-0.008599999360740185,0.0210999995470047,-0.06099999926066736,0,0.12199999852133472
-0.14780844748020172,-0.1033145934343338,9.916582107543945,0.020399998873472214,-0.01809999905526638,0.09950000047683716,0,0.12199999852133472,0
-0.15496231615543365,-0.10286448150873184,9.909975051879883,0.010799999348819256,-0.017899999395012856,0.08969999849796295,0.12199999852133472,0.12199999852133472,-0.06099999926066736
-0.14477258920669556,-0.08900684118270874,9.908498764038086,0.02070000022649765,-0.00839999970048666,0.08969999849796295,0,0.12199999852133472,0
-0.1399267315864563,-0.06717172265052795,9.862186431884766,0.030299998819828033,0.010999999940395355,0.040699999779462814,0,0.12199999852133472,-0.06099999926066736
-0.1441979855298996,-0.07305187731981277,9.88308334350586,0.020600000396370888,0.010799999348819256,0.06030000001192093,0.06099999926066736,0,0.06099999926066736
-0.13418063521385193,-0.06949888914823532,9.88131046295166,0.029999999329447746,0.010499999858438969,0.06030000001192093,0,0.12199999852133472,0.06099999926066736
-0.17647181451320648,-0.08337567746639252,9.89794635772705,-0.008700000122189522,0.000699999975040555,0.07989999651908875,0,0,-0.06099999926066736
-0.17008408904075623,-0.07693048566579819,9.867883682250977,0.0008999999845400453,0.000699999975040555,0.05049999803304672,-0.1830000044521087,0.12199999852133472,0
-0.15372690558433533,-0.10024043917655945,9.902925491333008,0.010999999940395355,-0.018199998885393143,0.08969999849796295,-0.06099999926066736,0.06099999926066736,0.06099999926066736
-0.16281528770923615,-0.07596323639154434,9.889824867248535,0.0013000000035390258,0.01119999960064888,0.07009999454021454,-0.06099999926066736,0.06099999926066736,0.06099999926066736
-0.1960851103067398,-0.0908743217587471,9.898577690124512,-0.02759999968111515,-0.008100000210106373,0.07989999651908875,0,0.12199999852133472,0
-0.14487792551517487,-0.08033982664346695,9.909380912780762,0.02149999886751175,0.0015999999595806003,0.08969999849796295,-0.06099999926066736,0.06099999926066736,0.12199999852133472
-0.13256216049194336,-0.08914091438055038,9.880602836608887,0.040699999779462814,-0.007899999618530273,0.06030000001192093,0.06099999926066736,0.12199999852133472,0
-0.1389690339565277,-0.07313807308673859,9.88584041595459,0.030899999663233757,0.011299999430775642,0.07009999454021454,-0.12199999852133472,0.1830000044521087,0
-0.160038024187088,-0.09402508288621902,9.919723510742188,0.011699999682605267,-0.007799999788403511,0.09959999471902847,0,0.06099999926066736,-0.06099999926066736
-0.14068329334259033,-0.07603985071182251,9.891510009765625,0.031099999323487282,0.011599999852478504,0.07009999454021454,-0.06099999926066736,0.12199999852133472,0
-0.15008772909641266,-0.08762778341770172,9.913603782653809,0.021399999037384987,-0.007699999958276749,0.09959999471902847,-0.12199999852133472,0.06099999926066736,0.06099999926066736
-0.17365624010562897,-0.07576211541891098,9.878562927246094,-0.007599999662488699,0.012000000104308128,0.06030000001192093,0.06099999926066736,0.12199999852133472,0
-0.16052642464637756,-0.08113470673561096,9.907417297363281,0.01209999993443489,0.001999999862164259,0.08980000019073486,0.06099999926066736,0,0
-0.16081373393535614,-0.09079770743846893,9.890035629272461,0.011899999342858791,-0.007799999788403511,0.07009999454021454,0,0.12199999852133472,0
-0.14165054261684418,-0.09664913266897202,9.900425910949707,0.03150000050663948,-0.017400000244379044,0.07989999651908875,-0.06099999926066736,0,0.06099999926066736
-0.142531618475914,-0.09543287754058838,9.912033081054688,0.031300000846385956,-0.007400000002235174,0.09959999471902847,0.12199999852133472,0.12199999852133472,-0.06099999926066736
-0.15077725052833557,-0.07035122066736221,9.895954132080078,0.021299999207258224,0.011500000022351742,0.07989999651908875,0,0.06099999926066736,0
-0.14177505671977997,-0.08678502589464188,9.900790214538574,0.030899999663233757,-0.007899999618530273,0.07989999651908875,0.06099999926066736,0,0.06099999926066736
-0.15126566588878632,-0.07739975303411484,9.865805625915527,0.020800000056624413,0.0015999999595806003,0.05049999803304672,0,0.06099999926066736,0.06099999926066736
-0.14548127353191376,-0.08267657458782196,9.906181335449219,0.020800000056624413,0.0015999999595806003,0.08969999849796295,0.06099999926066736,0.06099999926066736,-0.06099999926066736
-0.17955555021762848,-0.09536584466695786,9.884471893310547,-0.008299999870359898,-0.008200000040233135,0.07009999454021454,0,0.06099999926066736,0.06099999926066736
-0.1623268723487854,-0.07975564897060394,9.910979270935059,0.01119999960064888,0.001500000013038516,0.08969999849796295,0.12199999852133472,0,-0.06099999926066736
-0.1636580526828766,-0.10324755311012268,9.934845924377441,0.00139999995008111,-0.018199998885393143,0.11919999867677689,0.06099999926066736,0.12199999852133472,0.06099999926066736
-0.15356409549713135,-0.08349060267210007,9.904400825500488,0.011399999260902405,0.0010999999940395355,0.08969999849796295,-0.12199999852133472,0.06099999926066736,0
-0.15317144989967346,-0.07776366919279099,9.930124282836914,0.021199999377131462,0.00139999995008111,0.10939999669790268,0.12199999852133472,0.1830000044521087,-0.06099999926066736
-0.13328999280929565,-0.09327810257673264,9.928831100463867,0.04099999740719795,-0.008599999360740185,0.10939999669790268,0.06099999926066736,0.06099999926066736,0
-0.15051867067813873,-0.09943598508834839,9.888761520385742,0.021299999207258224,-0.018400000408291817,0.07009999454021454,0.06099999926066736,0.06099999926066736,-0.06099999926066736
-0.15480908751487732,-0.08853758126497269,9.879788398742676,0.011500000022351742,-0.008599999360740185,0.06030000001192093,0.06099999926066736,0.06099999926066736,-0.06099999926066736
-0.1492832601070404,-0.08368213474750519,9.88425064086914,0.030799999833106995,0.02029999904334545,0.05049999803304672,0,0.06099999926066736,0
-0.1492832601070404,-0.08368213474750519,9.88425064086914,0.020999999716877937,0.0005999999702908099,0.07009999454021454,0,0,-0.12199999852133472
-0.13279201090335846,-0.10121726989746094,9.912224769592285,0.0013000000035390258,-0.008999999612569809,0.08969999849796295,-0.06099999926066736,0.12199999852133472,0.06099999926066736
-0.15072935819625854,-0.06962338089942932,9.908087730407715,0.04019999876618385,-0.01850000023841858,0.09950000047683716,0,0.06099999926066736,0
-0.17031393945217133,-0.10090123862028122,9.899641036987305,0.0011999999405816197,-0.018299998715519905,0.07989999651908875,0.06099999926066736,0.12199999852133472,0.06099999926066736
-0.12850159406661987,-0.09302909672260284,9.889269828796387,0.040300000458955765,-0.008499999530613422,0.07009999454021454,0.12199999852133472,0.06099999926066736,-0.06099999926066736
-0.12850159406661987,-0.09302909672260284,9.889269828796387,0.040300000458955765,-0.008499999530613422,0.07009999454021454,0.12199999852133472,0.06099999926066736,-0.06099999926066736
-0.151620015501976,-0.10229945182800293,9.883359909057617,0.020800000056624413,-0.018299998715519905,0.07009999454021454,0.06099999926066736,0,-0.06099999926066736
-0.17082150280475616,-0.0749959722161293,9.86900520324707,0.0011999999405816197,0.010699999518692493,0.05049999803304672,0.06099999926066736,0.06099999926066736,0
-0.15538369119167328,-0.08457278460264206,9.866313934326172,0.010999999940395355,0.000699999975040555,0.05049999803304672,0.06099999926066736,0,0.06099999926066736
-0.15200307965278625,-0.08761820197105408,9.903854370117188,0.020600000396370888,-0.009099999442696571,0.08969999849796295,0.1830000044521087,0.06099999926066736,0
-0.12955503165721893,-0.10822749137878418,9.913067817687988,0.03999999910593033,-0.028999999165534973,0.09950000047683716,0.1830000044521087,0.12199999852133472,-0.06099999926066736
-0.13324211537837982,-0.11525686830282211,9.87669563293457,0.039799999445676804,-0.03879999741911888,0.06030000001192093,-0.06099999926066736,0.06099999926066736,0
-0.12584881484508514,-0.07151001691818237,9.905233383178711,0.03959999978542328,0.010199999436736107,0.08969999849796295,0,0.12199999852133472,0
-0.15553691983222961,-0.09381440281867981,9.898472785949707,0.010400000028312206,-0.009200000204145908,0.07989999651908875,0.06099999926066736,0,0.06099999926066736
-0.172411248087883,-0.08398859202861786,9.863958358764648,-0.008999999612569809,0.00029999998514540493,0.040699999779462814,0.06099999926066736,0.06099999926066736,-0.06099999926066736
-0.14762647449970245,-0.09766427427530289,9.91726303100586,0.02029999904334545,-0.019199999049305916,0.09950000047683716,0.1830000044521087,0.06099999926066736,-0.06099999926066736
-0.15511554479599,-0.08451531827449799,9.878927230834961,0.010599999688565731,-0.00009999999747378752,0.06030000001192093,0.12199999852133472,0.06099999926066736,0.06099999926066736
-0.14401602745056152,-0.11163683235645294,9.929405212402344,0.020399998873472214,-0.02969999983906746,0.10929999500513077,0.12199999852133472,-0.06099999926066736,-0.12199999852133472
-0.16180972754955292,-0.08725428581237793,9.89456558227539,0.010300000198185444,-0.010300000198185444,0.07989999651908875,0.06099999926066736,-0.12199999852133472,0
-0.16202999651432037,-0.08651687949895859,9.893856048583984,0.009800000116229057,-0.010300000198185444,0.07989999651908875,0.06099999926066736,0.12199999852133472,0.06099999926066736
-0.1477797031402588,-0.0906444787979126,9.904601097106934,0.01979999989271164,-0.010400000028312206,0.08969999849796295,0,0.06099999926066736,0.06099999926066736
-0.16384001076221466,-0.09590214490890503,9.899918556213379,0.00029999998514540493,-0.019999999552965164,0.07989999651908875,0.06099999926066736,-0.06099999926066736,0
-0.15479950606822968,-0.09794200211763382,9.898233413696289,0.009800000116229057,-0.019999999552965164,0.07989999651908875,0,0.06099999926066736,-0.06099999926066736
-0.165075421333313,-0.08863334357738495,9.911104202270508,0.00019999999494757503,-0.010099999606609344,0.08969999849796295,0.06099999926066736,0.06099999926066736,0
-0.16179057955741882,-0.09521261602640152,9.919092178344727,0.010099999606609344,-0.010199999436736107,0.09950000047683716,0,0.06099999926066736,-0.12199999852133472
-0.11932700872421265,-0.09367074817419052,9.899564743041992,0.048899997025728226,-0.010099999606609344,0.07989999651908875,0.12199999852133472,0.06099999926066736,-0.06099999926066736
-0.1512177735567093,-0.07995675504207611,9.936138153076172,0.019500000402331352,-0.0005999999702908099,0.11909999698400497,0,0,0
-0.1156303659081459,-0.09026140719652176,9.929367065429688,0.04859999939799309,-0.010400000028312206,0.10929999500513077,0.06099999926066736,0,0
-0.16643531620502472,-0.08005252480506897,9.896672248840332,-0.000699999975040555,-0.0010999999940395355,0.07989999651908875,-0.06099999926066736,0.06099999926066736,0.06099999926066736
-0.16451996564865112,-0.06988196074962616,9.932154655456543,-0.0004999999655410647,0.008700000122189522,0.11909999698400497,-0.06099999926066736,0.06099999926066736,-0.06099999926066736
-0.14658261835575104,-0.1061493307352066,9.931953430175781,0.01899999938905239,-0.03009999915957451,0.11909999698400497,0,0,0
-0.1451173573732376,-0.09481996297836304,9.930746078491211,0.018799999728798866,-0.010400000028312206,0.10929999500513077,0,-0.06099999926066736,0.06099999926066736
-0.16740259528160095,-0.10140880942344666,9.920882225036621,-0.0008999999845400453,-0.019999999552965164,0.09950000047683716,0.06099999926066736,0.06099999926066736,-0.06099999926066736
-0.1380688101053238,-0.09978074580430984,9.889796257019043,0.028299998492002487,-0.019999999552965164,0.07009999454021454,0,0,0.06099999926066736
-0.16414646804332733,-0.09318232536315918,9.890782356262207,-0.0009999999310821295,-0.010099999606609344,0.07009999454021454,0,0,0
-0.15450263023376465,-0.08419928699731827,9.899277687072754,0.008599999360740185,-0.00029999998514540493,0.07989999651908875,0.12199999852133472,0,0.12199999852133472
-0.1593676507472992,-0.09015605598688126,9.934021949768066,0.008499999530613422,-0.010300000198185444,0.11909999698400497,0.06099999926066736,0,0
-0.13526281714439392,-0.10455957800149918,9.903998374938965,0.027899999171495438,-0.020099999383091927,0.08969999849796295,0.06099999926066736,0.06099999926066736,-0.12199999852133472
-0.15633179247379303,-0.06582139432430267,9.876723289489746,0.008299999870359898,0.01860000006854534,0.06030000001192093,0,0.06099999926066736,0
-0.12360785156488419,-0.1058141440153122,9.879223823547363,0.0471000000834465,-0.029999999329447746,0.06030000001192093,0.12199999852133472,0.12199999852133472,-0.06099999926066736
-0.15857276320457458,-0.10555556416511536,9.897400856018066,0.008100000210106373,-0.029999999329447746,0.07989999651908875,0,0.12199999852133472,0
-0.1554315835237503,-0.07765832543373108,9.905817985534668,0.008299999870359898,-0.0005999999702908099,0.08969999849796295,0.1830000044521087,0.12199999852133472,-0.12199999852133472
-0.16446250677108765,-0.08861419558525085,9.909217834472656,-0.0009999999310821295,-0.010900000110268593,0.08969999849796295,0.06099999926066736,0.06099999926066736,0.06099999926066736
-0.158036470413208,-0.10097785294055939,9.898491859436035,0.008899999782443047,-0.020899999886751175,0.07989999651908875,0,0.06099999926066736,0
-0.1463623344898224,-0.09803777188062668,9.889422416687012,0.018799999728798866,-0.020800000056624413,0.07009999454021454,0,0.06099999926066736,-0.06099999926066736
-0.1504707932472229,-0.06792829185724258,9.903922080993652,0.01889999955892563,0.008499999530613422,0.08969999849796295,0.1830000044521087,0.06099999926066736,0
-0.13412319123744965,-0.11178048700094223,9.925919532775879,0.02889999933540821,-0.031099999323487282,0.10929999500513077,0,0.24399999704266945,-0.06099999926066736
-0.1433839499950409,-0.0990433320403099,9.869081497192383,0.029600000008940697,-0.021299999207258224,0.05049999803304672,0.12199999852133472,0.06099999926066736,-0.12199999852133472
-0.1391126960515976,-0.07839573919773102,9.870450973510742,0.02969999983906746,-0.001999999862164259,0.05049999803304672,-0.06099999926066736,-0.1830000044521087,0
-0.16650237143039703,-0.0895622968673706,9.902408599853516,-0.00009999999747378752,-0.011699999682605267,0.07989999651908875,-0.12199999852133472,0,0
-0.13191093504428864,-0.08221688866615295,9.88086986541748,0.03889999911189079,-0.001500000013038516,0.06030000001192093,0.12199999852133472,0.06099999926066736,0.12199999852133472
-0.15450263023376465,-0.10089166462421417,9.872969627380371,0.009599999524652958,-0.021399999037384987,0.05049999803304672,0.06099999926066736,0.1830000044521087,0
-0.12955503165721893,-0.0843716636300087,9.919618606567383,0.03949999809265137,-0.001999999862164259,0.09950000047683716,-0.06099999926066736,0,0.06099999926066736
-0.17179833352565765,-0.09944556653499603,9.872356414794922,0.00029999998514540493,-0.021399999037384987,0.05049999803304672,-0.06099999926066736,0.06099999926066736,0.06099999926066736
-0.14462894201278687,-0.09198523312807083,9.894737243652344,0.019999999552965164,-0.011399999260902405,0.07989999651908875,0.06099999926066736,0,0.06099999926066736
-0.15092089772224426,-0.07662402838468552,9.872451782226562,0.019999999552965164,-0.0017999999690800905,0.05049999803304672,0,0.06099999926066736,0.12199999852133472
-0.16768987476825714,-0.09731951355934143,9.88704776763916,0.000699999975040555,-0.021299999207258224,0.07009999454021454,0.06099999926066736,0.06099999926066736,0
-0.12397176027297974,-0.0680144801735878,9.910443305969238,0.04939999803900719,0.007799999788403511,0.08969999849796295,-0.06099999926066736,0,0
-0.15925271809101105,-0.10289321094751358,9.912435531616211,0.010099999606609344,-0.021199999377131462,0.09950000047683716,0.12199999852133472,0.12199999852133472,0
-0.16023913025856018,-0.09427408874034882,9.870450973510742,0.010199999436736107,-0.011500000022351742,0.05049999803304672,0.06099999926066736,0.06099999926066736,0.06099999926066736
-0.1542440503835678,-0.10555556416511536,9.870172500610352,0.010199999436736107,-0.030899999663233757,0.05049999803304672,0,0,0
-0.136526957154274,-0.08749370276927948,9.904535293579102,0.029500000178813934,-0.011099999770522118,0.08969999849796295,0.12199999852133472,0.12199999852133472,0.12199999852133472
-0.13303141295909882,-0.10028832405805588,9.87020206451416,0.039000000804662704,-0.020999999716877937,0.05049999803304672,0.06099999926066736,0.1830000044521087,-0.06099999926066736
-0.1548665463924408,-0.07291781157255173,9.902667045593262,0.009999999776482582,0.008100000210106373,0.08969999849796295,0,0.12199999852133472,0.06099999926066736
-0.16021040081977844,-0.09240660816431046,9.925220489501953,0.010199999436736107,-0.011299999430775642,0.10929999500513077,-0.06099999926066736,0.12199999852133472,0
-0.13470736145973206,-0.10776780545711517,9.90356731414795,0.029899999499320984,-0.030499998480081558,0.08969999849796295,-0.06099999926066736,0.12199999852133472,-0.06099999926066736
-0.15889838337898254,-0.0977504625916481,9.897534370422363,0.010499999858438969,-0.02029999904334545,0.07989999651908875,0.06099999926066736,0.06099999926066736,0.06099999926066736
-0.1316523551940918,-0.09901460260152817,9.89892292022705,0.03959999978542328,-0.02019999921321869,0.07989999651908875,0.06099999926066736,0.12199999852133472,0.06099999926066736
-0.16285361349582672,-0.10669520497322083,9.915987968444824,0.000699999975040555,-0.029899999499320984,0.09950000047683716,0.12199999852133472,0.24399999704266945,0
-0.13805924355983734,-0.09057743847370148,9.921265602111816,0.030799999833106995,-0.010699999518692493,0.09950000047683716,0.06099999926066736,0.12199999852133472,0.12199999852133472
-0.14766478538513184,-0.09172665327787399,9.918804168701172,0.021299999207258224,-0.010799999348819256,0.09950000047683716,0,0.06099999926066736,-0.06099999926066736
-0.17898094654083252,-0.05837063491344452,9.913249969482422,-0.007899999618530273,0.01850000023841858,0.09950000047683716,0.06099999926066736,0,-0.06099999926066736
-0.15852488577365875,-0.09165961295366287,9.914158821105957,0.011399999260902405,-0.010799999348819256,0.09950000047683716,0.1830000044521087,0.06099999926066736,0
-0.14331690967082977,-0.08426631987094879,9.925191879272461,0.011399999260902405,-0.010799999348819256,0.09950000047683716,0.1830000044521087,0.06099999926066736,0
-0.16975848376750946,-0.07568550109863281,9.945792198181152,0.002300000051036477,0.007999999448657036,0.1289999932050705,0.12199999852133472,0.12199999852133472,-0.06099999926066736
-0.16975848376750946,-0.07568550109863281,9.945792198181152,0.002300000051036477,0.007999999448657036,0.1289999932050705,0.12199999852133472,0.12199999852133472,-0.06099999926066736
