Accelerometer_Gx,Accelerometer_Gy,Accelerometer_Gz,Accelerometer_X,Accelerometer_Y,Accelerometer_Z,Gyroscope_Z,Gyroscope_X,Gyroscope_Y
-0.1612830013036728,-0.1029602512717247,9.905837059020996,-0.018199998885393143,-0.024799998849630356,0.05999999865889549,0.1830000044521087,0.1830000044521087,-0.06099999926066736
-0.1593485027551651,-0.08929414302110672,9.889642715454102,-0.014299999922513962,0.006099999882280827,0.06989999860525131,0.12199999852133472,0.12199999852133472,-0.06099999926066736
-0.1499057561159134,-0.11163683235645294,9.898491859436035,-0.003599999938160181,-0.011299999430775642,0.07970000058412552,0,0.12199999852133472,-0.06099999926066736
-0.13275370001792908,-0.09104669839143753,9.88687515258789,0.01249999925494194,0.006300000008195639,0.0697999969124794,0.06099999926066736,0.12199999852133472,-0.12199999852133472
-0.1753704845905304,-0.09583510458469391,9.866783142089844,-0.026399999856948853,-0.002699999837204814,0.05040000006556511,0,0,-0.12199999852133472
-0.17429788410663605,-0.07956410944461823,9.893003463745117,-0.02149999886751175,0.013299999758601189,0.07979999482631683,0.12199999852133472,0.24399999704266945,-0.06099999926066736
-0.16561172902584076,-0.12206597626209259,9.889134407043457,-0.008799999952316284,-0.020399998873472214,0.07009999454021454,-0.06099999926066736,0,-0.06099999926066736
-0.15393759310245514,-0.07784028351306915,9.904496192932129,0.0004999999655410647,0.015099999494850636,0.08969999849796295,0.12199999852133472,0.06099999926066736,0
-0.1471572071313858,-0.08705317974090576,9.8953218460083,0.007999999448657036,0.0037999998312443495,0.07979999482631683,0.12199999852133472,0.06099999926066736,0
-0.16509456932544708,-0.11132080107927322,9.920384407043457,-0.009599999524652958,-0.013299999758601189,0.09950000047683716,0,0,-0.12199999852133472
-0.1393425464630127,-0.08658390492200851,9.900225639343262,0.015099999494850636,0.004699999932199717,0.07979999482631683,0.06099999926066736,0.12199999852133472,0
-0.16033490002155304,-0.09865068644285202,9.902235984802246,-0.003399999812245369,-0.00419999985024333,0.07979999482631683,0.12199999852133472,0.06099999926066736,0
-0.17950765788555145,-0.10817961394786835,9.875201225280762,-0.017099998891353607,-0.010699999518692493,0.06030000001192093,0,0,-0.24399999704266945
-0.16451996564865112,-0.09840168803930283,9.933389663696289,-0.007499999832361937,-0.0008999999845400453,0.11919999867677689,-0.06099999926066736,0.12199999852133472,-0.06099999926066736
-0.14262737333774567,-0.10623551905155182,9.892324447631836,0.016699999570846558,-0.008200000040233135,0.07009999454021454,0.06099999926066736,0.12199999852133472,0
-0.1368429809808731,-0.11384908109903336,9.89989948272705,0.013199999928474426,-0.0066999997943639755,0.07979999482631683,0,0,0
-0.17314866185188293,-0.11151233315467834,9.914216995239258,-0.02149999886751175,-0.005699999630451202,0.09950000047683716,0.12199999852133472,0.06099999926066736,-0.06099999926066736
-0.13558842241764069,-0.10755711048841476,9.898223876953125,0.013599999248981476,-0.004799999762326479,0.07989999651908875,0.06099999926066736,0.12199999852133472,0
-0.12158713489770889,-0.1140884980559349,9.888139724731445,0.024000000208616257,-0.004600000102072954,0.06989999860525131,-0.12199999852133472,0,-0.06099999926066736
-0.12158713489770889,-0.1140884980559349,9.888139724731445,0.024000000208616257,-0.004600000102072954,0.06989999860525131,-0.12199999852133472,0,-0.06099999926066736
-0.14948438107967377,-0.11878113448619843,9.884930610656738,-0.004299999680370092,-0.010900000110268593,0.07000000029802322,0,-0.06099999926066736,-0.06099999926066736
-0.14909173548221588,-0.11109095811843872,9.916725158691406,-0.0038999998942017555,-0.0009999999310821295,0.09939999878406525,0,0.06099999926066736,-0.06099999926066736
-0.1522424966096878,-0.09007944166660309,9.899727821350098,-0.0030999998562037945,0.0142000000923872,0.07979999482631683,0.06099999926066736,0.12199999852133472,-0.06099999926066736
-0.1637634038925171,-0.09938810020685196,9.890887260437012,-0.01730000041425228,0.0030999998562037945,0.07000000029802322,0,0.06099999926066736,0.1830000044521087
-0.16183845698833466,-0.10074800997972488,9.898002624511719,0.0023999998811632395,-0.016499999910593033,0.06019999831914902,0.12199999852133472,0.06099999926066736,-0.12199999852133472
-0.14523227512836456,-0.07035122066736221,9.928179740905762,0.0023999998811632395,0.032099999487400055,0.10920000076293945,0.06099999926066736,0.06099999926066736,-0.12199999852133472
-0.1372356414794922,-0.09601707011461258,9.905023574829102,0.012399999424815178,0.0024999999441206455,0.08959999680519104,0,0,0
-0.12016976624727249,-0.09567230194807053,9.920317649841309,0.03199999779462814,0.012299999594688416,0.09939999878406525,0,0.06099999926066736,-0.1830000044521087
-0.12808021903038025,-0.10303686559200287,9.896949768066406,0.022299999371170998,0.0024999999441206455,0.07979999482631683,-0.06099999926066736,0,-0.06099999926066736
-0.14529931545257568,-0.08950483798980713,9.892985343933105,0.002699999837204814,0.01249999925494194,0.07979999482631683,0.06099999926066736,0.12199999852133472,-0.12199999852133472
-0.141449436545372,-0.09853576868772507,9.890658378601074,0.012799999676644802,0.0024999999441206455,0.07000000029802322,0.12199999852133472,0.06099999926066736,-0.06099999926066736
-0.14199531078338623,-0.11428003758192062,9.88536262512207,0.012999999336898327,-0.007499999832361937,0.07000000029802322,-0.06099999926066736,0.3660000089042174,-0.12199999852133472
-0.11722969263792038,-0.09207142144441605,9.905014038085938,0.032099999487400055,0.011099999770522118,0.08959999680519104,0.06099999926066736,0.12199999852133472,-0.06099999926066736
-0.1674121618270874,-0.0956052616238594,9.907809257507324,-0.011699999682605267,0.007199999876320362,0.08969999849796295,0.06099999926066736,0.06099999926066736,-0.06099999926066736
-0.14241668581962585,-0.09646718204021454,9.89175033569336,0.011799999512732029,-0.001999999862164259,0.07000000029802322,0,0.1830000044521087,-0.1830000044521087
-0.15585294365882874,-0.12022723257541656,9.895781517028809,-0.0072999997064471245,-0.0210999995470047,0.07979999482631683,0.12199999852133472,0.06099999926066736,-0.06099999926066736
-0.14673584699630737,-0.08891107141971588,9.875411987304688,0.0015999999595806003,0.005399999674409628,0.060099996626377106,0.06099999926066736,0.06099999926066736,0
-0.15817055106163025,-0.09797073155641556,9.914226531982422,-0.0066999997943639755,-0.0037999998312443495,0.09939999878406525,0.12199999852133472,0.06099999926066736,0
-0.1382986605167389,-0.09849745780229568,9.87975025177002,0.009200000204145908,-0.0030999998562037945,0.060099996626377106,-0.06099999926066736,0.06099999926066736,-0.12199999852133472
-0.15278837084770203,-0.07490978389978409,9.897601127624512,-0.0004999999655410647,0.020600000396370888,0.07970000058412552,0.06099999926066736,0.12199999852133472,-0.06099999926066736
-0.1569925993680954,-0.09412086009979248,9.887918472290039,-0.007799999788403511,0.00039999998989515007,0.06989999860525131,-0.06099999926066736,0,-0.12199999852133472
-0.14793293178081512,-0.10679096728563309,9.92856216430664,0.0013000000035390258,-0.015799999237060547,0.10909999907016754,0.06099999926066736,0,0.06099999926066736
-0.13193966448307037,-0.09880391508340836,9.913192749023438,0.016599999740719795,-0.005200000014156103,0.09929999709129333,-0.06099999926066736,0.06099999926066736,-0.12199999852133472
-0.15359283983707428,-0.08903557807207108,9.891270637512207,-0.00969999935477972,0.003399999812245369,0.06989999860525131,-0.06099999926066736,0.06099999926066736,0
-0.15028883516788483,-0.09753019362688065,9.902935981750488,-0.0030999998562037945,-0.0030999998562037945,0.08949999511241913,0.06099999926066736,0,0
-0.1336539089679718,-0.08185296505689621,9.890122413635254,0.01640000008046627,0.016300000250339508,0.06989999860525131,-0.06099999926066736,-0.06099999926066736,0
-0.14550042152404785,-0.09267476201057434,9.919791221618652,-0.0032999999821186066,0.006599999964237213,0.09929999709129333,-0.06099999926066736,0.06099999926066736,-0.1830000044521087
-0.15340128540992737,-0.08747455477714539,9.920470237731934,-0.012899999506771564,0.006799999624490738,0.09929999709129333,0,0.06099999926066736,0.06099999926066736
-0.14368082582950592,-0.08457278460264206,9.893099784851074,-0.002899999963119626,0.016599999740719795,0.07970000058412552,0.06099999926066736,0.1830000044521087,0
-0.148948073387146,-0.11286266893148422,9.88992977142334,-0.0023999998811632395,-0.012899999506771564,0.06989999860525131,-0.12199999852133472,0.06099999926066736,-0.06099999926066736
-0.15456008911132812,-0.0811634361743927,9.875,-0.012000000104308128,0.016699999570846558,0.060099996626377106,0.06099999926066736,0.06099999926066736,-0.12199999852133472
-0.1731199324131012,-0.0927705317735672,9.905961990356445,-0.03150000050663948,0.006799999624490738,0.08949999511241913,0.1830000044521087,0.12199999852133472,0
-0.1456345021724701,-0.09556695818901062,9.874253273010254,-0.0016999999061226845,0.006300000008195639,0.060099996626377106,0,0.06099999926066736,0.06099999926066736
-0.1410950869321823,-0.0917075052857399,9.867271423339844,0.008200000040233135,0.006199999712407589,0.0502999983727932,0.12199999852133472,0.1830000044521087,-0.06099999926066736
-0.14735832810401917,-0.09824845939874649,9.881665229797363,-0.0010999999940395355,-0.0037999998312443495,0.060099996626377106,0,-0.06099999926066736,-0.1830000044521087
-0.15479950606822968,-0.09381440281867981,9.893808364868164,-0.010999999940395355,0.0058999997563660145,0.07970000058412552,0.12199999852133472,0,0
-0.14913003146648407,-0.11275732517242432,9.933945655822754,-0.0011999999405816197,-0.013899999670684338,0.11889999359846115,0,0.06099999926066736,0.06099999926066736
-0.17302416265010834,-0.10760500282049179,9.920259475708008,-0.030399998649954796,-0.013899999670684338,0.09929999709129333,0.12199999852133472,0.12199999852133472,0.06099999926066736
-0.1331559121608734,-0.12444102764129639,9.924042701721191,0.018799999728798866,-0.024000000208616257,0.10909999907016754,0.12199999852133472,0,0.12199999852133472
-0.1461995393037796,-0.1350521296262741,9.864350318908691,-0.000699999975040555,-0.04389999806880951,0.0502999983727932,-0.06099999926066736,0,-0.06099999926066736
-0.15087302029132843,-0.09397720545530319,9.899430274963379,-0.000699999975040555,0.005200000014156103,0.07970000058412552,0.06099999926066736,0,0.06099999926066736
-0.1425124704837799,-0.10491392016410828,9.940801620483398,0.008999999612569809,-0.004600000102072954,0.12870000302791595,0.06099999926066736,0,0
-0.1199016198515892,-0.08825027197599411,9.877249717712402,0.02850000001490116,0.004900000058114529,0.060099996626377106,-0.06099999926066736,0.06099999926066736,0.06099999926066736
-0.1532193273305893,-0.09755893051624298,9.881378173828125,-0.0005999999702908099,-0.004600000102072954,0.060099996626377106,0.12199999852133472,0.06099999926066736,0.06099999926066736
-0.12316731363534927,-0.10293152183294296,9.920891761779785,0.02879999950528145,-0.004999999888241291,0.09929999709129333,0.06099999926066736,0.12199999852133472,-0.06099999926066736
-0.14652514457702637,-0.10809342563152313,9.874137878417969,-0.00019999999494757503,-0.01489999983459711,0.060099996626377106,0.06099999926066736,0,0
-0.16001886129379272,-0.11174218356609344,9.901871681213379,-0.009999999776482582,-0.014999999664723873,0.07970000058412552,0.06099999926066736,0.06099999926066736,0.12199999852133472
-0.1359236091375351,-0.09376651793718338,9.879070281982422,0.00969999935477972,0.004299999680370092,0.060099996626377106,0.06099999926066736,0,-0.06099999926066736
-0.16844645142555237,-0.09021351486444473,9.88923168182373,-0.019600000232458115,0.004100000020116568,0.06989999860525131,0.06099999926066736,0.1830000044521087,-0.06099999926066736
-0.13637372851371765,-0.11082280427217484,9.902169227600098,0.010199999436736107,-0.01549999974668026,0.07970000058412552,0.06099999926066736,0.12199999852133472,0.06099999926066736
-0.12672030925750732,-0.1146918386220932,9.894583702087402,0.02029999904334545,-0.015599999576807022,0.07970000058412552,0.1830000044521087,0.06099999926066736,0
-0.14792335033416748,-0.1264234185218811,9.872614860534668,0.0007999999797903001,-0.035599999129772186,0.0502999983727932,0,-0.12199999852133472,-0.06099999926066736
-0.17085981369018555,-0.10628340393304825,9.927279472351074,-0.01889999955892563,-0.015699999406933784,0.10909999907016754,-0.06099999926066736,0,0.12199999852133472
-0.14627614617347717,-0.11634862422943115,9.910271644592285,0.0005999999702908099,-0.025299999862909317,0.08949999511241913,0.06099999926066736,0.06099999926066736,0
-0.14193785190582275,-0.09543287754058838,9.899008750915527,0.010499999858438969,0.0037999998312443495,0.07970000058412552,0.12199999852133472,0.06099999926066736,0.06099999926066736
-0.151409313082695,-0.11241255700588226,9.910472869873047,0.0008999999845400453,-0.01599999889731407,0.08949999511241913,0,0,0.12199999852133472
-0.14370957016944885,-0.10371682047843933,9.939748764038086,0.0008999999845400453,-0.006199999712407589,0.11889999359846115,-0.06099999926066736,0.24399999704266945,-0.06099999926066736
-0.13554054498672485,-0.09255983680486679,9.91092300415039,0.012899999506771564,0.0052999998442828655,0.08959999680519104,0,0.12199999852133472,-0.12199999852133472
-0.1509687751531601,-0.12078268080949783,9.875296592712402,0.0013000000035390258,-0.012799999676644802,0.06019999831914902,0.12199999852133472,0,0
-0.17123331129550934,-0.10907024890184402,9.923074722290039,-0.0139999995008111,-0.00279999990016222,0.10929999500513077,0,0.06099999926066736,-0.06099999926066736
-0.12468045204877853,-0.11078450083732605,9.880975723266602,0.016899999231100082,-0.002099999925121665,0.06019999831914902,0.06099999926066736,0.12199999852133472,-0.12199999852133472
-0.13401784002780914,-0.0972907766699791,9.899831771850586,0.012799999676644802,0.005499999970197678,0.07970000058412552,0,0.12199999852133472,0.06099999926066736
-0.15950173139572144,-0.09205226600170135,9.917061805725098,-0.013199999928474426,0.01209999993443489,0.09929999709129333,0.06099999926066736,0.06099999926066736,-0.1830000044521087
-0.15602533519268036,-0.09082643687725067,9.923611640930176,-0.010999999940395355,0.009599999524652958,0.10920000076293945,0.06099999926066736,0.06099999926066736,0
-0.16001886129379272,-0.10008721053600311,9.8871431350708,-0.00839999970048666,-0.00039999998989515007,0.07000000029802322,0.12199999852133472,0.12199999852133472,-0.12199999852133472
-0.1560540646314621,-0.1145673394203186,9.90584659576416,-0.0066999997943639755,-0.008499999530613422,0.08959999680519104,-0.06099999926066736,0,0.06099999926066736
-0.16405069828033447,-0.11870452016592026,9.885964393615723,-0.012899999506771564,-0.014099999330937862,0.07009999454021454,0.06099999926066736,0,0.12199999852133472
-0.13240893185138702,-0.09862195700407028,9.898712158203125,0.020499998703598976,0.003999999724328518,0.07979999482631683,-0.06099999926066736,0.06099999926066736,0
-0.14118129014968872,-0.08036856353282928,9.920939445495605,0.010799999348819256,0.02369999885559082,0.09939999878406525,0.12199999852133472,0.06099999926066736,0.06099999926066736
-0.17220056056976318,-0.10737515985965729,9.911238670349121,-0.018299998715519905,-0.0058999997563660145,0.08959999680519104,0.12199999852133472,0.12199999852133472,-0.06099999926066736
-0.1501356065273285,-0.11904928833246231,9.925995826721191,0.001500000013038516,-0.01599999889731407,0.10920000076293945,0,0.06099999926066736,0
-0.15991351008415222,-0.104023277759552,9.8888578414917,-0.007999999448657036,0.003499999875202775,0.07000000029802322,0,0.1830000044521087,-0.06099999926066736
-0.1784733682870865,-0.09763554483652115,9.901460647583008,-0.02709999866783619,0.003499999875202775,0.07979999482631683,-0.06099999926066736,0.12199999852133472,0
-0.15271176397800446,-0.09866983443498611,9.914456367492676,0.0026000000070780516,0.003599999938160181,0.09939999878406525,0,0,0.06099999926066736
-0.16335159540176392,-0.10590990632772446,9.896824836730957,-0.016899999231100082,-0.006099999882280827,0.07979999482631683,0.12199999852133472,-0.06099999926066736,0.12199999852133472
-0.14059710502624512,-0.09864111244678497,9.920623779296875,0.012199999764561653,0.0032999999821186066,0.09939999878406525,-0.06099999926066736,-0.06099999926066736,0.06099999926066736
-0.13415192067623138,-0.10355401039123535,9.936396598815918,-0.007499999832361937,0.013199999928474426,0.07000000029802322,0.06099999926066736,0.06099999926066736,-0.06099999926066736
-0.13343365490436554,-0.09573933482170105,9.885141372680664,0.022299999371170998,0.012899999506771564,0.07000000029802322,0,0.1830000044521087,-0.12199999852133472
-0.1308000385761261,-0.07246769964694977,9.888646125793457,0.02279999852180481,0.03240000084042549,0.07000000029802322,-0.06099999926066736,0.1830000044521087,0
-0.1466783732175827,-0.10668563097715378,9.900684356689453,0.003599999938160181,-0.0064999996684491634,0.07979999482631683,0.06099999926066736,0.06099999926066736,0
-0.12531252205371857,-0.11749783903360367,9.86845874786377,0.023399999365210533,-0.01640000008046627,0.05040000006556511,0,0.06099999926066736,0.06099999926066736
-0.13676637411117554,-0.09669702500104904,9.899171829223633,0.013700000010430813,0.0030999998562037945,0.07979999482631683,0.12199999852133472,0.12199999852133472,0.12199999852133472
-0.15965496003627777,-0.09498277306556702,9.90922737121582,-0.005499999970197678,0.01249999925494194,0.08969999849796295,0,0.06099999926066736,0.12199999852133472
-0.13322296738624573,-0.0934792086482048,9.936952590942383,0.024000000208616257,0.01249999925494194,0.11909999698400497,0.06099999926066736,-0.06099999926066736,-0.1830000044521087
-0.13327084481716156,-0.12757264077663422,9.923104286193848,0.023799998685717583,-0.026799999177455902,0.10929999500513077,0.06099999926066736,0,0
-0.14289553463459015,-0.08752243965864182,9.876168251037598,0.013899999670684338,0.012199999764561653,0.06019999831914902,0,0.06099999926066736,0
-0.15968367457389832,-0.09462842345237732,9.91073989868164,-0.005399999674409628,0.01209999993443489,0.08969999849796295,-0.06099999926066736,0,0.12199999852133472
-0.14868949353694916,-0.12107956409454346,9.903519630432129,0.004299999680370092,-0.016999999061226845,0.08969999849796295,0.1830000044521087,0.06099999926066736,-0.06099999926066736
-0.18300320208072662,-0.11572613567113876,9.895302772521973,-0.03460000082850456,-0.017400000244379044,0.07979999482631683,-0.06099999926066736,-0.06099999926066736,-0.06099999926066736
-0.15054741501808167,-0.10440634936094284,9.90677547454834,0.004299999680370092,0.002199999988079071,0.08969999849796295,0.1830000044521087,0.24399999704266945,0.06099999926066736
-0.1382412165403366,-0.1149216815829277,9.90922737121582,0.016300000250339508,-0.02159999869763851,0.08959999680519104,0.06099999926066736,0,-0.06099999926066736
-0.13924676179885864,-0.10494264960289001,9.887353897094727,0.008899999782443047,-0.001500000013038516,0.06989999860525131,-0.06099999926066736,0,-0.06099999926066736
-0.14673584699630737,-0.09934978932142258,9.894421577453613,-0.0008999999845400453,-0.0010999999940395355,0.07970000058412552,0,0.06099999926066736,0.06099999926066736
-0.15641798079013824,-0.11321701109409332,9.90161418914795,-0.007999999448657036,-0.008200000040233135,0.07979999482631683,0.06099999926066736,0.12199999852133472,-0.06099999926066736
-0.14458104968070984,-0.1182544082403183,9.939988136291504,0.0013000000035390258,-0.014999999664723873,0.11909999698400497,0,0,-0.06099999926066736
-0.1388636976480484,-0.09437943249940872,9.890178680419922,0.007899999618530273,0.010400000028312206,0.06989999860525131,0,0.1830000044521087,0.06099999926066736
-0.14877569675445557,-0.10982681810855865,9.919666290283203,-0.0013000000035390258,-0.007499999832361937,0.09939999878406525,0,0.06099999926066736,-0.06099999926066736
-0.1686858832836151,-0.11943235993385315,9.921907424926758,-0.01719999872148037,-0.014399999752640724,0.10929999500513077,0.06099999926066736,0.12199999852133472,0
-0.15134228765964508,-0.0863923728466034,9.916773796081543,0.0017999999690800905,0.011699999682605267,0.09939999878406525,0,0.06099999926066736,0
-0.13917015492916107,-0.11059296131134033,9.88469123840332,0.008599999360740185,-0.006000000052154064,0.07000000029802322,-0.06099999926066736,0.12199999852133472,0
-0.15085387229919434,-0.09552864730358124,9.8705472946167,0.006899999920278788,0.002899999963119626,0.08959999680519104,0.12199999852133472,0.24399999704266945,-0.1830000044521087
-0.15739482641220093,-0.10045112669467926,9.880688667297363,-0.0071000000461936,0.0004999999655410647,0.06019999831914902,0,0,0.06099999926066736
-0.16097654402256012,-0.11192414164543152,9.922712326049805,-0.006099999882280827,-0.007799999788403511,0.10929999500513077,-0.06099999926066736,0.1830000044521087,0
-0.1344487965106964,-0.10387004911899567,9.911018371582031,0.010900000110268593,0.001500000013038516,0.08959999680519104,-0.06099999926066736,0.12199999852133472,0
-0.15312357246875763,-0.09176496416330338,9.89625072479248,0.0007999999797903001,0.008799999952316284,0.07979999482631683,0,0,0
-0.16479769349098206,-0.12194148451089859,9.896241188049316,-0.01489999983459711,-0.016300000250339508,0.07989999651908875,0.12199999852133472,0.06099999926066736,-0.06099999926066736
-0.15473246574401855,-0.12391430884599686,9.904850959777832,-0.00419999985024333,-0.013499999418854713,0.08969999849796295,0.06099999926066736,0.06099999926066736,0
-0.13857640326023102,-0.09840168803930283,9.89766788482666,0.011899999342858791,0.004399999976158142,0.07979999482631683,0.06099999926066736,0.12199999852133472,0
-0.12849201261997223,-0.08259038627147675,9.884634017944336,0.016599999740719795,0.01809999905526638,0.06989999860525131,0.06099999926066736,0.12199999852133472,0
-0.1531810313463211,-0.09015605598688126,9.888263702392578,-0.002199999988079071,0.006099999882280827,0.06989999860525131,0,0,-0.06099999926066736
-0.1458451896905899,-0.1398213803768158,9.91620922088623,-0.001999999862164259,-0.03529999777674675,0.09939999878406525,-0.06099999926066736,0.24399999704266945,0
-0.12739068269729614,-0.10418608039617538,9.900435447692871,-0.008499999530613422,-0.007499999832361937,0.09939999878406525,-0.06099999926066736,0.12199999852133472,-0.06099999926066736
-0.14392982423305511,-0.10029789805412292,9.878504753112793,0.016200000420212746,0.001999999862164259,0.07970000058412552,-0.06099999926066736,0.12199999852133472,-0.06099999926066736
-0.1518881469964981,-0.12438356876373291,9.912473678588867,-0.0023999998811632395,0.001500000013038516,0.060099996626377106,-0.06099999926066736,0.12199999852133472,0
-0.13764744997024536,-0.10478942096233368,9.892525672912598,0.0058999997563660145,0.003599999938160181,0.06989999860525131,-0.06099999926066736,0.06099999926066736,0.06099999926066736
-0.14961844682693481,-0.10708785057067871,9.888092041015625,-0.003000000026077032,-0.004699999932199717,0.07000000029802322,-0.06099999926066736,0.06099999926066736,0
-0.13239935040473938,-0.1350521296262741,9.901365280151367,0.012999999336898327,-0.02709999866783619,0.07979999482631683,0.06099999926066736,0.12199999852133472,-0.06099999926066736
-0.14686989784240723,-0.10679096728563309,9.899870872497559,0.012999999336898327,-0.02709999866783619,0.07979999482631683,0,0,0
-0.14686989784240723,-0.10679096728563309,9.899870872497559,-0.0050999997183680534,0.00139999995008111,0.07979999482631683,0,0,0
-0.14167927205562592,-0.08217857778072357,9.934117317199707,0.003599999938160181,0.02579999901354313,0.11899999529123306,-0.06099999926066736,0.12199999852133472,0.06099999926066736
-0.16568833589553833,-0.12470917403697968,9.926187515258789,-0.021199999377131462,-0.019199999049305916,0.10929999500513077,-0.1830000044521087,0.12199999852133472,0.12199999852133472
-0.17766891419887543,-0.092521533370018,9.919522285461426,-0.017899999395012856,-0.011399999260902405,0.07989999651908875,0,0.06099999926066736,-0.06099999926066736
-0.17766891419887543,-0.092521533370018,9.919522285461426,-0.022599998861551285,0.014499999582767487,0.09950000047683716,0,0.06099999926066736,-0.06099999926066736
-0.15937721729278564,-0.08550173044204712,9.891501426696777,-0.0066999997943639755,0.017500000074505806,0.07000000029802322,0.12199999852133472,0.06099999926066736,0.12199999852133472
-0.13399869203567505,-0.1094820573925972,9.909514427185059,0.01809999905526638,-0.00989999994635582,0.08949999511241913,0,0.12199999852133472,0
-0.15026967227458954,-0.09960836917161942,9.91064453125,-0.0010999999940395355,-0.00019999999494757503,0.08959999680519104,-0.06099999926066736,0.06099999926066736,0
-0.1572415977716446,-0.10880210250616074,9.897476196289062,-0.008700000122189522,-0.007899999618530273,0.07979999482631683,0,0,0
-0.13316549360752106,-0.08352890610694885,9.904170989990234,0.016300000250339508,0.016999999061226845,0.08949999511241913,0,0.06099999926066736,0.06099999926066736
-0.1537843644618988,-0.0809335932135582,9.879682540893555,-0.009800000116229057,0.01249999925494194,0.060099996626377106,0.06099999926066736,0.06099999926066736,-0.06099999926066736
-0.13935211300849915,-0.10826580226421356,9.884241104125977,0.007499999832361937,-0.013299999758601189,0.06989999860525131,0.06099999926066736,0.06099999926066736,0.06099999926066736
-0.17112796008586884,-0.09706093370914459,9.90966796875,-0.017799999564886093,-0.0030999998562037945,0.08959999680519104,-0.12199999852133472,0.06099999926066736,0.06099999926066736
-0.12899000942707062,-0.09736739099025726,9.9485502243042,0.02149999886751175,-0.00279999990016222,0.12879998981952667,0.06099999926066736,0,0
-0.14870864152908325,-0.11437579989433289,9.886529922485352,0.0018999999156221747,-0.01269999984651804,0.07000000029802322,0.12199999852133472,0.06099999926066736,0
-0.11799583584070206,-0.06537128239870071,9.921935081481934,0.03139999881386757,0.03579999879002571,0.10920000076293945,-0.12199999852133472,0.12199999852133472,0
-0.15421532094478607,-0.09876561164855957,9.923047065734863,-0.007400000002235174,-0.003000000026077032,0.10920000076293945,0,0.1830000044521087,-0.12199999852133472
-0.14404475688934326,-0.08417055755853653,9.8955717086792,0.00279999990016222,0.016599999740719795,0.07979999482631683,0.06099999926066736,0.06099999926066736,0.06099999926066736
-0.15937721729278564,-0.08836519718170166,9.917778968811035,-0.0066999997943639755,0.006599999964237213,0.09939999878406525,0,0.06099999926066736,0
-0.15278837084770203,-0.13318464159965515,9.887602806091309,0.0031999999191612005,-0.032499998807907104,0.07000000029802322,0,0.06099999926066736,-0.06099999926066736
-0.14557704329490662,-0.12026554346084595,9.905856132507324,0.0032999999821186066,-0.022699998691678047,0.08959999680519104,0.06099999926066736,0.06099999926066736,0.06099999926066736
-0.14110466837882996,-0.11903012543916702,9.908116340637207,0.013299999758601189,-0.02279999852180481,0.08959999680519104,0.06099999926066736,-0.12199999852133472,-0.06099999926066736
-0.15783536434173584,-0.08636365085840225,9.915308952331543,-0.0064999996684491634,0.006300000008195639,0.09939999878406525,0,0.06099999926066736,0
-0.13810713589191437,-0.1100853979587555,9.906593322753906,0.013399999588727951,-0.012799999676644802,0.08959999680519104,0.06099999926066736,0.1830000044521087,-0.06099999926066736
-0.1547228842973709,-0.09416873753070831,9.925681114196777,-0.00559999980032444,0.0064999996684491634,0.10920000076293945,0.06099999926066736,-0.06099999926066736,-0.06099999926066736
-0.14833515882492065,-0.09945514053106308,9.906862258911133,0.003999999724328518,-0.0032999999821186066,0.08959999680519104,0,0.12199999852133472,0
-0.14506947994232178,-0.10203130543231964,9.914140701293945,0.004299999680370092,-0.0032999999821186066,0.09939999878406525,0.06099999926066736,0.12199999852133472,-0.12199999852133472
-0.14567281305789948,-0.10947248339653015,9.895177841186523,0.004600000102072954,-0.013299999758601189,0.07979999482631683,0,0.06099999926066736,0.06099999926066736
-0.13535858690738678,-0.103563591837883,9.878255844116211,0.014499999582767487,-0.003499999875202775,0.06019999831914902,-0.06099999926066736,0,0
-0.13731226325035095,-0.10902237147092819,9.920433044433594,0.014499999582767487,-0.013100000098347664,0.09939999878406525,0.06099999926066736,0.12199999852133472,0.06099999926066736
-0.1296316534280777,-0.09601707011461258,9.900530815124512,0.02459999918937683,-0.003399999812245369,0.07979999482631683,0.06099999926066736,0.12199999852133472,-0.06099999926066736
-0.14546211063861847,-0.10813172906637192,9.880114555358887,0.0052999998442828655,-0.013399999588727951,0.06019999831914902,-0.1830000044521087,0.06099999926066736,-0.06099999926066736
-0.14004163444042206,-0.10115981101989746,9.90072250366211,0.015199999324977398,-0.0030999998562037945,0.07979999482631683,-0.12199999852133472,0.24399999704266945,0.06099999926066736
-0.14404475688934326,-0.11305420845746994,9.916199684143066,0.011599999852478504,-0.011599999852478504,0.09950000047683716,0,0.12199999852133472,0.06099999926066736
-0.13451582193374634,-0.10403285175561905,9.895216941833496,0.012600000016391277,-0.0013000000035390258,0.07979999482631683,0,0.12199999852133472,-0.06099999926066736
-0.1425699144601822,-0.08547300100326538,9.922558784484863,0.009200000204145908,0.013199999928474426,0.10909999907016754,0.1830000044521087,0.06099999926066736,0
-0.1666172742843628,-0.09599790722131729,9.915653228759766,-0.015399999916553497,-0.0052999998442828655,0.09939999878406525,0,0.12199999852133472,0
-0.14446613192558289,-0.1054597944021225,9.929281234741211,0.0031999999191612005,-0.01209999993443489,0.10920000076293945,0.12199999852133472,0,0
-0.1552017331123352,-0.12292789667844772,9.916123390197754,-0.005399999674409628,-0.01759999990463257,0.09950000047683716,0.12199999852133472,0,-0.06099999926066736
-0.15948255360126495,-0.07827123999595642,9.902609825134277,-0.0044999998062849045,0.016200000420212746,0.08959999680519104,0.12199999852133472,0.06099999926066736,0
-0.15544115006923676,-0.10362105071544647,9.893080711364746,-0.003599999938160181,-0.002899999963119626,0.07979999482631683,0,0,0.06099999926066736
-0.13844232261180878,-0.12432610243558884,9.884098052978516,0.011799999512732029,-0.01719999872148037,0.07000000029802322,0,0.1830000044521087,0.06099999926066736
-0.14160266518592834,-0.12037088721990585,9.894210815429688,0.009399999864399433,-0.013599999248981476,0.07979999482631683,0,-0.06099999926066736,0
-0.13577038049697876,-0.11505575478076935,9.896585464477539,0.00699999975040555,-0.010799999348819256,0.07979999482631683,0.06099999926066736,0.06099999926066736,0.06099999926066736
-0.13372094929218292,-0.08834604918956757,9.89118480682373,0.016999999061226845,0.018299998715519905,0.07000000029802322,-0.12199999852133472,0.12199999852133472,0
-0.1360098123550415,-0.10325713455677032,9.917817115783691,0.007499999832361937,0.008799999952316284,0.09939999878406525,0.06099999926066736,0.1830000044521087,-0.06099999926066736
-0.14689864218235016,-0.11434707790613174,9.898577690124512,-0.0016999999061226845,-0.0010999999940395355,0.07979999482631683,-0.06099999926066736,0,0.12199999852133472
-0.1371781826019287,-0.1098363921046257,9.918909072875977,0.007999999448657036,-0.0008999999845400453,0.09939999878406525,0.06099999926066736,-0.12199999852133472,0.06099999926066736
-0.14839261770248413,-0.08811619877815247,9.90743637084961,-0.002099999925121665,0.018400000408291817,0.08959999680519104,0.1830000044521087,0.12199999852133472,0
-0.12233413010835648,-0.11697111278772354,9.877652168273926,0.02759999968111515,-0.011399999260902405,0.06019999831914902,0.06099999926066736,0.06099999926066736,0.06099999926066736
-0.1505090892314911,-0.09036675095558167,9.91500186920166,-0.0015999999595806003,0.017799999564886093,0.09939999878406525,-0.12199999852133472,-0.06099999926066736,-0.06099999926066736
-0.14202405512332916,-0.10872548818588257,9.899669647216797,0.007899999618530273,-0.00139999995008111,0.07979999482631683,0,0,0.06099999926066736
-0.1327153891324997,-0.08746497333049774,9.906862258911133,0.025299999862909317,0.014099999330937862,0.08969999849796295,0.12199999852133472,0.1830000044521087,-0.06099999926066736
-0.11661677807569504,-0.09465716034173965,9.875900268554688,0.021399999037384987,0.008200000040233135,0.05999999865889549,0.06099999926066736,0.06099999926066736,0
-0.1621161848306656,-0.12662453949451447,9.895954132080078,-0.013199999928474426,-0.023000000044703484,0.07979999482631683,-0.06099999926066736,0,0
-0.13456369936466217,-0.1184842512011528,9.89118480682373,0.004399999976158142,-0.009800000116229057,0.07000000029802322,0.1830000044521087,0.1830000044521087,0
-0.15423446893692017,-0.1118379533290863,9.924722671508789,-0.00989999994635582,-0.003000000026077032,0.10920000076293945,0.1830000044521087,-0.06099999926066736,-0.06099999926066736
-0.151409313082695,-0.09259814769029617,9.910721778869629,-0.0004999999655410647,0.01249999925494194,0.08959999680519104,0.06099999926066736,0,-0.12199999852133472
-0.14527058601379395,-0.10468407720327377,9.889796257019043,-0.0005999999702908099,0.0016999999061226845,0.07000000029802322,0.12199999852133472,0.06099999926066736,0.12199999852133472
-0.13030202686786652,-0.10348697751760483,9.902284622192383,0.014800000004470348,0.0008999999845400453,0.07970000058412552,0.06099999926066736,0.12199999852133472,-0.06099999926066736
-0.1469082236289978,-0.10490434616804123,9.913172721862793,-0.0038999998942017555,0.0004999999655410647,0.09929999709129333,0.06099999926066736,0.06099999926066736,-0.12199999852133472
-0.1392563432455063,-0.09108500927686691,9.922194480895996,0.004699999932199717,0.008100000210106373,0.10909999907016754,-0.12199999852133472,0,-0.12199999852133472
-0.1693945676088333,-0.11374373733997345,9.898635864257812,-0.01939999870955944,-0.008700000122189522,0.07979999482631683,-0.06099999926066736,0,-0.06099999926066736
-0.13844232261180878,-0.09118077903985977,9.899181365966797,0.007499999832361937,0.00839999970048666,0.07970000058412552,-0.12199999852133472,0.1830000044521087,-0.06099999926066736
-0.14454273879528046,-0.09115204960107803,9.891836166381836,-0.001500000013038516,0.0064999996684491634,0.06989999860525131,0.06099999926066736,0.12199999852133472,0.12199999852133472
-0.16888698935508728,-0.13851892948150635,9.939269065856934,-0.017799999564886093,-0.035999998450279236,0.11899999529123306,0.12199999852133472,0.12199999852133472,-0.06099999926066736
-0.17498740553855896,-0.10006805509328842,9.89659595489502,-0.02149999886751175,0.001999999862164259,0.07989999651908875,0.06099999926066736,0.06099999926066736,0
-0.15194562077522278,-0.11191456764936447,9.924301147460938,0.007999999448657036,-0.007899999618530273,0.10929999500513077,0,0.06099999926066736,0
-0.13385502994060516,-0.12267889082431793,9.935151100158691,0.027799999341368675,-0.01769999973475933,0.11909999698400497,0,0.12199999852133472,-0.12199999852133472
-0.1337401121854782,-0.09709924459457397,9.89242935180664,0.028099998831748962,0.0017999999690800905,0.07009999454021454,0,0.06099999926066736,0.06099999926066736
-0.15927188098430634,-0.10690589249134064,9.914475440979004,-0.0010999999940395355,-0.007899999618530273,0.09950000047683716,0.06099999926066736,0.06099999926066736,0
-0.14994406700134277,-0.11223059892654419,9.940629959106445,0.008799999952316284,-0.007999999448657036,0.11909999698400497,0.1830000044521087,0.06099999926066736,-0.06099999926066736
-0.14376702904701233,-0.10387962311506271,9.883522987365723,0.008899999782443047,0.0011999999405816197,0.07009999454021454,-0.06099999926066736,0.12199999852133472,0.06099999926066736
-0.14721468091011047,-0.09767384827136993,9.910137176513672,0.00930000003427267,0.0013000000035390258,0.08969999849796295,0,0.12199999852133472,0.06099999926066736
-0.1533246785402298,-0.09038589894771576,9.915366172790527,-0.00009999999747378752,0.011099999770522118,0.09950000047683716,0.12199999852133472,0.06099999926066736,0
-0.13593319058418274,-0.09185115247964859,9.902007102966309,0.019600000232458115,0.010799999348819256,0.07989999651908875,-0.06099999926066736,0.12199999852133472,0.06099999926066736
-0.13158532977104187,-0.12074437737464905,9.882834434509277,0.029600000008940697,-0.018299998715519905,0.06030000001192093,0.06099999926066736,0.06099999926066736,-0.06099999926066736
-0.15241488814353943,-0.06658753752708435,9.922922134399414,0.010199999436736107,0.04019999876618385,0.10929999500513077,0,0.12199999852133472,-0.12199999852133472
-0.14731043577194214,-0.09843999147415161,9.905511856079102,0.000699999975040555,0.0009999999310821295,0.05049999803304672,0,0.12199999852133472,-0.12199999852133472
-0.1445523202419281,-0.0719122365117073,9.899602890014648,0.01549999974668026,0.027899999171495438,0.07999999821186066,0.1830000044521087,0.06099999926066736,0
-0.15138058364391327,-0.08633491396903992,9.922807693481445,0.010400000028312206,0.0050999997183680534,0.10929999500513077,0.06099999926066736,0.12199999852133472,0
-0.14284765720367432,-0.10802638530731201,9.93282413482666,0.015099999494850636,-0.011299999430775642,0.11909999698400497,0,0.06099999926066736,-0.06099999926066736
-0.1356937736272812,-0.10835199058055878,9.89659595489502,0.010599999688565731,-0.008299999870359898,0.07979999482631683,0,0.1830000044521087,0
-0.15619772672653198,-0.09780792891979218,9.941146850585938,-0.007199999876320362,0.0009999999310821295,0.12879998981952667,0.06099999926066736,0.06099999926066736,0.06099999926066736
-0.1732252836227417,-0.10085335373878479,9.908872604370117,-0.020800000056624413,0.00039999998989515007,0.08969999849796295,-0.06099999926066736,0.06099999926066736,0.06099999926066736
-0.14641021192073822,-0.09084559231996536,9.926963806152344,0.0066999997943639755,0.008200000040233135,0.10929999500513077,0.06099999926066736,0.06099999926066736,0
-0.16035404801368713,-0.07471824437379837,9.919130325317383,-0.0024999999441206455,0.021800000220537186,0.09939999878406525,0,0.12199999852133472,-0.12199999852133472
-0.15076766908168793,-0.09831549972295761,9.917645454406738,0.005699999630451202,-0.006099999882280827,0.09939999878406525,0.06099999926066736,0.12199999852133472,-0.06099999926066736
-0.16568833589553833,-0.10641747713088989,9.895915985107422,-0.010699999518692493,-0.012600000016391277,0.07989999651908875,-0.06099999926066736,0.24399999704266945,-0.06099999926066736
-0.1454716920852661,-0.11179964244365692,9.882746696472168,0.012199999764561653,-0.012899999506771564,0.06030000001192093,0.12199999852133472,0.12199999852133472,0.06099999926066736
-0.1312788724899292,-0.11725842207670212,9.919791221618652,0.02579999901354313,-0.018799999728798866,0.09950000047683716,-0.12199999852133472,0.12199999852133472,0
-0.14998237788677216,-0.10326670855283737,9.905099868774414,0.004900000058114529,0.0005999999702908099,0.08959999680519104,0,0.06099999926066736,-0.06099999926066736
-0.16917428374290466,-0.08786720037460327,9.910750389099121,-0.011799999512732029,0.008100000210106373,0.08969999849796295,-0.06099999926066736,0.06099999926066736,0.06099999926066736
-0.15529750287532806,-0.09934021532535553,9.938599586486816,-0.0017999999690800905,-0.0013000000035390258,0.11909999698400497,-0.06099999926066736,0.12199999852133472,-0.06099999926066736
-0.1412387490272522,-0.0760781541466713,9.95665168762207,0.014999999664723873,0.02369999885559082,0.13859999179840088,0,0.12199999852133472,0
-0.14154520630836487,-0.09953175485134125,9.911831855773926,0.011799999512732029,-0.004600000102072954,0.08959999680519104,0.12199999852133472,-0.06099999926066736,0
-0.1514476239681244,-0.07260177284479141,9.890246391296387,0.0010999999940395355,0.018400000408291817,0.06989999860525131,-0.12199999852133472,0,0
-0.16573622822761536,-0.11450030654668808,9.891902923583984,-0.014299999922513962,-0.015799999237060547,0.07000000029802322,-0.06099999926066736,0.06099999926066736,0
-0.17243999242782593,-0.10549809783697128,9.911324501037598,-0.019600000232458115,-0.012799999676644802,0.08969999849796295,0,0.12199999852133472,-0.12199999852133472
-0.1494939625263214,-0.09535626322031021,9.881999969482422,0.0072999997064471245,0.004900000058114529,0.06019999831914902,0,0.12199999852133472,0
-0.1442171335220337,-0.09819100052118301,9.903347969055176,0.007599999662488699,-0.004799999762326479,0.08959999680519104,0,0.06099999926066736,0
-0.15792153775691986,-0.10350612550973892,9.887794494628906,-0.0018999999156221747,-0.004799999762326479,0.07000000029802322,-0.06099999926066736,0.12199999852133472,0
-0.14163139462471008,-0.11938447505235672,9.940084457397461,0.027699999511241913,-0.02419999986886978,0.09950000047683716,-0.06099999926066736,0.12199999852133472,0.06099999926066736
-0.12097422033548355,-0.10161949694156647,9.907934188842773,0.03779999911785126,-0.004600000102072954,0.08959999680519104,0,0,0
-0.15141889452934265,-0.1262797713279724,9.888646125793457,0.00839999970048666,-0.03399999812245369,0.07000000029802322,0.06099999926066736,0.06099999926066736,0
-0.17008408904075623,-0.09435070306062698,9.894804954528809,-0.010900000110268593,0.004999999888241291,0.07979999482631683,0.06099999926066736,0,0.06099999926066736
-0.14548127353191376,-0.09415916353464127,9.910836219787598,0.008599999360740185,0.004799999762326479,0.08969999849796295,0,-0.06099999926066736,-0.06099999926066736
-0.13776235282421112,-0.08976341038942337,9.94046688079834,0.018199998885393143,0.004799999762326479,0.11909999698400497,-0.06099999926066736,0.06099999926066736,0
-0.14908215403556824,-0.10236648470163345,9.913469314575195,0.008499999530613422,-0.004699999932199717,0.09950000047683716,0.06099999926066736,0,-0.06099999926066736
-0.13597150146961212,-0.10457872599363327,9.911314964294434,0.018299998715519905,-0.004900000058114529,0.08959999680519104,-0.06099999926066736,0.12199999852133472,-0.06099999926066736
-0.15693514049053192,-0.11893436312675476,9.9129056930542,-0.0008999999845400453,-0.024299999698996544,0.09950000047683716,-0.12199999852133472,0,0
-0.13712070882320404,-0.08924625813961029,9.91615104675293,0.01860000006854534,0.0052999998442828655,0.09950000047683716,0,0.12199999852133472,0
-0.13853809237480164,-0.10195468366146088,9.922941207885742,0.01889999955892563,-0.004399999976158142,0.10929999500513077,0.1830000044521087,0.06099999926066736,0.06099999926066736
-0.1477222442626953,-0.09255026280879974,9.906076431274414,0.00930000003427267,0.004799999762326479,0.08969999849796295,-0.06099999926066736,0.06099999926066736,-0.12199999852133472
-0.14298172295093536,-0.10289321094751358,9.861352920532227,0.019199999049305916,-0.004699999932199717,0.0405999980866909,0.06099999926066736,0.12199999852133472,-0.06099999926066736
-0.17041927576065063,-0.08824069797992706,9.879692077636719,-0.009800000116229057,0.004799999762326479,0.06019999831914902,0,0,-0.06099999926066736
-0.1280898004770279,-0.09475293010473251,9.902437210083008,0.02929999865591526,0.004799999762326479,0.08969999849796295,-0.06099999926066736,0.12199999852133472,0.12199999852133472
-0.16047854721546173,-0.08916006982326508,9.91838264465332,0.00039999998989515007,0.004999999888241291,0.09950000047683716,-0.06099999926066736,0,-0.06099999926066736
-0.16047854721546173,-0.08916006982326508,9.91838264465332,0.00039999998989515007,0.004999999888241291,0.09950000047683716,-0.06099999926066736,0,-0.06099999926066736
-0.12768757343292236,-0.12785036861896515,9.939078330993652,0.02969999983906746,-0.033900000154972076,0.11909999698400497,0,0.06099999926066736,-0.12199999852133472
-0.14055879414081573,-0.11542925238609314,9.894575119018555,0.019999999552965164,-0.024000000208616257,0.07989999651908875,0.06099999926066736,0.06099999926066736,0.12199999852133472
-0.13431471586227417,-0.09748231619596481,9.903194427490234,0.02019999921321869,-0.004600000102072954,0.08969999849796295,0.06099999926066736,0.12199999852133472,-0.06099999926066736
-0.1337592601776123,-0.08699571341276169,9.911650657653809,0.03019999898970127,0.004900000058114529,0.08969999849796295,0.06099999926066736,0.1830000044521087,0.06099999926066736
-0.13880623877048492,-0.07658572494983673,9.901479721069336,0.020899999886751175,0.024299999698996544,0.07989999651908875,-0.12199999852133472,0,-0.06099999926066736
-0.10833284258842468,-0.11618582159280777,9.928831100463867,0.050200000405311584,-0.02419999986886978,0.10929999500513077,0.12199999852133472,0.12199999852133472,0
-0.13371138274669647,-0.11039185523986816,9.909926414489746,0.030799999833106995,-0.014699999243021011,0.08969999849796295,0,0.12199999852133472,0
-0.14783717691898346,-0.09045293927192688,9.878677368164062,-0.007999999448657036,-0.02449999935925007,0.07989999651908875,0,0.06099999926066736,-0.06099999926066736
-0.16010504961013794,-0.12638512253761292,9.920010566711426,0.011699999682605267,0.004799999762326479,0.06030000001192093,0.12199999852133472,-0.06099999926066736,0
-0.13783897459506989,-0.08473558723926544,9.892716407775879,0.021399999037384987,0.014299999922513962,0.07009999454021454,0.06099999926066736,0.06099999926066736,0.06099999926066736
-0.16027744114398956,-0.09602664411067963,9.919723510742188,0.0018999999156221747,-0.0052999998442828655,0.09950000047683716,0,0,0
-0.14616122841835022,-0.10001058876514435,9.925440788269043,0.011699999682605267,-0.0052999998442828655,0.10929999500513077,0,0.06099999926066736,0.12199999852133472
-0.15841953456401825,-0.10350612550973892,9.923238754272461,0.001999999862164259,-0.0052999998442828655,0.10929999500513077,0.06099999926066736,0.12199999852133472,0.06099999926066736
-0.15400461852550507,-0.08584649860858917,9.941875457763672,0.0023999998811632395,0.0139999995008111,0.12889999151229858,0.12199999852133472,0.06099999926066736,0
-0.17834888398647308,-0.10663773864507675,9.918938636779785,-0.016899999231100082,-0.015599999576807022,0.09950000047683716,-0.12199999852133472,0,0
-0.16004759073257446,-0.09121908247470856,9.916342735290527,0.0026000000070780516,0.00419999985024333,0.09950000047683716,-0.12199999852133472,0.12199999852133472,0
-0.1261744350194931,-0.11818736791610718,9.920661926269531,0.03219999745488167,-0.024699999019503593,0.09950000047683716,0.12199999852133472,-0.06099999926066736,-0.06099999926066736
-0.14269442856311798,-0.10337205231189728,9.919915199279785,0.022099999710917473,-0.005399999674409628,0.09950000047683716,-0.06099999926066736,0.06099999926066736,-0.06099999926066736
-0.15533579885959625,-0.10838072001934052,9.894728660583496,0.002699999837204814,-0.014999999664723873,0.07989999651908875,-0.06099999926066736,0,0.06099999926066736
-0.14243584871292114,-0.11723926663398743,9.888541221618652,0.022199999541044235,-0.02449999935925007,0.07009999454021454,-0.06099999926066736,0,-0.06099999926066736
-0.15527835488319397,-0.0894569531083107,9.884087562561035,0.0026000000070780516,0.004900000058114529,0.07009999454021454,-0.12199999852133472,0.06099999926066736,0.06099999926066736
-0.14970465004444122,-0.10833284258842468,9.897745132446289,0.01249999925494194,-0.0142000000923872,0.07989999651908875,-0.06099999926066736,0.06099999926066736,0.06099999926066736
-0.16321751475334167,-0.1029793992638588,9.914838790893555,-0.006799999624490738,-0.00419999985024333,0.09950000047683716,-0.06099999926066736,0,-0.12199999852133472
-0.13836570084095,-0.12441229820251465,9.912589073181152,0.02239999920129776,-0.023499999195337296,0.09950000047683716,-0.06099999926066736,0.06099999926066736,0.06099999926066736
-0.1449258178472519,-0.0969172790646553,9.913105010986328,0.01269999984651804,-0.0037999998312443495,0.09950000047683716,0.06099999926066736,0.1830000044521087,0
-0.14437994360923767,-0.1058141440153122,9.911592483520508,0.013199999928474426,-0.013700000010430813,0.08969999849796295,0,0,0.06099999926066736
-0.1706395447254181,-0.10573752224445343,9.915328025817871,-0.006300000008195639,-0.013599999248981476,0.09950000047683716,0,0.12199999852133472,0
-0.1300051510334015,-0.10084377229213715,9.922491073608398,0.032999999821186066,-0.0037999998312443495,0.10929999500513077,0.06099999926066736,-0.06099999926066736,0.06099999926066736
-0.15587210655212402,-0.08799169957637787,9.923611640930176,0.003399999812245369,0.005699999630451202,0.10929999500513077,0,0.12199999852133472,0.06099999926066736
-0.15558481216430664,-0.11722011864185333,9.888819694519043,0.003700000001117587,-0.023499999195337296,0.07009999454021454,0.06099999926066736,0.12199999852133472,-0.06099999926066736
-0.14141112565994263,-0.09555738419294357,9.89766788482666,0.023499999195337296,0.00559999980032444,0.07989999651908875,0,0.06099999926066736,0.12199999852133472
-0.14556746184825897,-0.10395623743534088,9.906171798706055,0.013799999840557575,-0.004100000020116568,0.08969999849796295,0.06099999926066736,0.06099999926066736,0
-0.16123512387275696,-0.10529699176549911,9.898674011230469,0.004100000020116568,-0.00419999985024333,0.07989999651908875,0,0.06099999926066736,-0.12199999852133472
-0.14785632491111755,-0.10644620656967163,9.896566390991211,0.0139999995008111,-0.013899999670684338,0.07989999651908875,0,0,0.12199999852133472
-0.15183068811893463,-0.11133037507534027,9.93895435333252,0.0139999995008111,-0.013899999670684338,0.11919999867677689,0,0,0
-0.13676637411117554,-0.09806650131940842,9.902897834777832,0.02369999885559082,-0.004100000020116568,0.08969999849796295,0.06099999926066736,0.06099999926066736,0.06099999926066736
-0.15789280831813812,-0.10256760567426682,9.911592483520508,0.00419999985024333,-0.00419999985024333,0.08969999849796295,-0.06099999926066736,0.12199999852133472,0.06099999926066736
-0.13474567234516144,-0.09554779529571533,9.884471893310547,0.024000000208616257,0.00559999980032444,0.07009999454021454,0.06099999926066736,0.1830000044521087,0
-0.14911088347434998,-0.09483911842107773,9.909208297729492,0.014599999412894249,0.005399999674409628,0.08969999849796295,-0.06099999926066736,0,0
-0.1324472278356552,-0.1034390851855278,9.92357349395752,0.03399999812245369,-0.004100000020116568,0.10939999669790268,0.06099999926066736,0,-0.06099999926066736
-0.14585477113723755,-0.11436622589826584,9.901776313781738,0.014299999922513962,-0.0139999995008111,0.07989999651908875,0.12199999852133472,0.1830000044521087,0
-0.13809755444526672,-0.10238564014434814,9.910893440246582,0.02449999935925007,-0.0044999998062849045,0.08969999849796295,-0.06099999926066736,0.06099999926066736,-0.06099999926066736
-0.13532984256744385,-0.09481996297836304,9.915356636047363,0.02449999935925007,0.0052999998442828655,0.09959999471902847,0.12199999852133472,0.12199999852133472,-0.1830000044521087
-0.1305893361568451,-0.0954807698726654,9.926916122436523,0.04389999806880951,0.005499999970197678,0.10949999839067459,0.06099999926066736,0.06099999926066736,0.06099999926066736
-0.1448013186454773,-0.1179000735282898,9.935563087463379,0.014299999922513962,-0.015199999324977398,0.11919999867677689,0.06099999926066736,0.12199999852133472,0.12199999852133472
-0.11703815311193466,-0.11680831015110016,9.910032272338867,0.028099998831748962,-0.010199999436736107,0.08959999680519104,0,0,0
-0.1522808074951172,-0.12393345683813095,9.899660110473633,-0.0011999999405816197,-0.0072999997064471245,0.07989999651908875,0,-0.06099999926066736,0.06099999926066736
-0.1355501264333725,-0.10155245661735535,9.881722450256348,0.005499999970197678,0.008200000040233135,0.06019999831914902,0.12199999852133472,0.06099999926066736,0.06099999926066736
-0.14794249832630157,-0.10477026551961899,9.905177116394043,-0.003399999812245369,0.0058999997563660145,0.08959999680519104,0,0,-0.12199999852133472
-0.14229218661785126,-0.10585244745016098,9.909993171691895,0.0032999999821186066,-0.0044999998062849045,0.08949999511241913,0,0.06099999926066736,-0.06099999926066736
-0.1530565321445465,-0.08405563235282898,9.930861473083496,-0.005399999674409628,0.02029999904334545,0.10909999907016754,0.06099999926066736,0,0.12199999852133472
-0.1479904055595398,-0.09779834747314453,9.899765968322754,-0.004399999976158142,0.00019999999494757503,0.07970000058412552,0.12199999852133472,0.06099999926066736,0
-0.17647181451320648,-0.10545022040605545,9.921170234680176,-0.02759999968111515,-0.008200000040233135,0.09939999878406525,-0.06099999926066736,0.06099999926066736,-0.06099999926066736
-0.1421581208705902,-0.07181647419929504,9.908308029174805,0.011699999682605267,0.031099999323487282,0.08959999680519104,-0.12199999852133472,0.1830000044521087,0
-0.1563892513513565,-0.07439263164997101,9.877385139465332,-0.0072999997064471245,0.03139999881386757,0.06019999831914902,0,0.12199999852133472,0.06099999926066736
-0.15200307965278625,-0.10684843361377716,9.902408599853516,0.002699999837204814,-0.007699999958276749,0.07979999482631683,0,0.06099999926066736,0
-0.13871046900749207,-0.08856631070375443,9.886061668395996,0.01269999984651804,0.011799999512732029,0.07000000029802322,0.06099999926066736,0,0
-0.1311543732881546,-0.07082048803567886,9.88338851928711,0.022499999031424522,0.031199999153614044,0.07000000029802322,0.06099999926066736,0.1830000044521087,-0.06099999926066736
-0.16739299893379211,-0.08194873481988907,9.894776344299316,-0.016099998727440834,0.021199999377131462,0.07979999482631683,0.06099999926066736,0.12199999852133472,-0.12199999852133472
-0.14904384315013885,-0.10991300642490387,9.932738304138184,0.003700000001117587,-0.008200000040233135,0.11909999698400497,0,0.12199999852133472,-0.24399999704266945
-0.1482393890619278,-0.10104489326477051,9.906536102294922,0.013599999248981476,-0.0009999999310821295,0.08980000019073486,0.12199999852133472,0.24399999704266945,-0.06099999926066736
-0.14765521883964539,-0.07931511849164963,9.894497871398926,0.018799999728798866,0.016899999231100082,0.07999999821186066,-0.12199999852133472,0,0.06099999926066736
-0.12311942875385284,-0.08643067628145218,9.903499603271484,0.03529999777674675,0.005200000014156103,0.08959999680519104,0.06099999926066736,0.06099999926066736,0
-0.11962389200925827,-0.08439082652330399,9.911267280578613,0.02669999934732914,0.011099999770522118,0.08949999511241913,0,0,-0.12199999852133472
-0.1541386991739273,-0.09194692224264145,9.90878677368164,-0.00989999994635582,0.0008999999845400453,0.08949999511241913,-0.06099999926066736,0.06099999926066736,0
-0.15371732413768768,-0.10323797911405563,9.906756401062012,-0.007899999618530273,-0.006899999920278788,0.08949999511241913,-0.12199999852133472,0.1830000044521087,0.06099999926066736
-0.12020807713270187,-0.10456915199756622,9.93343734741211,0.02589999884366989,-0.00559999980032444,0.11889999359846115,0.06099999926066736,0.12199999852133472,0
-0.13216951489448547,-0.09032844752073288,9.895858764648438,0.012399999424815178,0.00279999990016222,0.07959999889135361,0.06099999926066736,0.06099999926066736,0
-0.13881580531597137,-0.09113289415836334,9.89980411529541,0.0018999999156221747,0.0018999999156221747,0.07959999889135361,0,0.06099999926066736,0.06099999926066736
-0.14617080986499786,-0.10397539287805557,9.923746109008789,-0.006599999964237213,-0.006599999964237213,0.10899999737739563,0,0.06099999926066736,0
-0.14388194680213928,-0.08373001962900162,9.882757186889648,-0.004900000058114529,0.009399999864399433,0.05999999865889549,0,0.12199999852133472,0.12199999852133472
-0.16346652805805206,-0.08227434754371643,9.889498710632324,-0.018799999728798866,0.0071000000461936,0.06989999860525131,0.06099999926066736,0.06099999926066736,0
-0.1468411684036255,-0.10737515985965729,9.922760009765625,0.0007999999797903001,-0.02239999920129776,0.10909999907016754,0.12199999852133472,0.06099999926066736,0.12199999852133472
-0.1425124704837799,-0.08961975574493408,9.922663688659668,0.010799999348819256,-0.0030999998562037945,0.10909999907016754,0.06099999926066736,0,0.1830000044521087
-0.1427614539861679,-0.09535626322031021,9.908614158630371,0.010799999348819256,-0.0032999999821186066,0.08949999511241913,0.1830000044521087,0,0.06099999926066736
-0.1274002641439438,-0.09060616791248322,9.899152755737305,0.020600000396370888,-0.0037999998312443495,0.07970000058412552,0,-0.06099999926066736,-0.06099999926066736
-0.13708241283893585,-0.11957601457834244,9.92019271850586,0.010599999688565731,-0.03319999948143959,0.09929999709129333,0.06099999926066736,0.06099999926066736,0.12199999852133472
-0.1276971399784088,-0.11430876702070236,9.904037475585938,0.020600000396370888,-0.023499999195337296,0.08949999511241913,0,0.12199999852133472,0
-0.17494910955429077,-0.11289139837026596,9.923736572265625,-0.0279999990016222,-0.023499999195337296,0.10909999907016754,-0.06099999926066736,0.06099999926066736,0
-0.1446768194437027,-0.09802819043397903,9.91620922088623,0.013399999588727951,-0.011099999770522118,0.09950000047683716,0,0.06099999926066736,0.06099999926066736
-0.13751336932182312,-0.08615295588970184,9.925335884094238,0.016599999740719795,0.0058999997563660145,0.10920000076293945,0,0.12199999852133472,0.06099999926066736
-0.13912226259708405,-0.09816227108240128,9.910951614379883,0.011899999342858791,-0.010099999606609344,0.08949999511241913,0.06099999926066736,0,0
-0.16500838100910187,-0.08750328421592712,9.904792785644531,-0.013399999588727951,-0.0004999999655410647,0.08959999680519104,0.06099999926066736,0.12199999852133472,0
-0.1277162879705429,-0.10838072001934052,9.900752067565918,0.019299998879432678,-0.015399999916553497,0.07970000058412552,0.12199999852133472,0.06099999926066736,0
-0.14496412873268127,-0.10390835255384445,9.878217697143555,-0.00019999999494757503,-0.004399999976158142,0.060099996626377106,0.1830000044521087,0.06099999926066736,-0.06099999926066736
-0.1578066200017929,-0.08521442115306854,9.894047737121582,-0.007999999448657036,0.011299999430775642,0.07970000058412552,0,0.06099999926066736,-0.12199999852133472
-0.1501356065273285,-0.08646898716688156,9.907743453979492,0.0013000000035390258,0.0009999999310821295,0.08949999511241913,0,0.12199999852133472,0.06099999926066736
-0.14798082411289215,-0.07438305765390396,9.944230079650879,0.0010999999940395355,0.01730000041425228,0.12870000302791595,0.06099999926066736,0.06099999926066736,0
-0.13465948402881622,-0.09737696498632431,9.898615837097168,0.008299999870359898,-0.009599999524652958,0.07970000058412552,-0.12199999852133472,0.06099999926066736,0
-0.13883496820926666,-0.07494808733463287,9.927960395812988,0.0066999997943639755,0.01640000008046627,0.10899999737739563,0.12199999852133472,0.12199999852133472,0
-0.15511554479599,-0.10112150758504868,9.896394729614258,-0.01249999925494194,-0.013299999758601189,0.07959999889135361,0.06099999926066736,0,-0.12199999852133472
-0.13210247457027435,-0.0912286639213562,9.897811889648438,0.01679999940097332,-0.003700000001117587,0.07959999889135361,0,0.12199999852133472,0
-0.12340673059225082,-0.11130165308713913,9.903844833374023,0.026899999007582664,-0.02319999970495701,0.08940000087022781,0,0.06099999926066736,0
-0.14614208042621613,-0.08986875414848328,9.879855155944824,-0.002199999988079071,-0.003599999938160181,0.05999999865889549,0,-0.12199999852133472,0.06099999926066736
-0.14649641513824463,-0.100815050303936,9.89402961730957,-0.0024999999441206455,-0.013399999588727951,0.07959999889135361,0,0.12199999852133472,0.06099999926066736
-0.13197797536849976,-0.0816422775387764,9.905290603637695,0.01730000041425228,0.006099999882280827,0.08940000087022781,-0.06099999926066736,0,-0.06099999926066736
-0.1412578970193863,-0.06852205097675323,9.885418891906738,0.007499999832361937,0.01599999889731407,0.0697999969124794,0,0,-0.06099999926066736
-0.15150508284568787,-0.0874553993344307,9.909341812133789,-0.002199999988079071,-0.003499999875202775,0.08940000087022781,0,0.12199999852133472,0
-0.1686858832836151,-0.09804734587669373,9.895282745361328,-0.02149999886751175,-0.013299999758601189,0.07959999889135361,0,0.06099999926066736,0.06099999926066736
-0.142531618475914,-0.09248322248458862,9.893186569213867,0.007999999448657036,-0.003499999875202775,0.07959999889135361,-0.06099999926066736,0.06099999926066736,-0.06099999926066736
-0.1462378352880478,-0.0924161821603775,9.915260314941406,-0.001500000013038516,-0.0032999999821186066,0.09919999539852142,0.12199999852133472,0.06099999926066736,0
-0.13523408770561218,-0.08452489227056503,9.931857109069824,0.008299999870359898,0.006099999882280827,0.11889999359846115,-0.06099999926066736,-0.12199999852133472,0.06099999926066736
-0.1438436359167099,-0.0836438313126564,9.894000053405762,-0.0016999999061226845,0.006199999712407589,0.07959999889135361,0,0.1830000044521087,0.06099999926066736
-0.15885049104690552,-0.11496956646442413,9.903499603271484,0.018299998715519905,-0.013299999758601189,0.08940000087022781,-0.12199999852133472,0.12199999852133472,0
-0.14672625064849854,-0.0669323056936264,9.919417381286621,-0.0005999999702908099,0.026399999856948853,0.09929999709129333,0.06099999926066736,0.12199999852133472,-0.06099999926066736
-0.16389746963977814,-0.11159852892160416,9.89543628692627,-0.01979999989271164,-0.022699998691678047,0.07970000058412552,0,0,-0.06099999926066736
-0.15824715793132782,-0.085310198366642,9.879721641540527,-0.009999999776482582,0.006599999964237213,0.05999999865889549,-0.06099999926066736,0,-0.06099999926066736
-0.1396968811750412,-0.10874464362859726,9.888157844543457,0.009499999694526196,-0.022499999031424522,0.0697999969124794,0,0.06099999926066736,0
-0.15351621806621552,-0.07603985071182251,9.887449264526367,-0.009800000116229057,0.016599999740719795,0.0697999969124794,0.06099999926066736,-0.06099999926066736,0
-0.1457398533821106,-0.060295574367046356,9.926398277282715,-0.00019999999494757503,0.026200000196695328,0.10909999907016754,0,0,-0.06099999926066736
-0.16164693236351013,-0.10871591418981552,9.895187377929688,-0.009999999776482582,-0.022699998691678047,0.07970000058412552,0,0.1830000044521087,0
-0.1460750252008438,-0.08158481866121292,9.910701751708984,0.00019999999494757503,0.006599999964237213,0.08949999511241913,0,0.06099999926066736,0.12199999852133472
-0.15069106221199036,-0.11624328047037125,9.887201309204102,0.00039999998989515007,-0.03240000084042549,0.06989999860525131,0.06099999926066736,0,0.06099999926066736
-0.14931198954582214,-0.07314765453338623,9.89074420928955,0.00039999998989515007,0.016300000250339508,0.06989999860525131,-0.12199999852133472,-0.06099999926066736,0
-0.151868999004364,-0.10863929986953735,9.909504890441895,0.00019999999494757503,-0.02239999920129776,0.08949999511241913,-0.06099999926066736,0.06099999926066736,0
-0.15466544032096863,-0.1269214153289795,9.897448539733887,-0.00930000003427267,-0.04169999808073044,0.07970000058412552,0.06099999926066736,0.06099999926066736,0
-0.15292245149612427,-0.09950301796197891,9.923955917358398,0.0005999999702908099,-0.01249999925494194,0.10909999907016754,0.12199999852133472,0,0
-0.14731043577194214,-0.1268831044435501,9.912435531616211,0.0005999999702908099,-0.04209999740123749,0.09929999709129333,0.12199999852133472,0.06099999926066736,-0.06099999926066736
-0.1428859531879425,-0.0969172790646553,9.899909019470215,0.010499999858438969,-0.012999999336898327,0.07970000058412552,0.3049999896332302,-0.06099999926066736,0
-0.15905161201953888,-0.10856268554925919,9.878045082092285,0.011099999770522118,-0.020600000396370888,0.06039999797940254,0,0,-0.12199999852133472
-0.15565183758735657,-0.09414000809192657,9.922280311584473,0.006399999838322401,-0.0008999999845400453,0.10929999500513077,0.06099999926066736,0,-0.1830000044521087
-0.13327084481716156,-0.08798212558031082,9.930401802062988,0.02499999850988388,-0.0009999999310821295,0.10920000076293945,0,0,-0.06099999926066736
-0.16345694661140442,-0.09117120504379272,9.905109405517578,-0.010499999858438969,-0.0008999999845400453,0.08959999680519104,0.12199999852133472,0.06099999926066736,-0.06099999926066736
-0.12424948811531067,-0.09223423153162003,9.9213228225708,0.029199998825788498,-0.0010999999940395355,0.09929999709129333,0.06099999926066736,0,0.06099999926066736
-0.1465730220079422,-0.10886914283037186,9.91794204711914,-0.00039999998989515007,-0.016499999910593033,0.09929999709129333,0.06099999926066736,0.06099999926066736,0
-0.15207011997699738,-0.10205045342445374,9.925354957580566,-0.0004999999655410647,-0.005699999630451202,0.10909999907016754,-0.06099999926066736,0.06099999926066736,0
-0.1329643875360489,-0.09820057451725006,9.936214447021484,0.015399999916553497,-0.004699999932199717,0.11889999359846115,0.06099999926066736,0,0.06099999926066736
-0.15269261598587036,-0.13080960512161255,9.920815467834473,0.003999999724328518,-0.018799999728798866,0.07970000058412552,0.06099999926066736,0,0.06099999926066736
-0.15173491835594177,-0.11170387268066406,9.913833618164062,-0.003999999724328518,-0.0030999998562037945,0.09939999878406525,0.06099999926066736,0,0
-0.14397770166397095,-0.13412319123744965,9.914321899414062,-0.003999999724328518,-0.03269999846816063,0.09939999878406525,-0.06099999926066736,0.12199999852133472,0
-0.14916835725307465,-0.09134358167648315,9.916227340698242,-0.003700000001117587,0.01640000008046627,0.09939999878406525,0.1830000044521087,0.06099999926066736,0
-0.13110649585723877,-0.09473377466201782,9.896241188049316,0.01599999889731407,0.01589999906718731,0.07979999482631683,-0.06099999926066736,0.06099999926066736,0.06099999926066736
-0.14946521818637848,-0.08847054094076157,9.885964393615723,-0.003399999812245369,0.01599999889731407,0.07000000029802322,0,0.12199999852133472,0
-0.13500423729419708,-0.11555375158786774,9.909160614013672,0.0066999997943639755,-0.013299999758601189,0.08959999680519104,-0.12199999852133472,0.06099999926066736,0.06099999926066736
-0.14154520630836487,-0.09552864730358124,9.928064346313477,0.006799999624490738,0.01640000008046627,0.10920000076293945,0.06099999926066736,0.06099999926066736,0.12199999852133472
-0.15493357181549072,-0.10535445064306259,9.907992362976074,-0.01249999925494194,-0.0032999999821186066,0.08959999680519104,0.12199999852133472,0.06099999926066736,0.06099999926066736
-0.14775097370147705,-0.08169016242027283,9.912378311157227,-0.0024999999441206455,0.025599999353289604,0.09939999878406525,0.06099999926066736,0.12199999852133472,0.12199999852133472
-0.15720327198505402,-0.1308383345603943,9.883398056030273,-0.012000000104308128,-0.023399999365210533,0.07000000029802322,-0.12199999852133472,0,0.06099999926066736
-0.15525919198989868,-0.11143571883440018,9.910951614379883,-0.012000000104308128,-0.003499999875202775,0.08959999680519104,0,0.06099999926066736,0.06099999926066736
-0.1661001443862915,-0.11144530028104782,9.915711402893066,-0.02159999869763851,-0.003499999875202775,0.09939999878406525,0.12199999852133472,0.06099999926066736,0
-0.15325763821601868,-0.10657070577144623,9.918651580810547,-0.011599999852478504,-0.0037999998312443495,0.09939999878406525,0,-0.06099999926066736,0.06099999926066736
-0.1607467085123062,-0.10871591418981552,9.890379905700684,-0.011699999682605267,-0.0037999998312443495,0.07000000029802322,0.06099999926066736,0,-0.12199999852133472
-0.14319241046905518,-0.09541372954845428,9.896374702453613,0.007799999788403511,0.01549999974668026,0.07979999482631683,-0.12199999852133472,0.06099999926066736,0.06099999926066736
-0.1436999887228012,-0.09307698905467987,9.887133598327637,-0.0017999999690800905,0.015799999237060547,0.07000000029802322,-0.12199999852133472,0.12199999852133472,0
-0.14608460664749146,-0.10311347991228104,9.900157928466797,-0.00139999995008111,0.006300000008195639,0.07979999482631683,0.06099999926066736,0.12199999852133472,0.12199999852133472
-0.16444334387779236,-0.0787883922457695,9.893914222717285,-0.02070000022649765,0.025699999183416367,0.07979999482631683,-0.12199999852133472,0.12199999852133472,0.12199999852133472
-0.12954546511173248,-0.10649409145116806,9.920785903930664,0.018799999728798866,-0.0032999999821186066,0.09939999878406525,0,0.06099999926066736,0
-0.14347971975803375,-0.09971371293067932,9.902379989624023,0.009099999442696571,0.006399999838322401,0.07979999482631683,-0.06099999926066736,0,-0.1830000044521087
-0.14347971975803375,-0.09971371293067932,9.902379989624023,0.009200000204145908,0.006399999838322401,0.07979999482631683,-0.06099999926066736,0,-0.1830000044521087
-0.10719320178031921,-0.09657251834869385,9.912177085876465,-0.010300000198185444,0.0064999996684491634,0.08959999680519104,0.12199999852133472,0.12199999852133472,0
-0.16330371797084808,-0.11105264723300934,9.927069664001465,0.03879999741911888,0.006399999838322401,0.09939999878406525,0,0.06099999926066736,-0.06099999926066736
-0.16117766499519348,-0.10030747205018997,9.917550086975098,-0.019600000232458115,-0.003700000001117587,0.10920000076293945,-0.12199999852133472,0.06099999926066736,0.06099999926066736
-0.1355692744255066,-0.11660720407962799,9.89286994934082,0.009999999776482582,-0.013100000098347664,0.07979999482631683,0,0,0
-0.1367184966802597,-0.11875240504741669,9.911046981811523,0.009999999776482582,-0.013100000098347664,0.08959999680519104,-0.06099999926066736,0.06099999926066736,0.06099999926066736
-0.14415010809898376,-0.09009859710931778,9.921351432800293,0.00039999998989515007,0.016300000250339508,0.09939999878406525,0,0.12199999852133472,0.12199999852133472
-0.16502754390239716,-0.08778101205825806,9.909677505493164,-0.018799999728798866,0.016300000250339508,0.08959999680519104,0.06099999926066736,0.06099999926066736,0
-0.15954960882663727,-0.1290474683046341,9.928763389587402,-0.008799999952316284,-0.023000000044703484,0.10929999500513077,0,0.12199999852133472,0
-0.1507197916507721,-0.1077103391289711,9.909351348876953,0.0013000000035390258,-0.0032999999821186066,0.08959999680519104,-0.06099999926066736,0,0
-0.13731226325035095,-0.10044155269861221,9.920921325683594,0.010999999940395355,0.0064999996684491634,0.09950000047683716,0.06099999926066736,0.1830000044521087,0
-0.13710156083106995,-0.09517430514097214,9.937095642089844,0.011500000022351742,0.016099998727440834,0.11909999698400497,0,0.06099999926066736,0.06099999926066736
-0.15027925372123718,-0.10117895901203156,9.903413772583008,0.0017999999690800905,0.006300000008195639,0.08969999849796295,-0.06099999926066736,0,0
-0.1608712077140808,-0.12237243354320526,9.890111923217773,-0.007799999788403511,-0.012999999336898327,0.07000000029802322,-0.06099999926066736,0,0
-0.12772586941719055,-0.08591353893280029,9.914734840393066,0.021399999037384987,0.026200000196695328,0.09950000047683716,0,0.12199999852133472,0.12199999852133472
-0.13688130676746368,-0.11744038760662079,9.901068687438965,0.011899999342858791,-0.012899999506771564,0.07989999651908875,-0.06099999926066736,-0.06099999926066736,-0.06099999926066736
-0.13513831794261932,-0.1083998829126358,9.901959419250488,0.011699999682605267,-0.002899999963119626,0.07989999651908875,0.06099999926066736,0,0
-0.12409625947475433,-0.11782345920801163,9.899755477905273,0.031099999323487282,-0.012799999676644802,0.07979999482631683,0.06099999926066736,0.12199999852133472,0.06099999926066736
-0.142780601978302,-0.09839211404323578,9.90503215789795,0.011799999512732029,0.0064999996684491634,0.08969999849796295,0.06099999926066736,0.06099999926066736,0
-0.13740801811218262,-0.09790369123220444,9.884758949279785,0.012000000104308128,0.006099999882280827,0.07000000029802322,0,0.12199999852133472,0
-0.16550637781620026,-0.08916006982326508,9.89505386352539,-0.016899999231100082,0.015799999237060547,0.07989999651908875,0.12199999852133472,-0.06099999926066736,-0.06099999926066736
-0.14599841833114624,-0.10362105071544647,9.897409439086914,0.0023999998811632395,0.00559999980032444,0.07979999482631683,-0.06099999926066736,0,0
-0.15748101472854614,-0.09545203298330307,9.890457153320312,-0.007199999876320362,0.01549999974668026,0.07000000029802322,0,0.1830000044521087,0.12199999852133472
-0.16323667764663696,-0.07881712168455124,9.909428596496582,-0.016499999910593033,0.025200000032782555,0.08969999849796295,0.06099999926066736,0.06099999926066736,0
-0.12990938127040863,-0.09949344396591187,9.904563903808594,0.022699998691678047,0.005399999674409628,0.08969999849796295,0.12199999852133472,-0.06099999926066736,0.06099999926066736
-0.12430695444345474,-0.10269209742546082,9.92259693145752,0.03219999745488167,0.0050999997183680534,0.10929999500513077,0.12199999852133472,0.06099999926066736,-0.12199999852133472
-0.14087483286857605,-0.10467450320720673,9.8886079788208,0.01269999984651804,0.004699999932199717,0.07000000029802322,0,0,0.06099999926066736
-0.15487611293792725,-0.1158793643116951,9.887038230895996,-0.006799999624490738,-0.014699999243021011,0.07000000029802322,0.06099999926066736,-0.06099999926066736,-0.06099999926066736
-0.13998419046401978,-0.11400230973958969,9.90864372253418,0.01249999925494194,-0.0050999997183680534,0.08969999849796295,-0.06099999926066736,0.06099999926066736,0
-0.13741759955883026,-0.10431057959794998,9.930631637573242,0.012600000016391277,0.004799999762326479,0.10929999500513077,-0.06099999926066736,0.12199999852133472,0.1830000044521087
-0.15287457406520844,-0.117066890001297,9.908681869506836,0.0030999998562037945,-0.014499999582767487,0.08969999849796295,-0.12199999852133472,0,0
-0.14044387638568878,-0.10847649723291397,9.89838695526123,0.012799999676644802,-0.004399999976158142,0.07989999651908875,0,0.06099999926066736,-0.06099999926066736
-0.13924676179885864,-0.1241728737950325,9.914848327636719,0.012899999506771564,-0.014099999330937862,0.09950000047683716,0.12199999852133472,0,0.06099999926066736
-0.14873738586902618,-0.10953951627016068,9.9148588180542,0.0030999998562037945,-0.004600000102072954,0.09950000047683716,0.12199999852133472,0,0.06099999926066736
-0.13713029026985168,-0.08621041476726532,9.905147552490234,0.012899999506771564,0.014499999582767487,0.08969999849796295,0,0.06099999926066736,-0.06099999926066736
-0.1453855037689209,-0.11273816972970963,9.885821342468262,0.0031999999191612005,-0.004999999888241291,0.07000000029802322,0,0,0
-0.12924857437610626,-0.10686758160591125,9.935036659240723,0.022699998691678047,-0.004999999888241291,0.11909999698400497,0.06099999926066736,0,0
-0.15361198782920837,-0.11545798182487488,9.884653091430664,-0.006599999964237213,-0.01489999983459711,0.07000000029802322,0,0.12199999852133472,0
-0.15271176397800446,-0.10319966822862625,9.88571548461914,0.003399999812245369,0.004600000102072954,0.07000000029802322,-0.06099999926066736,-0.06099999926066736,0
-0.14406390488147736,-0.12627018988132477,9.922491073608398,0.0031999999191612005,-0.024399999529123306,0.10929999500513077,-0.06099999926066736,0.06099999926066736,0.06099999926066736
-0.14994406700134277,-0.11907801777124405,9.914380073547363,0.003399999812245369,-0.014399999752640724,0.09950000047683716,-0.06099999926066736,0.06099999926066736,0
-0.16021040081977844,-0.12302365899085999,9.905473709106445,-0.006099999882280827,-0.014099999330937862,0.08969999849796295,-0.06099999926066736,0,0.06099999926066736
-0.1525106579065323,-0.0864977166056633,9.882183074951172,0.003499999875202775,0.015199999324977398,0.06030000001192093,0,0.06099999926066736,0
-0.15483781695365906,-0.08012913912534714,9.90192985534668,-0.006000000052154064,0.024899998679757118,0.07989999651908875,0.06099999926066736,0,-0.06099999926066736
-0.1543494015932083,-0.10311347991228104,9.944297790527344,-0.006000000052154064,0.0050999997183680534,0.12889999151229858,0.12199999852133472,0.06099999926066736,0
-0.1490534245967865,-0.10929051786661148,9.920853614807129,0.0038999998942017555,-0.004999999888241291,0.09950000047683716,0.06099999926066736,0.06099999926066736,0
-0.1510358303785324,-0.09072109311819077,9.90170955657959,0.003999999724328518,0.014299999922513962,0.07989999651908875,0,0.12199999852133472,0
-0.13487973809242249,-0.11391611397266388,9.920614242553711,0.014499999582767487,-0.005699999630451202,0.09950000047683716,0,0.06099999926066736,0
-0.1256955862045288,-0.09621817618608475,9.916065216064453,0.02449999935925007,0.003999999724328518,0.09950000047683716,0,0.06099999926066736,-0.06099999926066736
-0.14118129014968872,-0.0912286639213562,9.904764175415039,0.014800000004470348,0.013799999840557575,0.08969999849796295,-0.06099999926066736,0,0.06099999926066736
-0.11937489360570908,-0.09012732654809952,9.879549026489258,0.03439999744296074,0.013899999670684338,0.06030000001192093,0,-0.06099999926066736,0
-0.15255853533744812,-0.09844958037137985,9.925459861755371,0.004799999762326479,0.004100000020116568,0.10929999500513077,0,0,0
-0.14555789530277252,-0.11289139837026596,9.931636810302734,0.004799999762326479,-0.00559999980032444,0.11909999698400497,0.12199999852133472,0,0.06099999926066736
-0.15964536368846893,-0.09887095540761948,9.894306182861328,-0.004900000058114529,0.0037999998312443495,0.07989999651908875,0.1830000044521087,0,0.06099999926066736
-0.1457590013742447,-0.11880987137556076,9.883820533752441,0.004799999762326479,-0.016200000420212746,0.07009999454021454,0,0.06099999926066736,0.06099999926066736
-0.15388013422489166,-0.10455000400543213,9.889747619628906,-0.004699999932199717,0.0032999999821186066,0.07009999454021454,0.06099999926066736,0.12199999852133472,-0.06099999926066736
-0.13245682418346405,-0.0979994684457779,9.890897750854492,0.024899998679757118,0.0030999998562037945,0.07009999454021454,0,0.12199999852133472,-0.06099999926066736
-0.16616716980934143,-0.1330888867378235,9.916171073913574,-0.013899999670684338,-0.026200000196695328,0.09950000047683716,0,0.1830000044521087,0
-0.14010868966579437,-0.09334513545036316,9.905473709106445,0.015799999237060547,0.012799999676644802,0.08969999849796295,0.06099999926066736,0.06099999926066736,0.1830000044521087
-0.14446613192558289,-0.10826580226421356,9.876110076904297,0.006099999882280827,-0.006799999624490738,0.06030000001192093,0.06099999926066736,-0.06099999926066736,0.06099999926066736
-0.152951180934906,-0.11097603291273117,9.90976333618164,0.0058999997563660145,-0.006899999920278788,0.08969999849796295,0.06099999926066736,0,0.06099999926066736
-0.15767253935337067,-0.09889967739582062,9.942841529846191,-0.0037999998312443495,0.0026000000070780516,0.12889999151229858,0.12199999852133472,0.12199999852133472,0
-0.17402015626430511,-0.11755530536174774,9.91451358795166,-0.02290000021457672,-0.01719999872148037,0.09950000047683716,0.06099999926066736,0,-0.06099999926066736
-0.13427641987800598,-0.08924625813961029,9.918689727783203,0.016099998727440834,0.011899999342858791,0.09950000047683716,0.06099999926066736,0,0
-0.16888698935508728,-0.1133989691734314,9.913086891174316,-0.013100000098347664,-0.007699999958276749,0.09950000047683716,0.06099999926066736,0,-0.06099999926066736
-0.13630668818950653,-0.11037269234657288,9.866562843322754,0.01599999889731407,-0.007799999788403511,0.05040000006556511,0,0.12199999852133472,-0.06099999926066736
-0.1419665813446045,-0.1166933923959732,9.915529251098633,0.016200000420212746,-0.017500000074505806,0.09950000047683716,-0.06099999926066736,0.06099999926066736,0.06099999926066736
-0.15277878940105438,-0.07875008136034012,9.910490989685059,0.0064999996684491634,0.02159999869763851,0.08969999849796295,0.12199999852133472,-0.12199999852133472,-0.06099999926066736
-0.14571112394332886,-0.13364432752132416,9.895838737487793,0.006099999882280827,-0.027400000020861626,0.07989999651908875,-0.06099999926066736,0.06099999926066736,-0.06099999926066736
-0.1651424616575241,-0.10714531689882278,9.886463165283203,-0.013100000098347664,-0.007599999662488699,0.07009999454021454,0.12199999852133472,0.06099999926066736,0.12199999852133472
-0.17422126233577728,-0.08074206113815308,9.919321060180664,-0.022599998861551285,0.021299999207258224,0.09950000047683716,0,0.06099999926066736,0
-0.1636389046907425,-0.11257535964250565,9.892189979553223,-0.01249999925494194,-0.007999999448657036,0.07009999454021454,0,0.06099999926066736,-0.06099999926066736
-0.14741578698158264,-0.1110047698020935,9.891863822937012,0.0071000000461936,-0.007899999618530273,0.07009999454021454,0,0.06099999926066736,0
-0.14931198954582214,-0.09783665835857391,9.910070419311523,0.007199999876320362,0.0017999999690800905,0.08969999849796295,0,0,0.06099999926066736
-0.14633360505104065,-0.10774865001440048,9.90661334991455,0.0071000000461936,-0.007899999618530273,0.08969999849796295,0.12199999852133472,0.12199999852133472,0.12199999852133472
-0.15152423083782196,-0.10794977098703384,9.905003547668457,-0.021699998527765274,0.020899999886751175,0.08969999849796295,0,0,-0.06099999926066736
-0.1465921849012375,-0.08866208046674728,9.917109489440918,0.007799999788403511,0.010900000110268593,0.09950000047683716,0.06099999926066736,0,-0.06099999926066736
-0.15465585887432098,-0.10140880942344666,9.92481803894043,-0.0018999999156221747,0.0008999999845400453,0.10929999500513077,0,0.06099999926066736,-0.12199999852133472
-0.16745047271251678,-0.10750923305749893,9.928955078125,-0.011500000022351742,-0.008700000122189522,0.10929999500513077,-0.06099999926066736,0.06099999926066736,-0.06099999926066736
-0.13312719762325287,-0.09828676283359528,9.921581268310547,0.02759999968111515,0.0011999999405816197,0.10929999500513077,0.06099999926066736,-0.12199999852133472,0.06099999926066736
-0.1167125478386879,-0.10896490514278412,9.935774803161621,0.03689999878406525,-0.008700000122189522,0.11909999698400497,0.12199999852133472,-0.12199999852133472,0.06099999926066736
-0.16150327026844025,-0.09543287754058838,9.877556800842285,-0.0026000000070780516,0.010400000028312206,0.06030000001192093,0,0.06099999926066736,-0.12199999852133472
-0.1368429809808731,-0.10597694665193558,9.896097183227539,0.016899999231100082,-0.009099999442696571,0.07989999651908875,0.06099999926066736,0.06099999926066736,0.12199999852133472
-0.13692918419837952,-0.06667372584342957,9.920393943786621,0.016999999061226845,0.039400000125169754,0.09950000047683716,-0.06099999926066736,0.06099999926066736,-0.06099999926066736
-0.14543339610099792,-0.0898112952709198,9.91756820678711,0.0072999997064471245,0.010099999606609344,0.09950000047683716,0.12199999852133472,0,-0.06099999926066736
-0.15319059789180756,-0.08931329846382141,9.907896041870117,0.007199999876320362,0.00969999935477972,0.08969999849796295,0.06099999926066736,0.1830000044521087,0
-0.15514427423477173,-0.09188945591449738,9.891347885131836,-0.001999999862164259,0.009399999864399433,0.07009999454021454,-0.06099999926066736,0,0.12199999852133472
-0.13688130676746368,-0.09917741268873215,9.88912582397461,0.017400000244379044,-0.00009999999747378752,0.07009999454021454,0,0.06099999926066736,0.12199999852133472
-0.16981592774391174,-0.11887689679861069,9.878572463989258,-0.011699999682605267,-0.019500000402331352,0.06030000001192093,-0.06099999926066736,0.24399999704266945,0.12199999852133472
-0.15883134305477142,-0.09768342226743698,9.900378227233887,-0.0011999999405816197,0.00009999999747378752,0.07989999651908875,-0.06099999926066736,0.06099999926066736,-0.06099999926066736
-0.14597927033901215,-0.1320928931236267,9.896719932556152,0.008700000122189522,-0.028999999165534973,0.07989999651908875,0,0,0
-0.17469052970409393,-0.1186087504029274,9.931483268737793,-0.020600000396370888,-0.019199999049305916,0.11909999698400497,0,0,0.06099999926066736
-0.13617262244224548,-0.10930966585874557,9.908661842346191,0.01850000023841858,-0.009399999864399433,0.08969999849796295,0,-0.06099999926066736,0
-0.13497550785541534,-0.10211749374866486,9.903308868408203,0.018299998715519905,0.00029999998514540493,0.08969999849796295,0.06099999926066736,0,0
-0.14754986763000488,-0.10561302304267883,9.900129318237305,0.008499999530613422,-0.009499999694526196,0.07989999651908875,0.24399999704266945,0.06099999926066736,0
-0.16008590161800385,-0.11923124641180038,9.943473815917969,-0.0009999999310821295,-0.019999999552965164,0.12889999151229858,0,-0.06099999926066736,0.06099999926066736
-0.1377815306186676,-0.08868122845888138,9.896719932556152,0.018299998715519905,0.00930000003427267,0.07989999651908875,0.12199999852133472,0.12199999852133472,0.06099999926066736
-0.1464293897151947,-0.09204268455505371,9.92585277557373,0.008799999952316284,0.008899999782443047,0.10929999500513077,0,0,0.06099999926066736
-0.1520126461982727,-0.10610143840312958,9.891117095947266,0.008799999952316284,-0.010599999688565731,0.07009999454021454,0.06099999926066736,0.12199999852133472,0.06099999926066736
-0.11828314512968063,-0.09310571104288101,9.88948917388916,0.03849999979138374,0.008799999952316284,0.07009999454021454,0,0,0
-0.14610375463962555,-0.09391974657773972,9.892525672912598,0.03839999809861183,-0.010699999518692493,0.08969999849796295,0,0.1830000044521087,0
-0.14911088347434998,-0.09184157848358154,9.895015716552734,0.009499999694526196,0.008599999360740185,0.07989999651908875,-0.06099999926066736,0.12199999852133472,0.06099999926066736
-0.13902650773525238,-0.11749783903360367,9.89930534362793,0.019600000232458115,-0.020499998703598976,0.07989999651908875,0.06099999926066736,0.12199999852133472,-0.06099999926066736
-0.14356592297554016,-0.11057381331920624,9.9052152633667,0.019899999722838402,-0.010900000110268593,0.08969999849796295,0.06099999926066736,0,0
-0.1423017680644989,-0.08584649860858917,9.915825843811035,0.019899999722838402,0.018299998715519905,0.09950000047683716,0.06099999926066736,0.06099999926066736,0.12199999852133472
-0.14906300604343414,-0.1286548227071762,9.905914306640625,0.010199999436736107,-0.03059999831020832,0.08969999849796295,0.06099999926066736,0.06099999926066736,0
-0.16300684213638306,-0.10387004911899567,9.9245023727417,-0.009099999442696571,-0.0013000000035390258,0.10929999500513077,0,0.06099999926066736,0.06099999926066736
-0.1571362465620041,-0.0948965772986412,9.908058166503906,0.000699999975040555,0.008299999870359898,0.08969999849796295,0.06099999926066736,0,0
-0.1369483321905136,-0.08850885182619095,9.900368690490723,0.020099999383091927,0.007999999448657036,0.07989999651908875,0,0.12199999852133472,-0.12199999852133472
-0.13525323569774628,-0.09712797403335571,9.941749572753906,0.02029999904334545,-0.0016999999061226845,0.12889999151229858,0,0.1830000044521087,-0.06099999926066736
-0.15976986289024353,-0.10957781970500946,9.8955717086792,0.0011999999405816197,-0.011399999260902405,0.07989999651908875,0.06099999926066736,0.06099999926066736,-0.12199999852133472
-0.14914917945861816,-0.10552683472633362,9.916352272033691,0.010999999940395355,-0.011399999260902405,0.09950000047683716,-0.06099999926066736,0,0
-0.14460019767284393,-0.09329725056886673,9.906556129455566,0.010900000110268593,0.008200000040233135,0.08969999849796295,-0.12199999852133472,0.06099999926066736,-0.12199999852133472
-0.1533438265323639,-0.1137341558933258,9.91287612915039,0.0011999999405816197,-0.010900000110268593,0.09950000047683716,0.1830000044521087,0,0
-0.15030798316001892,-0.09615113586187363,9.902657508850098,0.010900000110268593,-0.0015999999595806003,0.08969999849796295,0,0.1830000044521087,0
-0.1557188779115677,-0.08096232265233994,9.91032886505127,0.0015999999595806003,0.01769999973475933,0.08969999849796295,-0.06099999926066736,0.12199999852133472,0
-0.14816278219223022,-0.1271321177482605,9.914101600646973,0.011599999852478504,-0.030799999833106995,0.09950000047683716,-0.06099999926066736,0.12199999852133472,-0.06099999926066736
-0.14474384486675262,-0.12515929341316223,9.930880546569824,0.011899999342858791,-0.030399998649954796,0.10929999500513077,0,0.12199999852133472,0.06099999926066736
-0.1463240385055542,-0.07765832543373108,9.89096450805664,0.012000000104308128,0.018299998715519905,0.07009999454021454,0,0.12199999852133472,-0.06099999926066736
-0.1401565670967102,-0.07905653864145279,9.904908180236816,0.021900000050663948,0.018199998885393143,0.08969999849796295,0.06099999926066736,0.12199999852133472,0.1830000044521087
-0.1576821357011795,-0.11709561944007874,9.912914276123047,0.0026000000070780516,-0.020999999716877937,0.09950000047683716,0.06099999926066736,0,0.12199999852133472
-0.1337401121854782,-0.10493307560682297,9.922558784484863,0.03179999813437462,-0.001500000013038516,0.10929999500513077,-0.06099999926066736,0.12199999852133472,0
-0.16106274724006653,-0.10198341310024261,9.92019271850586,0.002699999837204814,-0.0013000000035390258,0.09950000047683716,-0.06099999926066736,0.06099999926066736,0
-0.1441117823123932,-0.09038589894771576,9.91762638092041,0.01249999925494194,0.00839999970048666,0.09950000047683716,0.06099999926066736,0,0.06099999926066736
-0.16402196884155273,-0.11899182200431824,9.900522232055664,-0.006899999920278788,-0.020600000396370888,0.07989999651908875,0,0.06099999926066736,0.12199999852133472
-0.1508251279592514,-0.09368032217025757,9.899842262268066,0.012600000016391277,0.008599999360740185,0.07989999651908875,0.12199999852133472,0,0
-0.1597411334514618,-0.128568634390831,9.932575225830078,0.00279999990016222,-0.03059999831020832,0.11919999867677689,-0.06099999926066736,-0.06099999926066736,0.06099999926066736
-0.1391988843679428,-0.11732546240091324,9.913192749023438,0.02199999988079071,-0.020499998703598976,0.09950000047683716,-0.12199999852133472,0.06099999926066736,-0.06099999926066736
-0.14877569675445557,-0.10472238063812256,9.905195236206055,0.012299999594688416,-0.0004999999655410647,0.08969999849796295,-0.06099999926066736,-0.06099999926066736,0
-0.14320199191570282,-0.1007096990942955,9.909504890441895,0.021699998527765274,-0.00029999998514540493,0.08969999849796295,0.06099999926066736,0.06099999926066736,0
-0.17298585176467896,-0.10241437703371048,9.903816223144531,-0.017099998891353607,-0.0004999999655410647,0.08969999849796295,0.06099999926066736,0,-0.06099999926066736
-0.14296257495880127,-0.09399636089801788,9.903949737548828,0.021800000220537186,0.008899999782443047,0.08969999849796295,-0.06099999926066736,0.24399999704266945,-0.06099999926066736
-0.1420336216688156,-0.12203724682331085,9.910913467407227,0.022499999031424522,-0.02019999921321869,0.08969999849796295,0,0.12199999852133472,0.12199999852133472
-0.14693695306777954,-0.12311942875385284,9.920297622680664,0.012999999336898327,-0.02019999921321869,0.09959999471902847,0,0,-0.06099999926066736
-0.16875290870666504,-0.10744219273328781,9.898759841918945,-0.0064999996684491634,-0.010400000028312206,0.07989999651908875,0,0,-0.12199999852133472
-0.16254714131355286,-0.09207142144441605,9.91616153717041,0.0031999999191612005,0.009099999442696571,0.09959999471902847,-0.06099999926066736,0.06099999926066736,0
-0.12766841053962708,-0.13010092079639435,9.927854537963867,0.03269999846816063,0.019099999219179153,0.08980000019073486,0,0.1830000044521087,0.06099999926066736
-0.13426682353019714,-0.11405976861715317,9.916601181030273,0.03269999846816063,-0.029999999329447746,0.10939999669790268,0,0.1830000044521087,0.06099999926066736
-0.15335340797901154,-0.12797486782073975,9.890877723693848,0.02329999953508377,-0.010400000028312206,0.09959999471902847,0.06099999926066736,0.06099999926066736,0
-0.14224430918693542,-0.09647675603628159,9.901776313781738,0.023799998685717583,-0.0008999999845400453,0.07999999821186066,0.06099999926066736,0.06099999926066736,-0.06099999926066736
-0.15083469450473785,-0.10403285175561905,9.876006126403809,0.014099999330937862,-0.0009999999310821295,0.06030000001192093,0.12199999852133472,0.12199999852133472,0.06099999926066736
-0.13680468499660492,-0.08955271542072296,9.885783195495605,0.02419999986886978,0.008299999870359898,0.07019999623298645,0.12199999852133472,0.12199999852133472,-0.06099999926066736
-0.1425699144601822,-0.10440634936094284,9.885812759399414,0.02419999986886978,-0.0016999999061226845,0.07019999623298645,0.06099999926066736,0.06099999926066736,-0.12199999852133472
-0.15881218016147614,-0.09672574698925018,9.912895202636719,0.02419999986886978,-0.0016999999061226845,0.07019999623298645,0.06099999926066736,0.06099999926066736,0.06099999926066736
-0.14568239450454712,-0.08198704570531845,9.898674011230469,0.004699999932199717,-0.0017999999690800905,0.09959999471902847,0,0,0.12199999852133472
-0.14494498074054718,-0.08373960107564926,9.892860412597656,0.014299999922513962,0.017099998891353607,0.07999999821186066,0,0.1830000044521087,-0.12199999852133472
-0.13594278693199158,-0.09993397444486618,9.902993202209473,0.024399999529123306,-0.0023999998811632395,0.08980000019073486,-0.12199999852133472,0.24399999704266945,0
-0.1670961230993271,-0.09817184507846832,9.946596145629883,-0.004299999680370092,-0.002099999925121665,0.1289999932050705,0,0,-0.06099999926066736
-0.16405069828033447,-0.10842860490083694,9.890447616577148,-0.004299999680370092,-0.011899999342858791,0.07019999623298645,0,0.12199999852133472,0.06099999926066736
-0.1407599002122879,-0.12272677570581436,9.89771556854248,0.02539999969303608,-0.021699998527765274,0.07999999821186066,0.06099999926066736,0,0
-0.15008772909641266,-0.10267294198274612,9.895044326782227,0.01549999974668026,-0.002199999988079071,0.07999999821186066,0.12199999852133472,0.12199999852133472,0.06099999926066736
-0.14875654876232147,-0.09374736249446869,9.944690704345703,0.015799999237060547,0.007199999876320362,0.1289999932050705,0.12199999852133472,0.12199999852133472,0
-0.1413249373435974,-0.09035716950893402,9.927892684936523,0.025999998673796654,0.006799999624490738,0.10939999669790268,0,0.06099999926066736,-0.06099999926066736
-0.14929284155368805,-0.11251790821552277,9.921821594238281,0.016300000250339508,-0.01269999984651804,0.10939999669790268,0.12199999852133472,0.12199999852133472,-0.12199999852133472
-0.1484500914812088,-0.09624691307544708,9.928601264953613,0.016599999740719795,-0.0031999999191612005,0.10939999669790268,0.06099999926066736,0.06099999926066736,0.1830000044521087
-0.14495454728603363,-0.1054406464099884,9.916007995605469,0.016699999570846558,-0.013199999928474426,0.09959999471902847,0.06099999926066736,0.12199999852133472,0.06099999926066736
-0.1665598303079605,-0.12658622860908508,9.928505897521973,-0.0023999998811632395,-0.032899998128414154,0.10939999669790268,0.06099999926066736,0,0.06099999926066736
-0.14326903223991394,-0.1131499707698822,9.892850875854492,0.026799999177455902,-0.013499999418854713,0.07999999821186066,0.06099999926066736,0.06099999926066736,0.06099999926066736
-0.13041695952415466,-0.0983346551656723,9.917089462280273,0.036399997770786285,-0.0037999998312443495,0.09959999471902847,0,0,-0.06099999926066736
-0.14533761143684387,-0.10816045105457306,9.872040748596191,0.016499999910593033,-0.013399999588727951,0.050599999725818634,0.12199999852133472,0.12199999852133472,-0.06099999926066736
-0.1640123873949051,-0.08954314142465591,9.926274299621582,-0.002699999837204814,0.005799999926239252,0.10939999669790268,0,-0.12199999852133472,-0.06099999926066736
-0.1570308953523636,-0.11677958071231842,9.894757270812988,0.006599999964237213,-0.02329999953508377,0.07999999821186066,0,0.12199999852133472,-0.06099999926066736
-0.15946340560913086,-0.11621455103158951,9.938024520874023,0.006899999920278788,-0.023099999874830246,0.11919999867677689,-0.06099999926066736,-0.06099999926066736,0
-0.1397830694913864,-0.0931440219283104,9.929999351501465,0.026099998503923416,0.006300000008195639,0.10939999669790268,0,0.06099999926066736,-0.12199999852133472
-0.13522452116012573,-0.07986099272966385,9.901823997497559,0.02589999884366989,0.01589999906718731,0.07999999821186066,0,0.12199999852133472,0.06099999926066736
-0.15253938734531403,-0.09051039814949036,9.893292427062988,0.01589999906718731,0.006099999882280827,0.07999999821186066,-0.06099999926066736,0.06099999926066736,0
-0.1659086048603058,-0.10409989207983017,9.90268611907959,-0.003499999875202775,-0.003399999812245369,0.08980000019073486,0.06099999926066736,0.06099999926066736,-0.06099999926066736
-0.1525106579065323,-0.1027304083108902,9.916659355163574,0.016099998727440834,-0.003599999938160181,0.09959999471902847,-0.06099999926066736,0.06099999926066736,0.06099999926066736
-0.1630355566740036,-0.09207142144441605,9.887861251831055,-0.0032999999821186066,0.006199999712407589,0.07019999623298645,0,0,-0.12199999852133472
-0.1586398035287857,-0.08049306273460388,9.893876075744629,0.006300000008195639,0.015799999237060547,0.07999999821186066,-0.06099999926066736,0.06099999926066736,0.1830000044521087
-0.17209520936012268,-0.11442369222640991,9.910271644592285,-0.0031999999191612005,-0.013199999928474426,0.08980000019073486,0,0.12199999852133472,-0.06099999926066736
-0.1623460203409195,-0.06466259807348251,9.89771556854248,0.006799999624490738,0.03529999777674675,0.07999999821186066,0.1830000044521087,0.06099999926066736,0.12199999852133472
-0.15994223952293396,-0.1192120909690857,9.90905475616455,0.006899999920278788,-0.02369999885559082,0.08980000019073486,0,0.06099999926066736,0.06099999926066736
-0.15579548478126526,-0.08898768573999405,9.918909072875977,0.006899999920278788,0.00559999980032444,0.09959999471902847,-0.06099999926066736,0.12199999852133472,0.06099999926066736
-0.15519215166568756,-0.10273998230695724,9.887986183166504,0.007199999876320362,-0.0038999998942017555,0.07019999623298645,-0.12199999852133472,0.06099999926066736,0.06099999926066736
-0.14102806150913239,-0.07469909638166428,9.893837928771973,0.026599999517202377,0.02539999969303608,0.07999999821186066,-0.06099999926066736,0,0.06099999926066736
-0.1613883525133133,-0.09953175485134125,9.891490936279297,0.006899999920278788,-0.003700000001117587,0.07019999623298645,0,0.06099999926066736,0
-0.1597411334514618,-0.09894756972789764,9.925833702087402,0.00699999975040555,-0.003700000001117587,0.10939999669790268,-0.06099999926066736,0.06099999926066736,-0.12199999852133472
-0.15783536434173584,-0.09421662986278534,9.913527488708496,0.0071000000461936,0.006099999882280827,0.09959999471902847,0,0.06099999926066736,-0.06099999926066736
-0.17321570217609406,-0.12140518426895142,9.862483024597168,-0.01209999993443489,-0.02279999852180481,0.04079999774694443,0.12199999852133472,0.06099999926066736,0.12199999852133472
-0.1564275622367859,-0.092646025121212,9.895819664001465,0.007499999832361937,0.006099999882280827,0.07999999821186066,0,0.06099999926066736,0.06099999926066736
-0.16681841015815735,-0.12607866525650024,9.893692970275879,-0.001999999862164259,-0.032600000500679016,0.07999999821186066,0.06099999926066736,0,0
-0.13535858690738678,-0.10372639447450638,9.893645286560059,0.026999998837709427,-0.003399999812245369,0.07999999821186066,-0.06099999926066736,0.06099999926066736,0.06099999926066736
-0.1564275622367859,-0.08393114060163498,9.881847381591797,0.007400000002235174,0.016099998727440834,0.06039999797940254,0,0.06099999926066736,0.12199999852133472
-0.17586848139762878,-0.13016794621944427,9.909160614013672,-0.011799999512732029,-0.032499998807907104,0.08980000019073486,0.06099999926066736,0.1830000044521087,-0.12199999852133472
-0.1449258178472519,-0.09287586808204651,9.918498039245605,0.017799999564886093,0.006399999838322401,0.09959999471902847,-0.06099999926066736,0.06099999926066736,0
-0.1380305141210556,-0.09437943249940872,9.886606216430664,0.027499999850988388,0.006399999838322401,0.07019999623298645,0,0.12199999852133472,0
-0.13680468499660492,-0.1275918036699295,9.915145874023438,0.027499999850988388,-0.03240000084042549,0.09959999471902847,0,0.06099999926066736,-0.06099999926066736
-0.15798859298229218,-0.09825804084539413,9.889785766601562,0.007999999448657036,-0.002899999963119626,0.07019999623298645,0,0,0
-0.14874696731567383,-0.09232041984796524,9.903960227966309,0.01759999990463257,0.0066999997943639755,0.08980000019073486,-0.12199999852133472,0.12199999852133472,0
-0.14548127353191376,-0.14993450045585632,9.922979354858398,0.01769999973475933,-0.05130000039935112,0.10939999669790268,0.06099999926066736,0.06099999926066736,0.06099999926066736
-0.16921259462833405,-0.09424535185098648,9.905884742736816,-0.0015999999595806003,0.007199999876320362,0.08980000019073486,-0.06099999926066736,0.06099999926066736,0
-0.1535736620426178,-0.08095274865627289,9.909783363342285,0.008200000040233135,0.016999999061226845,0.08980000019073486,0.06099999926066736,0,0
-0.1495131105184555,-0.09994355589151382,9.90792465209961,0.017799999564886093,-0.002699999837204814,0.08980000019073486,0.06099999926066736,0.06099999926066736,0
-0.15521129965782166,-0.1164635494351387,9.917731285095215,0.007999999448657036,-0.02239999920129776,0.09959999471902847,0,0,-0.06099999926066736
-0.14319241046905518,-0.11155064404010773,9.884537696838379,0.027300000190734863,-0.01249999925494194,0.07019999623298645,0,-0.06099999926066736,0
-0.1406162530183792,-0.08551130443811417,9.88709545135498,0.026799999177455902,0.016599999740719795,0.07019999623298645,0.06099999926066736,0,-0.12199999852133472
-0.15719370543956757,-0.09424535185098648,9.91528034210205,0.0071000000461936,0.006599999964237213,0.09959999471902847,0.06099999926066736,0.06099999926066736,0
-0.14658261835575104,-0.09198523312807083,9.932202339172363,0.016899999231100082,0.006399999838322401,0.11919999867677689,0,0.06099999926066736,0
-0.15598702430725098,-0.1313842236995697,9.88687515258789,0.007199999876320362,-0.03240000084042549,0.07019999623298645,0.12199999852133472,0.06099999926066736,0.06099999926066736
-0.15329594910144806,-0.09874644875526428,9.91028118133545,0.007199999876320362,-0.0032999999821186066,0.08980000019073486,-0.06099999926066736,0.06099999926066736,-0.12199999852133472
-0.14021404087543488,-0.07920976728200912,9.90873908996582,0.02669999934732914,0.016200000420212746,0.08980000019073486,0,0.06099999926066736,0.06099999926066736
-0.15033671259880066,-0.09629479050636292,9.912378311157227,0.016899999231100082,-0.0032999999821186066,0.09959999471902847,0.06099999926066736,0.12199999852133472,0.12199999852133472
-0.10784441977739334,-0.06557239592075348,9.902504920959473,0.05590000003576279,0.03529999777674675,0.08980000019073486,-0.12199999852133472,0.06099999926066736,-0.06099999926066736
-0.13867215812206268,-0.09180326759815216,9.892831802368164,0.02630000002682209,0.006199999712407589,0.07019999623298645,-0.12199999852133472,-0.06099999926066736,0
-0.15825672447681427,-0.08522401005029678,9.879961013793945,0.006399999838322401,0.016099998727440834,0.06039999797940254,0.06099999926066736,0,0.12199999852133472
-0.12820471823215485,-0.10927136242389679,9.890045166015625,0.03539999946951866,-0.013299999758601189,0.07019999623298645,-0.06099999926066736,0.1830000044521087,-0.06099999926066736
-0.13943830132484436,-0.12008357793092728,9.868056297302246,0.025699999183416367,-0.022499999031424522,0.050599999725818634,0.06099999926066736,0.12199999852133472,0.12199999852133472
-0.14814363420009613,-0.11057381331920624,9.903854370117188,0.01599999889731407,-0.012799999676644802,0.08980000019073486,0.1830000044521087,0.06099999926066736,0.06099999926066736
-0.1426369696855545,-0.09635225683450699,9.880535125732422,0.025599999353289604,-0.003499999875202775,0.06039999797940254,0.06099999926066736,-0.06099999926066736,-0.06099999926066736
-0.1419665813446045,-0.08896853774785995,9.894248962402344,0.025200000032782555,0.006000000052154064,0.07999999821186066,0,0,-0.06099999926066736
-0.15400461852550507,-0.11280520260334015,9.903031349182129,0.005499999970197678,-0.013399999588727951,0.08980000019073486,0,0.06099999926066736,0
-0.13181516528129578,-0.11491210013628006,9.897562026977539,0.034699998795986176,-0.013199999928474426,0.07999999821186066,0.06099999926066736,0,0
-0.15240530669689178,-0.09634267538785934,9.892525672912598,0.01489999983459711,-0.003599999938160181,0.07009999454021454,0.06099999926066736,0.12199999852133472,-0.06099999926066736
-0.15279795229434967,-0.1396968811750412,9.900435447692871,0.014999999664723873,-0.042500000447034836,0.07999999821186066,0,0,0.06099999926066736
-0.1528266817331314,-0.12087845802307129,9.89238166809082,0.014800000004470348,-0.022599998861551285,0.07009999454021454,-0.06099999926066736,0.12199999852133472,0
-0.14173674583435059,-0.09968498349189758,9.906746864318848,0.024699999019503593,-0.00279999990016222,0.08980000019073486,-0.12199999852133472,0.06099999926066736,0.12199999852133472
-0.15008772909641266,-0.10182061046361923,9.898520469665527,0.01489999983459711,-0.0024999999441206455,0.07999999821186066,0.12199999852133472,0.06099999926066736,0.06099999926066736
-0.13841359317302704,-0.0983346551656723,9.892324447631836,0.02459999918937683,-0.00279999990016222,0.07009999454021454,0,0.12199999852133472,0
-0.148948073387146,-0.10571836680173874,9.905052185058594,0.03439999744296074,0.006899999920278788,0.10939999669790268,0.06099999926066736,0.12199999852133472,-0.06099999926066736
-0.14302003383636475,-0.10560344904661179,9.931628227233887,0.024699999019503593,-0.012899999506771564,0.11919999867677689,-0.06099999926066736,-0.06099999926066736,0
-0.1581992655992508,-0.10576625168323517,9.900837898254395,0.004900000058114529,-0.012600000016391277,0.07999999821186066,0,0.06099999926066736,0
-0.16677050292491913,-0.10447338968515396,9.903223037719727,-0.004600000102072954,-0.00279999990016222,0.08980000019073486,-0.12199999852133472,0,0.06099999926066736
-0.15360240638256073,-0.1223820149898529,9.914226531982422,0.004999999888241291,-0.021900000050663948,0.09959999471902847,-0.12199999852133472,0.12199999852133472,0
-0.1517636626958847,-0.11774684488773346,9.889030456542969,0.014999999664723873,-0.021299999207258224,0.07019999623298645,0.12199999852133472,0.12199999852133472,-0.06099999926066736
-0.12939223647117615,-0.11369584500789642,9.900263786315918,0.03449999913573265,-0.011699999682605267,0.07999999821186066,0,0.12199999852133472,0
-0.12416329979896545,-0.12724703550338745,9.90011978149414,0.044199999421834946,-0.03099999949336052,0.07999999821186066,0.06099999926066736,0.06099999926066736,-0.12199999852133472
-0.14445656538009644,-0.09009859710931778,9.878935813903809,0.014699999243021011,0.007799999788403511,0.06030000001192093,0.12199999852133472,0.12199999852133472,0.06099999926066736
-0.1606796532869339,-0.11578359454870224,9.896672248840332,0.005200000014156103,-0.02159999869763851,0.07999999821186066,0.3049999896332302,-0.06099999926066736,0.1830000044521087
-0.16121597588062286,-0.10259632766246796,9.93997859954834,0.004999999888241291,-0.00279999990016222,0.11919999867677689,0,0.12199999852133472,0.06099999926066736
-0.13297396898269653,-0.1182544082403183,9.917252540588379,0.034699998795986176,-0.02239999920129776,0.09959999471902847,-0.06099999926066736,0.06099999926066736,0
-0.1798332780599594,-0.06792829185724258,9.937862396240234,-0.0139999995008111,0.02669999934732914,0.11919999867677689,0,0.12199999852133472,0
-0.1374654918909073,-0.08379705995321274,9.870211601257324,0.02539999969303608,0.01679999940097332,0.05049999803304672,-0.06099999926066736,0.12199999852133472,0.06099999926066736
-0.13612473011016846,-0.0979803055524826,9.918813705444336,0.025699999183416367,-0.0024999999441206455,0.09959999471902847,-0.06099999926066736,0.12199999852133472,0
-0.11660720407962799,-0.10371682047843933,9.906545639038086,0.04559999704360962,-0.0023999998811632395,0.08980000019073486,-0.12199999852133472,0,0.06099999926066736
-0.1690976768732071,-0.11654016375541687,9.909706115722656,-0.0032999999821186066,-0.02159999869763851,0.08980000019073486,-0.06099999926066736,0.24399999704266945,0
-0.16673220694065094,-0.10142796486616135,9.919148445129395,-0.002699999837204814,-0.0018999999156221747,0.09959999471902847,-0.12199999852133472,0,0
-0.1616181880235672,-0.08562622964382172,9.912492752075195,0.00699999975040555,0.017999999225139618,0.09959999471902847,0.06099999926066736,0.1830000044521087,0.06099999926066736
-0.14464809000492096,-0.08644026517868042,9.896116256713867,0.01730000041425228,0.007999999448657036,0.07999999821186066,0.12199999852133472,0.06099999926066736,0.06099999926066736
-0.1558912694454193,-0.0845823585987091,9.889039039611816,0.007699999958276749,0.017400000244379044,0.07019999623298645,0,0.12199999852133472,-0.12199999852133472
-0.15368859469890594,-0.09196607023477554,9.892449378967285,0.007999999448657036,0.007599999662488699,0.07019999623298645,-0.12199999852133472,0.06099999926066736,0
-0.14514608681201935,-0.0902901366353035,9.901086807250977,0.017899999395012856,0.007899999618530273,0.07999999821186066,0.12199999852133472,0.1830000044521087,0.12199999852133472
-0.1540141999721527,-0.0976451188325882,9.893817901611328,0.008599999360740185,-0.002099999925121665,0.07999999821186066,0.06099999926066736,0.06099999926066736,0.12199999852133472
-0.14390109479427338,-0.0767868310213089,9.920910835266113,0.01860000006854534,0.01719999872148037,0.09959999471902847,0.12199999852133472,0.1830000044521087,0
-0.13559800386428833,-0.09942640364170074,9.910194396972656,0.02889999933540821,0.00699999975040555,0.10939999669790268,0.06099999926066736,0.06099999926066736,0
-0.17043842375278473,-0.09875603765249252,9.907341003417969,0,-0.00279999990016222,0.08980000019073486,0.06099999926066736,0.12199999852133472,-0.06099999926066736
-0.15719370543956757,-0.07799351215362549,9.91572093963623,0.009999999776482582,0.016499999910593033,0.09959999471902847,0.06099999926066736,0.06099999926066736,0
-0.1346977800130844,-0.07625053077936172,9.904802322387695,0.02979999966919422,0.026099998503923416,0.08980000019073486,-0.06099999926066736,0,-0.06099999926066736
-0.1490725725889206,-0.08681374788284302,9.896261215209961,0.019899999722838402,0.0066999997943639755,0.07999999821186066,0,0,0
-0.15492399036884308,-0.09705135971307755,9.91064453125,0.010099999606609344,-0.0030999998562037945,0.08980000019073486,0.06099999926066736,0.06099999926066736,0
-0.14101848006248474,-0.1039179340004921,9.883705139160156,0.02979999966919422,-0.0031999999191612005,0.07019999623298645,0.06099999926066736,0,0
-0.1672685146331787,-0.11867579072713852,9.898357391357422,0.00039999998989515007,-0.023000000044703484,0.07999999821186066,-0.06099999926066736,0,0.06099999926066736
-0.15587210655212402,-0.10850521922111511,9.913833618164062,0.010099999606609344,-0.012899999506771564,0.09959999471902847,0.06099999926066736,0,0.06099999926066736
-0.15088258683681488,-0.11155064404010773,9.87766170501709,0.019600000232458115,-0.012799999676644802,0.06039999797940254,-0.06099999926066736,0.12199999852133472,-0.06099999926066736
-0.1458835005760193,-0.09326852113008499,9.91500186920166,0.019700000062584877,0.006799999624490738,0.09959999471902847,0,0.06099999926066736,-0.06099999926066736
-0.1105642318725586,-0.11987289786338806,9.901948928833008,0.05829999968409538,-0.022299999371170998,0.07999999821186066,0,0.12199999852133472,0
-0.12005484849214554,-0.10576625168323517,9.911975860595703,0.04829999804496765,-0.012299999594688416,0.08980000019073486,0,0.06099999926066736,0.06099999926066736
-0.15362155437469482,-0.10813172906637192,9.92335319519043,0.009099999442696571,-0.012199999764561653,0.10939999669790268,0,-0.06099999926066736,-0.1830000044521087
-0.1316140592098236,-0.08645941317081451,9.883475303649902,0.018400000408291817,0.026499999687075615,0.06039999797940254,-0.12199999852133472,0,0.06099999926066736
-0.1316140592098236,-0.08645941317081451,9.883475303649902,0.03720000013709068,0.006599999964237213,0.07019999623298645,-0.12199999852133472,0,0.06099999926066736
-0.15242445468902588,-0.08124962449073792,9.886520385742188,0.01730000041425228,0.016499999910593033,0.07019999623298645,-0.1830000044521087,0,0.06099999926066736
-0.1626620590686798,-0.0839981660246849,9.889383316040039,0.007400000002235174,0.01679999940097332,0.07019999623298645,0.1830000044521087,0.12199999852133472,-0.06099999926066736
-0.1489097774028778,-0.12203724682331085,9.941577911376953,0.017400000244379044,-0.022699998691678047,0.1289999932050705,-0.06099999926066736,0.12199999852133472,0.06099999926066736
-0.14451400935649872,-0.08586564660072327,9.944670677185059,0.01759999990463257,0.016499999910593033,0.1289999932050705,0.06099999926066736,-0.06099999926066736,-0.06099999926066736
-0.16497965157032013,-0.09957963228225708,9.896797180175781,-0.002099999925121665,-0.0031999999191612005,0.07999999821186066,0.24399999704266945,0.12199999852133472,0
-0.15099751949310303,-0.09282799065113068,9.908403396606445,0.017799999564886093,0.005799999926239252,0.08980000019073486,-0.1830000044521087,0,0
-0.13481271266937256,-0.1193174347281456,9.879759788513184,-0.0017999999690800905,-0.013100000098347664,0.08980000019073486,0,0,0.06099999926066736
-0.13250470161437988,-0.10592906177043915,9.90028190612793,0.027499999850988388,-0.02290000021457672,0.06039999797940254,0,0.06099999926066736,0
-0.1587451547384262,-0.1275918036699295,9.892505645751953,0.03720000013709068,-0.013100000098347664,0.07999999821186066,0.06099999926066736,-0.06099999926066736,0
-0.14687947928905487,-0.09400593489408493,9.91789436340332,0.01759999990463257,0.006300000008195639,0.09959999471902847,0.06099999926066736,0,-0.06099999926066736
-0.14098018407821655,-0.09146808087825775,9.914657592773438,0.027400000020861626,0.006099999882280827,0.09959999471902847,0,0.12199999852133472,-0.06099999926066736
-0.1378198266029358,-0.11026735603809357,9.901365280151367,0.027699999511241913,-0.013399999588727951,0.07999999821186066,0.1830000044521087,0,0
-0.1395532190799713,-0.10039366781711578,9.924646377563477,0.02759999968111515,-0.003999999724328518,0.10939999669790268,0.06099999926066736,0.12199999852133472,0.12199999852133472
-0.14758816361427307,-0.0995413288474083,9.93451976776123,0.01809999905526638,-0.00419999985024333,0.11919999867677689,-0.06099999926066736,0,-0.06099999926066736
-0.18060898780822754,-0.1195664256811142,9.892026901245117,-0.01119999960064888,-0.023599999025464058,0.07019999623298645,-0.06099999926066736,0,-0.06099999926066736
-0.1611585021018982,-0.0749959722161293,9.906756401062012,0.008200000040233135,0.025200000032782555,0.08980000019073486,-0.06099999926066736,0,0.06099999926066736
-0.1573277860879898,-0.09529880434274673,9.904601097106934,0.008100000210106373,0.005699999630451202,0.08980000019073486,-0.06099999926066736,0.1830000044521087,0.12199999852133472
-0.12109872698783875,-0.10870634019374847,9.920604705810547,0.04729999974370003,-0.013599999248981476,0.09959999471902847,-0.12199999852133472,0.06099999926066736,0
-0.09457097202539444,-0.11920251697301865,9.907320976257324,0.07599999755620956,-0.02279999852180481,0.08980000019073486,0.06099999926066736,0.06099999926066736,0.06099999926066736
-0.13882538676261902,-0.09043378382921219,9.89620304107666,0.026799999177455902,0.006300000008195639,0.07999999821186066,-0.06099999926066736,0.1830000044521087,0.06099999926066736
-0.14624741673469543,-0.08369170874357224,9.90454387664795,0.01719999872148037,0.016099998727440834,0.08980000019073486,0,-0.06099999926066736,0.06099999926066736
-0.16274826228618622,-0.10557471215724945,9.88868522644043,0.007199999876320362,-0.013100000098347664,0.07019999623298645,-0.12199999852133472,0,-0.12199999852133472
-0.1521371454000473,-0.10123642534017563,9.916677474975586,0.016699999570846558,-0.002899999963119626,0.09959999471902847,0,0.12199999852133472,0.06099999926066736
-0.15607322752475739,-0.10253886878490448,9.903481483459473,0.0071000000461936,-0.002899999963119626,0.08980000019073486,-0.12199999852133472,0,0
-0.13537774980068207,-0.10183975845575333,9.891289710998535,0.02630000002682209,-0.0024999999441206455,0.07019999623298645,0.12199999852133472,0.12199999852133472,-0.06099999926066736
-0.15698301792144775,-0.07469909638166428,9.884528160095215,0.006899999920278788,0.026099998503923416,0.07019999623298645,0.06099999926066736,-0.06099999926066736,0.06099999926066736
-0.1479904055595398,-0.11182837933301926,9.92050838470459,0.01640000008046627,-0.013100000098347664,0.09959999471902847,0,0.1830000044521087,0.06099999926066736
-0.14968548715114594,-0.05891651660203934,9.902983665466309,0.016699999570846558,0.03539999946951866,0.08980000019073486,0,0,0
-0.1448204666376114,-0.09447519481182098,9.915011405944824,0.016499999910593033,0.0058999997563660145,0.09959999471902847,-0.1830000044521087,0.06099999926066736,0.06099999926066736
-0.13855724036693573,-0.08620083332061768,9.92313289642334,0.026200000196695328,0.006399999838322401,0.10939999669790268,0.1830000044521087,0.12199999852133472,0
-0.1602008193731308,-0.0851856991648674,9.91086483001709,0.006899999920278788,0.01549999974668026,0.08980000019073486,0,0,0
-0.13883496820926666,-0.09297163784503937,9.897687911987305,0.026099998503923416,0.00559999980032444,0.07999999821186066,0.12199999852133472,0,-0.06099999926066736
-0.16403153538703918,-0.11581232398748398,9.911965370178223,-0.0031999999191612005,-0.023799998685717583,0.08980000019073486,0,-0.06099999926066736,-0.06099999926066736
-0.15489527583122253,-0.11204864084720612,9.914169311523438,0.006300000008195639,-0.013799999840557575,0.09959999471902847,0.06099999926066736,0,-0.1830000044521087
-0.12812809646129608,-0.10770076513290405,9.90307903289795,0.03529999777674675,-0.013899999670684338,0.08980000019073486,-0.06099999926066736,0.12199999852133472,0
-0.17540879547595978,-0.11747869104146957,9.913909912109375,-0.013199999928474426,-0.02329999953508377,0.09959999471902847,0,0.06099999926066736,0.06099999926066736
-0.130570188164711,-0.09177453815937042,9.906536102294922,0.035499997437000275,0.006000000052154064,0.08980000019073486,0.06099999926066736,0.1830000044521087,0.06099999926066736
-0.13989800214767456,-0.10834241658449173,9.915759086608887,0.02589999884366989,-0.013599999248981476,0.09959999471902847,-0.12199999852133472,0.06099999926066736,0
-0.14080777764320374,-0.11311166733503342,9.899582862854004,0.02579999901354313,-0.013100000098347664,0.07999999821186066,-0.12199999852133472,0.1830000044521087,-0.12199999852133472
-0.1598273366689682,-0.10747092217206955,9.91232967376709,0.0066999997943639755,-0.012799999676644802,0.09959999471902847,-0.06099999926066736,0.1830000044521087,0.06099999926066736
-0.1715780645608902,-0.13144168257713318,9.897687911987305,-0.0024999999441206455,-0.03219999745488167,0.07999999821186066,0.12199999852133472,0.1830000044521087,-0.06099999926066736
-0.13270580768585205,-0.12134771794080734,9.939661979675293,0.03700000047683716,-0.022699998691678047,0.11919999867677689,0.06099999926066736,0.06099999926066736,0.06099999926066736
-0.14154520630836487,-0.09703220427036285,9.90269660949707,0.027400000020861626,-0.0031999999191612005,0.08980000019073486,0,0.12199999852133472,0.12199999852133472
-0.1529703438282013,-0.11215398460626602,9.90797233581543,0.017899999395012856,-0.012999999336898327,0.08980000019073486,0.06099999926066736,0.06099999926066736,-0.06099999926066736
-0.15432065725326538,-0.08673713356256485,9.911162376403809,0.008200000040233135,0.006300000008195639,0.08980000019073486,0.24399999704266945,0.06099999926066736,0.06099999926066736
-0.13224612176418304,-0.09412086009979248,9.933513641357422,0.03779999911785126,0.005699999630451202,0.11919999867677689,-0.06099999926066736,0,-0.06099999926066736
-0.1491396129131317,-0.11067915707826614,9.920805931091309,0.018199998885393143,-0.013700000010430813,0.09959999471902847,0.1830000044521087,0.12199999852133472,0
-0.15593914687633514,-0.07654741406440735,9.930076599121094,0.008700000122189522,0.024899998679757118,0.10939999669790268,0.06099999926066736,0.06099999926066736,-0.06099999926066736
-0.1350521296262741,-0.10399454832077026,9.895503997802734,0.0284000001847744,-0.004600000102072954,0.07999999821186066,0,-0.06099999926066736,0
-0.1515529602766037,-0.10142796486616135,9.890925407409668,0.018400000408291817,-0.004600000102072954,0.07019999623298645,0,0.06099999926066736,-0.06099999926066736
-0.13382630050182343,-0.10988428443670273,9.894670486450195,0.038599997758865356,-0.014299999922513962,0.07999999821186066,0,0.12199999852133472,0.06099999926066736
-0.1369674801826477,-0.07121313363313675,9.909333229064941,0.029099998995661736,0.024699999019503593,0.08980000019073486,0.06099999926066736,0.06099999926066736,0
-0.15054741501808167,-0.08740751445293427,9.898778915405273,0.01939999870955944,0.004999999888241291,0.07999999821186066,0.12199999852133472,0.12199999852133472,0
-0.13991715013980865,-0.09946471452713013,9.927193641662598,0.029500000178813934,-0.0050999997183680534,0.10939999669790268,-0.12199999852133472,0.06099999926066736,0
-0.14711891114711761,-0.09132443368434906,9.925776481628418,0.01979999989271164,0.004999999888241291,0.10939999669790268,0.1830000044521087,0.06099999926066736,0
