Accelerometer_Gx,Accelerometer_Gy,Accelerometer_Gz,Accelerometer_X,Accelerometer_Y,Accelerometer_Z,Gyroscope_Z,Gyroscope_X,Gyroscope_Y
-0.1298423409461975,-0.08926542103290558,9.912483215332031,0.026399999856948853,-0.0007999999797903001,0.09939999878406525,0.06099999926066736,0,-0.06099999926066736
-0.1367184966802597,-0.10105446726083755,9.921504974365234,0.01489999983459711,-0.00989999994635582,0.09939999878406525,-0.12199999852133472,0.06099999926066736,-0.12199999852133472
-0.14296257495880127,-0.11096645891666412,9.887353897094727,0.01249999925494194,-0.01640000008046627,0.06989999860525131,0,0,-0.06099999926066736
-0.13548308610916138,-0.0932493656873703,9.884039878845215,0.009999999776482582,0.0024999999441206455,0.06989999860525131,0.12199999852133472,0,-0.1830000044521087
-0.11987289786338806,-0.08311710506677628,9.911994934082031,0.024799998849630356,0.00989999994635582,0.09919999539852142,0,0.06099999926066736,-0.06099999926066736
-0.11834059655666351,-0.08782889693975449,9.880084991455078,0.01860000006854534,0,0.05989999696612358,0.06099999926066736,0.06099999926066736,0
-0.1396777331829071,-0.08625829964876175,9.894450187683105,-0.0007999999797903001,-0.00019999999494757503,0.0794999971985817,0.06099999926066736,0,0.06099999926066736
-0.12802274525165558,-0.10794977098703384,9.909859657287598,0.00699999975040555,-0.016300000250339508,0.0892999991774559,-0.1830000044521087,0,0
-0.11265197396278381,-0.09671617299318314,9.899680137634277,0.02070000022649765,-0.004799999762326479,0.0794999971985817,0.06099999926066736,0.1830000044521087,-0.06099999926066736
-0.1549910455942154,-0.09758765995502472,9.9005126953125,-0.02199999988079071,-0.004100000020116568,0.07959999889135361,0.06099999926066736,0.06099999926066736,-0.12199999852133472
-0.1443416327238083,-0.08099105954170227,9.916994094848633,-0.009999999776482582,0.012299999594688416,0.09919999539852142,0,0,-0.06099999926066736
-0.12163502722978592,-0.0681389793753624,9.897773742675781,0.014699999243021011,0.016999999061226845,0.0794999971985817,0.06099999926066736,0,-0.06099999926066736
-0.13265793025493622,-0.08819281309843063,9.924051284790039,0.0037999998312443495,-0.002300000051036477,0.10889999568462372,0.1830000044521087,0,-0.06099999926066736
-0.15892711281776428,-0.09484869241714478,9.925125122070312,-0.0210999995470047,-0.0024999999441206455,0.10889999568462372,0,-0.06099999926066736,-0.12199999852133472
-0.1653914451599121,-0.09302909672260284,9.897534370422363,-0.02410000003874302,-0.001999999862164259,0.07959999889135361,0.06099999926066736,0.06099999926066736,-0.06099999926066736
-0.14904384315013885,-0.10033620148897171,9.903587341308594,-0.003700000001117587,-0.009599999524652958,0.08940000087022781,0.1830000044521087,0.1830000044521087,0.06099999926066736
-0.14456190168857574,-0.0848313495516777,9.914484977722168,-0.0037999998312443495,0.008899999782443047,0.09919999539852142,0.12199999852133472,0.12199999852133472,-0.12199999852133472
-0.1338454633951187,-0.11229763925075531,9.899171829223633,0.012199999764561653,-0.016200000420212746,0.07959999889135361,0,0.06099999926066736,0.06099999926066736
-0.13304099440574646,-0.1074613481760025,9.894938468933105,0.00930000003427267,-0.01269999984651804,0.07959999889135361,0,0,-0.06099999926066736
-0.11272858828306198,-0.08395986258983612,9.882067680358887,0.020999999716877937,0.012000000104308128,0.05979999899864197,0,0.06099999926066736,-0.06099999926066736
-0.15300863981246948,-0.11466310918331146,9.877423286437988,-0.0139999995008111,-0.0058999997563660145,0.06969999521970749,0.06099999926066736,0.06099999926066736,-0.06099999926066736
-0.1334240734577179,-0.08059840649366379,9.905529975891113,0.0072999997064471245,0.013799999840557575,0.08940000087022781,0,0.06099999926066736,-0.06099999926066736
-0.14328818023204803,-0.10046070069074631,9.903298377990723,-0.001999999862164259,-0.004699999932199717,0.08940000087022781,0.12199999852133472,0.06099999926066736,-0.06099999926066736
-0.14262737333774567,-0.1125657856464386,9.936483383178711,-0.0017999999690800905,-0.012600000016391277,0.11879999935626984,0.06099999926066736,0,-0.06099999926066736
-0.09842084348201752,-0.08225519210100174,9.929462432861328,0.030299998819828033,0.013299999758601189,0.10889999568462372,0,0.06099999926066736,-0.06099999926066736
-0.1101907417178154,-0.10787315666675568,9.921869277954102,0.016599999740719795,-0.013199999928474426,0.10889999568462372,0.12199999852133472,-0.06099999926066736,-0.06099999926066736
-0.17557159066200256,-0.11961431801319122,9.903088569641113,-0.05209999904036522,-0.02329999953508377,0.08919999748468399,0.06099999926066736,0.12199999852133472,-0.06099999926066736
-0.15694472193717957,-0.09114246815443039,9.920001029968262,-0.032099999487400055,0.005799999926239252,0.09910000115633011,0,0.1830000044521087,0
-0.17672081291675568,-0.11482591181993484,9.909102439880371,-0.05119999870657921,-0.013700000010430813,0.0892999991774559,-0.06099999926066736,0.06099999926066736,-0.06099999926066736
-0.13843274116516113,-0.09501149505376816,9.930315017700195,-0.011799999512732029,0.006000000052154064,0.10889999568462372,0,0.1830000044521087,-0.12199999852133472
-0.14697524905204773,-0.1156303659081459,9.893033027648926,-0.0210999995470047,-0.02329999953508377,0.0794999971985817,-0.06099999926066736,0.06099999926066736,-0.06099999926066736
-0.1356746256351471,-0.13169068098068237,9.88953685760498,-0.011099999770522118,-0.032899998128414154,0.06969999521970749,-0.12199999852133472,0,-0.12199999852133472
-0.12956462800502777,-0.12084972113370895,9.90847110748291,-0.0013000000035390258,-0.022699998691678047,0.0892999991774559,0.06099999926066736,0.12199999852133472,-0.12199999852133472
-0.16036362946033478,-0.0992923378944397,9.88774585723877,-0.030399998649954796,-0.0032999999821186066,0.06969999521970749,0.06099999926066736,0.06099999926066736,0
-0.14781801402568817,-0.10094911605119705,9.915260314941406,-0.020399998873472214,-0.003399999812245369,0.09910000115633011,0,0.06099999926066736,0
-0.13024456799030304,-0.08234138786792755,9.896537780761719,-0.0005999999702908099,0.016099998727440834,0.0794999971985817,0,0.06099999926066736,0.06099999926066736
-0.1433456391096115,-0.12539871037006378,9.888195991516113,-0.010199999436736107,-0.03280000016093254,0.06969999521970749,0,0.06099999926066736,-0.12199999852133472
-0.11929827928543091,-0.09428366273641586,9.909687042236328,0.009399999864399433,0.006300000008195639,0.0892999991774559,-0.06099999926066736,0.1830000044521087,0
-0.12829090654850006,-0.09781750291585922,9.906805038452148,0.00009999999747378752,-0.0031999999191612005,0.0892999991774559,-0.06099999926066736,0,0
-0.1279653012752533,-0.10303686559200287,9.921150207519531,0.00009999999747378752,-0.003000000026077032,0.09910000115633011,0.06099999926066736,0.06099999926066736,0.24399999704266945
-0.15487611293792725,-0.08576031029224396,9.893885612487793,-0.022699998691678047,0.016499999910593033,0.07959999889135361,-0.12199999852133472,0,-0.06099999926066736
-0.13427641987800598,-0.08927499502897263,9.940677642822266,-0.0026000000070780516,0.004600000102072954,0.11879999935626984,-0.06099999926066736,0.12199999852133472,-0.1830000044521087
-0.14423628151416779,-0.09626606106758118,9.886807441711426,-0.008100000210106373,-0.003399999812245369,0.0697999969124794,-0.12199999852133472,0.06099999926066736,-0.12199999852133472
-0.160038024187088,-0.08094316720962524,9.903107643127441,-0.013499999418854713,0.01209999993443489,0.08949999511241913,0.06099999926066736,-0.06099999926066736,-0.06099999926066736
-0.15026967227458954,-0.09999144077301025,9.89615535736084,0.00419999985024333,-0.013499999418854713,0.08949999511241913,-0.06099999926066736,-0.06099999926066736,-0.06099999926066736
-0.1444469690322876,-0.10272083431482315,9.885927200317383,-0.003499999875202775,-0.002300000051036477,0.06989999860525131,0,0,-0.06099999926066736
-0.1513901650905609,-0.10570879280567169,9.89876937866211,-0.003000000026077032,-0.009599999524652958,0.07970000058412552,-0.06099999926066736,0.12199999852133472,-0.06099999926066736
-0.14650599658489227,-0.10257717967033386,9.878323554992676,-0.002199999988079071,0.00009999999747378752,0.060099996626377106,0.06099999926066736,-0.06099999926066736,0.12199999852133472
-0.15100710093975067,-0.09609368443489075,9.89220905303955,-0.001999999862164259,-0.00009999999747378752,0.06989999860525131,-0.06099999926066736,0.06099999926066736,-0.06099999926066736
-0.1533246785402298,-0.10184933990240097,9.894920349121094,-0.009499999694526196,-0.00009999999747378752,0.07979999482631683,0,0.06099999926066736,-0.12199999852133472
-0.15456965565681458,-0.09594045579433441,9.910137176513672,-0.00930000003427267,-0.00009999999747378752,0.08959999680519104,0.06099999926066736,0.1830000044521087,-0.06099999926066736
-0.13835611939430237,-0.10914686322212219,9.913172721862793,0.010699999518692493,-0.010099999606609344,0.09939999878406525,0.12199999852133472,0.1830000044521087,-0.12199999852133472
-0.14698483049869537,-0.09541372954845428,9.91331672668457,0,0.008700000122189522,0.09939999878406525,-0.06099999926066736,0.12199999852133472,-0.06099999926066736
-0.12943054735660553,-0.08562622964382172,9.938666343688965,0.015799999237060547,0.01489999983459711,0.11889999359846115,0.06099999926066736,0.06099999926066736,0.06099999926066736
-0.1546175330877304,-0.09096051007509232,9.88300609588623,-0.00969999935477972,0.0032999999821186066,0.060099996626377106,-0.12199999852133472,0.06099999926066736,0
-0.13785813748836517,-0.09927317500114441,9.908576011657715,0.007699999958276749,-0.004999999888241291,0.08949999511241913,0,0.06099999926066736,-0.06099999926066736
-0.12148179858922958,-0.08265741914510727,9.910443305969238,0.02149999886751175,0.011399999260902405,0.08940000087022781,-0.06099999926066736,0.06099999926066736,-0.06099999926066736
-0.13465948402881622,-0.09969455748796463,9.905491828918457,0.00139999995008111,-0.0064999996684491634,0.08940000087022781,0,0.06099999926066736,-0.06099999926066736
-0.14435121417045593,-0.10361147671937943,9.93527603149414,-0.0071000000461936,-0.005499999970197678,0.11879999935626984,0,-0.06099999926066736,-0.12199999852133472
-0.13487973809242249,-0.11999738961458206,9.926504135131836,0.0017999999690800905,-0.02070000022649765,0.10909999907016754,0.06099999926066736,0.06099999926066736,0
-0.13908396661281586,-0.09670659899711609,9.880707740783691,0.0011999999405816197,-0.0010999999940395355,0.05999999865889549,0.12199999852133472,0.12199999852133472,0.1830000044521087
-0.13720691204071045,-0.12351207435131073,9.913249969482422,0.0024999999441206455,-0.021199999377131462,0.09929999709129333,-0.12199999852133472,0.06099999926066736,0
-0.13014879822731018,-0.10375512391328812,9.885706901550293,0.00930000003427267,-0.0010999999940395355,0.0697999969124794,0.06099999926066736,0.12199999852133472,-0.06099999926066736
-0.12435483187437057,-0.07673895359039307,9.917884826660156,0.015699999406933784,0.014800000004470348,0.09919999539852142,0.1830000044521087,0.1830000044521087,-0.06099999926066736
-0.14521311223506927,-0.10532572120428085,9.907149314880371,-0.008899999782443047,-0.003700000001117587,0.08940000087022781,-0.06099999926066736,0.12199999852133472,-0.06099999926066736
-0.126567080616951,-0.09672574698925018,9.897371292114258,0.00839999970048666,-0.002899999963119626,0.07959999889135361,0.06099999926066736,0.06099999926066736,0.06099999926066736
-0.1401374191045761,-0.12340673059225082,9.928132057189941,-0.0011999999405816197,-0.01889999955892563,0.10899999737739563,0,0.1830000044521087,-0.12199999852133472
-0.11512279510498047,-0.0878097414970398,9.9029541015625,0.014699999243021011,0.008100000210106373,0.08940000087022781,-0.06099999926066736,0.06099999926066736,-0.12199999852133472
-0.13835611939430237,-0.08464939892292023,9.913498878479004,-0.003999999724328518,0.014499999582767487,0.09910000115633011,-0.06099999926066736,0.06099999926066736,0
-0.1449066549539566,-0.10954909771680832,9.90754222869873,-0.010999999940395355,-0.011799999512732029,0.08940000087022781,0,0.06099999926066736,-0.06099999926066736
-0.13538731634616852,-0.10608229041099548,9.918660163879395,-0.0010999999940395355,-0.00969999935477972,0.09919999539852142,0.06099999926066736,0,0
-0.1504707932472229,-0.10145668685436249,9.916659355163574,-0.009099999442696571,-0.00019999999494757503,0.09919999539852142,0,0,-0.06099999926066736
-0.15528792142868042,-0.09741527587175369,9.892228126525879,-0.014499999582767487,-0.00029999998514540493,0.06989999860525131,0.06099999926066736,0.12199999852133472,0
-0.14216768741607666,-0.10964486002922058,9.904994010925293,0.003999999724328518,-0.00839999970048666,0.08949999511241913,0.24399999704266945,0.06099999926066736,-0.06099999926066736
-0.12752476334571838,-0.11847467720508575,9.892352104187012,0.014699999243021011,-0.019500000402331352,0.06989999860525131,0.06099999926066736,-0.06099999926066736,0
-0.13800178468227386,-0.12590627372264862,9.909466743469238,0.003499999875202775,-0.02369999885559082,0.08949999511241913,0,0.06099999926066736,-0.1830000044521087
-0.13429556787014008,-0.10119812190532684,9.916505813598633,0.002699999837204814,0.004399999976158142,0.09929999709129333,0.06099999926066736,0,-0.06099999926066736
-0.14185166358947754,-0.08877699822187424,9.915892601013184,0.0018999999156221747,0.01119999960064888,0.09929999709129333,0.12199999852133472,0.1830000044521087,-0.06099999926066736
-0.14613249897956848,-0.07449797540903091,9.945369720458984,-0.006399999838322401,0.02539999969303608,0.12870000302791595,-0.12199999852133472,0.12199999852133472,0
-0.1529703438282013,-0.07007349282503128,9.88473892211914,-0.004799999762326479,0.019199999049305916,0.0697999969124794,-0.12199999852133472,0.12199999852133472,-0.06099999926066736
-0.13382630050182343,-0.08953356742858887,9.910040855407715,0.011799999512732029,-0.00009999999747378752,0.08940000087022781,-0.12199999852133472,0.06099999926066736,-0.06099999926066736
-0.1281951367855072,-0.10590033233165741,9.906085968017578,0.00930000003427267,-0.015599999576807022,0.08940000087022781,-0.06099999926066736,-0.06099999926066736,-0.1830000044521087
-0.16708654165267944,-0.09843041747808456,9.900799751281738,-0.02369999885559082,-0.0044999998062849045,0.07970000058412552,-0.06099999926066736,0.12199999852133472,-0.06099999926066736
-0.13442005217075348,-0.09343133121728897,9.896374702453613,0.004399999976158142,0.003999999724328518,0.07959999889135361,0.06099999926066736,0.12199999852133472,-0.12199999852133472
-0.12616485357284546,-0.10192595422267914,9.930008888244629,0.011799999512732029,-0.004999999888241291,0.10899999737739563,0,-0.06099999926066736,-0.1830000044521087
-0.1356746256351471,-0.09580637514591217,9.89779281616211,0.0017999999690800905,-0.004999999888241291,0.07959999889135361,0.06099999926066736,0.06099999926066736,0
-0.1670386642217636,-0.09222465008497238,9.918257713317871,-0.027300000190734863,0.004600000102072954,0.09919999539852142,0.06099999926066736,0,-0.06099999926066736
-0.12403880059719086,-0.09614156186580658,9.882843017578125,0.02159999869763851,-0.0052999998442828655,0.05999999865889549,0.06099999926066736,0.12199999852133472,-0.06099999926066736
-0.1360960155725479,-0.10810299962759018,9.86081600189209,0.002300000051036477,-0.015199999324977398,0.04039999842643738,0.06099999926066736,0,-0.1830000044521087
-0.1650562584400177,-0.06745903193950653,9.903874397277832,-0.026999998837709427,0.02369999885559082,0.08940000087022781,0,0.06099999926066736,-0.12199999852133472
-0.14243584871292114,-0.10580455511808395,9.888436317443848,0.0024999999441206455,-0.015399999916553497,0.0697999969124794,-0.06099999926066736,0.06099999926066736,0
-0.1399650275707245,-0.1295071542263031,9.878620147705078,0.0026000000070780516,-0.03480000048875809,0.05999999865889549,0,0,-0.1830000044521087
-0.1468220204114914,-0.09867942333221436,9.918612480163574,-0.016899999231100082,0.004299999680370092,0.07959999889135361,-0.06099999926066736,0.06099999926066736,0
-0.14108550548553467,-0.09658209979534149,9.883925437927246,0.003000000026077032,-0.004999999888241291,0.0697999969124794,-0.12199999852133472,0.06099999926066736,-0.12199999852133472
-0.13274411857128143,-0.10137049853801727,9.906085968017578,0.012899999506771564,-0.004699999932199717,0.08940000087022781,0,0.12199999852133472,-0.06099999926066736
-0.1440926343202591,-0.06001785025000572,9.92825698852539,-0.006199999712407589,0.03439999744296074,0.10909999907016754,0.12199999852133472,0.1830000044521087,-0.06099999926066736
-0.14285722374916077,-0.10103531181812286,9.914628982543945,0.003999999724328518,-0.0050999997183680534,0.09929999709129333,0.12199999852133472,0.12199999852133472,-0.12199999852133472
-0.13715901970863342,-0.07697837054729462,9.92819881439209,0.004299999680370092,0.014099999330937862,0.10909999907016754,0.06099999926066736,0.06099999926066736,0
-0.15937721729278564,-0.10632170736789703,9.881464004516602,-0.014999999664723873,-0.01529999915510416,0.05999999865889549,0,0.12199999852133472,0
-0.12033258378505707,-0.0827053040266037,9.901738166809082,0.024399999529123306,0.013899999670684338,0.07959999889135361,0.12199999852133472,0,-0.06099999926066736
-0.12872186303138733,-0.08496543020009995,9.890246391296387,0.014499999582767487,0.013599999248981476,0.0697999969124794,0.06099999926066736,-0.06099999926066736,0
-0.15145720541477203,-0.07562804222106934,9.91397762298584,-0.0050999997183680534,0.02319999970495701,0.09919999539852142,0,0.06099999926066736,-0.12199999852133472
-0.1486128866672516,-0.10140880942344666,9.89172077178955,-0.004999999888241291,-0.006099999882280827,0.0697999969124794,-0.06099999926066736,0.12199999852133472,0.06099999926066736
-0.1475115567445755,-0.10047028213739395,9.897073745727539,-0.004600000102072954,-0.006000000052154064,0.07959999889135361,-0.06099999926066736,0.06099999926066736,-0.12199999852133472
-0.12045707553625107,-0.08575072139501572,9.892401695251465,0.024799998849630356,0.013700000010430813,0.0697999969124794,0.06099999926066736,0.06099999926066736,-0.06099999926066736
-0.13245682418346405,-0.10377427935600281,9.925518035888672,0.015099999494850636,-0.006000000052154064,0.10909999907016754,0.06099999926066736,0.12199999852133472,-0.06099999926066736
-0.14075033366680145,-0.10125558078289032,9.90215015411377,0.00559999980032444,-0.006099999882280827,0.07970000058412552,-0.06099999926066736,0.12199999852133472,-0.06099999926066736
-0.13233232498168945,-0.11247959733009338,9.888349533081055,0.015699999406933784,-0.015699999406933784,0.06989999860525131,0.1830000044521087,0.12199999852133472,-0.06099999926066736
-0.1300051510334015,-0.0988134890794754,9.905378341674805,0.01599999889731407,-0.006399999838322401,0.08949999511241913,0,0.06099999926066736,0
-0.14958971738815308,-0.0661182701587677,9.919962882995605,-0.0032999999821186066,0.03269999846816063,0.09929999709129333,0.06099999926066736,0,-0.06099999926066736
-0.16879121959209442,-0.09003156423568726,9.91517448425293,-0.02290000021457672,0.0030999998562037945,0.09929999709129333,0.06099999926066736,-0.06099999926066736,0
-0.1214626356959343,-0.0863732248544693,9.933706283569336,0.02579999901354313,0.002899999963119626,0.11889999359846115,0,0,0.12199999852133472
-0.1260499358177185,-0.0767676830291748,9.8895845413208,0.01589999906718731,0.012600000016391277,0.0697999969124794,-0.06099999926066736,0.12199999852133472,-0.06099999926066736
-0.1489672213792801,-0.10178229957818985,9.89571475982666,-0.0031999999191612005,-0.0066999997943639755,0.07970000058412552,0.06099999926066736,0.1830000044521087,0
-0.13215036690235138,-0.0871010571718216,9.901565551757812,0.016699999570846558,0.00279999990016222,0.07970000058412552,0.12199999852133472,0.06099999926066736,-0.06099999926066736
-0.1466592252254486,-0.11284351348876953,9.907713890075684,-0.0026000000070780516,-0.016999999061226845,0.08949999511241913,0,-0.06099999926066736,0
-0.14245499670505524,-0.10253886878490448,9.877193450927734,0.006899999920278788,0.022099999710917473,0.050200000405311584,0,0.06099999926066736,-0.12199999852133472
-0.13735057413578033,-0.08689995110034943,9.897543907165527,0.0072999997064471245,0.0026000000070780516,0.07970000058412552,-0.12199999852133472,0.24399999704266945,-0.06099999926066736
-0.12410584092140198,-0.10239522159099579,9.907522201538086,0.02979999966919422,-0.005699999630451202,0.08949999511241913,0.06099999926066736,0,0
-0.1584291011095047,-0.07674852758646011,9.876502990722656,-0.005200000014156103,0.0066999997943639755,0.060099996626377106,0,0.06099999926066736,0
-0.1145673394203186,-0.10538318008184433,9.878371238708496,0.027899999171495438,-0.014599999412894249,0.05999999865889549,0,0,-0.06099999926066736
-0.144992858171463,-0.09306740760803223,9.892142295837402,-0.00839999970048666,0.003399999812245369,0.0697999969124794,0,0,0.06099999926066736
-0.14661133289337158,-0.10955867171287537,9.901575088500977,-0.0066999997943639755,-0.01249999925494194,0.07959999889135361,-0.06099999926066736,0.06099999926066736,-0.06099999926066736
-0.13304099440574646,-0.0944177433848381,9.91779899597168,0.010199999436736107,0.00559999980032444,0.09919999539852142,0,0.24399999704266945,-0.1830000044521087
-0.10928094387054443,-0.10703997313976288,9.885065078735352,0.03269999846816063,-0.014099999330937862,0.0697999969124794,-0.06099999926066736,0,-0.1830000044521087
-0.13776235282421112,-0.09672574698925018,9.926694869995117,0.0023999998811632395,-0.003599999938160181,0.10909999907016754,0.06099999926066736,0.24399999704266945,-0.1830000044521087
-0.1539280116558075,-0.08195831626653671,9.894067764282227,-0.014499999582767487,0.01549999974668026,0.07970000058412552,0.06099999926066736,0.12199999852133472,-0.12199999852133472
-0.14815320074558258,-0.09054870903491974,9.92247200012207,-0.0037999998312443495,0.004399999976158142,0.10909999907016754,-0.06099999926066736,0.12199999852133472,-0.12199999852133472
-0.15377478301525116,-0.10543106496334076,9.914437294006348,-0.010999999940395355,-0.012199999764561653,0.09929999709129333,-0.12199999852133472,0,-0.12199999852133472
-0.13178643584251404,-0.1086488738656044,9.907081604003906,0.014299999922513962,-0.009599999524652958,0.08949999511241913,0.06099999926066736,0,-0.06099999926066736
-0.14550042152404785,-0.12016019225120544,9.914724349975586,-0.0044999998062849045,-0.01599999889731407,0.09929999709129333,-0.06099999926066736,0,-0.06099999926066736
-0.14732001721858978,-0.10401370376348495,9.898395538330078,-0.003700000001117587,0.002699999837204814,0.07970000058412552,0,0.06099999926066736,0.06099999926066736
-0.1596166342496872,-0.08553046733140945,9.875307083129883,-0.010099999606609344,0.01640000008046627,0.060099996626377106,-0.12199999852133472,0.06099999926066736,0
-0.13180558383464813,-0.07034164667129517,9.854591369628906,0.013299999758601189,0.018400000408291817,0.04039999842643738,0,0,-0.1830000044521087
-0.14664006233215332,-0.10477026551961899,9.89730453491211,-0.012199999764561653,-0.008299999870359898,0.050200000405311584,0.06099999926066736,-0.06099999926066736,-0.12199999852133472
-0.14664006233215332,-0.10477026551961899,9.89730453491211,-0.0017999999690800905,-0.0066999997943639755,0.07970000058412552,0.06099999926066736,-0.06099999926066736,-0.12199999852133472
-0.14158351719379425,-0.08498457819223404,9.91174602508545,0.006099999882280827,0.010199999436736107,0.08940000087022781,-0.06099999926066736,0.06099999926066736,-0.06099999926066736
-0.14462894201278687,-0.08336610347032547,9.88476848602295,-0.003499999875202775,0.010400000028312206,0.0697999969124794,-0.12199999852133472,0.12199999852133472,0
-0.13107775151729584,-0.11505575478076935,9.888493537902832,0.01640000008046627,-0.0284000001847744,0.0697999969124794,0.06099999926066736,0.1830000044521087,-0.06099999926066736
-0.14647726714611053,-0.08898768573999405,9.909523963928223,-0.002699999837204814,0.000699999975040555,0.08949999511241913,0.06099999926066736,0,-0.06099999926066736
-0.13364432752132416,-0.07753382623195648,9.892410278320312,0.00699999975040555,-0.01889999955892563,0.09929999709129333,0.06099999926066736,0.1830000044521087,-0.12199999852133472
-0.14475342631340027,-0.09793242812156677,9.898176193237305,-0.002300000051036477,-0.009099999442696571,0.07959999889135361,0.06099999926066736,0,-0.06099999926066736
-0.1490342766046524,-0.08357679098844528,9.896020889282227,-0.002300000051036477,0.010199999436736107,0.07959999889135361,-0.12199999852133472,0.06099999926066736,-0.06099999926066736
-0.126404270529747,-0.09895714372396469,9.904410362243652,0.01730000041425228,-0.008999999612569809,0.08949999511241913,-0.12199999852133472,0.06099999926066736,-0.06099999926066736
-0.1603061705827713,-0.10799764841794968,9.90056037902832,-0.011799999512732029,-0.018400000408291817,0.07970000058412552,0.12199999852133472,-0.06099999926066736,0
-0.150489941239357,-0.11654016375541687,9.89930534362793,-0.002199999988079071,-0.02850000001490116,0.07970000058412552,-0.06099999926066736,-0.06099999926066736,-0.06099999926066736
-0.15885049104690552,-0.07502470165491104,9.909399032592773,-0.01209999993443489,0.020600000396370888,0.08949999511241913,-0.24399999704266945,0.12199999852133472,-0.06099999926066736
-0.13158532977104187,-0.11703815311193466,9.894814491271973,0.020099999383091927,-0.02539999969303608,0.07970000058412552,0.12199999852133472,0.1830000044521087,-0.06099999926066736
-0.14872781932353973,-0.1073368564248085,9.899564743041992,0.00029999998514540493,-0.010599999688565731,0.07979999482631683,0,0.06099999926066736,-0.06099999926066736
-0.1387583464384079,-0.127486452460289,9.913681030273438,0.0072999997064471245,-0.02279999852180481,0.09939999878406525,0.06099999926066736,0,-0.06099999926066736
-0.1174020767211914,-0.0869765654206276,9.887574195861816,0.01889999955892563,0.011299999430775642,0.0697999969124794,-0.12199999852133472,0.06099999926066736,0
-0.1448013186454773,-0.0921671912074089,9.880688667297363,-0.007599999662488699,0.008200000040233135,0.05999999865889549,0.1830000044521087,0.1830000044521087,0
-0.1399458795785904,-0.11510363966226578,9.87041187286377,-0.004600000102072954,-0.002300000051036477,0.08949999511241913,-0.06099999926066736,-0.12199999852133472,-0.06099999926066736
-0.14099933207035065,-0.08893980085849762,9.913182258605957,0.0023999998811632395,0.010999999940395355,0.09929999709129333,0.06099999926066736,0.12199999852133472,0.06099999926066736
-0.11299674212932587,-0.10525868088006973,9.906163215637207,0.025699999183416367,0.000699999975040555,0.08940000087022781,0.06099999926066736,0.06099999926066736,-0.06099999926066736
-0.1376761794090271,-0.11782345920801163,9.909399032592773,-0.003000000026077032,-0.015399999916553497,0.08940000087022781,0.06099999926066736,0.06099999926066736,-0.06099999926066736
-0.14872781932353973,-0.07882669568061829,9.90215015411377,-0.010099999606609344,0.018299998715519905,0.07959999889135361,0,0,0
-0.14427459239959717,-0.09786538779735565,9.951116561889648,-0.008899999782443047,-0.0011999999405816197,0.13849999010562897,0.06099999926066736,-0.06099999926066736,-0.12199999852133472
-0.16017208993434906,-0.08334694802761078,9.901814460754395,-0.01489999983459711,0.013899999670684338,0.07959999889135361,0,0.06099999926066736,-0.12199999852133472
-0.12310027331113815,-0.096811942756176,9.902045249938965,0.018799999728798866,-0.0044999998062849045,0.07959999889135361,-0.1830000044521087,0.06099999926066736,0
-0.14994406700134277,-0.08228392153978348,9.885687828063965,-0.008100000210106373,0.011799999512732029,0.0697999969124794,0.06099999926066736,-0.06099999926066736,0
-0.15635095536708832,-0.11332235485315323,9.884930610656738,-0.0142000000923872,-0.013799999840557575,0.06989999860525131,0,0,-0.12199999852133472
-0.12544658780097961,-0.07056191563606262,9.864503860473633,0.015099999494850636,0.025299999862909317,0.050200000405311584,0,0.06099999926066736,0
-0.14972379803657532,-0.10668563097715378,9.9029541015625,-0.00419999985024333,-0.013799999840557575,0.08949999511241913,0,0,-0.06099999926066736
-0.1361343115568161,-0.12568601965904236,9.886348724365234,0.005499999970197678,-0.033399999141693115,0.06989999860525131,0.12199999852133472,0.12199999852133472,-0.06099999926066736
-0.12678734958171844,-0.09826761484146118,9.895838737487793,0.015599999576807022,-0.004299999680370092,0.07970000058412552,0.12199999852133472,0.06099999926066736,0
-0.12087845802307129,-0.1023760661482811,9.928227424621582,0.025499999523162842,-0.004699999932199717,0.10909999907016754,0.12199999852133472,0.06099999926066736,-0.12199999852133472
-0.13578954339027405,-0.0754939615726471,9.922635078430176,0.006099999882280827,0.024299999698996544,0.10909999907016754,0,0.1830000044521087,-0.12199999852133472
-0.14837346971035004,-0.11213483661413193,9.906133651733398,-0.0030999998562037945,-0.014800000004470348,0.08949999511241913,0,0.12199999852133472,-0.06099999926066736
-0.14566323161125183,-0.10138965398073196,9.930124282836914,-0.00279999990016222,-0.004999999888241291,0.10909999907016754,0.06099999926066736,0.12199999852133472,-0.12199999852133472
-0.1598464846611023,-0.09664913266897202,9.907504081726074,-0.012199999764561653,-0.0050999997183680534,0.08949999511241913,0,0.06099999926066736,-0.06099999926066736
-0.12337800115346909,-0.11117714643478394,9.89735221862793,0.026999998837709427,-0.01489999983459711,0.07970000058412552,0,0,-0.06099999926066736
-0.16122554242610931,-0.09342174977064133,9.930047035217285,-0.01209999993443489,0.004600000102072954,0.10909999907016754,-0.06099999926066736,0.06099999926066736,0
-0.13741759955883026,-0.07621222734451294,9.914484977722168,0.007599999662488699,0.024299999698996544,0.09929999709129333,-0.06099999926066736,0.06099999926066736,-0.06099999926066736
-0.1535736620426178,-0.10074800997972488,9.929950714111328,-0.011799999512732029,-0.004799999762326479,0.10909999907016754,-0.06099999926066736,0.06099999926066736,-0.12199999852133472
-0.14223474264144897,-0.11394484341144562,9.901901245117188,0.007899999618530273,-0.014399999752640724,0.07970000058412552,0.06099999926066736,-0.06099999926066736,-0.12199999852133472
-0.14391067624092102,-0.09734824299812317,9.899554252624512,-0.001999999862164259,-0.004799999762326479,0.07970000058412552,-0.06099999926066736,-0.06099999926066736,-0.06099999926066736
-0.1586781144142151,-0.09898588061332703,9.879788398742676,-0.011899999342858791,-0.004600000102072954,0.060099996626377106,0,0.06099999926066736,0
-0.1465921849012375,-0.0812879353761673,9.933093070983887,-0.001999999862164259,0.01489999983459711,0.11889999359846115,-0.06099999926066736,0.12199999852133472,-0.06099999926066736
-0.12375149875879288,-0.10386046767234802,9.914196968078613,0.02759999968111515,-0.004399999976158142,0.09929999709129333,-0.12199999852133472,0.06099999926066736,-0.06099999926066736
-0.12707464396953583,-0.07918103784322739,9.919580459594727,0.017999999225139618,0.015399999916553497,0.09929999709129333,0.06099999926066736,0,0
-0.12935392558574677,-0.09409212321043015,9.884299278259277,0.017899999395012856,0.005399999674409628,0.06989999860525131,0.12199999852133472,0.12199999852133472,-0.06099999926066736
-0.11250832676887512,-0.08598056435585022,9.901959419250488,0.03790000081062317,0.014299999922513962,0.07970000058412552,0,0.12199999852133472,-0.06099999926066736
-0.1276971399784088,-0.08763735741376877,9.939452171325684,0.01860000006854534,0.0044999998062849045,0.11889999359846115,-0.24399999704266945,0.06099999926066736,-0.06099999926066736
-0.14425544440746307,-0.11511322110891342,9.90459156036377,0.0030999998562037945,-0.024000000208616257,0.08959999680519104,0.06099999926066736,0,-0.12199999852133472
-0.10906067490577698,-0.07852023839950562,9.922433853149414,0.027300000190734863,0.009499999694526196,0.10889999568462372,0.1830000044521087,0.06099999926066736,-0.12199999852133472
-0.14360421895980835,-0.10480856895446777,9.916936874389648,-0.0016999999061226845,-0.007599999662488699,0.09919999539852142,-0.06099999926066736,0,-0.06099999926066736
-0.14878526329994202,-0.11381077766418457,9.902830123901367,-0.008700000122189522,-0.012799999676644802,0.08940000087022781,0,0.12199999852133472,-0.12199999852133472
-0.13383588194847107,-0.09121908247470856,9.880842208862305,0.007499999832361937,0.0044999998062849045,0.05989999696612358,-0.06099999926066736,0.24399999704266945,-0.1830000044521087
-0.14378617703914642,-0.11035354435443878,9.915203094482422,-0.007400000002235174,-0.014699999243021011,0.09919999539852142,0,0.06099999926066736,0
-0.10655155032873154,-0.10751880705356598,9.904687881469727,0.02499999850988388,-0.011799999512732029,0.08940000087022781,-0.06099999926066736,0.06099999926066736,-0.06099999926066736
-0.13049358129501343,-0.09409212321043015,9.875325202941895,0.0038999998942017555,0.005699999630451202,0.05989999696612358,-0.12199999852133472,0,0
-0.17507360875606537,-0.10073843598365784,9.884950637817383,-0.035099998116493225,-0.003000000026077032,0.06989999860525131,0,0.12199999852133472,-0.06099999926066736
-0.11958558857440948,-0.1164827048778534,9.897821426391602,0.018799999728798866,-0.01809999905526638,0.07959999889135361,-0.06099999926066736,0,-0.12199999852133472
-0.14128664135932922,-0.10053731501102448,9.878610610961914,-0.000699999975040555,0.0010999999940395355,0.05999999865889549,0.06099999926066736,0.06099999926066736,0
-0.14226345717906952,-0.10678139328956604,9.88481616973877,-0.0005999999702908099,-0.00699999975040555,0.0697999969124794,0.06099999926066736,0.06099999926066736,-0.06099999926066736
-0.11964304745197296,-0.11756487935781479,9.869215965270996,0.013899999670684338,-0.012600000016391277,0.050200000405311584,0,0.06099999926066736,-0.06099999926066736
-0.15129438042640686,-0.11863747984170914,9.913431167602539,-0.012899999506771564,-0.010699999518692493,0.09929999709129333,0.06099999926066736,0,-0.06099999926066736
-0.12820471823215485,-0.10891702026128769,9.896288871765137,0.004999999888241291,-0.0009999999310821295,0.07970000058412552,0.24399999704266945,0.12199999852133472,-0.12199999852133472
-0.1317385584115982,-0.0928950235247612,9.916888236999512,0.009499999694526196,0.015399999916553497,0.09929999709129333,0,0.06099999926066736,-0.06099999926066736
-0.15149551630020142,-0.09627564251422882,9.907341003417969,-0.008100000210106373,0.004299999680370092,0.08949999511241913,0.12199999852133472,0.06099999926066736,-0.12199999852133472
-0.1477222442626953,-0.08965806663036346,9.937152862548828,-0.006899999920278788,0.011399999260902405,0.11889999359846115,-0.06099999926066736,0.06099999926066736,0
-0.16006673872470856,-0.09616071730852127,9.902131080627441,-0.013199999928474426,0.0011999999405816197,0.07970000058412552,0,0.06099999926066736,-0.06099999926066736
-0.13075213134288788,-0.09382397681474686,9.903730392456055,0.012799999676644802,0.008599999360740185,0.08949999511241913,0,0.12199999852133472,-0.06099999926066736
-0.15992309153079987,-0.10076715797185898,9.905731201171875,-0.013199999928474426,-0.0009999999310821295,0.08949999511241913,0.12199999852133472,0,-0.06099999926066736
-0.14762647449970245,-0.10822749137878418,9.905177116394043,-0.002899999963119626,-0.009099999442696571,0.08949999511241913,0.1830000044521087,0.12199999852133472,-0.06099999926066736
-0.1451365053653717,-0.1094820573925972,9.904754638671875,-0.002300000051036477,-0.007799999788403511,0.08959999680519104,0,0.06099999926066736,-0.06099999926066736
-0.14914917945861816,-0.09992440044879913,9.907761573791504,-0.001999999862164259,0.00139999995008111,0.08959999680519104,-0.06099999926066736,0.12199999852133472,-0.06099999926066736
-0.15019305050373077,-0.0992923378944397,9.913776397705078,-0.0015999999595806003,0.0010999999940395355,0.09939999878406525,0,0.06099999926066736,0
-0.13147997856140137,-0.092521533370018,9.908259391784668,0.014099999330937862,0.008499999530613422,0.08949999511241913,0.12199999852133472,0.06099999926066736,0.06099999926066736
-0.1370536834001541,-0.08238926529884338,9.90798282623291,0.004999999888241291,0.017899999395012856,0.08949999511241913,0.12199999852133472,0,-0.06099999926066736
-0.13414233922958374,-0.11178048700094223,9.904505729675293,0.004999999888241291,-0.011699999682605267,0.08949999511241913,0.06099999926066736,-0.06099999926066736,-0.12199999852133472
-0.1507197916507721,-0.07936299592256546,9.905559539794922,-0.004900000058114529,0.017400000244379044,0.08949999511241913,0,0.06099999926066736,0.06099999926066736
-0.1420336216688156,-0.08501331508159637,9.900933265686035,0.004999999888241291,0.017400000244379044,0.07970000058412552,0.12199999852133472,0.06099999926066736,0
-0.14683160185813904,-0.09169792383909225,9.920891761779785,-0.0044999998062849045,0.0072999997064471245,0.09929999709129333,0,0.1830000044521087,-0.06099999926066736
-0.14601758122444153,-0.07350198924541473,9.916486740112305,-0.003999999724328518,0.026799999177455902,0.09929999709129333,0.06099999926066736,0.12199999852133472,0
-0.12230540066957474,-0.10093954205513,9.90285873413086,0.025599999353289604,-0.0026000000070780516,0.08949999511241913,0.06099999926066736,0.12199999852133472,0
-0.13960112631320953,-0.09317275136709213,9.888829231262207,0.006300000008195639,0.006899999920278788,0.06989999860525131,0.06099999926066736,-0.06099999926066736,-0.06099999926066736
-0.1216733306646347,-0.10138965398073196,9.897994041442871,0.025699999183416367,-0.003000000026077032,0.07970000058412552,-0.06099999926066736,0,0.06099999926066736
-0.15257768332958221,-0.11603259295225143,9.914992332458496,-0.003599999938160181,-0.02239999920129776,0.09929999709129333,0.06099999926066736,0.06099999926066736,-0.06099999926066736
-0.13882538676261902,-0.10278786718845367,9.859590530395508,0.006199999712407589,-0.002899999963119626,0.04050000011920929,0,0.06099999926066736,-0.1830000044521087
-0.13853809237480164,-0.1232151910662651,9.916821479797363,0.006399999838322401,-0.022499999031424522,0.09929999709129333,0.06099999926066736,0.06099999926066736,-0.12199999852133472
-0.12816640734672546,-0.09550949186086655,9.913996696472168,0.016300000250339508,0.006599999964237213,0.09929999709129333,0.06099999926066736,-0.12199999852133472,0
-0.12486240267753601,-0.0771220251917839,9.906420707702637,0.01599999889731407,0.016200000420212746,0.08949999511241913,0,0,-0.06099999926066736
-0.14683160185813904,-0.11117714643478394,9.909457206726074,-0.003499999875202775,-0.013100000098347664,0.08949999511241913,-0.06099999926066736,0.12199999852133472,-0.1830000044521087
-0.13708241283893585,-0.06520847976207733,9.903021812438965,0.0064999996684491634,0.035999998450279236,0.08949999511241913,0,0.06099999926066736,0
-0.14637191593647003,-0.08446744084358215,9.90900707244873,-0.0030999998562037945,0.016300000250339508,0.08949999511241913,0,0.06099999926066736,-0.12199999852133472
-0.14341269433498383,-0.09423577785491943,9.91304874420166,0.006799999624490738,0.0064999996684491634,0.09929999709129333,-0.24399999704266945,-0.06099999926066736,-0.1830000044521087
-0.1517828106880188,-0.11248917132616043,9.885821342468262,0.003700000001117587,-0.014499999582767487,0.07000000029802322,-0.06099999926066736,0.12199999852133472,-0.12199999852133472
-0.15352578461170197,-0.09253110736608505,9.873237609863281,-0.0032999999821186066,0.0024999999441206455,0.05040000006556511,0.06099999926066736,0,-0.06099999926066736
-0.1482010781764984,-0.08794381469488144,9.905061721801758,0.004399999976158142,0.001500000013038516,0.08959999680519104,0,0,-0.12199999852133472
-0.13851892948150635,-0.10636959224939346,9.884575843811035,0.009999999776482582,-0.013199999928474426,0.06989999860525131,0.06099999926066736,-0.06099999926066736,-0.06099999926066736
-0.15433023869991302,-0.10193552821874619,9.899535179138184,-0.007699999958276749,-0.00279999990016222,0.07979999482631683,0.12199999852133472,0.06099999926066736,-0.06099999926066736
-0.1269022673368454,-0.09283756464719772,9.903347969055176,0.016899999231100082,0.004999999888241291,0.08949999511241913,0.06099999926066736,-0.06099999926066736,-0.06099999926066736
-0.12012188881635666,-0.07221869379281998,9.90869140625,0.020800000056624413,0.019199999049305916,0.08940000087022781,0,0.06099999926066736,0
-0.163993239402771,-0.08452489227056503,9.910137176513672,-0.022499999031424522,0.0072999997064471245,0.08940000087022781,0.06099999926066736,0.06099999926066736,-0.1830000044521087
-0.1545983850955963,-0.08012913912534714,9.888733863830566,-0.002199999988079071,-0.001999999862164259,0.05999999865889549,0.06099999926066736,0,-0.06099999926066736
-0.14450444281101227,-0.11076535284519196,9.88241195678711,0.00009999999747378752,-0.018299998715519905,0.060099996626377106,0.06099999926066736,0.12199999852133472,-0.12199999852133472
-0.12838667631149292,-0.0807037502527237,9.922673225402832,0.019999999552965164,0.010900000110268593,0.10909999907016754,-0.06099999926066736,0.06099999926066736,-0.12199999852133472
-0.11674126982688904,-0.10970232635736465,9.892841339111328,0.029999999329447746,-0.018199998885393143,0.07970000058412552,0,0.12199999852133472,-0.06099999926066736
-0.14722426235675812,-0.10022128373384476,9.8856201171875,0.0008999999845400453,-0.00839999970048666,0.06989999860525131,0,-0.06099999926066736,-0.06099999926066736
-0.13608641922473907,-0.10040324181318283,9.8673095703125,0.010499999858438969,-0.00839999970048666,0.0502999983727932,-0.06099999926066736,0.06099999926066736,-0.06099999926066736
-0.1277354508638382,-0.09233956784009933,9.90873908996582,0.020499998703598976,0.001500000013038516,0.08949999511241913,0.12199999852133472,0,-0.06099999926066736
-0.16814956068992615,-0.1029602512717247,9.928122520446777,-0.01860000006854534,-0.008599999360740185,0.10909999907016754,-0.1830000044521087,0.12199999852133472,-0.06099999926066736
-0.14924496412277222,-0.08664137125015259,9.891501426696777,0.0011999999405816197,0.0015999999595806003,0.06989999860525131,0.06099999926066736,0,-0.06099999926066736
-0.15397590398788452,-0.0760589987039566,9.92166805267334,-0.008499999530613422,0.0210999995470047,0.10909999907016754,0.06099999926066736,0.12199999852133472,0
-0.1643667370080948,-0.09866983443498611,9.902724266052246,-0.017899999395012856,-0.00839999970048666,0.08949999511241913,0.1830000044521087,0.12199999852133472,0
-0.11897267401218414,-0.10447338968515396,9.884346961975098,0.031300000846385956,-0.008899999782443047,0.06989999860525131,-0.06099999926066736,0,-0.06099999926066736
-0.14841178059577942,-0.09802819043397903,9.910414695739746,0.0017999999690800905,-0.008700000122189522,0.08949999511241913,-0.06099999926066736,-0.12199999852133472,-0.06099999926066736
-0.1575959324836731,-0.09047209471464157,9.904928207397461,-0.008200000040233135,0.0010999999940395355,0.08949999511241913,0.06099999926066736,-0.06099999926066736,-0.06099999926066736
-0.13348153233528137,-0.07362648844718933,9.909141540527344,0.020899999886751175,0.020600000396370888,0.08949999511241913,0,0.12199999852133472,0
-0.12758222222328186,-0.09410169720649719,9.917271614074707,0.021199999377131462,0.0008999999845400453,0.09929999709129333,0,0.12199999852133472,-0.06099999926066736
-0.14948438107967377,-0.09669702500104904,9.888349533081055,0.0018999999156221747,-0.008700000122189522,0.06989999860525131,-0.06099999926066736,0.06099999926066736,-0.06099999926066736
-0.10536403208971024,-0.095394566655159,9.931024551391602,0.04129999876022339,0.0010999999940395355,0.10909999907016754,0,0,-0.06099999926066736
-0.1210891455411911,-0.0925406888127327,9.891883850097656,0.03139999881386757,0.0010999999940395355,0.06989999860525131,0,0.12199999852133472,-0.12199999852133472
-0.13668975234031677,-0.08778101205825806,9.91789436340332,0.01209999993443489,0.0010999999940395355,0.09929999709129333,0,0.06099999926066736,-0.06099999926066736
-0.1340082585811615,-0.09471461921930313,9.913154602050781,0.02199999988079071,0.0010999999940395355,0.09929999709129333,0.06099999926066736,0,0
-0.13464032113552094,-0.0951455757021904,9.895120620727539,0.012199999764561653,0.0009999999310821295,0.07970000058412552,-0.12199999852133472,0.1830000044521087,0
-0.1352149397134781,-0.10742304474115372,9.88574504852295,0.012600000016391277,-0.018199998885393143,0.06989999860525131,0.06099999926066736,0.06099999926066736,-0.06099999926066736
-0.16213534772396088,-0.11497914046049118,9.896968841552734,-0.0066999997943639755,-0.028099998831748962,0.07970000058412552,0.1830000044521087,0.06099999926066736,0
-0.13028287887573242,-0.09821973741054535,9.896949768066406,0.0031999999191612005,-0.008899999782443047,0.10909999907016754,0,0.06099999926066736,0
-0.1357991248369217,-0.08949526399374008,9.899076461791992,0.012999999336898327,0.0007999999797903001,0.07970000058412552,0.12199999852133472,0.06099999926066736,0
-0.12052411586046219,-0.11903012543916702,9.910223960876465,0.03269999846816063,-0.02879999950528145,0.08949999511241913,0.06099999926066736,0.06099999926066736,-0.06099999926066736
-0.09651505947113037,-0.10300813615322113,9.875699043273926,0.052299998700618744,-0.00930000003427267,0.060099996626377106,0,0,-0.12199999852133472
-0.15466544032096863,-0.08251377195119858,9.892630577087402,-0.006399999838322401,0.010199999436736107,0.06989999860525131,-0.12199999852133472,0,-0.12199999852133472
-0.1292390078306198,-0.10977894067764282,9.890820503234863,0.02279999852180481,-0.018799999728798866,0.06989999860525131,0,0,-0.06099999926066736
-0.11566866934299469,-0.09126696735620499,9.895063400268555,0.032499998807907104,0.0007999999797903001,0.07970000058412552,0.06099999926066736,-0.06099999926066736,0
-0.16662685573101044,-0.08143159002065659,9.889910697937012,-0.016499999910593033,0.010400000028312206,0.06989999860525131,0.06099999926066736,0.12199999852133472,-0.12199999852133472
-0.16403153538703918,-0.11723926663398743,9.9133939743042,-0.016200000420212746,-0.02879999950528145,0.09929999709129333,-0.06099999926066736,0.06099999926066736,-0.06099999926066736
-0.14787547290325165,-0.09197565168142319,9.88420295715332,0.003499999875202775,0.0005999999702908099,0.06989999860525131,0,-0.06099999926066736,0
-0.1443224847316742,-0.1056704893708229,9.903557777404785,0.0032999999821186066,-0.018799999728798866,0.08949999511241913,0.06099999926066736,0.06099999926066736,0
-0.13460202515125275,-0.08661264181137085,9.913728713989258,0.013199999928474426,0.0004999999655410647,0.09929999709129333,-0.06099999926066736,0.06099999926066736,0.06099999926066736
-0.151572123169899,-0.08503247052431107,9.92105484008789,0.003599999938160181,0.010499999858438969,0.09929999709129333,-0.1830000044521087,0,-0.06099999926066736
-0.14877569675445557,-0.08989748358726501,9.920001029968262,0.003599999938160181,0.0011999999405816197,0.09939999878406525,0.12199999852133472,0,-0.24399999704266945
-0.1199016198515892,-0.08158481866121292,9.931550979614258,0.03779999911785126,0.010999999940395355,0.11899999529123306,0,-0.06099999926066736,-0.12199999852133472
-0.13394121825695038,-0.09527964890003204,9.932652473449707,0.017400000244379044,0.00039999998989515007,0.11889999359846115,0.12199999852133472,0,-0.12199999852133472
-0.12447933107614517,-0.09504980593919754,9.892046928405762,0.01640000008046627,-0.00009999999747378752,0.06969999521970749,0.06099999926066736,0.06099999926066736,-0.06099999926066736
-0.12414415180683136,-0.08902599662542343,9.890571594238281,0.01119999960064888,-0.00029999998514540493,0.06960000097751617,0.12199999852133472,0.06099999926066736,0
-0.15387055277824402,-0.0867275595664978,9.904764175415039,-0.02159999869763851,-0.000699999975040555,0.0892999991774559,0,0.06099999926066736,0
-0.14528973400592804,-0.08585607260465622,9.878447532653809,-0.009499999694526196,-0.016300000250339508,0.09919999539852142,-0.06099999926066736,0.12199999852133472,-0.1830000044521087
-0.14528973400592804,-0.08585607260465622,9.878447532653809,-0.006799999624490738,0.00930000003427267,0.05999999865889549,-0.06099999926066736,0.12199999852133472,-0.1830000044521087
-0.11821610480546951,-0.09228210896253586,9.922443389892578,0.01860000006854534,-0.00029999998514540493,0.10899999737739563,0.12199999852133472,0,-0.06099999926066736
-0.13616304099559784,-0.09587341547012329,9.891855239868164,-0.0008999999845400453,-0.008100000210106373,0.06969999521970749,-0.06099999926066736,0,-0.12199999852133472
-0.15939638018608093,-0.09291417896747589,9.880487442016602,-0.01549999974668026,0.0011999999405816197,0.05999999865889549,-0.12199999852133472,-0.06099999926066736,-0.06099999926066736
-0.19152656197547913,-0.07431601732969284,9.887287139892578,0.010599999688565731,-0.029999999329447746,0.07959999889135361,-0.12199999852133472,0.06099999926066736,-0.12199999852133472
-0.10173442214727402,-0.08334694802761078,9.919053077697754,-0.04779999703168869,0.028599999845027924,0.0697999969124794,0.12199999852133472,0.06099999926066736,0.06099999926066736
-0.14706145226955414,-0.10258675366640091,9.904505729675293,-0.008200000040233135,-0.0007999999797903001,0.08940000087022781,0,0.12199999852133472,-0.06099999926066736
-0.15716497600078583,-0.10160991549491882,9.904678344726562,-0.01769999973475933,-0.0007999999797903001,0.08949999511241913,0,0.06099999926066736,0.06099999926066736
-0.15115074813365936,-0.0922916904091835,9.902714729309082,-0.007699999958276749,0.008899999782443047,0.08949999511241913,-0.06099999926066736,0.1830000044521087,0
-0.13518621027469635,-0.08064629137516022,9.881023406982422,0.0024999999441206455,0.01889999955892563,0.05999999865889549,-0.06099999926066736,0,-0.06099999926066736
-0.13323253393173218,-0.08950483798980713,9.905923843383789,0.012299999594688416,0.009200000204145908,0.08949999511241913,0.12199999852133472,0.12199999852133472,0.06099999926066736
-0.14191870391368866,-0.09614156186580658,9.887372970581055,0.00279999990016222,-0.0007999999797903001,0.06989999860525131,-0.06099999926066736,0.06099999926066736,0
-0.11784260720014572,-0.10745177417993546,9.911248207092285,0.022599998861551285,-0.010400000028312206,0.08949999511241913,-0.06099999926066736,0.1830000044521087,-0.06099999926066736
-0.13137462735176086,-0.06909666210412979,9.88393497467041,0.013199999928474426,0.02879999950528145,0.06989999860525131,0.12199999852133472,0.06099999926066736,0.06099999926066736
-0.15682020783424377,-0.12082099169492722,9.902178764343262,-0.01589999906718731,-0.020399998873472214,0.07970000058412552,-0.12199999852133472,0,0
-0.15162958204746246,-0.0833086371421814,9.902552604675293,-0.006099999882280827,0.01899999938905239,0.08949999511241913,0.06099999926066736,0.1830000044521087,0
-0.16418476402759552,-0.11312124133110046,9.906497955322266,-0.025200000032782555,-0.010499999858438969,0.08949999511241913,0.06099999926066736,0.1830000044521087,-0.06099999926066736
-0.156283900141716,-0.0965629443526268,9.92923355102539,-0.014800000004470348,-0.0007999999797903001,0.10909999907016754,0.06099999926066736,-0.06099999926066736,0
-0.14541423320770264,-0.09154469519853592,9.931877136230469,-0.004999999888241291,0.008700000122189522,0.11889999359846115,0.06099999926066736,0.12199999852133472,-0.12199999852133472
-0.14150689542293549,-0.10552683472633362,9.925201416015625,0.004999999888241291,-0.010999999940395355,0.10909999907016754,0.06099999926066736,0,0
-0.1277354508638382,-0.10803595930337906,9.917041778564453,0.014800000004470348,-0.011099999770522118,0.09929999709129333,0.12199999852133472,0.06099999926066736,-0.12199999852133472
-0.13741759955883026,-0.09543287754058838,9.89384651184082,0.0050999997183680534,0.008100000210106373,0.07970000058412552,0,0.12199999852133472,0
-0.12764926254749298,-0.09899545460939407,9.939155578613281,0.015199999324977398,-0.0015999999595806003,0.11889999359846115,0,0.06099999926066736,0
-0.13049358129501343,-0.10014466941356659,9.874052047729492,0.015399999916553497,-0.0015999999595806003,0.060099996626377106,-0.06099999926066736,0,-0.12199999852133472
-0.14433206617832184,-0.0915829986333847,9.91794204711914,-0.00419999985024333,0.008200000040233135,0.09929999709129333,0,0.12199999852133472,-0.06099999926066736
-0.14400644600391388,-0.0896867960691452,9.879203796386719,-0.0037999998312443495,0.008200000040233135,0.060099996626377106,0.06099999926066736,0.06099999926066736,0
-0.10946290194988251,-0.09754935652017593,9.897697448730469,0.03539999946951866,-0.0016999999061226845,0.07970000058412552,-0.06099999926066736,0,0
-0.14573027193546295,-0.11620496958494186,9.89304256439209,-0.003700000001117587,-0.0210999995470047,0.07970000058412552,0.06099999926066736,-0.06099999926066736,-0.06099999926066736
-0.14236880838871002,-0.11419384926557541,9.8876314163208,0.005799999926239252,-0.011399999260902405,0.06989999860525131,0,0.06099999926066736,0
-0.11816821992397308,-0.08948568254709244,9.894527435302734,0.025499999523162842,0.008100000210106373,0.07970000058412552,0,0.12199999852133472,0
-0.1444086730480194,-0.10360189527273178,9.921217918395996,-0.003499999875202775,-0.0015999999595806003,0.09929999709129333,0.1830000044521087,-0.12199999852133472,-0.06099999926066736
-0.12137644737958908,-0.09621817618608475,9.870431900024414,0.02539999969303608,-0.002099999925121665,0.0502999983727932,0,0.06099999926066736,-0.06099999926066736
-0.13056060671806335,-0.10590033233165741,9.908863067626953,0.015699999406933784,-0.011899999342858791,0.08949999511241913,0,-0.06099999926066736,0
-0.16556383669376373,-0.0895622968673706,9.89450740814209,-0.023599999025464058,0.007599999662488699,0.07970000058412552,0.12199999852133472,0,-0.06099999926066736
-0.12491029500961304,-0.09095093607902527,9.934136390686035,0.01549999974668026,0.0072999997064471245,0.11889999359846115,0.1830000044521087,-0.12199999852133472,-0.06099999926066736
-0.14879484474658966,-0.095270074903965,9.902131080627441,-0.004299999680370092,0.0066999997943639755,0.07970000058412552,0.06099999926066736,0,-0.12199999852133472
-0.13882538676261902,-0.08873869478702545,9.895848274230957,0.005399999674409628,0.0064999996684491634,0.07970000058412552,0.12199999852133472,0.06099999926066736,-0.1830000044521087
-0.16155114769935608,-0.0957489162683487,9.89806079864502,-0.013899999670684338,0.006199999712407589,0.07970000058412552,0,0,-0.12199999852133472
-0.13695791363716125,-0.10311347991228104,9.935812950134277,0.00559999980032444,-0.003499999875202775,0.11889999359846115,0,-0.06099999926066736,0
-0.14735832810401917,-0.10476069152355194,9.91970443725586,-0.004299999680370092,-0.003499999875202775,0.09929999709129333,0,0.06099999926066736,-0.12199999852133472
-0.12939223647117615,-0.07741890847682953,9.918057441711426,0.01529999915510416,0.01599999889731407,0.09929999709129333,0,0.12199999852133472,-0.12199999852133472
-0.12817597389221191,-0.11209652572870255,9.902973175048828,0.015599999576807022,-0.013299999758601189,0.08949999511241913,0.06099999926066736,0.06099999926066736,0
-0.13856682181358337,-0.08739794045686722,9.899736404418945,0.0058999997563660145,0.006000000052154064,0.07970000058412552,0.12199999852133472,0.12199999852133472,0
-0.12099337577819824,-0.09308656305074692,9.890437126159668,0.025699999183416367,0.005699999630451202,0.06989999860525131,-0.06099999926066736,0.1830000044521087,-0.12199999852133472
-0.15085387229919434,-0.09993397444486618,9.873601913452148,-0.0030999998562037945,-0.0038999998942017555,0.0502999983727932,0,-0.06099999926066736,0
-0.12515929341316223,-0.1208401471376419,9.912291526794434,0.016200000420212746,-0.023399999365210533,0.09929999709129333,-0.06099999926066736,0.06099999926066736,0
-0.14523227512836456,-0.09473377466201782,9.933274269104004,0.0064999996684491634,-0.013399999588727951,0.06989999860525131,0.1830000044521087,0,-0.06099999926066736
-0.15326720476150513,-0.10709742456674576,9.909514427185059,-0.012799999676644802,-0.0139999995008111,0.08949999511241913,0,-0.06099999926066736,0
-0.13904565572738647,-0.11072704195976257,9.913862228393555,0.006599999964237213,-0.013899999670684338,0.09929999709129333,0.06099999926066736,0.06099999926066736,-0.06099999926066736
-0.1419665813446045,-0.10697293281555176,9.918851852416992,0.0066999997943639755,-0.0139999995008111,0.09929999709129333,0.12199999852133472,0.06099999926066736,0
-0.15599660575389862,-0.10007762908935547,9.902887344360352,-0.012600000016391277,-0.004600000102072954,0.08949999511241913,0,-0.06099999926066736,-0.06099999926066736
-0.14535677433013916,-0.08360552042722702,9.912550926208496,-0.003000000026077032,0.01489999983459711,0.09929999709129333,0.12199999852133472,0.1830000044521087,0.06099999926066736
-0.1324663907289505,-0.10527783632278442,9.893980979919434,0.016999999061226845,-0.004900000058114529,0.07970000058412552,0,0.06099999926066736,0
-0.12744814157485962,-0.10575667768716812,9.90307903289795,0.016999999061226845,-0.014699999243021011,0.08949999511241913,-0.06099999926066736,0.06099999926066736,-0.06099999926066736
-0.12968911230564117,-0.09498277306556702,9.917817115783691,0.017099998891353607,0.004999999888241291,0.09929999709129333,-0.12199999852133472,0,0
-0.1406354010105133,-0.11356177181005478,9.929357528686523,0.0072999997064471245,-0.014099999330937862,0.10909999907016754,0,0.12199999852133472,-0.06099999926066736
-0.14743493497371674,-0.09959879517555237,9.889078140258789,-0.002099999925121665,-0.004299999680370092,0.06989999860525131,-0.06099999926066736,0.1830000044521087,-0.12199999852133472
-0.15655206143856049,-0.08332780003547668,9.905683517456055,-0.011299999430775642,0.01529999915510416,0.08949999511241913,0,0.12199999852133472,-0.06099999926066736
-0.1273811012506485,-0.09391974657773972,9.886290550231934,0.018199998885393143,0.005499999970197678,0.06989999860525131,-0.12199999852133472,-0.06099999926066736,-0.06099999926066736
-0.12930604815483093,-0.10389877110719681,9.905521392822266,0.017899999395012856,-0.0038999998942017555,0.08949999511241913,-0.06099999926066736,0.06099999926066736,0.06099999926066736
-0.1468220204114914,-0.10722193121910095,9.908940315246582,-0.00139999995008111,-0.013499999418854713,0.08949999511241913,-0.12199999852133472,-0.06099999926066736,-0.12199999852133472
-0.12949758768081665,-0.0844770148396492,9.903031349182129,0.017799999564886093,0.016099998727440834,0.08949999511241913,0,0.12199999852133472,-0.12199999852133472
-0.1573277860879898,-0.11306378245353699,9.906000137329102,-0.011099999770522118,-0.013199999928474426,0.08949999511241913,-0.06099999926066736,0.12199999852133472,-0.06099999926066736
-0.14273272454738617,-0.11859917640686035,9.915557861328125,0.008700000122189522,-0.022699998691678047,0.09929999709129333,-0.06099999926066736,-0.06099999926066736,0
-0.1489097774028778,-0.11257535964250565,9.917147636413574,-0.0011999999405816197,-0.01269999984651804,0.09929999709129333,0,0,-0.06099999926066736
-0.1620970368385315,-0.09637140482664108,9.908863067626953,-0.010900000110268593,-0.00279999990016222,0.08949999511241913,0,0.06099999926066736,0
-0.14170800149440765,-0.07118440419435501,9.912503242492676,0.008700000122189522,0.02630000002682209,0.09929999709129333,0.06099999926066736,0.12199999852133472,0
-0.1559295654296875,-0.079018235206604,9.899391174316406,-0.010400000028312206,0.016300000250339508,0.07970000058412552,0,0,0
-0.15841953456401825,-0.09556695818901062,9.901766777038574,-0.010400000028312206,0.006399999838322401,0.07970000058412552,0.06099999926066736,0.12199999852133472,-0.06099999926066736
-0.14189955592155457,-0.11288182437419891,9.873878479003906,0.009399999864399433,-0.013199999928474426,0.060099996626377106,0,-0.06099999926066736,-0.06099999926066736
-0.1413632482290268,-0.08866208046674728,9.903960227966309,0.009200000204145908,0.006300000008195639,0.08949999511241913,0,0.1830000044521087,-0.06099999926066736
-0.1193174347281456,-0.09658209979534149,9.879913330078125,0.028999999165534973,-0.003399999812245369,0.060099996626377106,0,0,-0.12199999852133472
-0.12045707553625107,-0.10211749374866486,9.926973342895508,0.02889999933540821,-0.003399999812245369,0.10909999907016754,-0.12199999852133472,0.24399999704266945,-0.12199999852133472
-0.1559104174375534,-0.07446924597024918,9.937392234802246,0.003000000026077032,0.020999999716877937,0.11909999698400497,-0.06099999926066736,0,-0.12199999852133472
-0.13298353552818298,-0.10589075833559036,9.901412963867188,0.016699999570846558,-0.009800000116229057,0.07970000058412552,0.06099999926066736,0.1830000044521087,-0.12199999852133472
-0.12953588366508484,-0.07062894850969315,9.888397216796875,0.010499999858438969,0.01809999905526638,0.06969999521970749,0.06099999926066736,0.12199999852133472,-0.12199999852133472
-0.16155114769935608,-0.0945613905787468,9.913957595825195,-0.015199999324977398,-0.0032999999821186066,0.09919999539852142,0,0.06099999926066736,-0.06099999926066736
-0.14256034791469574,-0.11842679232358932,9.908279418945312,0.0031999999191612005,-0.025499999523162842,0.08940000087022781,-0.06099999926066736,0.06099999926066736,-0.12199999852133472
-0.13857640326023102,-0.10044155269861221,9.907445907592773,0.002300000051036477,-0.004600000102072954,0.08940000087022781,0.12199999852133472,0,-0.1830000044521087
-0.13126929104328156,-0.09838254004716873,9.924903869628906,0.009599999524652958,-0.00419999985024333,0.10899999737739563,0,0,-0.06099999926066736
-0.1323610544204712,-0.10368809103965759,9.908835411071777,0.0072999997064471245,-0.003499999875202775,0.08940000087022781,-0.06099999926066736,0.12199999852133472,-0.06099999926066736
-0.13515746593475342,-0.09730035066604614,9.896759033203125,-0.0017999999690800905,-0.002699999837204814,0.07959999889135361,0.24399999704266945,0.06099999926066736,-0.12199999852133472
-0.11975797265768051,-0.11369584500789642,9.89854907989502,0.024000000208616257,-0.014699999243021011,0.07959999889135361,-0.06099999926066736,0,-0.1830000044521087
-0.13614389300346375,-0.07024587690830231,9.872529029846191,0.002899999963119626,0.017400000244379044,0.05009999871253967,-0.06099999926066736,0.12199999852133472,-0.06099999926066736
-0.15540285408496857,-0.08268614858388901,9.89538860321045,-0.013199999928474426,0.006000000052154064,0.07959999889135361,0,0.12199999852133472,-0.06099999926066736
-0.16474023461341858,-0.10820834338665009,9.884288787841797,-0.017799999564886093,-0.018199998885393143,0.06989999860525131,0.06099999926066736,0.12199999852133472,-0.12199999852133472
-0.1596357822418213,-0.10223241150379181,9.911008834838867,-0.006399999838322401,-0.00699999975040555,0.08959999680519104,-0.06099999926066736,0.06099999926066736,-0.06099999926066736
-0.13491806387901306,-0.09023267030715942,9.91287612915039,0.010599999688565731,0.002199999988079071,0.09929999709129333,-0.12199999852133472,0.06099999926066736,-0.24399999704266945
-0.1290666162967682,-0.10111192613840103,9.895092010498047,0.02410000003874302,-0.007699999958276749,0.07979999482631683,0.06099999926066736,0,-0.12199999852133472
-0.14120043814182281,-0.09564357250928879,9.917414665222168,0.011399999260902405,0.0013000000035390258,0.09929999709129333,0,0.06099999926066736,-0.12199999852133472
-0.12522631883621216,-0.11766064167022705,9.910271644592285,0.016699999570846558,-0.02239999920129776,0.08949999511241913,0,-0.1830000044521087,-0.12199999852133472
-0.14377659559249878,-0.10196426510810852,9.915413856506348,-0.002899999963119626,-0.0023999998811632395,0.09929999709129333,0,0,-0.12199999852133472
-0.15452177822589874,-0.05872498080134392,9.922405242919922,-0.010699999518692493,0.029899999499320984,0.10909999907016754,0.06099999926066736,0.1830000044521087,-0.06099999926066736
-0.1475307196378708,-0.09255026280879974,9.906957626342773,-0.0004999999655410647,0.00009999999747378752,0.08949999511241913,0.06099999926066736,0,-0.24399999704266945
-0.14744451642036438,-0.11771810799837112,9.90758991241455,0.003399999812245369,-0.029399998486042023,0.08949999511241913,-0.12199999852133472,0,-0.06099999926066736
-0.1420527845621109,-0.10660901665687561,9.905511856079102,0.010199999436736107,-0.01549999974668026,0.08949999511241913,-0.12199999852133472,-0.06099999926066736,0
-0.14367124438285828,-0.09911994636058807,9.899382591247559,0,-0.004299999680370092,0.07970000058412552,-0.06099999926066736,0.12199999852133472,-0.1830000044521087
-0.1451556533575058,-0.0966874361038208,9.933064460754395,0,-0.003599999938160181,0.11899999529123306,-0.06099999926066736,0.06099999926066736,-0.06099999926066736
-0.13429556787014008,-0.07185478508472443,9.874884605407715,0.00699999975040555,0.018799999728798866,0.05999999865889549,0,0,0
-0.14188997447490692,-0.09922529757022858,9.902830123901367,0.005399999674409628,-0.008599999360740185,0.08940000087022781,0,0.12199999852133472,-0.06099999926066736
-0.14073117077350616,-0.1122114509344101,9.904180526733398,-0.003399999812245369,0.000699999975040555,0.07959999889135361,0,0.12199999852133472,-0.12199999852133472
-0.14114297926425934,-0.09728120267391205,9.940869331359863,0.0050999997183680534,-0.015199999324977398,0.08949999511241913,0,0.12199999852133472,0
-0.1408461034297943,-0.08214027434587479,9.923554420471191,0.003499999875202775,0.011899999342858791,0.10899999737739563,-0.12199999852133472,0.12199999852133472,0
-0.16322709619998932,-0.08292556554079056,9.926628112792969,-0.0210999995470047,0.00989999994635582,0.10909999907016754,0,0.1830000044521087,-0.12199999852133472
-0.13539689779281616,-0.09261730313301086,9.912071228027344,0.008799999952316284,0.00009999999747378752,0.09929999709129333,0,-0.06099999926066736,-0.12199999852133472
-0.13260045647621155,-0.09805691987276077,9.907244682312012,0.018400000408291817,-0.009599999524652958,0.08949999511241913,0.06099999926066736,0.12199999852133472,-0.06099999926066736
-0.14971421658992767,-0.09318232536315918,9.920345306396484,-0.0007999999797903001,0,0.09929999709129333,0,0,-0.12199999852133472
-0.14166970551013947,-0.09172665327787399,9.912742614746094,0.008899999782443047,0,0.09929999709129333,0.12199999852133472,-0.12199999852133472,-0.06099999926066736
-0.11403103917837143,-0.07826166599988937,9.883830070495605,0.03790000081062317,0.009399999864399433,0.06989999860525131,-0.06099999926066736,0.06099999926066736,-0.06099999926066736
-0.14783717691898346,-0.11440453678369522,9.905444145202637,-0.0009999999310821295,-0.01979999989271164,0.08949999511241913,-0.1830000044521087,0,0.12199999852133472
-0.15075808763504028,-0.12554235756397247,9.890361785888672,-0.0009999999310821295,-0.03879999741911888,0.06989999860525131,0.12199999852133472,-0.1830000044521087,-0.12199999852133472
-0.1447821706533432,-0.09506896138191223,9.924128532409668,0.006399999838322401,0.00039999998989515007,0.10920000076293945,0,0,-0.12199999852133472
-0.13018712401390076,-0.09685982763767242,9.881013870239258,0.025999998673796654,-0.00930000003427267,0.06019999831914902,-0.06099999926066736,0.1830000044521087,-0.12199999852133472
-0.1387200504541397,-0.0833086371421814,9.893770217895508,0.016699999570846558,0.010400000028312206,0.07979999482631683,0.06099999926066736,-0.06099999926066736,-0.06099999926066736
-0.14303918182849884,-0.11601343750953674,9.930295944213867,0.016599999740719795,-0.02889999933540821,0.10920000076293945,0.1830000044521087,0.12199999852133472,-0.12199999852133472
-0.12719914317131042,-0.11655931919813156,9.89216136932373,0.02669999934732914,-0.029399998486042023,0.07000000029802322,-0.06099999926066736,0.06099999926066736,0
-0.1258200854063034,-0.08550173044204712,9.904123306274414,0.026899999007582664,0.00989999994635582,0.08959999680519104,0.06099999926066736,0.12199999852133472,-0.12199999852133472
-0.1200261265039444,-0.07898949831724167,9.918842315673828,0.03700000047683716,0.00969999935477972,0.09939999878406525,0.1830000044521087,0.06099999926066736,-0.06099999926066736
-0.1371111422777176,-0.07928638160228729,9.939193725585938,0.017500000074505806,0.009200000204145908,0.11899999529123306,0.06099999926066736,0,-0.1830000044521087
-0.14341269433498383,-0.08565495908260345,9.916621208190918,0.017500000074505806,0.009099999442696571,0.09939999878406525,-0.06099999926066736,0.06099999926066736,-0.12199999852133472
-0.15820884704589844,-0.10572794079780579,9.910615921020508,-0.0017999999690800905,-0.020099999383091927,0.08959999680519104,0,-0.06099999926066736,-0.06099999926066736
-0.15095919370651245,-0.09327810257673264,9.897016525268555,0.007699999958276749,-0.0004999999655410647,0.07979999482631683,0,0.06099999926066736,-0.06099999926066736
-0.1239238828420639,-0.10156203806400299,9.894575119018555,0.037299998104572296,-0.010300000198185444,0.07979999482631683,-0.12199999852133472,0.1830000044521087,-0.1830000044521087
-0.12234370410442352,-0.10919474810361862,9.898444175720215,0.03779999911785126,-0.019700000062584877,0.07979999482631683,-0.06099999926066736,-0.06099999926066736,-0.06099999926066736
-0.14491625130176544,-0.06793786585330963,9.926131248474121,0.017999999225139618,-0.009800000116229057,0.09939999878406525,-0.06099999926066736,0,-0.06099999926066736
-0.10832326859235764,-0.10585244745016098,9.875076293945312,0.04769999906420708,-0.019700000062584877,0.06019999831914902,0.12199999852133472,0.06099999926066736,-0.06099999926066736
-0.13915100693702698,-0.09164046496152878,9.896394729614258,0.01850000023841858,-0.00039999998989515007,0.07979999482631683,0,0.06099999926066736,-0.12199999852133472
-0.15668614208698273,-0.09468588978052139,9.89762020111084,-0.0008999999845400453,-0.00039999998989515007,0.07979999482631683,0.06099999926066736,0.06099999926066736,0
-0.1335294246673584,-0.09237787872552872,9.9158353805542,0.028599999845027924,-0.0005999999702908099,0.09939999878406525,0.12199999852133472,0.12199999852133472,0.06099999926066736
-0.14562492072582245,-0.09541372954845428,9.90433406829834,0.00930000003427267,-0.0008999999845400453,0.08959999680519104,0,0.12199999852133472,0.06099999926066736
-0.1472434103488922,-0.09911994636058807,9.929558753967285,0.00969999935477972,-0.010799999348819256,0.10920000076293945,0.06099999926066736,0.06099999926066736,-0.1830000044521087
-0.14053964614868164,-0.10149499773979187,9.935400009155273,0.019600000232458115,-0.010900000110268593,0.11899999529123306,0.06099999926066736,0.12199999852133472,0
-0.14399686455726624,-0.07276458293199539,9.920451164245605,0.010199999436736107,0.018199998885393143,0.09939999878406525,0,0.1830000044521087,0.06099999926066736
-0.1488044261932373,-0.09778877347707748,9.918766021728516,0.010599999688565731,-0.011099999770522118,0.09939999878406525,0.06099999926066736,-0.06099999926066736,-0.12199999852133472
-0.12469002604484558,-0.11179006099700928,9.946701049804688,0.029999999329447746,-0.020999999716877937,0.12889999151229858,0.06099999926066736,0,-0.12199999852133472
-0.13629712164402008,-0.10281659662723541,9.881579399108887,0.020099999383091927,-0.011299999430775642,0.06019999831914902,0,0.06099999926066736,0.06099999926066736
-0.14789462089538574,-0.09442731738090515,9.881272315979004,0.010400000028312206,-0.001500000013038516,0.06019999831914902,0.06099999926066736,0.24399999704266945,-0.12199999852133472
-0.11873325705528259,-0.09565314650535583,9.923975944519043,0.04050000011920929,-0.0015999999595806003,0.10920000076293945,0.06099999926066736,0,-0.06099999926066736
-0.13515746593475342,-0.12037088721990585,9.899784088134766,0.04050000011920929,-0.021399999037384987,0.06019999831914902,0.06099999926066736,-0.06099999926066736,-0.06099999926066736
-0.134985089302063,-0.1262797713279724,9.883149147033691,0.02070000022649765,-0.03139999881386757,0.07979999482631683,-0.06099999926066736,0.06099999926066736,0
-0.134985089302063,-0.1262797713279724,9.883149147033691,0.020999999716877937,-0.041200000792741776,0.06019999831914902,-0.06099999926066736,0.06099999926066736,0
-0.12272677570581436,-0.0887291207909584,9.91010856628418,0.021199999377131462,-0.021399999037384987,0.07000000029802322,-0.06099999926066736,0.12199999852133472,-0.06099999926066736
-0.12682566046714783,-0.10069054365158081,9.916476249694824,0.041099999099969864,-0.0015999999595806003,0.08959999680519104,0.06099999926066736,0,-0.12199999852133472
-0.12226708978414536,-0.11031524091959,9.911774635314941,0.031300000846385956,-0.011500000022351742,0.09939999878406525,0.12199999852133472,0.1830000044521087,-0.1830000044521087
-0.14116212725639343,-0.10515333712100983,9.91336441040039,0.02159999869763851,-0.011899999342858791,0.09939999878406525,0.06099999926066736,0.12199999852133472,-0.12199999852133472
-0.15943467617034912,-0.10342951118946075,9.931867599487305,0.002300000051036477,-0.012000000104308128,0.11909999698400497,0.06099999926066736,0.06099999926066736,-0.1830000044521087
-0.1393425464630127,-0.09908164292573929,9.91838264465332,0.022099999710917473,-0.012199999764561653,0.09950000047683716,0,0,-0.12199999852133472
-0.15255853533744812,-0.09287586808204651,9.919991493225098,0.012299999594688416,-0.0023999998811632395,0.09950000047683716,0.06099999926066736,0.12199999852133472,0.06099999926066736
-0.14596010744571686,-0.12268847227096558,9.899200439453125,0.012600000016391277,-0.03189999982714653,0.07979999482631683,0,0.06099999926066736,0
-0.15632222592830658,-0.09577763825654984,9.938158988952637,0.003000000026077032,-0.012299999594688416,0.11909999698400497,-0.06099999926066736,0,-0.06099999926066736
-0.12786951661109924,-0.09007944166660309,9.904831886291504,0.03240000084042549,-0.002300000051036477,0.08969999849796295,0,0.06099999926066736,0
-0.1291528195142746,-0.0863923728466034,9.88829231262207,0.032499998807907104,-0.002300000051036477,0.07000000029802322,0,-0.06099999926066736,0
-0.14615164697170258,-0.10606313496828079,9.929759979248047,0.01269999984651804,-0.021900000050663948,0.10929999500513077,0,0,-0.06099999926066736
-0.14437036216259003,-0.10571836680173874,9.897141456604004,0.01269999984651804,-0.021900000050663948,0.07979999482631683,0,0,-0.06099999926066736
-0.13664187490940094,-0.10115981101989746,9.90060806274414,0.022499999031424522,-0.01209999993443489,0.07979999482631683,0.06099999926066736,0.06099999926066736,0.12199999852133472
-0.12660539150238037,-0.10464576631784439,9.868353843688965,0.03219999745488167,-0.012199999764561653,0.05040000006556511,0.06099999926066736,0.12199999852133472,0.06099999926066736
-0.1495322585105896,-0.09268433600664139,9.897610664367676,0.012899999506771564,-0.0024999999441206455,0.07979999482631683,0.06099999926066736,0.06099999926066736,-0.06099999926066736
-0.13953407108783722,-0.11032481491565704,9.925278663635254,0.02279999852180481,-0.022199999541044235,0.10929999500513077,0,0,-0.12199999852133472
-0.142071932554245,-0.08386410027742386,9.906900405883789,0.022599998861551285,0.0071000000461936,0.08969999849796295,0.12199999852133472,0.06099999926066736,0
-0.1501164436340332,-0.10628340393304825,9.909390449523926,0.012899999506771564,-0.022499999031424522,0.08969999849796295,-0.1830000044521087,0,-0.1830000044521087
-0.12134771794080734,-0.11448115110397339,9.898530006408691,0.04230000078678131,-0.02199999988079071,0.07979999482631683,0.1830000044521087,0.12199999852133472,-0.06099999926066736
-0.1475307196378708,-0.09399636089801788,9.901853561401367,0.013199999928474426,-0.002899999963119626,0.07979999482631683,0,0.12199999852133472,-0.12199999852133472
-0.15637968480587006,-0.09872730076313019,9.923439025878906,0.0037999998312443495,-0.01269999984651804,0.10929999500513077,0,0,-0.06099999926066736
-0.13929466903209686,-0.0842471718788147,9.885505676269531,0.023399999365210533,0.006899999920278788,0.07000000029802322,-0.12199999852133472,-0.06099999926066736,-0.06099999926066736
-0.16408900916576385,-0.10671435296535492,9.886703491210938,-0.006099999882280827,-0.022299999371170998,0.07000000029802322,-0.12199999852133472,0.06099999926066736,-0.06099999926066736
-0.12719914317131042,-0.10205045342445374,9.883858680725098,0.03309999778866768,-0.01209999993443489,0.07009999454021454,0.12199999852133472,-0.06099999926066736,0
-0.14888104796409607,-0.08994536846876144,9.901326179504395,0.013299999758601189,-0.0026000000070780516,0.07989999651908875,0.06099999926066736,0.06099999926066736,0
-0.12898044288158417,-0.08651687949895859,9.898002624511719,0.03309999778866768,-0.00279999990016222,0.07989999651908875,-0.12199999852133472,0,-0.06099999926066736
-0.11746910959482193,-0.09051039814949036,9.903308868408203,0.042799998074769974,-0.0024999999441206455,0.08969999849796295,0,0,-0.12199999852133472
-0.1611201912164688,-0.08587522804737091,9.895868301391602,0.003599999938160181,0.007199999876320362,0.07989999651908875,0,0.12199999852133472,0.12199999852133472
-0.15849615633487701,-0.105689637362957,9.887689590454102,0.0038999998942017555,-0.021900000050663948,0.07009999454021454,-0.12199999852133472,0,-0.06099999926066736
-0.14564406871795654,-0.11448115110397339,9.908279418945312,0.013599999248981476,-0.02149999886751175,0.08969999849796295,0.12199999852133472,0.12199999852133472,-0.12199999852133472
-0.13891157507896423,-0.09034759551286697,9.910577774047852,0.023599999025464058,-0.002199999988079071,0.08969999849796295,-0.06099999926066736,0,0
-0.14605587720870972,-0.09481996297836304,9.916275024414062,0.013700000010430813,-0.001999999862164259,0.09950000047683716,-0.12199999852133472,0,-0.06099999926066736
-0.16185760498046875,-0.11194329708814621,9.929060935974121,0.0038999998942017555,-0.021199999377131462,0.10929999500513077,0,0.1830000044521087,-0.06099999926066736
-0.17438407242298126,-0.09637140482664108,9.912435531616211,-0.015099999494850636,-0.011299999430775642,0.09950000047683716,0,0,-0.06099999926066736
-0.15123693645000458,-0.11609963327646255,9.892898559570312,0.0142000000923872,-0.030700000002980232,0.07989999651908875,0.06099999926066736,0,0.06099999926066736
-0.13616304099559784,-0.08657433092594147,9.922760009765625,0.023799998685717583,-0.00139999995008111,0.10929999500513077,-0.06099999926066736,0.06099999926066736,0
-0.12645216286182404,-0.1049809604883194,9.894928932189941,0.03350000083446503,-0.010999999940395355,0.07989999651908875,-0.06099999926066736,0,-0.06099999926066736
-0.15466544032096863,-0.10064265877008438,9.89963150024414,0.004100000020116568,-0.010799999348819256,0.07989999651908875,0,0,0
-0.13334745168685913,-0.12270762771368027,9.90562629699707,0.033299997448921204,-0.03019999898970127,0.08969999849796295,0,0,-0.06099999926066736
-0.13783897459506989,-0.09959879517555237,9.898319244384766,0.02329999953508377,-0.010499999858438969,0.07989999651908875,-0.06099999926066736,0.12199999852133472,-0.24399999704266945
-0.14045344293117523,-0.0754939615726471,9.914169311523438,0.023599999025464058,0.01899999938905239,0.09950000047683716,-0.06099999926066736,0.1830000044521087,-0.24399999704266945
-0.1370057910680771,-0.09864111244678497,9.870757102966309,0.02410000003874302,-0.010099999606609344,0.05049999803304672,0.12199999852133472,0.06099999926066736,0
-0.14752113819122314,-0.08127836138010025,9.890122413635254,0.014499999582767487,0.008999999612569809,0.07009999454021454,-0.06099999926066736,0,0
-0.15297991037368774,-0.1235695406794548,9.907196998596191,0.014499999582767487,-0.029899999499320984,0.08969999849796295,0,0.06099999926066736,-0.12199999852133472
-0.1321120411157608,-0.0940825492143631,9.899200439453125,0.034199997782707214,-0.0004999999655410647,0.07989999651908875,0.1830000044521087,0.12199999852133472,0
-0.15230953693389893,-0.08944737166166306,9.91407299041748,0.01489999983459711,-0.0009999999310821295,0.09950000047683716,0,0.1830000044521087,-0.06099999926066736
-0.1306755244731903,-0.08169016242027283,9.916601181030273,0.03500000014901161,0.008700000122189522,0.09950000047683716,0.06099999926066736,0.1830000044521087,-0.06099999926066736
-0.14024275541305542,-0.08702444285154343,9.917176246643066,0.025699999183416367,-0.0011999999405816197,0.09950000047683716,0.12199999852133472,0.1830000044521087,-0.12199999852133472
-0.1294688582420349,-0.13038823008537292,9.924118995666504,0.035999998450279236,-0.040699999779462814,0.10929999500513077,-0.06099999926066736,0,-0.06099999926066736
-0.1419474333524704,-0.11170387268066406,9.895379066467285,0.026099998503923416,-0.020899999886751175,0.07989999651908875,0,-0.06099999926066736,0
-0.1363449990749359,-0.08921752870082855,9.905014038085938,0.02589999884366989,-0.0013000000035390258,0.08969999849796295,0.06099999926066736,0,0
-0.14389152824878693,-0.10884040594100952,9.88731575012207,0.016099998727440834,-0.02149999886751175,0.07009999454021454,0.06099999926066736,0.06099999926066736,0.06099999926066736
-0.1393616944551468,-0.11634862422943115,9.882220268249512,0.025999998673796654,-0.03150000050663948,0.06030000001192093,0.06099999926066736,0,-0.06099999926066736
-0.15540285408496857,-0.09962751716375351,9.907207489013672,0.006399999838322401,-0.012000000104308128,0.08969999849796295,0.06099999926066736,0.12199999852133472,-0.06099999926066736
-0.16484558582305908,-0.11320743709802628,9.895033836364746,-0.003000000026077032,-0.021900000050663948,0.07989999651908875,0,0.12199999852133472,0
-0.14462894201278687,-0.10602482408285141,9.89892292022705,0.01679999940097332,-0.021900000050663948,0.07989999651908875,0.12199999852133472,0.1830000044521087,0
-0.12806107103824615,-0.11554417759180069,9.886941909790039,0.03689999878406525,-0.03199999779462814,0.07009999454021454,0.12199999852133472,0.06099999926066736,0
-0.13805924355983734,-0.10754753649234772,9.897830963134766,0.02719999849796295,-0.022499999031424522,0.07989999651908875,0,0.12199999852133472,-0.12199999852133472
-0.13645991683006287,-0.10953951627016068,9.911766052246094,0.027300000190734863,-0.022299999371170998,0.08969999849796295,-0.06099999926066736,0.12199999852133472,0
-0.14483004808425903,-0.10315178334712982,9.924751281738281,0.01769999973475933,-0.012299999594688416,0.10929999500513077,0.06099999926066736,0.06099999926066736,-0.06099999926066736
-0.13495635986328125,-0.09236830472946167,9.915298461914062,0.027400000020861626,-0.0026000000070780516,0.09950000047683716,0,0.12199999852133472,0
-0.14804784953594208,-0.08667968213558197,9.905550003051758,0.017799999564886093,-0.0026000000070780516,0.08969999849796295,0,0.06099999926066736,-0.06099999926066736
-0.14576856791973114,-0.08511865884065628,9.926551818847656,0.017799999564886093,0.0071000000461936,0.10929999500513077,0.06099999926066736,0,-0.06099999926066736
-0.13077129423618317,-0.10338162630796432,9.917654991149902,0.03709999844431877,-0.01249999925494194,0.09950000047683716,-0.06099999926066736,-0.06099999926066736,-0.06099999926066736
-0.1428859531879425,-0.10107361525297165,9.871427536010742,0.026799999177455902,-0.012199999764561653,0.05049999803304672,-0.06099999926066736,0.06099999926066736,-0.06099999926066736
-0.14213895797729492,-0.09817184507846832,9.902111053466797,0.02669999934732914,-0.011899999342858791,0.07989999651908875,0.06099999926066736,0.12199999852133472,-0.06099999926066736
-0.14451400935649872,-0.1062929779291153,9.905339241027832,0.016999999061226845,-0.021699998527765274,0.08969999849796295,-0.06099999926066736,0.06099999926066736,-0.12199999852133472
-0.12951673567295074,-0.09913910925388336,9.885821342468262,0.036399997770786285,-0.011599999852478504,0.07009999454021454,-0.06099999926066736,0.06099999926066736,-0.06099999926066736
-0.15315230190753937,-0.09629479050636292,9.909073829650879,0.01679999940097332,-0.011399999260902405,0.08969999849796295,0.12199999852133472,0.12199999852133472,-0.12199999852133472
-0.142780601978302,-0.1091277152299881,9.900080680847168,0.02669999934732914,-0.021299999207258224,0.07989999651908875,0.06099999926066736,0.06099999926066736,0
-0.15324805676937103,-0.10555556416511536,9.895340919494629,0.007199999876320362,-0.021299999207258224,0.07989999651908875,-0.12199999852133472,-0.06099999926066736,-0.1830000044521087
-0.14937902987003326,-0.11524729430675507,9.9188232421875,0.016599999740719795,-0.030499998480081558,0.09950000047683716,0.12199999852133472,0.06099999926066736,-0.06099999926066736
-0.1669524759054184,-0.09343133121728897,9.87243366241455,-0.002699999837204814,-0.00139999995008111,0.05049999803304672,-0.06099999926066736,0.06099999926066736,0.06099999926066736
-0.1382795125246048,-0.08728302270174026,9.908068656921387,0.026599999517202377,-0.0011999999405816197,0.08969999849796295,-0.06099999926066736,0.12199999852133472,-0.12199999852133472
-0.15146678686141968,-0.09150638431310654,9.937613487243652,0.016999999061226845,-0.0009999999310821295,0.11919999867677689,0.12199999852133472,-0.06099999926066736,-0.1830000044521087
-0.16708654165267944,-0.09790369123220444,9.912004470825195,-0.002699999837204814,-0.011099999770522118,0.09950000047683716,0,0.24399999704266945,-0.06099999926066736
-0.1536790132522583,-0.10763372480869293,9.911784172058105,0.007699999958276749,-0.020899999886751175,0.08969999849796295,-0.06099999926066736,0.1830000044521087,0
-0.14782759547233582,-0.0967927873134613,9.897907257080078,0.017999999225139618,-0.010900000110268593,0.07989999651908875,-0.12199999852133472,0.12199999852133472,0
-0.14862246811389923,-0.09176496416330338,9.911267280578613,0.018299998715519905,-0.0007999999797903001,0.07009999454021454,0.12199999852133472,0.06099999926066736,-0.12199999852133472
-0.1344679445028305,-0.104023277759552,9.920087814331055,0.018400000408291817,-0.0010999999940395355,0.08980000019073486,0.06099999926066736,0,-0.06099999926066736
-0.14048217236995697,-0.06552451103925705,9.892966270446777,0.02850000001490116,0.028199998661875725,0.07989999651908875,-0.12199999852133472,0.12199999852133472,-0.12199999852133472
-0.12444102764129639,-0.09032844752073288,9.906852722167969,0.04839999973773956,-0.0007999999797903001,0.08980000019073486,0,0.06099999926066736,-0.06099999926066736
-0.12786951661109924,-0.1036689281463623,9.875919342041016,0.03869999945163727,-0.010599999688565731,0.06030000001192093,-0.06099999926066736,0.06099999926066736,-0.12199999852133472
-0.1311735212802887,-0.10024043917655945,9.879271507263184,0.03879999741911888,-0.010400000028312206,0.06030000001192093,0,0.06099999926066736,-0.06099999926066736
-0.17164510488510132,-0.10102573037147522,9.904611587524414,-0.00019999999494757503,-0.010400000028312206,0.08980000019073486,0,0.06099999926066736,0.06099999926066736
-0.13047441840171814,-0.09980947524309158,9.913451194763184,0.039000000804662704,-0.010400000028312206,0.09959999471902847,-0.06099999926066736,0.1830000044521087,-0.06099999926066736
-0.12343546003103256,-0.08567410707473755,9.89490032196045,0.04879999905824661,0.009200000204145908,0.07999999821186066,-0.06099999926066736,0.12199999852133472,-0.06099999926066736
-0.13258130848407745,-0.1135043129324913,9.922262191772461,0.039000000804662704,-0.01979999989271164,0.10939999669790268,-0.12199999852133472,0.12199999852133472,-0.12199999852133472
-0.1535736620426178,-0.07829996943473816,9.92154312133789,0.009800000116229057,0.009800000116229057,0.09959999471902847,0.12199999852133472,0,0
-0.1290283203125,-0.11309251189231873,9.915902137756348,0.03889999911189079,-0.019700000062584877,0.09959999471902847,-0.06099999926066736,0.1830000044521087,0
-0.15110285580158234,-0.06571605056524277,9.912847518920898,0.019600000232458115,0.029099998995661736,0.09959999471902847,0.06099999926066736,0.06099999926066736,-0.12199999852133472
-0.14479175209999084,-0.0951455757021904,9.903787612915039,0.019500000402331352,-0.00029999998514540493,0.08980000019073486,0.06099999926066736,0.06099999926066736,0.06099999926066736
-0.13418063521385193,-0.0845823585987091,9.927433013916016,0.02929999865591526,0.009099999442696571,0.10939999669790268,-0.06099999926066736,0.06099999926066736,-0.06099999926066736
-0.1378198266029358,-0.0746416300535202,9.928093910217285,0.029199998825788498,0.01889999955892563,0.10939999669790268,0.12199999852133472,0,0
-0.12669157981872559,-0.11897267401218414,9.910050392150879,0.038599997758865356,-0.03009999915957451,0.08980000019073486,0.12199999852133472,0.06099999926066736,0
-0.1296125054359436,-0.09428366273641586,9.909419059753418,0.03839999809861183,-0.0009999999310821295,0.08980000019073486,0,0,-0.12199999852133472
-0.11699027568101883,-0.09392932057380676,9.904132843017578,0.04769999906420708,-0.0009999999310821295,0.08980000019073486,0,0.06099999926066736,-0.06099999926066736
-0.13224612176418304,-0.09334513545036316,9.90797233581543,0.037699997425079346,-0.0009999999310821295,0.08969999849796295,0.06099999926066736,0.12199999852133472,0
-0.141449436545372,-0.0983538031578064,9.900598526000977,0.027899999171495438,-0.010799999348819256,0.07989999651908875,-0.06099999926066736,0,-0.06099999926066736
-0.13594278693199158,-0.08951441198587418,9.908231735229492,0.02759999968111515,-0.0007999999797903001,0.08969999849796295,-0.06099999926066736,0.12199999852133472,-0.06099999926066736
-0.13537774980068207,-0.09010817855596542,9.878341674804688,0.02759999968111515,-0.000699999975040555,0.06030000001192093,0.06099999926066736,0.06099999926066736,-0.12199999852133472
-0.10470323264598846,-0.10929051786661148,9.917520523071289,0.06629999727010727,-0.02029999904334545,0.09950000047683716,0.06099999926066736,0.1830000044521087,-0.06099999926066736
-0.15466544032096863,-0.07952580600976944,9.921170234680176,0.03709999844431877,-0.02029999904334545,0.09950000047683716,-0.06099999926066736,-0.12199999852133472,-0.12199999852133472
-0.14837346971035004,-0.08179550617933273,9.890217781066895,0.016999999061226845,0.009499999694526196,0.07009999454021454,0.06099999926066736,0.12199999852133472,-0.12199999852133472
-0.1595974862575531,-0.10633128136396408,9.922327995300293,0.007499999832361937,-0.01979999989271164,0.10939999669790268,0,0,0.12199999852133472
-0.17907670140266418,-0.07957368344068527,9.907235145568848,-0.012000000104308128,0.009399999864399433,0.08969999849796295,0.06099999926066736,0.12199999852133472,-0.06099999926066736
-0.14960886538028717,-0.10042239725589752,9.908049583435059,0.017500000074505806,-0.010199999436736107,0.08969999849796295,0,0.1830000044521087,0
-0.14532804489135742,-0.0867275595664978,9.911094665527344,0.017799999564886093,-0.00039999998989515007,0.08969999849796295,-0.12199999852133472,0.06099999926066736,0
-0.14243584871292114,-0.10251971334218979,9.93895435333252,0.02759999968111515,-0.009800000116229057,0.11919999867677689,0.12199999852133472,0.12199999852133472,-0.12199999852133472
-0.17917248606681824,-0.1370536834001541,9.922941207885742,-0.011099999770522118,-0.048899997025728226,0.10939999669790268,-0.06099999926066736,0,0
-0.1116272583603859,-0.09290460497140884,9.912991523742676,0.05689999833703041,0.00019999999494757503,0.09959999471902847,0.12199999852133472,0,-0.06099999926066736
-0.13920846581459045,-0.09595002979040146,9.9042387008667,0.02719999849796295,-0.009800000116229057,0.08969999849796295,0.12199999852133472,0.06099999926066736,-0.12199999852133472
-0.14760732650756836,-0.10047028213739395,9.855060577392578,0.01719999872148037,-0.009999999776482582,0.040699999779462814,-0.06099999926066736,0.06099999926066736,-0.12199999852133472
-0.138988196849823,-0.09278010576963425,9.883657455444336,0.026899999007582664,0,0.07009999454021454,-0.06099999926066736,0.06099999926066736,0
-0.1675558239221573,-0.0995221808552742,9.893933296203613,-0.002300000051036477,-0.009499999694526196,0.07989999651908875,-0.06099999926066736,0.1830000044521087,0
-0.15597744286060333,-0.060745686292648315,9.903375625610352,0.007799999788403511,0.029500000178813934,0.08969999849796295,0,0,-0.12199999852133472
-0.1467166692018509,-0.07612603902816772,9.893310546875,0.017400000244379044,0.019500000402331352,0.07989999651908875,0,0.12199999852133472,0
-0.14048217236995697,-0.07931511849164963,9.932326316833496,0.027400000020861626,0.009599999524652958,0.11919999867677689,0.06099999926066736,0,0
-0.13822203874588013,-0.06756436824798584,9.907771110534668,0.02709999866783619,0.01899999938905239,0.08969999849796295,0.06099999926066736,0,0.06099999926066736
-0.1397830694913864,-0.09359413385391235,9.906805038452148,0.026799999177455902,-0.000699999975040555,0.08969999849796295,0.06099999926066736,0.06099999926066736,-0.06099999926066736
-0.14435121417045593,-0.08998367190361023,9.899219512939453,0.016999999061226845,-0.0007999999797903001,0.07989999651908875,-0.06099999926066736,0.12199999852133472,0
-0.1554315835237503,-0.0805600956082344,9.902475357055664,0.007400000002235174,0.008999999612569809,0.08969999849796295,0,0.1830000044521087,-0.06099999926066736
-0.1414877474308014,-0.09056786447763443,9.932833671569824,0.027300000190734863,-0.000699999975040555,0.11919999867677689,-0.06099999926066736,0.06099999926066736,-0.24399999704266945
-0.11873325705528259,-0.08893980085849762,9.889479637145996,0.0471000000834465,-0.0005999999702908099,0.07009999454021454,0,0.06099999926066736,-0.12199999852133472
-0.1307808756828308,-0.09653420746326447,9.88725757598877,0.03739999979734421,-0.010300000198185444,0.07009999454021454,0,0.12199999852133472,-0.12199999852133472
-0.14439909160137177,-0.09966582804918289,9.899660110473633,0.01809999905526638,-0.010300000198185444,0.07989999651908875,0,0.12199999852133472,0.06099999926066736
-0.14300088584423065,-0.10810299962759018,9.89673900604248,0.028199998661875725,-0.020099999383091927,0.07989999651908875,-0.06099999926066736,0,0
-0.12914323806762695,-0.10984598100185394,9.890945434570312,0.03849999979138374,-0.020099999383091927,0.07019999623298645,0.06099999926066736,0.1830000044521087,0
-0.12152010202407837,-0.06656838208436966,9.90597152709961,0.0486999973654747,0.028599999845027924,0.08980000019073486,-0.12199999852133472,0.12199999852133472,-0.06099999926066736
-0.12883678078651428,-0.08960060030221939,9.891031265258789,0.03920000046491623,-0.00029999998514540493,0.07019999623298645,0,-0.06099999926066736,-0.06099999926066736
-0.13431471586227417,-0.06147352233529091,9.90428638458252,0.029199998825788498,0.02889999933540821,0.08980000019073486,-0.06099999926066736,0.06099999926066736,0
-0.1316140592098236,-0.09777919948101044,9.897878646850586,0.03909999877214432,-0.009999999776482582,0.07999999821186066,0.06099999926066736,0.24399999704266945,-0.06099999926066736
-0.14091312885284424,-0.08963891118764877,9.892955780029297,0.029999999329447746,-0.00039999998989515007,0.07999999821186066,0.24399999704266945,0.12199999852133472,-0.12199999852133472
-0.15358325839042664,-0.09509769082069397,9.901546478271484,0.010699999518692493,-0.0009999999310821295,0.07999999821186066,0.06099999926066736,0.06099999926066736,0
-0.1370728313922882,-0.09410169720649719,9.88976764678955,0.030399998649954796,-0.0011999999405816197,0.07019999623298645,0,-0.06099999926066736,-0.12199999852133472
-0.1338837593793869,-0.11406934261322021,9.907628059387207,0.03999999910593033,-0.020800000056624413,0.08980000019073486,0,0.06099999926066736,-0.06099999926066736
-0.1302158385515213,-0.08602845668792725,9.874549865722656,0.04010000079870224,0.008499999530613422,0.06039999797940254,-0.06099999926066736,0.12199999852133472,-0.06099999926066736
-0.1233396902680397,-0.08368213474750519,9.891912460327148,0.05009999871253967,0.008700000122189522,0.07019999623298645,-0.06099999926066736,0.06099999926066736,0
-0.13281115889549255,-0.12079226970672607,9.877710342407227,0.04039999842643738,-0.03019999898970127,0.06039999797940254,0,0,-0.06099999926066736
-0.14211980998516083,-0.09182242304086685,9.909111976623535,0.030700000002980232,-0.0007999999797903001,0.08980000019073486,0.06099999926066736,0.12199999852133472,-0.06099999926066736
-0.12375149875879288,-0.08790551126003265,9.915461540222168,0.050599999725818634,-0.0009999999310821295,0.09959999471902847,0,0.12199999852133472,0
-0.13573208451271057,-0.09565314650535583,9.899823188781738,0.031300000846385956,-0.0009999999310821295,0.07999999821186066,0.12199999852133472,0.1830000044521087,0
-0.13310803472995758,-0.06253654509782791,9.886980056762695,0.04149999842047691,0.0279999990016222,0.07019999623298645,-0.06099999926066736,-0.06099999926066736,-0.06099999926066736
-0.14156435430049896,-0.09970413148403168,9.898395538330078,0.031099999323487282,-0.010900000110268593,0.07999999821186066,0,0.12199999852133472,0
-0.12219047546386719,-0.10135135054588318,9.921849250793457,0.050599999725818634,-0.010799999348819256,0.10939999669790268,-0.12199999852133472,0.06099999926066736,-0.06099999926066736
-0.12219047546386719,-0.10135135054588318,9.921849250793457,0.050599999725818634,-0.010799999348819256,0.10939999669790268,-0.12199999852133472,0.06099999926066736,-0.06099999926066736
-0.14339353144168854,-0.09201396256685257,9.946011543273926,0.030799999833106995,-0.0005999999702908099,0.1289999932050705,-0.12199999852133472,0,0
-0.13601939380168915,-0.09649590402841568,9.91463851928711,0.029899999499320984,-0.010199999436736107,0.09959999471902847,-0.12199999852133472,0.12199999852133472,0
-0.1314033716917038,-0.08631575852632523,9.895225524902344,0.03949999809265137,0,0.07999999821186066,-0.12199999852133472,-0.06099999926066736,-0.06099999926066736
-0.15381309390068054,-0.10105446726083755,9.906393051147461,0.009800000116229057,-0.009399999864399433,0.08980000019073486,-0.06099999926066736,0.1830000044521087,-0.06099999926066736
-0.14808616042137146,-0.08348102867603302,9.904621124267578,0.019899999722838402,0.010199999436736107,0.08980000019073486,0,0.06099999926066736,-0.1830000044521087
-0.14178462326526642,-0.10860098898410797,9.894421577453613,0.029500000178813934,-0.01889999955892563,0.07999999821186066,0.06099999926066736,0,0.06099999926066736
-0.14982914924621582,-0.1126902848482132,9.922481536865234,0.019500000402331352,-0.01889999955892563,0.10939999669790268,0.06099999926066736,0.12199999852133472,-0.12199999852133472
-0.15468458831310272,-0.10686758160591125,9.898463249206543,0.00989999994635582,-0.01889999955892563,0.07999999821186066,0.06099999926066736,0.06099999926066736,-0.12199999852133472
-0.12184570729732513,-0.09306740760803223,9.903519630432129,0.0486999973654747,0.0004999999655410647,0.08980000019073486,-0.06099999926066736,0.12199999852133472,0
-0.15317144989967346,-0.0755801647901535,9.91674518585205,0.01939999870955944,0.019999999552965164,0.09959999471902847,0.06099999926066736,0,-0.06099999926066736
-0.16137877106666565,-0.06199067085981369,9.933733940124512,0.009499999694526196,0.029399998486042023,0.11919999867677689,-0.12199999852133472,0.12199999852133472,-0.12199999852133472
-0.15538369119167328,-0.09430281817913055,9.911046981811523,0.00969999935477972,0.00029999998514540493,0.08980000019073486,-0.06099999926066736,0.1830000044521087,-0.06099999926066736
-0.1307138353586197,-0.08499416708946228,9.885773658752441,0.03909999877214432,0.010199999436736107,0.07019999623298645,0.06099999926066736,0.12199999852133472,-0.12199999852133472
-0.14889061450958252,-0.09751104563474655,9.924589157104492,0.019600000232458115,-0.009399999864399433,0.10939999669790268,0.06099999926066736,0.1830000044521087,0
-0.14449486136436462,-0.09073066711425781,9.882882118225098,0.01979999989271164,0.00009999999747378752,0.06039999797940254,0,0.06099999926066736,-0.06099999926066736
-0.15315230190753937,-0.09612241387367249,9.921092987060547,0.01979999989271164,-0.009499999694526196,0.09959999471902847,-0.12199999852133472,0.12199999852133472,-0.24399999704266945
-0.14591223001480103,-0.07758171111345291,9.904496192932129,0.020099999383091927,0.010300000198185444,0.08980000019073486,0.06099999926066736,0.1830000044521087,-0.06099999926066736
-0.12538912892341614,-0.11300631612539291,9.920958518981934,0.04010000079870224,-0.019099999219179153,0.09959999471902847,0,0.12199999852133472,-0.12199999852133472
-0.15408124029636383,-0.08848011493682861,9.90459156036377,0.010999999940395355,0.00039999998989515007,0.08980000019073486,-0.06099999926066736,0.12199999852133472,0
-0.14556746184825897,-0.07867346704006195,9.918219566345215,0.021199999377131462,0.010400000028312206,0.09959999471902847,0,0.12199999852133472,0
-0.11857043951749802,-0.10715489089488983,9.918956756591797,0.05079999938607216,-0.01889999955892563,0.09959999471902847,-0.06099999926066736,0.06099999926066736,0
-0.12966038286685944,-0.09776962548494339,9.902294158935547,0.041099999099969864,-0.008999999612569809,0.07999999821186066,0.06099999926066736,0.1830000044521087,-0.06099999926066736
-0.1362396478652954,-0.07558973878622055,9.915624618530273,0.03179999813437462,0.02019999921321869,0.09959999471902847,0,0.06099999926066736,0
-0.14506947994232178,-0.08434294164180756,9.911774635314941,0.02239999920129776,0.010199999436736107,0.08980000019073486,0.06099999926066736,0,-0.06099999926066736
-0.13878707587718964,-0.08963891118764877,9.926982879638672,0.032099999487400055,0.00019999999494757503,0.10939999669790268,0.06099999926066736,0,-0.1830000044521087
-0.15575718879699707,-0.08167100697755814,9.878064155578613,0.01249999925494194,0.00989999994635582,0.06039999797940254,0,0.06099999926066736,-0.06099999926066736
-0.14414051175117493,-0.08203493058681488,9.935515403747559,0.022199999541044235,0.009800000116229057,0.11919999867677689,-0.06099999926066736,0.06099999926066736,-0.06099999926066736
-0.14057794213294983,-0.06752606481313705,9.895426750183105,0.03179999813437462,0.019500000402331352,0.07999999821186066,0,0.12199999852133472,-0.06099999926066736
-0.13407529890537262,-0.06995857506990433,9.890092849731445,0.031599998474121094,0.019199999049305916,0.07019999623298645,0.1830000044521087,0.06099999926066736,0
-0.1844397336244583,-0.11993034929037094,9.930066108703613,-0.016999999061226845,-0.029899999499320984,0.10939999669790268,-0.06099999926066736,-0.06099999926066736,-0.06099999926066736
-0.14043429493904114,-0.10684843361377716,9.888397216796875,0.031300000846385956,-0.019700000062584877,0.07019999623298645,0.12199999852133472,0.12199999852133472,-0.06099999926066736
-0.14477258920669556,-0.09073066711425781,9.86867904663086,0.02149999886751175,-0.00039999998989515007,0.050599999725818634,0.06099999926066736,0.12199999852133472,-0.06099999926066736
-0.14243584871292114,-0.11643481254577637,9.8962984085083,0.031199999153614044,-0.029600000008940697,0.07999999821186066,-0.06099999926066736,0,-0.12199999852133472
-0.1613500416278839,-0.10428185015916824,9.905740737915039,0.011399999260902405,-0.00969999935477972,0.08980000019073486,0,0.06099999926066736,-0.06099999926066736
-0.15077725052833557,-0.12930604815483093,9.92389965057373,0.021199999377131462,-0.03879999741911888,0.10939999669790268,0.06099999926066736,0.06099999926066736,0
-0.14081737399101257,-0.09278010576963425,9.895838737487793,0.030799999833106995,0.00009999999747378752,0.07999999821186066,0,0.06099999926066736,-0.06099999926066736
-0.1303403526544571,-0.09935937076807022,9.912445068359375,0.040300000458955765,-0.009499999694526196,0.09959999471902847,0,0,-0.12199999852133472
-0.13828909397125244,-0.10486603528261185,9.91272258758545,0.03019999898970127,-0.009399999864399433,0.09959999471902847,0,0.06099999926066736,0
-0.09793242812156677,-0.09292376041412354,9.891874313354492,0.06859999895095825,0.00029999998514540493,0.07019999623298645,0,0,-0.06099999926066736
-0.12732364237308502,-0.0879150852560997,9.858393669128418,0.03839999809861183,0.00029999998514540493,0.040699999779462814,0,0.06099999926066736,-0.12199999852133472
-0.16419434547424316,-0.08929414302110672,9.90251350402832,-0.0005999999702908099,0.00029999998514540493,0.08980000019073486,0,0.06099999926066736,-0.06099999926066736
-0.1458643525838852,-0.0930003747344017,9.875813484191895,0.018799999728798866,0.00029999998514540493,0.06030000001192093,0.06099999926066736,0,-0.06099999926066736
-0.1470135599374771,-0.10223241150379181,9.884700775146484,0.01860000006854534,-0.009499999694526196,0.07019999623298645,0,0.06099999926066736,-0.12199999852133472
-0.1639740914106369,-0.11318828165531158,9.91300106048584,-0.0007999999797903001,-0.019099999219179153,0.09959999471902847,0.06099999926066736,0.06099999926066736,0
-0.15406209230422974,-0.10352528095245361,9.921188354492188,0.008999999612569809,-0.009399999864399433,0.09959999471902847,-0.06099999926066736,0.12199999852133472,-0.06099999926066736
-0.16451996564865112,-0.0950402319431305,9.905281066894531,-0.00039999998989515007,0.0004999999655410647,0.08980000019073486,0.06099999926066736,0.12199999852133472,-0.06099999926066736
-0.1401374191045761,-0.09556695818901062,9.874004364013672,0.02879999950528145,0.00029999998514540493,0.06039999797940254,0,0.12199999852133472,-0.06099999926066736
-0.13554054498672485,-0.09783665835857391,9.875641822814941,0.028699999675154686,-0.00930000003427267,0.06039999797940254,0.06099999926066736,0,-0.12199999852133472
-0.12956462800502777,-0.12824302911758423,9.9057035446167,0.038100000470876694,-0.03839999809861183,0.08980000019073486,0.12199999852133472,0,-0.06099999926066736
-0.13545435667037964,-0.10821791738271713,9.895340919494629,0.0279999990016222,-0.01889999955892563,0.07999999821186066,0.12199999852133472,0,0
-0.13189178705215454,-0.0794970691204071,9.905616760253906,0.03759999945759773,0.009599999524652958,0.08980000019073486,0,0.3049999896332302,-0.06099999926066736
-0.15606364607810974,-0.10109277069568634,9.901670455932617,0.008999999612569809,-0.00989999994635582,0.07999999821186066,-0.12199999852133472,0.06099999926066736,-0.06099999926066736
-0.11132080107927322,-0.07846277952194214,9.89468002319336,0.05810000002384186,0.00989999994635582,0.07999999821186066,0.12199999852133472,0,0.06099999926066736
-0.14429374039173126,-0.11554417759180069,9.93451976776123,0.01889999955892563,-0.029500000178813934,0.11919999867677689,0.12199999852133472,0.06099999926066736,0
-0.12647131085395813,-0.09391974657773972,9.914734840393066,0.038599997758865356,-0.00039999998989515007,0.09959999471902847,0,0.12199999852133472,-0.1830000044521087
-0.14037683606147766,-0.08940906822681427,9.935142517089844,0.029099998995661736,-0.00039999998989515007,0.11919999867677689,0,0.1830000044521087,0
-0.12876015901565552,-0.10296982526779175,9.901317596435547,0.039400000125169754,-0.010199999436736107,0.07999999821186066,0.06099999926066736,0.12199999852133472,-0.12199999852133472
-0.13158532977104187,-0.09361328929662704,9.899267196655273,0.03959999978542328,-0.0004999999655410647,0.07999999821186066,0.06099999926066736,0,-0.12199999852133472
-0.12176909297704697,-0.10679096728563309,9.895848274230957,0.04939999803900719,-0.02029999904334545,0.07999999821186066,-0.06099999926066736,0.12199999852133472,-0.06099999926066736
-0.1620970368385315,-0.11632947623729706,9.900005340576172,0.010400000028312206,-0.029899999499320984,0.07999999821186066,0.06099999926066736,0,-0.06099999926066736
-0.1613692045211792,-0.07847236096858978,9.885725975036621,0.010400000028312206,0.009099999442696571,0.07019999623298645,0.06099999926066736,-0.06099999926066736,0
-0.1632462441921234,-0.10714531689882278,9.897629737854004,0.00039999998989515007,-0.020399998873472214,0.07999999821186066,0.06099999926066736,0.06099999926066736,-0.06099999926066736
-0.12610739469528198,-0.07389463484287262,9.87651252746582,0.03920000046491623,0.018299998715519905,0.06030000001192093,0,-0.06099999926066736,-0.06099999926066736
-0.12313857674598694,-0.07638461142778397,9.898797988891602,0.04820000007748604,0.017999999225139618,0.07989999651908875,0,0.1830000044521087,-0.1830000044521087
-0.13804009556770325,-0.10476069152355194,9.91076946258545,0.029099998995661736,-0.011299999430775642,0.08980000019073486,0.06099999926066736,0.06099999926066736,-0.06099999926066736
-0.13968729972839355,-0.09384313225746155,9.902973175048828,0.029199998825788498,-0.0015999999595806003,0.08980000019073486,0,-0.06099999926066736,-0.06099999926066736
-0.1472817063331604,-0.09688855707645416,9.887372970581055,0.019199999049305916,-0.011399999260902405,0.07009999454021454,0,0.06099999926066736,0
-0.11917378008365631,-0.1100662350654602,9.905856132507324,0.0486999973654747,-0.021199999377131462,0.08980000019073486,0,0.24399999704266945,0
-0.14731043577194214,-0.08285853266716003,9.912416458129883,0.019999999552965164,0.008100000210106373,0.09959999471902847,0,0,0.06099999926066736
-0.10913728922605515,-0.08342356234788895,9.920355796813965,0.05909999832510948,0.008100000210106373,0.09959999471902847,0.06099999926066736,0.12199999852133472,-0.12199999852133472
-0.13513831794261932,-0.08311710506677628,9.921427726745605,0.029999999329447746,0.007899999618530273,0.09959999471902847,0,0.12199999852133472,-0.12199999852133472
-0.1375516802072525,-0.09677363932132721,9.905511856079102,0.030299998819828033,-0.011500000022351742,0.08980000019073486,0.06099999926066736,0.06099999926066736,0.12199999852133472
-0.12333011627197266,-0.10302729159593582,9.904410362243652,0.04999999701976776,-0.011699999682605267,0.08980000019073486,0.06099999926066736,0.12199999852133472,-0.12199999852133472
-0.13620133697986603,-0.10255802422761917,9.93925952911377,0.030700000002980232,-0.011799999512732029,0.11919999867677689,0,0,-0.06099999926066736
-0.1450311541557312,-0.08763735741376877,9.921170234680176,0.020899999886751175,-0.001999999862164259,0.09959999471902847,0.1830000044521087,0.06099999926066736,-0.06099999926066736
-0.1287793219089508,-0.10072885453701019,9.913891792297363,0.0405999980866909,-0.012299999594688416,0.09959999471902847,0.12199999852133472,0.06099999926066736,-0.06099999926066736
-0.11774684488773346,-0.09642887115478516,9.901622772216797,0.030899999663233757,0.006799999624490738,0.050599999725818634,0.06099999926066736,0.12199999852133472,0
-0.15195520222187042,-0.0900411382317543,9.881991386413574,0.02159999869763851,-0.00279999990016222,0.06039999797940254,-0.06099999926066736,0,0
-0.12092633545398712,-0.0954807698726654,9.895207405090332,0.0502999983727932,-0.0026000000070780516,0.07999999821186066,0.06099999926066736,0.1830000044521087,-0.24399999704266945
-0.17204733192920685,-0.07413406670093536,9.878533363342285,0.0017999999690800905,0.016699999570846558,0.06039999797940254,0.06099999926066736,0.12199999852133472,-0.06099999926066736
-0.14204320311546326,-0.11347558349370956,9.89172077178955,0.03150000050663948,-0.022499999031424522,0.07019999623298645,-0.12199999852133472,0.12199999852133472,-0.06099999926066736
-0.1363449990749359,-0.08361509442329407,9.884078979492188,0.031700000166893005,0.0071000000461936,0.07019999623298645,0,0,-0.06099999926066736
-0.13961069285869598,-0.07920976728200912,9.905473709106445,0.031700000166893005,0.0071000000461936,0.08980000019073486,-0.06099999926066736,-0.06099999926066736,0
-0.12544658780097961,-0.07028418779373169,9.893157005310059,0.041200000792741776,0.016999999061226845,0.07999999821186066,0.06099999926066736,0.12199999852133472,-0.06099999926066736
-0.15141889452934265,-0.08952398598194122,9.916007995605469,0.021900000050663948,-0.0026000000070780516,0.09959999471902847,0.12199999852133472,0.1830000044521087,-0.06099999926066736
-0.14698483049869537,-0.09619902819395065,9.909351348876953,0.02239999920129776,-0.01269999984651804,0.08980000019073486,-0.06099999926066736,-0.06099999926066736,0
-0.16410815715789795,-0.11001835763454437,9.92590045928955,0.0026000000070780516,-0.02239999920129776,0.10939999669790268,0.06099999926066736,0.1830000044521087,-0.06099999926066736
-0.1563701033592224,-0.09261730313301086,9.911151885986328,0.012899999506771564,-0.002899999963119626,0.08980000019073486,-0.06099999926066736,-0.06099999926066736,-0.12199999852133472
-0.13981179893016815,-0.08736921101808548,9.89277458190918,0.03229999914765358,-0.002699999837204814,0.07019999623298645,0.12199999852133472,0.12199999852133472,0
-0.1417175829410553,-0.09880391508340836,9.919685363769531,0.032499998807907104,-0.012899999506771564,0.09959999471902847,-0.12199999852133472,0,-0.12199999852133472
-0.15469415485858917,-0.08908345550298691,9.89130973815918,0.01269999984651804,-0.002699999837204814,0.07019999623298645,0.06099999926066736,0.12199999852133472,-0.12199999852133472
-0.13774320483207703,-0.09589256346225739,9.88589859008789,0.032099999487400055,-0.012399999424815178,0.07019999623298645,-0.06099999926066736,-0.06099999926066736,0
-0.14877569675445557,-0.0863732248544693,9.882009506225586,0.021699998527765274,-0.0023999998811632395,0.06039999797940254,0.12199999852133472,0.1830000044521087,0
-0.10323797911405563,-0.0799950659275055,9.901959419250488,0.07019999623298645,0.006799999624490738,0.07999999821186066,0,0,-0.12199999852133472
-0.14358507096767426,-0.0730997696518898,9.898377418518066,0.03059999831020832,0.01640000008046627,0.07999999821186066,0,0.1830000044521087,-0.12199999852133472
-0.12956462800502777,-0.08679459989070892,9.87428092956543,0.04010000079870224,-0.0030999998562037945,0.06039999797940254,-0.12199999852133472,0,-0.06099999926066736
-0.12851117551326752,-0.0892271101474762,9.895245552062988,0.03959999978542328,-0.002699999837204814,0.07999999821186066,0.1830000044521087,0,0
-0.13915100693702698,-0.08349060267210007,9.901220321655273,0.02929999865591526,0.006399999838322401,0.07989999651908875,-0.1830000044521087,0,-0.06099999926066736
-0.15383224189281464,-0.09191819280385971,9.907992362976074,0.009599999524652958,-0.00279999990016222,0.08980000019073486,0.1830000044521087,0.06099999926066736,-0.12199999852133472
-0.12458468228578568,-0.10251013934612274,9.888130187988281,0.038599997758865356,-0.012899999506771564,0.07009999454021454,-0.06099999926066736,0.12199999852133472,-0.06099999926066736
-0.14742536842823029,-0.1010640412569046,9.921676635742188,0.019099999219179153,-0.012600000016391277,0.10939999669790268,0.1830000044521087,0.24399999704266945,-0.12199999852133472
-0.16744089126586914,-0.09564357250928879,9.898377418518066,0.039400000125169754,0.016200000420212746,0.07009999454021454,0.06099999926066736,0,-0.06099999926066736
-0.1442171335220337,-0.08203493058681488,9.884681701660156,0.019899999722838402,0.006099999882280827,0.07009999454021454,0.06099999926066736,0,0
-0.14714764058589935,-0.10251013934612274,9.927845001220703,0.01979999989271164,-0.013599999248981476,0.10939999669790268,-0.06099999926066736,0,0
-0.13623006641864777,-0.09075939655303955,9.891386032104492,0.029600000008940697,-0.003599999938160181,0.07009999454021454,0,0.12199999852133472,0
-0.12706507742404938,-0.08995494991540909,9.897745132446289,0.03969999775290489,-0.003599999938160181,0.07999999821186066,0.06099999926066736,0,-0.06099999926066736
-0.13713029026985168,-0.08718724548816681,9.864944458007812,0.02979999966919422,-0.003700000001117587,0.05049999803304672,0,0.12199999852133472,0.06099999926066736
-0.14118129014968872,-0.10477026551961899,9.898778915405273,0.03009999915957451,-0.013499999418854713,0.07999999821186066,0,0,-0.12199999852133472
-0.1319875419139862,-0.10668563097715378,9.892352104187012,0.039799999445676804,-0.02329999953508377,0.07009999454021454,0,0.06099999926066736,-0.06099999926066736
-0.14425544440746307,-0.10037451237440109,9.904831886291504,0.02029999904334545,-0.013499999418854713,0.08980000019073486,0,0.12199999852133472,-0.1830000044521087
-0.13779109716415405,-0.11904928833246231,9.923803329467773,0.030399998649954796,-0.032999999821186066,0.10939999669790268,0.06099999926066736,0.12199999852133472,0
-0.13570335507392883,-0.1289421170949936,9.919072151184082,0.030299998819828033,-0.042500000447034836,0.09959999471902847,0,0.12199999852133472,-0.12199999852133472
-0.15281711518764496,-0.10448296368122101,9.90503215789795,0.020600000396370888,-0.012899999506771564,0.08980000019073486,0,0.06099999926066736,-0.06099999926066736
-0.13366350531578064,-0.0966682881116867,9.922567367553711,0.03989999741315842,-0.012799999676644802,0.10939999669790268,-0.12199999852133472,0.12199999852133472,0.06099999926066736
-0.11211567372083664,-0.1045212671160698,9.881742477416992,0.058799996972084045,-0.012199999764561653,0.06030000001192093,0.12199999852133472,0.06099999926066736,-0.06099999926066736
-0.13647907972335815,-0.1123167872428894,9.912128448486328,0.029199998825788498,-0.022099999710917473,0.09959999471902847,-0.12199999852133472,0.06099999926066736,0
-0.12595416605472565,-0.10429142415523529,9.91940689086914,0.03869999945163727,-0.011899999342858791,0.09959999471902847,0,0,-0.24399999704266945
-0.12389514595270157,-0.09530837833881378,9.885812759399414,0.048499997705221176,-0.001999999862164259,0.07009999454021454,0,0,-0.12199999852133472
-0.14101848006248474,-0.09923487156629562,9.883015632629395,0.02879999950528145,-0.011799999512732029,0.06030000001192093,0.12199999852133472,0.12199999852133472,0
-0.155364528298378,-0.09157342463731766,9.902657508850098,0.009499999694526196,-0.002300000051036477,0.08980000019073486,0.12199999852133472,0.12199999852133472,0
-0.14344140887260437,-0.10898406058549881,9.922174453735352,0.029399998486042023,-0.022299999371170998,0.10939999669790268,0,0,-0.06099999926066736
-0.13229399919509888,-0.08165185898542404,9.927557945251465,0.03920000046491623,0.0071000000461936,0.10939999669790268,0.1830000044521087,0,-0.12199999852133472
-0.14304876327514648,-0.11098561435937881,9.912646293640137,0.02929999865591526,-0.022699998691678047,0.09959999471902847,0.06099999926066736,0.06099999926066736,-0.06099999926066736
-0.140779048204422,-0.07690175622701645,9.893109321594238,0.03920000046491623,-0.013100000098347664,0.08980000019073486,0,0.06099999926066736,-0.06099999926066736
-0.1147971823811531,-0.09097008407115936,9.907149314880371,0.05939999967813492,-0.003399999812245369,0.08980000019073486,-0.12199999852133472,0.12199999852133472,-0.06099999926066736
-0.14757859706878662,-0.061598021537065506,9.929203987121582,0.020399998873472214,0.026200000196695328,0.10939999669790268,0.1830000044521087,0.06099999926066736,-0.12199999852133472
-0.14833515882492065,-0.09313444793224335,9.89876937866211,0.020600000396370888,-0.003599999938160181,0.07999999821186066,0,0,0.12199999852133472
-0.13105858862400055,-0.08852799981832504,9.921026229858398,0.03969999775290489,-0.003599999938160181,0.09959999471902847,0,0,0
-0.17325401306152344,-0.10685800760984421,9.91696548461914,-0.009200000204145908,-0.02290000021457672,0.09959999471902847,0.06099999926066736,0,-0.12199999852133472
-0.1443224847316742,-0.09022309631109238,9.875450134277344,0.01979999989271164,-0.003399999812245369,0.06030000001192093,-0.06099999926066736,0.1830000044521087,-0.06099999926066736
-0.14539508521556854,-0.09487742930650711,9.894708633422852,0.019999999552965164,-0.0031999999191612005,0.07999999821186066,0.06099999926066736,0.12199999852133472,-0.12199999852133472
-0.1308383345603943,-0.11794795095920563,9.879203796386719,0.03920000046491623,-0.03219999745488167,0.06030000001192093,0,0.06099999926066736,0.06099999926066736
-0.15799815952777863,-0.10314220935106277,9.911544799804688,0.009800000116229057,-0.01249999925494194,0.08980000019073486,0,0.06099999926066736,-0.06099999926066736
-0.16653110086917877,-0.11709561944007874,9.889680862426758,0.00009999999747378752,-0.031599998474121094,0.07019999623298645,0.12199999852133472,0.12199999852133472,0
-0.13157574832439423,-0.12006442993879318,9.887794494628906,0.03909999877214432,-0.03139999881386757,0.07009999454021454,-0.06099999926066736,0.1830000044521087,-0.06099999926066736
-0.1468028724193573,-0.08322244882583618,9.894909858703613,0.019700000062584877,0.007699999958276749,0.07999999821186066,-0.06099999926066736,-0.06099999926066736,-0.1830000044521087
-0.13383588194847107,-0.10389877110719681,9.894746780395508,0.03849999979138374,-0.011500000022351742,0.07989999651908875,0.12199999852133472,0.1830000044521087,-0.06099999926066736
-0.13956280052661896,-0.09664913266897202,9.908259391784668,0.02889999933540821,-0.011599999852478504,0.08980000019073486,0.06099999926066736,0.06099999926066736,0
-0.12943054735660553,-0.08992621302604675,9.896011352539062,0.03830000013113022,-0.001999999862164259,0.07989999651908875,-0.06099999926066736,0,-0.06099999926066736
-0.13126929104328156,-0.11040142923593521,9.917252540588379,0.03779999911785126,-0.021199999377131462,0.09959999471902847,0.12199999852133472,0.06099999926066736,-0.06099999926066736
-0.1220276728272438,-0.10422439128160477,9.893627166748047,0.04729999974370003,-0.011699999682605267,0.07989999651908875,-0.06099999926066736,0,-0.06099999926066736
-0.14970465004444122,-0.09596917778253555,9.914389610290527,0.01769999973475933,-0.011399999260902405,0.09950000047683716,0,0,-0.06099999926066736
