Accelerometer_Gx,Accelerometer_Gy,Accelerometer_Gz,Accelerometer_X,Accelerometer_Y,Accelerometer_Z,Gyroscope_Z,Gyroscope_X,Gyroscope_Y
-0.0017334020230919123,0.005439626052975655,9.955626487731934,0,0,0.1371999979019165,-0.01400000015835513,-0.03899999996469596,0.015999999942759198
0.0107834842056036,-0.004491522442549467,9.94979476928711,0,0,0.1273999959230423,-0.0749999994190225,-0.03999999902313467,0.01700000066872456
-0.015160084702074528,-0.0009959879098460078,9.94428825378418,-0.00009999999747378752,0.00009999999747378752,0.1273999959230423,-0.01400000015835513,-0.10100000161885533,0.01700000066872456
0.0031028855592012405,-0.00771890627220273,9.935697555541992,-0.00029999998514540493,0.00009999999747378752,0.11759999394416809,-0.01400000015835513,0.08100000043976135,0.01700000066872456
-0.009959879331290722,-0.013713987544178963,9.951844215393066,-0.00009999999747378752,0.00009999999747378752,0.1371999979019165,-0.004999999877891834,-0.007000000079177565,-0.006000000186975531
0.01259350124746561,-0.006186617538332939,9.946806907653809,-0.00009999999747378752,0.00009999999747378752,0.1273999959230423,-0.019999999511567335,0.015999999942759198,0.03599999945432653
0.0025570073630660772,-0.00019153613538946956,9.948013305664062,0,0.00009999999747378752,0.1273999959230423,-0.0019999999928448997,-0.007000000079177565,-0.029999998433587676
0.010601525194942951,-0.007852981798350811,9.926169395446777,0,0.00009999999747378752,0.10779999941587448,-0.04200000047506539,0.012000000373951061,0.02600000053230619
-0.013464991003274918,0.006531381979584694,9.93823528289795,0,0.00019999999494757503,0.11759999394416809,-0.017999999727163266,0.0019999999928448997,0.015999999942759198
-0.001110909623093903,0.002240972826257348,9.93494987487793,0,0.00019999999494757503,0.11759999394416809,-0.04600000004387353,0.021000000237532696,0.019000000453128628
0.003064578166231513,0.008073247969150543,9.92148494720459,0,0.00029999998514540493,0.09799999743700027,-0.0749999994190225,-0.007000000079177565,0.041000001416626686
0.004328716546297073,0.008724471554160118,9.927643775939941,0,0.0004999999655410647,0.10779999941587448,0.0039999999856897995,-0.007999999971379599,0.007999999971379599
0.0042904093861579895,-0.006234501488506794,9.930583953857422,0,0.0004999999655410647,0.10779999941587448,0.0039999999856897995,-0.010999999647985701,-0.015999999942759198
-0.00484586413949728,-0.009758765809237957,9.933552742004395,0,0.0004999999655410647,0.11759999394416809,0,-0.03400000133744912,-0.006000000186975531
-0.002116474322974682,0.0034189200960099697,9.925344467163086,-0.00009999999747378752,0.0004999999655410647,0.10779999941587448,-0.013000000266153095,-0.0329999989439571,0.021000000237532696
0.00006703764665871859,-0.012650961987674236,9.944019317626953,-0.00019999999494757503,0.0005999999702908099,0.1273999959230423,-0.007000000079177565,-0.024000000747902123,-0.006000000186975531
-0.006483498029410839,-0.010946289636194706,9.91321086883545,-0.00019999999494757503,0.0005999999702908099,0.09799999743700027,0.029999998433587676,0.0429999995335041,0.013000000266153095
-0.006962338462471962,0.00549708679318428,9.928582191467285,-0.00009999999747378752,0.0004999999655410647,0.10779999941587448,0.021000000237532696,-0.007000000079177565,-0.0019999999928448997
0.007134721148759127,-0.006560112349689007,9.933744430541992,-0.00009999999747378752,0.00039999998989515007,0.11759999394416809,-0.021999999295971403,0.06099999926066736,0.004999999877891834
0.011348516680300236,-0.013943830505013466,9.926685333251953,0,0.0004999999655410647,0.10779999941587448,0.0039999999856897995,-0.0429999995335041,-0.006000000186975531
-0.0034093433059751987,0.0017717091832309961,9.919608116149902,-0.00009999999747378752,0.0004999999655410647,0.09799999743700027,0.0039999999856897995,-0.0659999978879142,-0.006000000186975531
-0.005659893155097961,0.008360552601516247,9.913575172424316,-0.00029999998514540493,0.0004999999655410647,0.10779999941587448,0.021999999295971403,-0.012000000373951061,0.05600000063342052
-0.0029592332430183887,-0.006895300932228565,9.909246444702148,-0.00029999998514540493,0.00039999998989515007,0.09799999743700027,0.029999998433587676,-0.008999999863581633,-0.007000000079177565
0.006550535559654236,0.005276820622384548,9.908709526062012,-0.00029999998514540493,0.0004999999655410647,0.08819999545812607,0.0019999999928448997,0.012000000373951061,-0.013000000266153095
-0.018138471990823746,0.0013503297232091427,9.923391342163086,-0.00029999998514540493,0.0004999999655410647,0.08819999545812607,0,-0.004999999877891834,0.012000000373951061
0.009835380129516125,0.014748282730579376,9.910970687866211,-0.00029999998514540493,0.0004999999655410647,0.08819999545812607,-0.0030000000934877653,0.06299999737754478,-0.01700000066872456
0,-0.007249642629176378,9.902504920959473,-0.00009999999747378752,0.0004999999655410647,0.08819999545812607,0.04500000098543482,0.024000000747902123,0.017999999727163266
-0.0027293898165225983,0.0054587796330451965,9.919197082519531,0,0.00039999998989515007,0.09799999743700027,0.008999999863581633,-0.0030000000934877653,-0.03100000082707969
0.002576161175966263,0.0008427590364590287,9.912492752075195,0,0.00039999998989515007,0.09799999743700027,0.0039999999856897995,0.014999999216793838,0.0030000000934877653
-0.000823605339974165,-0.0010821791365742683,9.92051887512207,0,0.00039999998989515007,0.09799999743700027,0.004999999877891834,-0.007000000079177565,0.02899999937514897
-0.00164721067994833,-0.01198058482259512,9.911439895629883,0,0.00039999998989515007,0.08819999545812607,0.0039999999856897995,-0.007000000079177565,-0.03599999945432653
0.003303998149931431,-0.0006607996765524149,9.90859603881836,0,0.00029999998514540493,0.08819999545812607,-0.019999999511567335,-0.006000000186975531,0.031999999885518396
-0.005267243832349777,-0.012344504706561565,9.917808532714844,-0.00009999999747378752,0.00039999998989515007,0.09799999743700027,0.0030000000934877653,-0.0030000000934877653,-0.0030000000934877653
-0.014058751985430717,-0.0037636850029230118,9.912128448486328,-0.00009999999747378752,0.00039999998989515007,0.09799999743700027,0.0039999999856897995,-0.007000000079177565,-0.006000000186975531
0.01148259174078703,0.00019153613538946956,9.90459156036377,-0.00009999999747378752,0.00039999998989515007,0.08819999545812607,-0.06700000028140622,-0.01700000066872456,-0.0019999999928448997
-0.001283292076550424,0.006598419509828091,9.917376518249512,-0.00009999999747378752,0.0005999999702908099,0.09799999743700027,0.01400000015835513,-0.0039999999856897995,-0.004999999877891834
-0.006234501488506794,0.0036391867324709892,9.914504051208496,-0.00009999999747378752,0.0004999999655410647,0.09799999743700027,0.0039999999856897995,0.0429999995335041,0.014999999216793838
0.002126051113009453,0.010304644703865051,9.912589073181152,0,0.0004999999655410647,0.09799999743700027,0.0039999999856897995,0.01400000015835513,0.02899999937514897
-0.0027964275795966387,0.007881712168455124,9.917913436889648,0,0.0004999999655410647,0.09799999743700027,-0.004999999877891834,0.04900000055424296,-0.006000000186975531
-0.011070788837969303,0.017803283408284187,9.910242080688477,0.00009999999747378752,0.0004999999655410647,0.08819999545812607,-0.013000000266153095,0.0009999999964224499,-0.0009999999964224499
0.00226012640632689,0.01334049180150032,9.903107643127441,0.00009999999747378752,0.0004999999655410647,0.08819999545812607,-0.013000000266153095,0.04200000047506539,0.0039999999856897995
0.010524910874664783,0.006033387966454029,9.908883094787598,0.00019999999494757503,0.0005999999702908099,0.08819999545812607,0.0030000000934877653,0.017999999727163266,0.013000000266153095
0.0026336219161748886,-0.00374453142285347,9.909457206726074,0.00019999999494757503,0.0005999999702908099,0.08819999545812607,0.0039999999856897995,0.024999999806340833,0.017999999727163266
-0.000823605339974165,0.011932700872421265,9.904936790466309,0.00029999998514540493,0.0004999999655410647,0.08819999545812607,0.029999998433587676,0.01700000066872456,0.029999998433587676
0.004759673029184341,-0.008791509084403515,9.92127513885498,0.00029999998514540493,0.0004999999655410647,0.09799999743700027,-0.038000000906257256,0.014999999216793838,0
-0.011405977420508862,-0.0006799532566219568,9.913421630859375,0.00039999998989515007,0.0005999999702908099,0.09799999743700027,0.01400000015835513,0.013000000266153095,0.057000003026912535
0.00018195933080278337,0.0067995330318808556,9.90095329284668,0.00039999998989515007,0.0004999999655410647,0.08819999545812607,0.01400000015835513,0.023000000021936765,-0.012000000373951061
-0.00407014274969697,0.0007374141132459044,9.904218673706055,0.00039999998989515007,0.0004999999655410647,0.08819999545812607,0.0039999999856897995,-0.0030000000934877653,-0.019000000453128628
-0.017573440447449684,0.006090848706662655,9.898425102233887,0.00039999998989515007,0.0004999999655410647,0.08819999545812607,0,-0.024999999806340833,-0.007999999971379599
-0.0020111293997615576,-0.014767436310648918,9.910626411437988,0.00039999998989515007,0.0004999999655410647,0.08819999545812607,-0.03599999945432653,-0.01700000066872456,-0.012000000373951061
-0.003993528429418802,-0.0010726023465394974,9.900809288024902,0.00029999998514540493,0.0005999999702908099,0.07840000092983246,-0.004999999877891834,0.014999999216793838,-0.006000000186975531
-0.005248090252280235,-0.007441178895533085,9.903874397277832,0.00039999998989515007,0.0005999999702908099,0.08819999545812607,-0.008999999863581633,0.0039999999856897995,0.017999999727163266
0.009720458649098873,-0.02108812890946865,9.90650749206543,0.00039999998989515007,-0.009099999442696571,0.08819999545812607,0.006000000186975531,-0.007000000079177565,-0.012000000373951061
0.009720458649098873,0.016452953219413757,9.890332221984863,0.00029999998514540493,0.0005999999702908099,0.06859999895095825,0.0039999999856897995,0.009999999755783667,-0.007000000079177565
0.00209732074290514,-0.00374453142285347,9.901939392089844,0.00039999998989515007,0.0005999999702908099,0.07840000092983246,0.0030000000934877653,-0.0030000000934877653,0.05900000114378995
0.013646950013935566,-0.003562572179362178,9.910902976989746,0.00039999998989515007,0.0005999999702908099,0.08819999545812607,-0.0009999999964224499,-0.007000000079177565,0.010999999647985701
-0.015207969583570957,-0.005698200315237045,9.897217750549316,0.00029999998514540493,0.0005999999702908099,0.07840000092983246,0.021000000237532696,0.007999999971379599,-0.0039999999856897995
-0.0036200329195708036,-0.004414908122271299,9.899420738220215,0.00039999998989515007,0.0004999999655410647,0.07840000092983246,-0.07000000079177565,-0.012000000373951061,0.024999999806340833
-0.006933608092367649,-0.008599972352385521,9.911429405212402,0.00029999998514540493,0.000699999975040555,0.08819999545812607,-0.07399999702553048,0.006000000186975531,0
-0.0025474305730313063,-0.008619125932455063,9.896510124206543,0.00029999998514540493,0.0008999999845400453,0.07840000092983246,-0.013000000266153095,-0.0030000000934877653,-0.006000000186975531
0.009576806798577309,0.00007661445124540478,9.903356552124023,0.00029999998514540493,0.0008999999845400453,0.08819999545812607,0.021999999295971403,0.01700000066872456,-0.0039999999856897995
0.01288080494850874,-0.024200590327382088,9.892678260803223,0.00039999998989515007,-0.008799999952316284,0.06859999895095825,-0.023000000021936765,0.0019999999928448997,-0.006000000186975531
0.00005746084207203239,-0.00397437484934926,9.900752067565918,0.00039999998989515007,0.0009999999310821295,0.07840000092983246,0.0039999999856897995,0.0030000000934877653,-0.006000000186975531
-0.013857639394700527,-0.003849876346066594,9.901164054870605,0.00039999998989515007,0.0009999999310821295,0.07840000092983246,0.004999999877891834,-0.024999999806340833,-0.007999999971379599
-0.006081271916627884,-0.007738059852272272,9.898347854614258,0.00029999998514540493,0.0009999999310821295,0.07840000092983246,0.004999999877891834,0,-0.006000000186975531
-0.0026623522862792015,-0.01742021180689335,9.889078140258789,0.00029999998514540493,0.0008999999845400453,0.06859999895095825,0.0039999999856897995,0.01700000066872456,-0.023000000021936765
0.002212242456153035,0.0036296097096055746,9.900157928466797,0.00029999998514540493,0.0008999999845400453,0.07840000092983246,0.0030000000934877653,-0.007000000079177565,-0.007000000079177565
0.005238513462245464,-0.004012682009488344,9.890850067138672,0.00029999998514540493,0.0008999999845400453,0.06859999895095825,-0.01700000066872456,-0.07099999651516105,0.05099999867112037
0.00549708679318428,-0.0027198130264878273,9.897649765014648,0.00009999999747378752,0.0008999999845400453,0.07840000092983246,0.021999999295971403,0.0019999999928448997,-0.0039999999856897995
0.003830722765997052,0.0004405330982990563,9.900243759155273,0.00009999999747378752,0.0008999999845400453,0.07840000092983246,0.03999999902313467,-0.007000000079177565,-0.02800000031671026
0.0013311761431396008,-0.01912488415837288,9.9148588180542,0.00009999999747378752,0.0007999999797903001,0.09799999743700027,-0.004999999877891834,0.009999999755783667,0.07199999890865307
-0.0010438719764351845,-0.011329363100230694,9.886366844177246,0.00009999999747378752,0.0007999999797903001,0.08819999545812607,0.012000000373951061,-0.006000000186975531,-0.03400000133744912
-0.002470816019922495,0.0037828385829925537,9.86976146697998,0.00019999999494757503,0.0007999999797903001,0.06859999895095825,0.012000000373951061,-0.006000000186975531,-0.03400000133744912
-0.0035146879963576794,-0.0029975404031574726,9.887008666992188,0.00009999999747378752,0.0007999999797903001,0.06859999895095825,-0.007000000079177565,0.009999999755783667,-0.006000000186975531
-0.011875240132212639,-0.0006512228865176439,9.894737243652344,0.00009999999747378752,0.0007999999797903001,0.06859999895095825,0.012000000373951061,-0.05099999867112037,-0.031999999885518396
-0.011875240132212639,-0.0006512228865176439,9.894737243652344,0,0.0007999999797903001,0.07840000092983246,0.012000000373951061,-0.05099999867112037,-0.031999999885518396
-0.005506663583219051,0.009375694207847118,9.885639190673828,0,0.000699999975040555,0.06859999895095825,-0.013000000266153095,-0.024999999806340833,-0.006000000186975531
0.00026815058663487434,-0.005439626052975655,9.89020824432373,-0.00009999999747378752,0.0007999999797903001,0.06859999895095825,0.0039999999856897995,0.014999999216793838,-0.006000000186975531
-0.004127603489905596,-0.0033135751727968454,9.893444061279297,0,0.000699999975040555,0.07840000092983246,0.0039999999856897995,-0.07600000181251451,-0.006000000186975531
-0.003945644479244947,0.009414001367986202,9.8960599899292,-0.00029999998514540493,0.000699999975040555,0.07840000092983246,0,-0.0009999999964224499,-0.0019999999928448997
-0.0072687966749072075,0.003236960619688034,9.896949768066406,-0.00029999998514540493,0.000699999975040555,0.07840000092983246,0.0019999999928448997,0.04200000047506539,-0.006000000186975531
0.006071695126593113,-0.0026623522862792015,9.885563850402832,-0.00009999999747378752,0.000699999975040555,0.06859999895095825,0.015999999942759198,-0.0269999995907449,0.01700000066872456
0.012765883468091488,0.006100425496697426,9.894776344299316,-0.00019999999494757503,0.000699999975040555,0.07840000092983246,0.0039999999856897995,-0.03599999945432653,-0.006000000186975531
-0.0070964135229587555,-0.0026815058663487434,9.89107894897461,-0.00029999998514540493,0.0005999999702908099,0.06859999895095825,-0.004999999877891834,0.009999999755783667,-0.006000000186975531
-0.012373235076665878,-0.013043610379099846,9.885927200317383,-0.00029999998514540493,0.000699999975040555,0.06859999895095825,-0.0019999999928448997,-0.004999999877891834,-0.01700000066872456
0.002432508859783411,-0.012306197546422482,9.89326286315918,-0.00029999998514540493,0.000699999975040555,0.07840000092983246,0,-0.007000000079177565,0.01400000015835513
-0.010821791365742683,-0.013110647909343243,9.90029239654541,-0.00029999998514540493,0.000699999975040555,0.07840000092983246,-0.019999999511567335,0.009999999755783667,-0.0009999999964224499
-0.013120224699378014,0.006167463958263397,9.896566390991211,-0.00029999998514540493,0.000699999975040555,0.07840000092983246,0.024000000747902123,0,0.038000000906257256
0.0056407395750284195,-0.005382165312767029,9.901814460754395,-0.00029999998514540493,0.0005999999702908099,0.07840000092983246,-0.024000000747902123,0.03999999902313467,0.02899999937514897
0.0015035585965961218,-0.006253655068576336,9.898606300354004,-0.00019999999494757503,0.000699999975040555,0.07840000092983246,0.009999999755783667,-0.007000000079177565,0
-0.005142745096236467,-0.0034284968860447407,9.891156196594238,-0.00019999999494757503,0.000699999975040555,0.06859999895095825,0.0039999999856897995,-0.01700000066872456,-0.038000000906257256
0.01099417358636856,0.010199299082159996,9.896327018737793,-0.00019999999494757503,0.0005999999702908099,0.07840000092983246,0.007000000079177565,-0.02899999937514897,-0.006000000186975531
0.02182554267346859,-0.0025474305730313063,9.880467414855957,0.00930000003427267,0.0005999999702908099,0.058799996972084045,-0.013000000266153095,0.017999999727163266,-0.006000000186975531
0.004893748089671135,0.003849876346066594,9.888656616210938,-0.00029999998514540493,0.0005999999702908099,0.06859999895095825,-0.019999999511567335,0.019000000453128628,0
0.010764330625534058,-0.0005458780215121806,9.881109237670898,-0.00029999998514540493,0.000699999975040555,0.07840000092983246,-0.0009999999964224499,0.009999999755783667,-0.006000000186975531
-0.004338293336331844,-0.00012449848873075098,9.894469261169434,-0.00029999998514540493,0.0005999999702908099,0.07840000092983246,0.021999999295971403,-0.007000000079177565,0.010999999647985701
0.0023367409594357014,-0.000823605339974165,9.898865699768066,-0.00029999998514540493,0.0005999999702908099,0.07840000092983246,0.021000000237532696,0.03400000133744912,0.007000000079177565
-0.0031411927193403244,-0.012459426186978817,9.893952369689941,-0.00019999999494757503,0.0004999999655410647,0.07840000092983246,0.0039999999856897995,0.0019999999928448997,0.043999998591942806
0.015495273284614086,-0.004577713552862406,9.891270637512207,-0.00019999999494757503,0.0004999999655410647,0.07840000092983246,0.0019999999928448997,0.0039999999856897995,0.008999999863581633
-0.011750741861760616,-0.010208875872194767,9.889556884765625,-0.00019999999494757503,0.0004999999655410647,0.06859999895095825,0.0030000000934877653,0.006000000186975531,-0.015999999942759198
0.004185064695775509,0.003696647472679615,9.899574279785156,-0.00009999999747378752,0.0004999999655410647,0.07840000092983246,-0.0269999995907449,-0.024999999806340833,-0.004999999877891834
0.006464344449341297,0.005602431949228048,9.896020889282227,-0.00019999999494757503,0.0004999999655410647,0.07840000092983246,-0.013000000266153095,-0.007000000079177565,0.010999999647985701
0.0023750481195747852,-0.013675680384039879,9.8893461227417,-0.00019999999494757503,0.0005999999702908099,0.06859999895095825,-0.014999999216793838,0.009999999755783667,-0.024999999806340833
-0.007019799202680588,-0.02243845723569393,9.874109268188477,-0.00019999999494757503,-0.008999999612569809,0.058799996972084045,0,-0.007000000079177565,0.0429999995335041
-0.0030741551890969276,-0.01219127420336008,9.886290550231934,-0.00019999999494757503,0.000699999975040555,0.06859999895095825,0.004999999877891834,-0.007000000079177565,-0.014999999216793838
-0.012354081496596336,0.0015610195696353912,9.891251564025879,-0.00019999999494757503,0.000699999975040555,0.06859999895095825,0.0039999999856897995,0.014999999216793838,-0.013000000266153095
0.0034284968860447407,-0.005688623525202274,9.89059066772461,-0.00019999999494757503,0.000699999975040555,0.06859999895095825,-0.023000000021936765,-0.007000000079177565,0.004999999877891834
-0.0031794998794794083,-0.00226012640632689,9.89549446105957,-0.00019999999494757503,0.000699999975040555,0.07840000092983246,-0.021000000237532696,-0.02800000031671026,-0.012000000373951061
0.008456320501863956,-0.0012354080099612474,9.895169258117676,-0.00029999998514540493,0.0007999999797903001,0.07840000092983246,0,0.0019999999928448997,-0.004999999877891834
0.00018195933080278337,-0.0003447650233283639,9.89598274230957,-0.00029999998514540493,0.0007999999797903001,0.07840000092983246,0.007999999971379599,0.021000000237532696,0.0030000000934877653
-0.0042904093861579895,-0.015322891063988209,9.900674819946289,-0.00019999999494757503,0.000699999975040555,0.07840000092983246,0.007000000079177565,-0.010999999647985701,-0.010999999647985701
-0.008810662664473057,-0.008753201924264431,9.903519630432129,-0.00019999999494757503,0.000699999975040555,0.08819999545812607,0.0030000000934877653,-0.0039999999856897995,-0.010999999647985701
-0.0117890490218997,-0.002135627903044224,9.89456558227539,-0.00019999999494757503,0.000699999975040555,0.07840000092983246,-0.01700000066872456,-0.014999999216793838,-0.0019999999928448997
0.0020398597698658705,-0.0006320692482404411,9.889873504638672,-0.00029999998514540493,0.000699999975040555,0.06859999895095825,0.007999999971379599,0.021000000237532696,0.021999999295971403
-0.009414001367986202,-0.006971915252506733,9.900550842285156,-0.00019999999494757503,0.000699999975040555,0.07840000092983246,0.0019999999928448997,0.006000000186975531,-0.0329999989439571
-0.0037828385829925537,0.012152967043220997,9.881790161132812,-0.00019999999494757503,0.000699999975040555,0.058799996972084045,-0.024000000747902123,0.02899999937514897,-0.007000000079177565
0.010314221493899822,0.001283292076550424,9.874798774719238,-0.00009999999747378752,0.000699999975040555,0.058799996972084045,-0.010999999647985701,-0.010999999647985701,-0.010999999647985701
0.02172977477312088,-0.01129105594009161,9.87602424621582,0.009499999694526196,0.0007999999797903001,0.058799996972084045,0.007000000079177565,0.014999999216793838,0.03599999945432653
0.003303998149931431,-0.003696647472679615,9.884011268615723,-0.00019999999494757503,0.000699999975040555,0.058799996972084045,0.010999999647985701,0.013000000266153095,-0.007000000079177565
0.008762778714299202,0.006157887168228626,9.887430191040039,-0.00019999999494757503,0.000699999975040555,0.06859999895095825,0.007999999971379599,-0.01700000066872456,0.03400000133744912
0.007872135378420353,-0.0031603462994098663,9.889020919799805,-0.00019999999494757503,0.0005999999702908099,0.06859999895095825,-0.0329999989439571,-0.004999999877891834,-0.007000000079177565
0.015954960137605667,-0.0010630255565047264,9.889556884765625,-0.00029999998514540493,0.000699999975040555,0.06859999895095825,-0.017999999727163266,0.04600000004387353,-0.021999999295971403
-0.0011779472697526217,0.0004405330982990563,9.893617630004883,-0.00009999999747378752,0.0007999999797903001,0.07840000092983246,-0.02600000053230619,-0.05600000063342052,-0.007000000079177565
0.010113107971847057,0.0013215993531048298,9.895139694213867,-0.00029999998514540493,0.0007999999797903001,0.07840000092983246,-0.035000000395887826,0.019000000453128628,0.0429999995335041
0.004022258799523115,-0.003696647472679615,9.88939380645752,-0.00019999999494757503,0.0008999999845400453,0.06859999895095825,0.007000000079177565,0.043999998591942806,-0.010999999647985701
-0.010975020006299019,0.011520898900926113,9.903529167175293,-0.00009999999747378752,0.0008999999845400453,0.08819999545812607,-0.02899999937514897,0.024000000747902123,-0.031999999885518396
0.0042808325961232185,0.00894473772495985,9.888598442077637,0,0.0008999999845400453,0.06859999895095825,0,-0.013000000266153095,-0.031999999885518396
-0.006694188341498375,-0.003993528429418802,9.899574279785156,-0.00009999999747378752,0.0008999999845400453,0.07840000092983246,-0.012000000373951061,0.0030000000934877653,0.01700000066872456
-0.007441178895533085,-0.0027868507895618677,9.892850875854492,-0.00009999999747378752,0.0009999999310821295,0.07840000092983246,0.007000000079177565,0,0.0030000000934877653
-0.0036200329195708036,0.009030928835272789,9.88486385345459,-0.00009999999747378752,0.0008999999845400453,0.06859999895095825,-0.015999999942759198,0.008999999863581633,-0.007000000079177565
-0.004414908122271299,0.0019728222396224737,9.887994766235352,0,0.0009999999310821295,0.06859999895095825,-0.008999999863581633,0.03899999996469596,0.015999999942759198
0.005056553985923529,-0.0010917560430243611,9.89636516571045,0,0.0009999999310821295,0.07840000092983246,0,0.029999998433587676,-0.008999999863581633
-0.0023463177494704723,-0.008734048344194889,9.877202033996582,0.00009999999747378752,0.0009999999310821295,0.058799996972084045,0.007000000079177565,-0.0329999989439571,0.007999999971379599
-0.0005841852398589253,-0.004759673029184341,9.885993957519531,0,0.0008999999845400453,0.06859999895095825,-0.0019999999928448997,-0.010999999647985701,-0.031999999885518396
0.006780379451811314,0.0019919758196920156,9.893129348754883,0,0.0008999999845400453,0.07840000092983246,0.014999999216793838,0.08100000043976135,-0.02800000031671026
-0.001637633889913559,0.002940079662948847,9.881780624389648,0.00019999999494757503,0.0008999999845400453,0.058799996972084045,0.010999999647985701,-0.014999999216793838,0.009999999755783667
0.00012449848873075098,0.0031411927193403244,9.890552520751953,0.00009999999747378752,0.0007999999797903001,0.06859999895095825,0.0039999999856897995,-0.004999999877891834,0
-0.008714893832802773,-0.004663905128836632,9.894364356994629,0.00009999999747378752,0.0007999999797903001,0.07840000092983246,0.007999999971379599,0.014999999216793838,0.006000000186975531
0.016060303896665573,0.0063589997589588165,9.895408630371094,0.00009999999747378752,0.0007999999797903001,0.07840000092983246,0.0019999999928448997,-0.008999999863581633,-0.01400000015835513
0.002403778489679098,0.011300632730126381,9.894689559936523,0.00009999999747378752,0.0007999999797903001,0.07840000092983246,-0.06399999977103679,0.05300000012305109,-0.0429999995335041
0.003217807039618492,-0.015476119704544544,9.890667915344238,0.00029999998514540493,0.0008999999845400453,0.06859999895095825,0.031999999885518396,-0.010999999647985701,-0.015999999942759198
-0.0023750481195747852,-0.006177040748298168,9.900704383850098,0.00019999999494757503,0.0007999999797903001,0.07840000092983246,-0.009999999755783667,-0.015999999942759198,-0.024000000747902123
-0.0047405194491147995,-0.012248735874891281,9.891318321228027,0.00019999999494757503,0.0008999999845400453,0.07840000092983246,0.007999999971379599,-0.007000000079177565,-0.0329999989439571
0.018550273030996323,-0.007920019328594208,9.893080711364746,0.00009999999747378752,0.0008999999845400453,0.07840000092983246,0.0329999989439571,0.021999999295971403,-0.009999999755783667
-0.010917559266090393,-0.004932055249810219,9.894622802734375,0.00009999999747378752,0.0007999999797903001,0.07840000092983246,0.007000000079177565,0.014999999216793838,-0.0329999989439571
-0.006607996299862862,-0.005046977195888758,9.88198184967041,0.00019999999494757503,0.000699999975040555,0.058799996972084045,0.024999999806340833,0.006000000186975531,-0.010999999647985701
0.015121777541935444,-0.013761871494352818,9.870230674743652,0.00019999999494757503,0.000699999975040555,0.04899999871850014,-0.023000000021936765,0.019000000453128628,-0.0429999995335041
0.0030358475632965565,-0.0076231383718550205,9.875900268554688,0.00019999999494757503,0.000699999975040555,0.058799996972084045,0.0030000000934877653,-0.019999999511567335,-0.023000000021936765
-0.0010438719764351845,0.013723564334213734,9.890504837036133,0.00019999999494757503,0.000699999975040555,0.06859999895095825,-0.01700000066872456,0.006000000186975531,0.01700000066872456
-0.004625597503036261,0.005985504016280174,9.878227233886719,0.00019999999494757503,0.000699999975040555,0.058799996972084045,-0.0019999999928448997,0.03899999996469596,-0.009999999755783667
-0.002202665666118264,-0.006560112349689007,9.877843856811523,0.00029999998514540493,0.000699999975040555,0.058799996972084045,0.0329999989439571,-0.0039999999856897995,-0.006000000186975531
0.00619619432836771,-0.013455414213240147,9.903768539428711,0.00029999998514540493,0.0005999999702908099,0.08819999545812607,0.007000000079177565,0.006000000186975531,-0.0009999999964224499
0.008906430564820766,0.009567230008542538,9.893942832946777,0.00029999998514540493,0.0005999999702908099,0.07840000092983246,0.017999999727163266,0.015999999942759198,0.010999999647985701
-0.010342951864004135,-0.004778826609253883,9.886041641235352,0.00029999998514540493,0.0005999999702908099,0.06859999895095825,0.007999999971379599,-0.023000000021936765,-0.024000000747902123
-0.00274854339659214,0.006770802661776543,9.894047737121582,0.00029999998514540493,0.0004999999655410647,0.07840000092983246,0.007999999971379599,-0.024000000747902123,-0.0030000000934877653
0.0020590133499354124,-0.01583046093583107,9.889134407043457,0.00019999999494757503,0.0004999999655410647,0.06859999895095825,0.007000000079177565,0.013000000266153095,-0.008999999863581633
0.0005841852398589253,-0.011674127541482449,9.902351379394531,0.00019999999494757503,0.0004999999655410647,0.07840000092983246,-0.0269999995907449,0.008999999863581633,-0.01700000066872456
0.0026048915460705757,0.0027868507895618677,9.887870788574219,0.00029999998514540493,0.0004999999655410647,0.06859999895095825,-0.031999999885518396,-0.004999999877891834,-0.007000000079177565
-0.012018891982734203,-0.004347870126366615,9.884442329406738,0.00019999999494757503,0.0005999999702908099,0.06859999895095825,0.007999999971379599,-0.029999998433587676,-0.0329999989439571
-0.0015131353866308928,-0.0035338415764272213,9.873878479003906,0.00019999999494757503,0.0005999999702908099,0.058799996972084045,-0.009999999755783667,0.015999999942759198,-0.006000000186975531
-0.0047500962391495705,-0.0036391867324709892,9.888100624084473,0.00019999999494757503,0.0005999999702908099,0.06859999895095825,-0.06899999839828364,-0.004999999877891834,0.015999999942759198
0.013014880008995533,0.001446097856387496,9.8804292678833,0.00019999999494757503,0.0007999999797903001,0.058799996972084045,-0.0269999995907449,0.021999999295971403,-0.0030000000934877653
0.006339846178889275,0.005937620066106319,9.883485794067383,0.00019999999494757503,0.0008999999845400453,0.06859999895095825,0.014999999216793838,-0.004999999877891834,-0.009999999755783667
0.01049618050456047,0.0012258312199264765,9.886751174926758,0.00019999999494757503,0.0007999999797903001,0.06859999895095825,0.0030000000934877653,-0.041000001416626686,-0.0009999999964224499
-0.004443638492375612,0.010898405686020851,9.877786636352539,0.00009999999747378752,0.0007999999797903001,0.058799996972084045,0.01400000015835513,-0.007999999971379599,-0.07799999992939192
-0.0004788403457496315,-0.0051044379360973835,9.884117126464844,0.00009999999747378752,0.000699999975040555,0.058799996972084045,0.0329999989439571,0.0039999999856897995,0.009999999755783667
-0.0004788403457496315,-0.0051044379360973835,9.884117126464844,0.00009999999747378752,0.0005999999702908099,0.06859999895095825,-0.035000000395887826,-0.0269999995907449,0
0.0031699230894446373,0.007958326488733292,9.894536018371582,0,0.000699999975040555,0.07840000092983246,-0.013000000266153095,0,0.021999999295971403
0.003351882565766573,0.013876792974770069,9.881607055664062,0,0.0007999999797903001,0.058799996972084045,0.004999999877891834,-0.004999999877891834,0.0039999999856897995
-0.0013024457730352879,-0.006521805189549923,9.904496192932129,0,0.000699999975040555,0.08819999545812607,0.015999999942759198,-0.015999999942759198,-0.007000000079177565
0.00703895278275013,0.0036104561295360327,9.893444061279297,0,0.000699999975040555,0.07840000092983246,0.01400000015835513,-0.03599999945432653,-0.02899999937514897
-0.0063685765489935875,-0.006962338462471962,9.891538619995117,-0.00009999999747378752,0.0005999999702908099,0.06859999895095825,-0.06500000216452881,-0.004999999877891834,-0.007000000079177565
0.006090848706662655,-0.008552088402211666,9.89205551147461,-0.00009999999747378752,0.0007999999797903001,0.06859999895095825,-0.03699999851276524,-0.0009999999964224499,0.014999999216793838
0.008896853774785995,-0.0033997665159404278,9.892822265625,-0.00009999999747378752,0.0008999999845400453,0.06859999895095825,0.007999999971379599,-0.004999999877891834,0.03599999945432653
0.006560112349689007,0.001101332833059132,9.881712913513184,-0.00009999999747378752,0.0008999999845400453,0.058799996972084045,-0.0329999989439571,0.03400000133744912,0.0019999999928448997
0.002853888552635908,-0.00209732074290514,9.883513450622559,0,0.0008999999845400453,0.06859999895095825,-0.009999999755783667,-0.01400000015835513,-0.0329999989439571
-0.0034955344162881374,-0.0020590133499354124,9.876944541931152,0,0.0009999999310821295,0.058799996972084045,0.007999999971379599,0.013000000266153095,-0.007000000079177565
0.0026527754962444305,-0.0051810527220368385,9.895695686340332,0,0.0008999999845400453,0.058799996972084045,-0.009999999755783667,0.02600000053230619,-0.02600000053230619
-0.0031220391392707825,-0.012871228158473969,9.890332221984863,0,0.0008999999845400453,0.07840000092983246,0.004999999877891834,0.010999999647985701,-0.004999999877891834
-0.00015322890249080956,-0.0056503163650631905,9.894038200378418,0,0.0007999999797903001,0.07840000092983246,0.0329999989439571,0.009999999755783667,0.013000000266153095
0.0021643582731485367,-0.001446097856387496,9.881473541259766,0,0.000699999975040555,0.058799996972084045,0.007000000079177565,-0.007999999971379599,0.0019999999928448997
0.013369223102927208,0.002892195712774992,9.896442413330078,0,0.000699999975040555,0.07840000092983246,0.02600000053230619,0.03100000082707969,0.021999999295971403
-0.0037924153730273247,0.0030358475632965565,9.891692161560059,0.00009999999747378752,0.0005999999702908099,0.06859999895095825,-0.009999999755783667,0.014999999216793838,-0.007000000079177565
-0.0035242647863924503,-0.005966350436210632,9.89859676361084,0.00009999999747378752,0.0005999999702908099,0.07840000092983246,-0.01700000066872456,0.03599999945432653,-0.021000000237532696
0.00859039556235075,-0.01003649365156889,9.900981903076172,0.00019999999494757503,0.000699999975040555,0.07840000092983246,-0.019000000453128628,-0.004999999877891834,-0.006000000186975531
0.005803545005619526,-0.00959596037864685,9.888541221618652,0.00019999999494757503,0.000699999975040555,0.06859999895095825,-0.0019999999928448997,-0.0009999999964224499,0.02899999937514897
0.0003064578049816191,-0.007833828218281269,9.896116256713867,0.00019999999494757503,0.000699999975040555,0.07840000092983246,-0.0269999995907449,-0.004999999877891834,0.02800000031671026
0.0003064578049816191,-0.007833828218281269,9.896116256713867,0.00019999999494757503,0.000699999975040555,0.07840000092983246,-0.0269999995907449,-0.004999999877891834,0.02800000031671026
-0.010333375073969364,0.0008331821882165968,9.895015716552734,0.00029999998514540493,0.0007999999797903001,0.07840000092983246,0.01700000066872456,-0.006000000186975531,0.010999999647985701
-0.004443638492375612,-0.0016855180729180574,9.877843856811523,0.00019999999494757503,0.000699999975040555,0.058799996972084045,0.0019999999928448997,0.013000000266153095,0.010999999647985701
0.00849462766200304,-0.0008331821882165968,9.88868522644043,0.00029999998514540493,0.000699999975040555,0.06859999895095825,0,0.012000000373951061,-0.02899999937514897
0.008628702722489834,-0.00031603462412022054,9.874472618103027,0.00029999998514540493,0.000699999975040555,0.058799996972084045,-0.008999999863581633,-0.0009999999964224499,0.0030000000934877653
-0.0005554548115469515,-0.0021835120860487223,9.891519546508789,0.00029999998514540493,0.000699999975040555,0.06859999895095825,0.015999999942759198,-0.0009999999964224499,-0.010999999647985701
0.0025857379660010338,-0.007738059852272272,9.889374732971191,0.00029999998514540493,0.000699999975040555,0.06859999895095825,-0.0009999999964224499,0.021000000237532696,0.01700000066872456
-0.0006799532566219568,-0.003849876346066594,9.886510848999023,0.00029999998514540493,0.000699999975040555,0.06859999895095825,0.007000000079177565,0.024000000747902123,-0.007000000079177565
0.0007948749698698521,-0.013599066063761711,9.882746696472168,0.00039999998989515007,0.0005999999702908099,0.058799996972084045,-0.010999999647985701,0.014999999216793838,0.01400000015835513
0.006540958769619465,0.011176133528351784,9.8871431350708,0.00039999998989515007,0.000699999975040555,0.06859999895095825,-0.009999999755783667,-0.04900000055424296,-0.0429999995335041
0.00287304213270545,-0.008264783769845963,9.896862983703613,0.00029999998514540493,0.000699999975040555,0.07840000092983246,0.012000000373951061,0.01400000015835513,-0.01700000066872456
0.013637373223900795,0.0016950948629528284,9.891739845275879,0.00029999998514540493,0.0005999999702908099,0.06859999895095825,0.007000000079177565,-0.03999999902313467,-0.03100000082707969
-0.0005841852398589253,-0.0051044379360973835,9.889815330505371,0.00019999999494757503,0.0005999999702908099,0.06859999895095825,-0.017999999727163266,0.009999999755783667,0.009999999755783667
0.01079306099563837,0.0030741551890969276,9.89500617980957,0.00019999999494757503,0.000699999975040555,0.07840000092983246,0.007999999971379599,0.029999998433587676,-0.021000000237532696
0.006962338462471962,-0.012670115567743778,9.893914222717285,0.00029999998514540493,0.0005999999702908099,0.07840000092983246,-0.012000000373951061,-0.004999999877891834,0.03699999851276524
0.014413094148039818,-0.004501099232584238,9.888406753540039,0.00029999998514540493,0.000699999975040555,0.06859999895095825,-0.010999999647985701,0.038000000906257256,0.012000000373951061
-0.002844311762601137,0.01677856594324112,9.88247013092041,0.00039999998989515007,0.000699999975040555,0.058799996972084045,0.05799999875029794,-0.004999999877891834,0.010999999647985701
0.011731588281691074,-0.008973468095064163,9.886645317077637,0.00039999998989515007,0.0004999999655410647,0.07840000092983246,0.03599999945432653,-0.014999999216793838,-0.007000000079177565
-0.003217807039618492,0.004405331332236528,9.892908096313477,0.00039999998989515007,0.0004999999655410647,0.07840000092983246,-0.01700000066872456,0.013000000266153095,-0.007999999971379599
0.005822698585689068,0.01138682384043932,9.891366004943848,0.00039999998989515007,0.0004999999655410647,0.06859999895095825,0.004999999877891834,-0.029999998433587676,-0.05099999867112037
-0.009605537168681622,-0.01148259174078703,9.888043403625488,0.00039999998989515007,0.0004999999655410647,0.06859999895095825,0.007000000079177565,0.0009999999964224499,-0.007000000079177565
-0.004118026699870825,0.016433799639344215,9.888636589050293,0.00039999998989515007,0.0004999999655410647,0.06859999895095825,0.0329999989439571,0,0.05600000063342052
-0.002394201699644327,-0.0021739350631833076,9.891587257385254,0.00039999998989515007,0.00039999998989515007,0.06859999895095825,0.010999999647985701,-0.0030000000934877653,0.009999999755783667
0.015983689576387405,-0.0023654713295400143,9.899535179138184,0.00029999998514540493,0.00029999998514540493,0.07840000092983246,-0.014999999216793838,0.03999999902313467,0.04600000004387353
0.004817133769392967,-0.009356540627777576,9.896862983703613,0.00039999998989515007,0.00039999998989515007,0.07840000092983246,0.007000000079177565,0.012000000373951061,-0.007000000079177565
0.007795520592480898,0.01408748235553503,9.887564659118652,0.0004999999655410647,0.00039999998989515007,0.06859999895095825,0.023000000021936765,-0.048000001495804245,-0.007000000079177565
0.0037924153730273247,-0.002451662439852953,9.888216018676758,0.00029999998514540493,0.00029999998514540493,0.06859999895095825,0.024000000747902123,-0.029999998433587676,0.02600000053230619
0.011022903956472874,0.0005458780215121806,9.891021728515625,0.00019999999494757503,0.00019999999494757503,0.06859999895095825,-0.009999999755783667,-0.014999999216793838,-0.006000000186975531
-0.01459505409002304,-0.006866570562124252,9.874242782592773,0.00019999999494757503,0.00019999999494757503,0.058799996972084045,0.0019999999928448997,0.038000000906257256,0.021000000237532696
-0.008197746239602566,-0.0027964275795966387,9.884978294372559,0.00029999998514540493,0.00019999999494757503,0.06859999895095825,-0.0269999995907449,0.021000000237532696,-0.024999999806340833
0.0012066776398569345,0.00024899697746150196,9.893138885498047,0.00039999998989515007,0.00029999998514540493,0.07840000092983246,0.004999999877891834,0.019000000453128628,-0.0030000000934877653
0.02391328662633896,-0.015571887604892254,9.89063835144043,0.010099999606609344,0.00029999998514540493,0.06859999895095825,-0.010999999647985701,-0.006000000186975531,-0.029999998433587676
0.011281479150056839,-0.0013120225630700588,9.89064884185791,0.00029999998514540493,0.00029999998514540493,0.06859999895095825,-0.017999999727163266,-0.008999999863581633,-0.014999999216793838
0.00823605339974165,-0.01158793643116951,9.898070335388184,0.00029999998514540493,0.00039999998989515007,0.07840000092983246,-0.01700000066872456,-0.008999999863581633,0.010999999647985701
0.010400412604212761,0.008781932294368744,9.881080627441406,0.00019999999494757503,0.00039999998989515007,0.058799996972084045,0.007999999971379599,-0.007000000079177565,-0.007000000079177565
0.019661184400320053,0.011568782851099968,9.884087562561035,0.00989999994635582,0.00039999998989515007,0.06859999895095825,-0.013000000266153095,-0.023000000021936765,-0.04900000055424296
0.002758120186626911,-0.005152322351932526,9.872673034667969,0,0.00039999998989515007,0.04899999871850014,0.02899999937514897,-0.023000000021936765,-0.0030000000934877653
-0.005832275375723839,-0.007900865748524666,9.88748836517334,0,0.00029999998514540493,0.06859999895095825,0.0030000000934877653,-0.0030000000934877653,-0.024999999806340833
0.009097966365516186,-0.005372588522732258,9.893234252929688,0,0.00029999998514540493,0.07840000092983246,0.006000000186975531,0.019999999511567335,0.007000000079177565
-0.0018483237363398075,0.005267243832349777,9.887641906738281,0,0.00029999998514540493,0.06859999895095825,0.006000000186975531,0.03100000082707969,-0.0030000000934877653
0.0011875240597873926,-0.005439626052975655,9.905003547668457,0.00009999999747378752,0.00029999998514540493,0.08819999545812607,0.024000000747902123,-0.004999999877891834,0.021999999295971403
-0.006512228399515152,0.007709329482167959,9.878026008605957,0.00009999999747378752,0.00019999999494757503,0.058799996972084045,-0.004999999877891834,-0.02600000053230619,-0.012000000373951061
0.0053917421028018,-0.008609549142420292,9.892946243286133,0,0.00039999998989515007,0.07840000092983246,-0.014999999216793838,-0.014999999216793838,-0.010999999647985701
0.0054779332131147385,-0.0036296097096055746,9.88126277923584,0,0.00039999998989515007,0.07840000092983246,-0.014999999216793838,-0.014999999216793838,-0.010999999647985701
0.0025378537829965353,-0.008820239454507828,9.885169982910156,0.00009999999747378752,0.00029999998514540493,0.06859999895095825,0.008999999863581633,0.023000000021936765,0.009999999755783667
-0.0036200329195708036,0.007460332475602627,9.90144157409668,0.00009999999747378752,0.00029999998514540493,0.07840000092983246,0.015999999942759198,-0.0039999999856897995,-0.007000000079177565
0.015073893591761589,-0.0050661307759583,9.882201194763184,0.00009999999747378752,0.00019999999494757503,0.058799996972084045,0.0329999989439571,0.02600000053230619,0.031999999885518396
0.010534487664699554,-0.006205771118402481,9.87734603881836,0.00019999999494757503,0.00009999999747378752,0.058799996972084045,-0.024999999806340833,0.019000000453128628,0.049999999612681666
-0.006598419509828091,-0.0023750481195747852,9.882450103759766,0.00019999999494757503,0.00019999999494757503,0.058799996972084045,-0.035000000395887826,0.014999999216793838,0.010999999647985701
0.010007763281464577,-0.0011971008498221636,9.88148307800293,0.00029999998514540493,0.00029999998514540493,0.058799996972084045,-0.05900000114378995,-0.006000000186975531,0.0030000000934877653
-0.004711789079010487,-0.010477026924490929,9.88769817352295,0.00029999998514540493,0.0004999999655410647,0.06859999895095825,0.0030000000934877653,0.015999999942759198,-0.007000000079177565
-0.0018387469463050365,-0.006100425496697426,9.891462326049805,0.00029999998514540493,0.00039999998989515007,0.06859999895095825,0.0329999989439571,0.007000000079177565,-0.007000000079177565
0.0020302829798310995,-0.001628057099878788,9.882708549499512,0.00029999998514540493,0.00029999998514540493,0.058799996972084045,-0.007999999971379599,-0.0039999999856897995,-0.007000000079177565
-0.010007763281464577,0.007479486055672169,9.89272689819336,0.00029999998514540493,0.00039999998989515007,0.06859999895095825,-0.02800000031671026,-0.0039999999856897995,-0.007000000079177565
0.0025282769929617643,0.002930502872914076,9.887382507324219,0.00029999998514540493,0.00039999998989515007,0.06859999895095825,0.007000000079177565,-0.023000000021936765,0.0039999999856897995
0.003869029926136136,-0.009509769268333912,9.895848274230957,0.00019999999494757503,0.00039999998989515007,0.07840000092983246,-0.014999999216793838,0.012000000373951061,-0.05099999867112037
-0.008082824759185314,-0.00026815058663487434,9.889575958251953,0.00019999999494757503,0.00039999998989515007,0.06859999895095825,0.0030000000934877653,-0.007000000079177565,0.02800000031671026
-0.009643844328820705,-0.008916007354855537,9.896261215209961,0.00019999999494757503,0.00039999998989515007,0.07840000092983246,-0.01700000066872456,0.04500000098543482,-0.007000000079177565
0.005363011732697487,-0.001130063203163445,9.886615753173828,0.00029999998514540493,0.0004999999655410647,0.06859999895095825,0.006000000186975531,-0.0030000000934877653,0.02800000031671026
-0.010400412604212761,-0.0030358475632965565,9.883925437927246,0.00029999998514540493,0.0004999999655410647,0.06859999895095825,-0.0269999995907449,-0.013000000266153095,0.006000000186975531
0.004769249819219112,-0.0031411927193403244,9.885974884033203,0.00029999998514540493,0.0004999999655410647,0.06859999895095825,0.007999999971379599,0.01400000015835513,0.02600000053230619
-0.012430695816874504,0.004577713552862406,9.885113716125488,0.00029999998514540493,0.0004999999655410647,0.06859999895095825,0.008999999863581633,-0.004999999877891834,-0.0039999999856897995
-0.004673481918871403,0.00793917290866375,9.87210750579834,0.00029999998514540493,0.0004999999655410647,0.04899999871850014,0.004999999877891834,0.024999999806340833,-0.007000000079177565
-0.01533246785402298,0.005315127782523632,9.874424934387207,0.00039999998989515007,0.00039999998989515007,0.058799996972084045,0.006000000186975531,-0.004999999877891834,-0.004999999877891834
0.002911349292844534,0.010706869885325432,9.878954887390137,0.00039999998989515007,0.00039999998989515007,0.058799996972084045,-0.0019999999928448997,0.024000000747902123,-0.03599999945432653
0.004903324879705906,-0.0035434183664619923,9.891386032104492,0.00039999998989515007,0.00039999998989515007,0.06859999895095825,0.01700000066872456,-0.004999999877891834,-0.029999998433587676
-0.006751649081707001,0.00004788403384736739,9.891549110412598,0.00039999998989515007,0.00039999998989515007,0.06859999895095825,0.05300000012305109,-0.023000000021936765,-0.007000000079177565
-0.004175487905740738,-0.0021930888760834932,9.88398265838623,0.00029999998514540493,0.00019999999494757503,0.06859999895095825,0.007000000079177565,0.019999999511567335,-0.007000000079177565
0.003869029926136136,-0.011750741861760616,9.885543823242188,0.00039999998989515007,0.00019999999494757503,0.06859999895095825,0.007999999971379599,0.06299999737754478,-0.006000000186975531
-0.006703765131533146,-0.001283292076550424,9.891692161560059,0.0004999999655410647,0.00019999999494757503,0.07840000092983246,0.007000000079177565,-0.0030000000934877653,-0.049999999612681666
-0.01278503704816103,0.005228936672210693,9.886903762817383,0.0004999999655410647,0.00019999999494757503,0.06859999895095825,-0.03899999996469596,0.03899999996469596,-0.007000000079177565
-0.011645397171378136,-0.0025474305730313063,9.880487442016602,0.0005999999702908099,0.00029999998514540493,0.058799996972084045,0.0030000000934877653,-0.0009999999964224499,-0.010999999647985701
0.010515334084630013,-0.010113107971847057,9.883915901184082,0.0005999999702908099,0.00019999999494757503,0.06859999895095825,-0.0269999995907449,0,-0.007000000079177565
0.0051906295120716095,-0.015275007113814354,9.881148338317871,0.0005999999702908099,0.00029999998514540493,0.058799996972084045,0.048000001495804245,-0.05600000063342052,0.017999999727163266
0.002317587146535516,0.005956773646175861,9.873611450195312,0.00039999998989515007,0.00019999999494757503,0.04899999871850014,-0.01700000066872456,0.014999999216793838,0.0030000000934877653
0.006971915252506733,-0.0031794998794794083,9.883676528930664,0.0004999999655410647,0.00019999999494757503,0.06859999895095825,-0.03100000082707969,-0.0039999999856897995,-0.007000000079177565
-0.0017429788131266832,0.0006607996765524149,9.877058982849121,0.0004999999655410647,0.00029999998514540493,0.058799996972084045,-0.009999999755783667,0.05600000063342052,-0.004999999877891834
-0.004395754542201757,0.01459505409002304,9.877921104431152,0.0005999999702908099,0.00029999998514540493,0.058799996972084045,0.02600000053230619,0,0.010999999647985701
0.014796166680753231,-0.01742021180689335,9.880899429321289,0.0005999999702908099,0.00019999999494757503,0.058799996972084045,0.008999999863581633,0,0.010999999647985701
0.009251195006072521,0.0031411927193403244,9.889383316040039,0.0005999999702908099,0.00019999999494757503,0.06859999895095825,0.007000000079177565,-0.019999999511567335,-0.007000000079177565
0.007029375992715359,0.0018387469463050365,9.88904857635498,0.0004999999655410647,0.00019999999494757503,0.06859999895095825,-0.023000000021936765,0.01700000066872456,-0.0030000000934877653
-0.0027006594464182854,-0.0011779472697526217,9.874673843383789,0.0005999999702908099,0.00029999998514540493,0.058799996972084045,-0.03100000082707969,0.019999999511567335,-0.02600000053230619
-0.017755400389432907,0.008705317042768002,9.889986991882324,0.0005999999702908099,0.00029999998514540493,0.06859999895095825,-0.07199999890865307,-0.004999999877891834,-0.007999999971379599
-0.00849462766200304,-0.007671022322028875,9.890398979187012,0.0005999999702908099,0.0004999999655410647,0.06859999895095825,-0.004999999877891834,-0.0009999999964224499,-0.0030000000934877653
0.0008331821882165968,0.008887276984751225,9.89980411529541,0.0005999999702908099,0.0004999999655410647,0.07840000092983246,0.007000000079177565,-0.004999999877891834,-0.01700000066872456
-0.00868616346269846,-0.0029783868230879307,9.883332252502441,0.0005999999702908099,0.0004999999655410647,0.06859999895095825,-0.05300000012305109,-0.004999999877891834,-0.007000000079177565
-0.0012545617064461112,-0.006464344449341297,9.883848190307617,0.0004999999655410647,0.0005999999702908099,0.06859999895095825,0.0019999999928448997,-0.0019999999928448997,-0.0030000000934877653
0.007316680625081062,0.002403778489679098,9.892975807189941,0.0004999999655410647,0.0005999999702908099,0.07840000092983246,-0.0019999999928448997,0.041000001416626686,0.06099999926066736
-0.01199016161262989,-0.000028730421036016196,9.880660057067871,0.0005999999702908099,0.0005999999702908099,0.058799996972084045,0.006000000186975531,0.035000000395887826,0.015999999942759198
0.005142745096236467,-0.011405977420508862,9.884385108947754,0.000699999975040555,0.0005999999702908099,0.06859999895095825,-0.008999999863581633,0.006000000186975531,-0.0030000000934877653
-0.002576161175966263,-0.001618480309844017,9.876044273376465,0.000699999975040555,0.0005999999702908099,0.058799996972084045,-0.01700000066872456,0.014999999216793838,0.010999999647985701
0.007422025315463543,0.0046543278731405735,9.88094711303711,0.0007999999797903001,0.000699999975040555,0.058799996972084045,-0.02800000031671026,0.05200000106461238,0.0030000000934877653
0.006703765131533146,0.005430049262940884,9.89456558227539,0.0008999999845400453,0.000699999975040555,0.07840000092983246,0.007000000079177565,-0.021000000237532696,-0.008999999863581633
-0.009270348586142063,0.0051810527220368385,9.884586334228516,0.0007999999797903001,0.000699999975040555,0.06859999895095825,0.007000000079177565,-0.004999999877891834,-0.023000000021936765
-0.017056293785572052,-0.006387730129063129,9.879415512084961,0.0007999999797903001,0.000699999975040555,0.058799996972084045,0.019999999511567335,-0.007000000079177565,0.009999999755783667
-0.00028730419580824673,-0.007852981798350811,9.893242835998535,0.0007999999797903001,0.0005999999702908099,0.07840000092983246,0.007000000079177565,-0.004999999877891834,-0.0030000000934877653
-0.00028730419580824673,-0.007852981798350811,9.893242835998535,0.0007999999797903001,0.0005999999702908099,0.07840000092983246,0.007000000079177565,-0.004999999877891834,-0.0030000000934877653
-0.0004788403457496315,-0.022055385634303093,9.897677421569824,0.000699999975040555,0.0005999999702908099,0.07840000092983246,0.0030000000934877653,0.05900000114378995,-0.007000000079177565
0.015265430323779583,-0.004041412379592657,9.89636516571045,0.0007999999797903001,0.0005999999702908099,0.07840000092983246,0.007999999971379599,-0.0019999999928448997,-0.007000000079177565
-0.005861005745828152,0.001417367486283183,9.899880409240723,0.0007999999797903001,0.0005999999702908099,0.07840000092983246,-0.04200000047506539,-0.0030000000934877653,-0.007999999971379599
0.016768990084528923,0.005755661055445671,9.896998405456543,0.0007999999797903001,0.000699999975040555,0.07840000092983246,0.0030000000934877653,-0.0039999999856897995,0.0030000000934877653
0.012325351126492023,0.001465251436457038,9.870699882507324,0.0007999999797903001,0.000699999975040555,0.04899999871850014,0.007999999971379599,-0.05200000106461238,0.0030000000934877653
-0.00868616346269846,-0.025541342794895172,9.879443168640137,0.0005999999702908099,-0.008899999782443047,0.058799996972084045,-0.0030000000934877653,-0.004999999877891834,-0.008999999863581633
-0.00823605339974165,0.0010151414899155498,9.88753604888916,0.0005999999702908099,0.0007999999797903001,0.06859999895095825,0.007000000079177565,0.010999999647985701,-0.01400000015835513
0.00008619125583209097,-0.004548983182758093,9.892094612121582,0.0005999999702908099,0.0007999999797903001,0.06859999895095825,0.008999999863581633,-0.006000000186975531,0.024000000747902123
0.00164721067994833,0.0036008793395012617,9.882804870605469,0.0005999999702908099,0.000699999975040555,0.058799996972084045,-0.007999999971379599,-0.01700000066872456,-0.0039999999856897995
0.0006512228865176439,-0.0035434183664619923,9.883522987365723,0.0004999999655410647,0.000699999975040555,0.06859999895095825,0,0.0039999999856897995,-0.0039999999856897995
0.0026527754962444305,0.0029592332430183887,9.873917579650879,0.0004999999655410647,0.000699999975040555,0.058799996972084045,-0.004999999877891834,0.0009999999964224499,0
0.0046543278731405735,0.0004788403457496315,9.889365196228027,0.0004999999655410647,0.000699999975040555,0.06859999895095825,0.019000000453128628,0.007999999971379599,-0.024000000747902123
-0.011923124082386494,-0.0063973069190979,9.88294792175293,0.0004999999655410647,0.000699999975040555,0.058799996972084045,0.007000000079177565,-0.0019999999928448997,0.05600000063342052
-0.011530475690960884,-0.004711789079010487,9.895158767700195,0.0004999999655410647,0.0005999999702908099,0.07840000092983246,-0.01700000066872456,0.004999999877891834,-0.021999999295971403
-0.009528922848403454,-0.018215086311101913,9.889211654663086,0.0004999999655410647,0.000699999975040555,0.06859999895095825,0,0.021999999295971403,0.004999999877891834
-0.008561665192246437,-0.004759673029184341,9.8972749710083,0.0005999999702908099,0.000699999975040555,0.07840000092983246,0.024000000747902123,0.0269999995907449,0.029999998433587676
-0.013771448284387589,0.004539406392723322,9.892621040344238,0.000699999975040555,0.0005999999702908099,0.06859999895095825,-0.02600000053230619,-0.015999999942759198,-0.008999999863581633
0.0035913025494664907,-0.004596867132931948,9.876053810119629,0.0005999999702908099,0.000699999975040555,0.058799996972084045,-0.006000000186975531,0.017999999727163266,-0.0039999999856897995
0.014930241741240025,-0.0038019923958927393,9.893378257751465,0.000699999975040555,0.000699999975040555,0.07840000092983246,-0.007999999971379599,-0.006000000186975531,-0.017999999727163266
0.011224017478525639,0.0015035585965961218,9.885476112365723,0.0005999999702908099,0.000699999975040555,0.06859999895095825,0.008999999863581633,-0.006000000186975531,-0.0030000000934877653
0.001436521066352725,-0.012267890386283398,9.880363464355469,0.0005999999702908099,0.0005999999702908099,0.058799996972084045,0.009999999755783667,0.02899999937514897,-0.07600000181251451
-0.004960786085575819,-0.015849614515900612,9.882124900817871,0.000699999975040555,0.0005999999702908099,0.058799996972084045,-0.01400000015835513,-0.007000000079177565,-0.0030000000934877653
0.01468124520033598,-0.006157887168228626,9.881378173828125,0.0005999999702908099,0.0005999999702908099,0.058799996972084045,0.008999999863581633,-0.009999999755783667,0.004999999877891834
-0.004204218275845051,0.0026240451261401176,9.866438865661621,0.0005999999702908099,0.0005999999702908099,0.04899999871850014,0,0.010999999647985701,-0.0039999999856897995
0.0025474305730313063,0.00397437484934926,9.880660057067871,0.0005999999702908099,0.0005999999702908099,0.058799996972084045,0.007000000079177565,0.021000000237532696,0.019000000453128628
-0.014211980625987053,-0.0029975404031574726,9.888588905334473,0.0005999999702908099,0.0005999999702908099,0.058799996972084045,0.007000000079177565,0.021000000237532696,0.019000000453128628
-0.0017621323931962252,-0.0013120225630700588,9.887497901916504,0.0005999999702908099,0.0005999999702908099,0.06859999895095825,0.008999999863581633,-0.006000000186975531,0.012000000373951061
0.006560112349689007,0.009327810257673264,9.893013954162598,0.0005999999702908099,0.0004999999655410647,0.07840000092983246,-0.03999999902313467,-0.006000000186975531,0.023000000021936765
-0.003754108212888241,0.008293514139950275,9.888790130615234,0.0004999999655410647,0.0005999999702908099,0.06859999895095825,0.03400000133744912,0.05200000106461238,-0.0039999999856897995
-0.0013215993531048298,0.0007374141132459044,9.893904685974121,0.000699999975040555,0.0004999999655410647,0.07840000092983246,-0.0030000000934877653,-0.006000000186975531,-0.0039999999856897995
-0.002882618922740221,0.0017621323931962252,9.887986183166504,0.0005999999702908099,0.0004999999655410647,0.06859999895095825,0.004999999877891834,-0.023000000021936765,-0.004999999877891834
-0.0013886369997635484,0.00814028549939394,9.896145820617676,0.0005999999702908099,0.0004999999655410647,0.07840000092983246,0.024999999806340833,0.010999999647985701,-0.0039999999856897995
-0.014805743470788002,0.002250549616292119,9.882230758666992,0.0005999999702908099,0.00039999998989515007,0.058799996972084045,-0.007000000079177565,0.021000000237532696,0.021000000237532696
-0.009672574698925018,-0.004855440929532051,9.87651252746582,0.0005999999702908099,0.0004999999655410647,0.058799996972084045,0.009999999755783667,0.04500000098543482,0.008999999863581633
-0.0017429788131266832,-0.00684741698205471,9.880248069763184,0.0007999999797903001,0.00039999998989515007,0.058799996972084045,0.014999999216793838,-0.0019999999928448997,0.008999999863581633
0.0035817257594317198,-0.008226476609706879,9.887890815734863,0.000699999975040555,0.00039999998989515007,0.06859999895095825,0.019000000453128628,0.043999998591942806,-0.021999999295971403
-0.0055641247890889645,-0.0034093433059751987,9.877528190612793,0.0008999999845400453,0.00029999998514540493,0.058799996972084045,0.008999999863581633,-0.006000000186975531,-0.014999999216793838
0.00497036287561059,-0.011271901428699493,9.883944511413574,0.0007999999797903001,0.00029999998514540493,0.06859999895095825,0.04600000004387353,-0.004999999877891834,-0.0030000000934877653
0.00009576806769473478,-0.0012354080099612474,9.88241195678711,0.0007999999797903001,0.00019999999494757503,0.058799996972084045,0.008999999863581633,-0.01400000015835513,-0.0039999999856897995
-0.014125789515674114,0.004884171299636364,9.891098976135254,0.0007999999797903001,0.00009999999747378752,0.06859999895095825,0.009999999755783667,-0.006000000186975531,-0.0039999999856897995
0.005085284356027842,-0.005592855159193277,9.896241188049316,0.000699999975040555,0.00009999999747378752,0.07840000092983246,-0.006000000186975531,-0.01700000066872456,0.019999999511567335
0.012536040507256985,-0.0007086837431415915,9.89882755279541,0.000699999975040555,0.00009999999747378752,0.07840000092983246,-0.05799999875029794,-0.014999999216793838,-0.0030000000934877653
-0.007019799202680588,0.004185064695775509,9.883370399475098,0.0005999999702908099,0.00029999998514540493,0.06859999895095825,0.007999999971379599,0.023000000021936765,0.013000000266153095
0.0010534487664699554,-0.016500838100910187,9.89708423614502,0.000699999975040555,0.00029999998514540493,0.07840000092983246,-0.0009999999964224499,-0.024000000747902123,-0.006000000186975531
-0.007651868741959333,-0.004702212288975716,9.89828109741211,0.0005999999702908099,0.00029999998514540493,0.07840000092983246,-0.05099999867112037,0.008999999863581633,-0.007999999971379599
-0.0037732617929577827,0.008542511612176895,9.882009506225586,0.0005999999702908099,0.00039999998989515007,0.058799996972084045,0.009999999755783667,0.01700000066872456,0.024999999806340833
-0.008647856302559376,0.003064578166231513,9.89695930480957,0.000699999975040555,0.00039999998989515007,0.07840000092983246,-0.03599999945432653,0.043999998591942806,-0.0009999999964224499
-0.0029592332430183887,0.00003830722562270239,9.887890815734863,0.0007999999797903001,0.00039999998989515007,0.06859999895095825,0.007000000079177565,0.017999999727163266,-0.0039999999856897995
0.0030071171931922436,-0.008370129391551018,9.892621040344238,0.0007999999797903001,0.00039999998989515007,0.06859999895095825,-0.008999999863581633,0.010999999647985701,-0.0039999999856897995
-0.017171215265989304,0.01459505409002304,9.87592887878418,0.0007999999797903001,0.00039999998989515007,0.058799996972084045,-0.05600000063342052,-0.010999999647985701,0.009999999755783667
-0.0006512228865176439,-0.015217546373605728,9.881568908691406,0.0007999999797903001,0.0005999999702908099,0.058799996972084045,0.008999999863581633,-0.006000000186975531,-0.046999999102312236
0.003390189725905657,-0.007920019328594208,9.886990547180176,0.0007999999797903001,0.0005999999702908099,0.058799996972084045,0.004999999877891834,-0.0009999999964224499,-0.0019999999928448997
-0.0006703764665871859,-0.024756046012043953,9.892497062683105,0.0007999999797903001,-0.009099999442696571,0.06859999895095825,0.007999999971379599,-0.03599999945432653,0.019999999511567335
0.00319865345954895,0.007872135378420353,9.881511688232422,0.000699999975040555,0.0005999999702908099,0.058799996972084045,0.013000000266153095,0.012000000373951061,-0.0030000000934877653
0.0019728222396224737,-0.006062118336558342,9.885964393615723,0.000699999975040555,0.0005999999702908099,0.058799996972084045,-0.0030000000934877653,-0.031999999885518396,-0.0030000000934877653
-0.002106897532939911,0.00839885976165533,9.887813568115234,0.000699999975040555,0.0004999999655410647,0.06859999895095825,-0.0030000000934877653,-0.031999999885518396,-0.0030000000934877653
-0.005142745096236467,-0.00006703764665871859,9.8960599899292,0.000699999975040555,0.0004999999655410647,0.07840000092983246,-0.02899999937514897,-0.007999999971379599,-0.021000000237532696
0.010007763281464577,-0.009050082415342331,9.89722728729248,0.0005999999702908099,0.0005999999702908099,0.07840000092983246,0.0269999995907449,0.019000000453128628,0.013000000266153095
0.001628057099878788,-0.017669208347797394,9.88672161102295,0.000699999975040555,0.0004999999655410647,0.06859999895095825,0.010999999647985701,0.01700000066872456,0.021999999295971403
-0.017946936190128326,0.0017334020230919123,9.902131080627441,0.000699999975040555,0.0004999999655410647,0.07840000092983246,-0.007999999971379599,0.021000000237532696,-0.0039999999856897995
0.009643844328820705,0.0034284968860447407,9.88780403137207,0.0007999999797903001,0.0004999999655410647,0.06859999895095825,0,-0.006000000186975531,-0.0039999999856897995
-0.00022026654914952815,0.010409989394247532,9.880315780639648,0.000699999975040555,0.0004999999655410647,0.058799996972084045,-0.0019999999928448997,-0.04200000047506539,-0.0039999999856897995
0.002442085649818182,0.0020302829798310995,9.880640983581543,0.0005999999702908099,0.0004999999655410647,0.058799996972084045,-0.03400000133744912,-0.0329999989439571,-0.009999999755783667
0.009002198465168476,-0.005956773646175861,9.897438049316406,0.0004999999655410647,0.0005999999702908099,0.07840000092983246,0.0019999999928448997,0.010999999647985701,-0.014999999216793838
0.00026815058663487434,0.0010055646998807788,9.871752738952637,0.0004999999655410647,0.0004999999655410647,0.04899999871850014,-0.05300000012305109,-0.006000000186975531,0.019999999511567335
0.010821791365742683,0.00010534487955737859,9.887239456176758,0.0004999999655410647,0.000699999975040555,0.06859999895095825,-0.010999999647985701,-0.031999999885518396,-0.0019999999928448997
0.001618480309844017,0.0059088896960020065,9.887296676635742,0.00039999998989515007,0.000699999975040555,0.06859999895095825,-0.0030000000934877653,-0.007000000079177565,0.041000001416626686
-0.010457873344421387,-0.015887921676039696,9.885247230529785,0.00039999998989515007,0.000699999975040555,0.06859999895095825,0.0019999999928448997,-0.0269999995907449,0.046999999102312236
0.013407530263066292,-0.003208230249583721,9.892419815063477,0.00029999998514540493,0.000699999975040555,0.06859999895095825,0.008999999863581633,-0.04200000047506539,0.019000000453128628
0.009931148961186409,0.006617573089897633,9.879865646362305,0.00019999999494757503,0.0005999999702908099,0.058799996972084045,-0.05300000012305109,-0.006000000186975531,-0.0039999999856897995
-0.0030454243533313274,0.006387730129063129,9.875038146972656,0.00019999999494757503,0.0007999999797903001,0.058799996972084045,0.007000000079177565,0.029999998433587676,-0.0039999999856897995
0.0068091098219156265,-0.006033387966454029,9.899967193603516,0.00029999998514540493,0.0007999999797903001,0.07840000092983246,0.004999999877891834,-0.009999999755783667,-0.008999999863581633
-0.0012641384964808822,-0.008149862289428711,9.89869213104248,0.00019999999494757503,0.000699999975040555,0.07840000092983246,0.007000000079177565,-0.006000000186975531,0.05600000063342052
0.003964798059314489,0.008178592659533024,9.897285461425781,0.00019999999494757503,0.000699999975040555,0.07840000092983246,0.0039999999856897995,0.008999999863581633,0.0019999999928448997
-0.005726930685341358,-0.009844956919550896,9.889269828796387,0.00019999999494757503,0.000699999975040555,0.07840000092983246,0.02899999937514897,-0.03100000082707969,0.07399999702553048
-0.005592855159193277,0.001915361382998526,9.891175270080566,0.00009999999747378752,0.0005999999702908099,0.06859999895095825,0.009999999755783667,0.02600000053230619,-0.012000000373951061
0.00024899697746150196,0.0008523358264937997,9.882393836975098,0.00009999999747378752,0.0005999999702908099,0.06859999895095825,-0.0009999999964224499,0.0039999999856897995,-0.021999999295971403
-0.002940079662948847,-0.0047405194491147995,9.886741638183594,0.00019999999494757503,0.0004999999655410647,0.06859999895095825,0.008999999863581633,0.03999999902313467,-0.0030000000934877653
0.007364564575254917,-0.004491522442549467,9.887133598327637,0.00029999998514540493,0.0004999999655410647,0.06859999895095825,-0.0019999999928448997,-0.006000000186975531,0.014999999216793838
-0.004175487905740738,-0.019306842237710953,9.885553359985352,0.00019999999494757503,-0.009099999442696571,0.06859999895095825,-0.0019999999928448997,-0.007000000079177565,0.004999999877891834
0.002892195712774992,0.003945644479244947,9.877575874328613,0.00019999999494757503,0.0005999999702908099,0.058799996972084045,-0.006000000186975531,0.017999999727163266,0.019000000453128628
0.0005650316015817225,0.005765237845480442,9.877385139465332,0.00029999998514540493,0.0005999999702908099,0.058799996972084045,-0.014999999216793838,-0.029999998433587676,0.004999999877891834
0.012650961987674236,0.004568136762827635,9.885706901550293,0.00019999999494757503,0.000699999975040555,0.06859999895095825,-0.01700000066872456,0.010999999647985701,-0.008999999863581633
0.009471462108194828,-0.004721365869045258,9.872049331665039,0.00019999999494757503,0.000699999975040555,0.04899999871850014,-0.015999999942759198,-0.0039999999856897995,0.029999998433587676
-0.012861651368439198,-0.005430049262940884,9.888962745666504,0.00019999999494757503,0.000699999975040555,0.06859999895095825,0.008999999863581633,0.024999999806340833,-0.0039999999856897995
-0.00020111293997615576,0.007067683152854443,9.89820384979248,0.00029999998514540493,0.000699999975040555,0.07840000092983246,-0.031999999885518396,-0.0019999999928448997,-0.0009999999964224499
-0.011923124082386494,0.004817133769392967,9.908384323120117,0.00019999999494757503,0.0007999999797903001,0.08819999545812607,0.019000000453128628,0.009999999755783667,0
-0.003715801052749157,-0.005516240373253822,9.885993957519531,0.00029999998514540493,0.000699999975040555,0.06859999895095825,-0.023000000021936765,-0.006000000186975531,-0.046999999102312236
-0.001944091753102839,0.0010534487664699554,9.897984504699707,0.00029999998514540493,0.0007999999797903001,0.07840000092983246,-0.0030000000934877653,-0.012000000373951061,0.019999999511567335
-0.009672574698925018,0.007881712168455124,9.897964477539062,0.00019999999494757503,0.0007999999797903001,0.07840000092983246,0.008999999863581633,0.038000000906257256,0.004999999877891834
0.007201758679002523,-0.002288856776431203,9.88454818725586,0.00029999998514540493,0.000699999975040555,0.06859999895095825,0.03899999996469596,-0.01700000066872456,0
-0.011405977420508862,0.0019632454495877028,9.894920349121094,0.00029999998514540493,0.0005999999702908099,0.07840000092983246,-0.019999999511567335,0.017999999727163266,0.05600000063342052
-0.0036104561295360327,-0.0012449849164113402,9.889728546142578,0.00029999998514540493,0.000699999975040555,0.06859999895095825,-0.021999999295971403,0.017999999727163266,0.0019999999928448997
-0.0019632454495877028,-0.00016280572162941098,9.890983581542969,0.00039999998989515007,0.000699999975040555,0.06859999895095825,0.008999999863581633,0.01700000066872456,-0.021000000237532696
0.004242525435984135,0.0017142484430223703,9.890419006347656,0.00039999998989515007,0.000699999975040555,0.06859999895095825,-0.05099999867112037,0.02600000053230619,0.01700000066872456
0.005659893155097961,-0.0031411927193403244,9.881080627441406,0.0004999999655410647,0.0007999999797903001,0.058799996972084045,0.008999999863581633,-0.006000000186975531,-0.0039999999856897995
-0.009701305069029331,-0.00020111293997615576,9.880908966064453,0.00039999998989515007,0.0007999999797903001,0.058799996972084045,-0.035000000395887826,-0.006000000186975531,-0.012000000373951061
0.0023654713295400143,0.010850521735846996,9.877939224243164,0.00039999998989515007,0.0008999999845400453,0.058799996972084045,-0.01700000066872456,0.0009999999964224499,0
-0.00849462766200304,0.004826710559427738,9.891375541687012,0.00039999998989515007,0.0008999999845400453,0.06859999895095825,-0.015999999942759198,-0.0019999999928448997,-0.0030000000934877653
-0.010314221493899822,-0.017353173345327377,9.885074615478516,0.00029999998514540493,0.0007999999797903001,0.06859999895095825,-0.05799999875029794,-0.019999999511567335,0.008999999863581633
0.0030166939832270145,0.003371036145836115,9.88508415222168,0.00029999998514540493,0.0009999999310821295,0.06859999895095825,0.008999999863581633,0.06399999977103679,0.05600000063342052
-0.007785943802446127,-0.006512228399515152,9.886271476745605,0.0004999999655410647,0.0008999999845400453,0.06859999895095825,-0.007999999971379599,-0.02600000053230619,0.0039999999856897995
0.0038211459759622812,0.005420472472906113,9.893013954162598,0.00039999998989515007,0.0008999999845400453,0.07840000092983246,-0.015999999942759198,-0.01700000066872456,0.019999999511567335
-0.0012545617064461112,-0.005975927226245403,9.902887344360352,0.00029999998514540493,0.0009999999310821295,0.08819999545812607,-0.021999999295971403,0.0030000000934877653,-0.03999999902313467
0.001426944276317954,-0.0030071171931922436,9.887755393981934,0.00029999998514540493,0.0009999999310821295,0.06859999895095825,-0.019999999511567335,0.017999999727163266,0.019999999511567335
0.009557653218507767,0.0009385270532220602,9.8806791305542,0.00039999998989515007,0.0010999999940395355,0.058799996972084045,-0.015999999942759198,0.048000001495804245,-0.0039999999856897995
-0.009260771796107292,0.008149862289428711,9.893071174621582,0.0004999999655410647,0.0010999999940395355,0.07840000092983246,0.007999999971379599,0.0039999999856897995,-0.021999999295971403
-0.00022026654914952815,-0.006761225871741772,9.877604484558105,0.0004999999655410647,0.0010999999940395355,0.058799996972084045,-0.014999999216793838,-0.006000000186975531,-0.004999999877891834
-0.010007763281464577,0.0027198130264878273,9.870986938476562,0.0004999999655410647,0.0010999999940395355,0.04899999871850014,-0.015999999942759198,-0.004999999877891834,-0.0039999999856897995
-0.005717353895306587,0.0020111293997615576,9.876781463623047,0.0004999999655410647,0.0010999999940395355,0.058799996972084045,-0.02600000053230619,-0.014999999216793838,0.019999999511567335
0.0043861777521669865,0.011473014950752258,9.885773658752441,0.00039999998989515007,0.0011999999405816197,0.06859999895095825,0.007999999971379599,-0.07399999702553048,0.0269999995907449
0.006081271916627884,0.001446097856387496,9.889901161193848,0.00019999999494757503,0.0010999999940395355,0.06859999895095825,0.007999999971379599,0.01700000066872456,-0.009999999755783667
-0.008092401549220085,-0.000814028549939394,9.879327774047852,0.00029999998514540493,0.0010999999940395355,0.058799996972084045,0.01400000015835513,0.019999999511567335,0.013000000266153095
0.003351882565766573,0.008599972352385521,9.892850875854492,0.00029999998514540493,0.0010999999940395355,0.07840000092983246,-0.008999999863581633,0,-0.008999999863581633
-0.0031028855592012405,0.008360552601516247,9.880363464355469,0.00029999998514540493,0.0010999999940395355,0.058799996972084045,-0.02600000053230619,0.019000000453128628,0.0030000000934877653
-0.012133813463151455,0.01853111945092678,9.898319244384766,0.00029999998514540493,0.0010999999940395355,0.07840000092983246,0.006000000186975531,-0.0019999999928448997,-0.0030000000934877653
-0.0016950948629528284,0.005410895682871342,9.888177871704102,0.00029999998514540493,0.0010999999940395355,0.06859999895095825,0.009999999755783667,0.03599999945432653,-0.014999999216793838
-0.013168108649551868,-0.009739612229168415,9.89156723022461,0.00039999998989515007,0.0010999999940395355,0.06859999895095825,0,-0.004999999877891834,-0.0039999999856897995
0.0008331821882165968,0.0034668040461838245,9.878447532653809,0.00039999998989515007,0.0009999999310821295,0.058799996972084045,-0.015999999942759198,-0.024999999806340833,0.0019999999928448997
0.005516240373253822,-0.0015131353866308928,9.894143104553223,0.00029999998514540493,0.0010999999940395355,0.07840000092983246,0.0039999999856897995,0.0009999999964224499,0.05999999686717535
0.009193734265863895,-0.012775460258126259,9.890495300292969,0.00029999998514540493,0.0010999999940395355,0.06859999895095825,-0.013000000266153095,0.06399999977103679,0.07399999702553048
-0.005793968215584755,-0.006406883709132671,9.885093688964844,0.0004999999655410647,0.0010999999940395355,0.06859999895095825,-0.0269999995907449,0.05300000012305109,-0.02899999937514897
0.0010055646998807788,-0.011300632730126381,9.890495300292969,0.0005999999702908099,0.0010999999940395355,0.06859999895095825,0.007999999971379599,-0.043999998591942806,-0.049999999612681666
0.006694188341498375,0.016433799639344215,9.879999160766602,0.0004999999655410647,0.0010999999940395355,0.058799996972084045,0.03899999996469596,0.043999998591942806,0.015999999942759198
-0.002892195712774992,0.011530475690960884,9.876398086547852,0.0004999999655410647,0.0010999999940395355,0.058799996972084045,0.008999999863581633,-0.006000000186975531,-0.006000000186975531
0.0012928689830005169,-0.006684611551463604,9.884117126464844,0.0005999999702908099,0.0008999999845400453,0.06859999895095825,-0.0009999999964224499,-0.014999999216793838,-0.0039999999856897995
0.014125789515674114,-0.001944091753102839,9.889412879943848,0.0004999999655410647,0.0008999999845400453,0.06859999895095825,-0.07699999753589991,0.004999999877891834,-0.05300000012305109
0.010975020006299019,-0.007833828218281269,9.88638687133789,0.0004999999655410647,0.0010999999940395355,0.06859999895095825,-0.03599999945432653,0.012000000373951061,-0.014999999216793838
-0.004596867132931948,-0.003390189725905657,9.886865615844727,0.0005999999702908099,0.0011999999405816197,0.06859999895095825,0.03400000133744912,0.014999999216793838,0.008999999863581633
0.0026527754962444305,-0.002231396036222577,9.89291763305664,0.0005999999702908099,0.0010999999940395355,0.07840000092983246,0.0030000000934877653,-0.024999999806340833,0.024000000747902123
0.004692635498940945,-0.00209732074290514,9.892841339111328,0.0004999999655410647,0.0009999999310821295,0.07840000092983246,0.008999999863581633,-0.004999999877891834,-0.021999999295971403
-0.0046543278731405735,-0.0034955344162881374,9.887794494628906,0.0004999999655410647,0.0009999999310821295,0.06859999895095825,-0.035000000395887826,0.06500000216452881,-0.0030000000934877653
-0.0016950948629528284,-0.005056553985923529,9.892928123474121,0.000699999975040555,0.0010999999940395355,0.07840000092983246,0.007999999971379599,-0.004999999877891834,0.019999999511567335
0.0021835120860487223,0.010055647231638432,9.892975807189941,0.000699999975040555,0.0010999999940395355,0.07840000092983246,0.0030000000934877653,-0.008999999863581633,-0.021999999295971403
0.011712434701621532,0.0005458780215121806,9.895915985107422,0.0005999999702908099,0.0009999999310821295,0.07840000092983246,-0.0009999999964224499,0.03599999945432653,-0.0039999999856897995
0.008858546614646912,-0.01656787469983101,9.869780540466309,0.000699999975040555,0.0009999999310821295,0.04899999871850014,-0.02600000053230619,0,-0.0030000000934877653
-0.013445837423205376,-0.0011971008498221636,9.866965293884277,0.000699999975040555,0.0010999999940395355,0.04899999871850014,-0.024000000747902123,-0.01400000015835513,-0.029999998433587676
0.0075369467958807945,-0.005688623525202274,9.878811836242676,0.000699999975040555,0.0010999999940395355,0.058799996972084045,0.007999999971379599,-0.0009999999964224499,-0.014999999216793838
0.004491522442549467,-0.0127946138381958,9.875804901123047,0.0005999999702908099,0.0010999999940395355,0.058799996972084045,0.05099999867112037,0.013000000266153095,-0.03999999902313467
-0.0035051112063229084,0.002432508859783411,9.876962661743164,0.000699999975040555,0.0008999999845400453,0.058799996972084045,0.004999999877891834,0.0030000000934877653,-0.0039999999856897995
0.0047309426590800285,-0.0004022258799523115,9.885371208190918,0.000699999975040555,0.0008999999845400453,0.06859999895095825,0.008999999863581633,0.007000000079177565,-0.0019999999928448997
-0.011204863898456097,-0.01223915908485651,9.893425941467285,0.000699999975040555,0.0008999999845400453,0.07840000092983246,-0.014999999216793838,-0.009999999755783667,0.008999999863581633
0.00029688101494684815,-0.006387730129063129,9.884634017944336,0.0005999999702908099,0.0008999999845400453,0.06859999895095825,-0.0009999999964224499,-0.024000000747902123,-0.02899999937514897
0.004759673029184341,0.001417367486283183,9.884442329406738,0.0005999999702908099,0.0008999999845400453,0.06859999895095825,-0.009999999755783667,0.012000000373951061,-0.0030000000934877653
-0.005717353895306587,-0.016050728037953377,9.893033027648926,0.0005999999702908099,0.0008999999845400453,0.07840000092983246,-0.04900000055424296,-0.0030000000934877653,-0.02899999937514897
-0.006694188341498375,-0.005228936672210693,9.889824867248535,0.0005999999702908099,0.0009999999310821295,0.06859999895095825,0.008999999863581633,-0.02600000053230619,0.019000000453128628
-0.011099519208073616,0.0033135751727968454,9.886348724365234,0.0004999999655410647,0.0009999999310821295,0.07840000092983246,0.008999999863581633,0.017999999727163266,-0.0039999999856897995
-0.0017429788131266832,-0.009777919389307499,9.893511772155762,0.0005999999702908099,0.0009999999310821295,0.07840000092983246,0.0009999999964224499,0.015999999942759198,0.0030000000934877653
0.008791509084403515,-0.01634760946035385,9.899765968322754,0.0005999999702908099,0.0009999999310821295,0.07840000092983246,0.02800000031671026,0.009999999755783667,-0.0039999999856897995
-0.0026048915460705757,-0.006014234386384487,9.881760597229004,0.0005999999702908099,0.0008999999845400453,0.058799996972084045,0.013000000266153095,-0.006000000186975531,-0.0039999999856897995
-0.015026009641587734,0.005410895682871342,9.879682540893555,0.0005999999702908099,0.0007999999797903001,0.058799996972084045,0,0.03599999945432653,0.013000000266153095
-0.0009097966831177473,-0.02319502644240856,9.886290550231934,0.000699999975040555,-0.008799999952316284,0.06859999895095825,0.008999999863581633,-0.006000000186975531,0.021000000237532696
-0.0033231519628316164,0.0072687966749072075,9.878495216369629,0.000699999975040555,0.0008999999845400453,0.058799996972084045,0.012000000373951061,0.0009999999964224499,-0.0019999999928448997
-0.0015705963596701622,-0.00164721067994833,9.870509147644043,0.000699999975040555,0.0007999999797903001,0.04899999871850014,0.009999999755783667,-0.02899999937514897,-0.006000000186975531
0.004548983182758093,0.0033997665159404278,9.893636703491211,0.0005999999702908099,0.0007999999797903001,0.07840000092983246,0.009999999755783667,-0.0019999999928448997,0.03999999902313467
0.016002843156456947,-0.010735600255429745,9.883589744567871,0.0005999999702908099,0.0007999999797903001,0.06859999895095825,0.007999999971379599,-0.006000000186975531,-0.0039999999856897995
-0.0010247182799503207,-0.0018100164597854018,9.87558364868164,0.0005999999702908099,0.000699999975040555,0.058799996972084045,0.008999999863581633,-0.006000000186975531,-0.0039999999856897995
-0.010726023465394974,-0.0017238252330571413,9.893722534179688,0.0004999999655410647,0.000699999975040555,0.07840000092983246,0.02800000031671026,0.010999999647985701,-0.0039999999856897995
0.0006703764665871859,0.004663905128836632,9.882096290588379,0.0005999999702908099,0.0005999999702908099,0.058799996972084045,0.04600000004387353,-0.006000000186975531,0.008999999863581633
0.00883939303457737,-0.007680599112063646,9.88966178894043,0.0004999999655410647,0.0004999999655410647,0.06859999895095825,-0.010999999647985701,-0.0019999999928448997,-0.02600000053230619
0.00019153613538946956,0.0021452046930789948,9.874482154846191,0.0004999999655410647,0.0004999999655410647,0.058799996972084045,-0.019999999511567335,-0.013000000266153095,0
-0.016673222184181213,0.001158793573267758,9.8985013961792,0.0004999999655410647,0.0005999999702908099,0.07840000092983246,0.009999999755783667,-0.0039999999856897995,0.01400000015835513
-0.0029975404031574726,-0.005363011732697487,9.878878593444824,0.0004999999655410647,0.0004999999655410647,0.058799996972084045,0.009999999755783667,0.019000000453128628,0.019999999511567335
0.0025282769929617643,-0.008599972352385521,9.888819694519043,0.0004999999655410647,0.0004999999655410647,0.06859999895095825,0.007000000079177565,0.004999999877891834,0.004999999877891834
-0.004903324879705906,-0.014729129150509834,9.897438049316406,0.0004999999655410647,0.0004999999655410647,0.07840000092983246,-0.007999999971379599,-0.006000000186975531,0.043999998591942806
0.00242293206974864,-0.006579265929758549,9.881799697875977,0.0004999999655410647,0.0004999999655410647,0.058799996972084045,0.008999999863581633,-0.007000000079177565,-0.0030000000934877653
0.005430049262940884,0.0006799532566219568,9.880411148071289,0.0004999999655410647,0.00039999998989515007,0.058799996972084045,0,-0.006000000186975531,-0.0039999999856897995
0.007958326488733292,0.0055641247890889645,9.877939224243164,0.00039999998989515007,0.00039999998989515007,0.058799996972084045,-0.007999999971379599,0.02899999937514897,-0.0039999999856897995
0.021308396011590958,-0.0010247182799503207,9.875459671020508,0.010199999436736107,0.0004999999655410647,0.058799996972084045,-0.021999999295971403,-0.006000000186975531,0.013000000266153095
0.0070772599428892136,0.0026623522862792015,9.890562057495117,0.00039999998989515007,0.0004999999655410647,0.06859999895095825,0.013000000266153095,0.01400000015835513,0.038000000906257256
0.002250549616292119,-0.00009576806769473478,9.889785766601562,0.00039999998989515007,0.0004999999655410647,0.06859999895095825,-0.024999999806340833,-0.006000000186975531,-0.0030000000934877653
0.004434061702340841,-0.0026527754962444305,9.885677337646484,0.00039999998989515007,0.0005999999702908099,0.06859999895095825,0.0539999991814898,-0.007000000079177565,-0.023000000021936765
-0.004357446916401386,-0.0014939818065613508,9.885209083557129,0.00039999998989515007,0.0005999999702908099,0.06859999895095825,0.024999999806340833,0.006000000186975531,-0.008999999863581633
-0.0010055646998807788,-0.004989516455680132,9.904898643493652,0.00029999998514540493,0.00039999998989515007,0.06859999895095825,0.024999999806340833,0.006000000186975531,-0.008999999863581633
-0.003371036145836115,-0.004759673029184341,9.889633178710938,0.00039999998989515007,0.00029999998514540493,0.08819999545812607,0.007000000079177565,-0.0030000000934877653,-0.0019999999928448997
0.0025187002029269934,-0.0008619126165285707,9.886568069458008,0.00029999998514540493,0.00029999998514540493,0.06859999895095825,0.023000000021936765,-0.021999999295971403,-0.004999999877891834
0.007517793215811253,0.010515334084630013,9.886195182800293,0.00029999998514540493,0.00019999999494757503,0.06859999895095825,0.008999999863581633,-0.01400000015835513,-0.05499999823992851
0.004003105219453573,-0.020762518048286438,9.888273239135742,0.00019999999494757503,-0.009399999864399433,0.06859999895095825,0,-0.006000000186975531,0.0009999999964224499
0.006157887168228626,0.010524910874664783,9.884279251098633,0.00019999999494757503,0.00029999998514540493,0.06859999895095825,0.009999999755783667,-0.02800000031671026,-0.024000000747902123
0.017975665628910065,-0.01602199673652649,9.890284538269043,0.00009999999747378752,0.00029999998514540493,0.06859999895095825,0.007999999971379599,-0.0019999999928448997,0.03100000082707969
0.010850521735846996,-0.0035338415764272213,9.874176025390625,0.00009999999747378752,0.00029999998514540493,0.058799996972084045,-0.043999998591942806,-0.021000000237532696,0.019000000453128628
0.010026916861534119,0.00029688101494684815,9.88245964050293,0.00009999999747378752,0.00039999998989515007,0.058799996972084045,0.014999999216793838,-0.006000000186975531,-0.048000001495804245
0.0031507695093750954,0.00009576806769473478,9.870527267456055,0,0.00029999998514540493,0.04899999871850014,0.008999999863581633,-0.006000000186975531,-0.03999999902313467
-0.00009576806769473478,0.0014077905798330903,9.884231567382812,0,0.00029999998514540493,0.06859999895095825,0.008999999863581633,-0.0030000000934877653,-0.0039999999856897995
-0.008149862289428711,-0.01238281186670065,9.883685111999512,0,0.00029999998514540493,0.06859999895095825,-0.04200000047506539,0.02600000053230619,0.029999998433587676
0.009270348586142063,0.008475474081933498,9.88410758972168,0.00009999999747378752,0.00039999998989515007,0.06859999895095825,0.0429999995335041,0.010999999647985701,-0.0030000000934877653
-0.007441178895533085,-0.00319865345954895,9.895561218261719,0.00009999999747378752,0.00029999998514540493,0.07840000092983246,-0.0030000000934877653,-0.05900000114378995,0.03699999851276524
0.0021547814831137657,-0.0063973069190979,9.882307052612305,0,0.00029999998514540493,0.058799996972084045,0.04600000004387353,-0.006000000186975531,-0.0039999999856897995
0.01258392445743084,-0.009864110499620438,9.882843017578125,0,0.00009999999747378752,0.058799996972084045,-0.007999999971379599,-0.009999999755783667,-0.01400000015835513
0.0009097966831177473,-0.007824251428246498,9.893798828125,0,0.00019999999494757503,0.07840000092983246,0.008999999863581633,-0.01700000066872456,-0.0039999999856897995
0.002202665666118264,0.001446097856387496,9.89291763305664,0,0.00009999999747378752,0.07840000092983246,0.007000000079177565,0.0009999999964224499,-0.02600000053230619
0.0009002198348753154,-0.022093692794442177,9.881799697875977,0,-0.009499999694526196,0.058799996972084045,-0.008999999863581633,-0.006000000186975531,0.004999999877891834
-0.003907337319105864,0.004769249819219112,9.881503105163574,-0.00009999999747378752,0.00019999999494757503,0.058799996972084045,-0.019999999511567335,-0.007000000079177565,-0.0030000000934877653
-0.0029975404031574726,-0.009911995381116867,9.883465766906738,-0.00009999999747378752,0.00029999998514540493,0.06859999895095825,-0.008999999863581633,0.05300000012305109,-0.029999998433587676
0.004529829602688551,0.001618480309844017,9.879510879516602,0,0.00029999998514540493,0.06859999895095825,0.008999999863581633,0.01700000066872456,0.019000000453128628
0.0075369467958807945,-0.008130708709359169,9.876283645629883,0,0.00039999998989515007,0.058799996972084045,-0.029999998433587676,0.0019999999928448997,-0.02600000053230619
-0.0034955344162881374,0.009806649759411812,9.88552474975586,0,0.00039999998989515007,0.058799996972084045,0.008999999863581633,0.007000000079177565,0.04900000055424296
0.0034380736760795116,-0.005717353895306587,9.870967864990234,0,0.00039999998989515007,0.04899999871850014,0.03400000133744912,-0.023000000021936765,0.013000000266153095
-0.0038211459759622812,-0.016433799639344215,9.882287979125977,0,0.00029999998514540493,0.058799996972084045,-0.0039999999856897995,0.007000000079177565,-0.024000000747902123
-0.0018674773164093494,-0.0010534487664699554,9.889039039611816,0,0.00029999998514540493,0.06859999895095825,0.03599999945432653,0.04900000055424296,-0.01400000015835513
-0.001426944276317954,-0.002317587146535516,9.891711235046387,0.00009999999747378752,0.00019999999494757503,0.06859999895095825,0.008999999863581633,-0.010999999647985701,-0.0329999989439571
-0.012373235076665878,-0.005372588522732258,9.897208213806152,0.00009999999747378752,0.00019999999494757503,0.07840000092983246,0.013000000266153095,-0.024000000747902123,0.0659999978879142
-0.008322244510054588,-0.003907337319105864,9.885765075683594,0,0.00019999999494757503,0.06859999895095825,0.013000000266153095,-0.0030000000934877653,0.0019999999928448997
-0.00020111293997615576,-0.003572148969396949,9.882545471191406,0,0.00009999999747378752,0.058799996972084045,-0.008999999863581633,-0.007000000079177565,0.06700000028140622
0.009979032911360264,-0.002126051113009453,9.890178680419922,0,0.00009999999747378752,0.06859999895095825,0.008999999863581633,-0.007000000079177565,0.0030000000934877653
0.0059280432760715485,0.016261417418718338,9.88398265838623,0,0.00009999999747378752,0.06859999895095825,0.007999999971379599,0.06099999926066736,0.03899999996469596
0.00958638358861208,0.0004118026699870825,9.875469207763672,0.00009999999747378752,0.00009999999747378752,0.058799996972084045,-0.035000000395887826,0.014999999216793838,-0.029999998433587676
0.01917276717722416,-0.014844050630927086,9.885275840759277,0.00989999994635582,0.00019999999494757503,0.06859999895095825,-0.01400000015835513,-0.007999999971379599,-0.0030000000934877653
-0.0023367409594357014,-0.008111555129289627,9.872376441955566,0,0.00019999999494757503,0.04899999871850014,0.008999999863581633,-0.015999999942759198,0.048000001495804245
0.006148310378193855,0.0038019923958927393,9.890993118286133,0,0.00019999999494757503,0.06859999895095825,-0.01700000066872456,-0.024999999806340833,-0.006000000186975531
0.009030928835272789,-0.017879897728562355,9.875201225280762,0,0.00019999999494757503,0.058799996972084045,0.007000000079177565,-0.007000000079177565,-0.0039999999856897995
0.0024995466228574514,-0.0005458780215121806,9.879682540893555,0,0.00019999999494757503,0.058799996972084045,-0.009999999755783667,0.007999999971379599,-0.0039999999856897995
-0.00649307481944561,0.0007374141132459044,9.879664421081543,0,0.00019999999494757503,0.058799996972084045,0.014999999216793838,0.021999999295971403,-0.0030000000934877653
0.009308655746281147,0.002461239229887724,9.881684303283691,0,0.00019999999494757503,0.058799996972084045,-0.012000000373951061,0.01700000066872456,-0.012000000373951061
0.009308655746281147,0.002461239229887724,9.881684303283691,0,0.00019999999494757503,0.058799996972084045,-0.012000000373951061,0.01700000066872456,-0.012000000373951061
0.00024899697746150196,-0.0016950948629528284,9.887602806091309,0,0.00019999999494757503,0.06859999895095825,0.049999999612681666,-0.02800000031671026,-0.02899999937514897
-0.011300632730126381,0.005286397412419319,9.887737274169922,0,0.00009999999747378752,0.07840000092983246,0.019000000453128628,-0.0329999989439571,0
-0.011300632730126381,0.005286397412419319,9.887737274169922,0,0,0.06859999895095825,0.031999999885518396,-0.004999999877891834,-0.007999999971379599
-0.0017046716529875994,0.004606443922966719,9.887947082519531,-0.00009999999747378752,0,0.06859999895095825,-0.019999999511567335,0.0030000000934877653,0.021000000237532696
0.007967903278768063,0.009097966365516186,9.87669563293457,0,0,0.058799996972084045,-0.02600000053230619,-0.03599999945432653,-0.024999999806340833
-0.0023558945395052433,0.002269703196361661,9.892391204833984,-0.00009999999747378752,0,0.06859999895095825,-0.007999999971379599,-0.03100000082707969,-0.01400000015835513
0.002106897532939911,-0.00031603462412022054,9.879051208496094,-0.00019999999494757503,0.00009999999747378752,0.058799996972084045,0.012000000373951061,-0.015999999942759198,-0.02899999937514897
0.008178592659533024,-0.007364564575254917,9.900273323059082,-0.00029999998514540493,0,0.07840000092983246,0.012000000373951061,-0.024999999806340833,0.021000000237532696
0.008427590131759644,0.009097966365516186,9.880784034729004,-0.00029999998514540493,0,0.058799996972084045,0.008999999863581633,-0.006000000186975531,-0.0039999999856897995
-0.0006895300466567278,0.0037828385829925537,9.894057273864746,-0.00029999998514540493,0,0.07840000092983246,0.07900000232288394,-0.006000000186975531,-0.02899999937514897
0.0014077905798330903,-0.006186617538332939,9.884490013122559,-0.00029999998514540493,-0.00009999999747378752,0.06859999895095825,0.008999999863581633,-0.05099999867112037,-0.0039999999856897995
0.00839885976165533,0.006320692598819733,9.887124061584473,-0.0004999999655410647,-0.00019999999494757503,0.06859999895095825,-0.03400000133744912,0.03599999945432653,-0.004999999877891834
0.007412448525428772,0.006703765131533146,9.889116287231445,-0.00039999998989515007,-0.00009999999747378752,0.06859999895095825,-0.0009999999964224499,-0.019999999511567335,0.01400000015835513
0.0013886369997635484,0.019278112798929214,9.88094711303711,-0.00039999998989515007,0.009499999694526196,0.058799996972084045,-0.019000000453128628,0.035000000395887826,0.008999999863581633
0.0053917421028018,-0.009844956919550896,9.884575843811035,-0.00029999998514540493,-0.00009999999747378752,0.06859999895095825,0.01700000066872456,0.06099999926066736,-0.0039999999856897995
0.016299724578857422,0.013206415809690952,9.894814491271973,-0.00019999999494757503,-0.00019999999494757503,0.058799996972084045,-0.012000000373951061,-0.006000000186975531,-0.0030000000934877653
0.016299724578857422,0.013206415809690952,9.894814491271973,-0.00019999999494757503,-0.00009999999747378752,0.07840000092983246,0,-0.007000000079177565,-0.023000000021936765
0.0026527754962444305,-0.013637373223900795,9.87544059753418,-0.00019999999494757503,-0.00009999999747378752,0.058799996972084045,-0.008999999863581633,0.0429999995335041,0
0.007460332475602627,0.0018770541064441204,9.877959251403809,-0.00009999999747378752,-0.00009999999747378752,0.058799996972084045,0.03400000133744912,-0.006000000186975531,-0.046999999102312236
0.0072783734649419785,-0.004855440929532051,9.869732856750488,-0.00009999999747378752,-0.00009999999747378752,0.058799996972084045,-0.012000000373951061,-0.006000000186975531,-0.0269999995907449
0.002892195712774992,-0.005363011732697487,9.882660865783691,-0.00009999999747378752,-0.00009999999747378752,0.058799996972084045,0.008999999863581633,-0.007999999971379599,0.006000000186975531
0.010055647231638432,-0.018234239891171455,9.886157035827637,-0.00009999999747378752,-0.00009999999747378752,0.06859999895095825,-0.03699999851276524,0.03999999902313467,-0.007999999971379599
0.0014844050165265799,-0.0025857379660010338,9.897409439086914,0,0,0.07840000092983246,0.019999999511567335,0.03100000082707969,-0.007999999971379599
-0.015562310814857483,-0.005822698585689068,9.886204719543457,0,-0.00009999999747378752,0.06859999895095825,-0.03400000133744912,0.01400000015835513,0.04200000047506539
-0.0036391867324709892,0.003562572179362178,9.885313987731934,0,0,0.06859999895095825,-0.009999999755783667,-0.006000000186975531,-0.004999999877891834
0.005027823615819216,0.004711789079010487,9.884729385375977,0,0,0.06859999895095825,-0.007999999971379599,-0.0030000000934877653,-0.0039999999856897995
0.00026815058663487434,0.0030071171931922436,9.897610664367676,0,0,0.07840000092983246,-0.004999999877891834,-0.007000000079177565,0.009999999755783667
-0.008973468095064163,-0.0037828385829925537,9.87411880493164,0,0,0.058799996972084045,0.03400000133744912,-0.007000000079177565,0.012000000373951061
-0.00015322890249080956,0.007048529572784901,9.883475303649902,0,0,0.06859999895095825,0.008999999863581633,0.007000000079177565,-0.024999999806340833
-0.0004118026699870825,0.00994072575122118,9.89992904663086,0,-0.00009999999747378752,0.07840000092983246,0.0030000000934877653,0.014999999216793838,0.024000000747902123
-0.005592855159193277,-0.012334927916526794,9.881607055664062,0,-0.00009999999747378752,0.058799996972084045,0.007000000079177565,0.023000000021936765,-0.02800000031671026
-0.0209732074290514,-0.012066775932908058,9.89925765991211,-0.009499999694526196,-0.00009999999747378752,0.07840000092983246,0.05099999867112037,-0.01400000015835513,-0.0039999999856897995
-0.012440272606909275,0.023166295140981674,9.90144157409668,0.00009999999747378752,0.009399999864399433,0.07840000092983246,-0.05999999686717535,0.03699999851276524,0.04500000098543482
0.013809755444526672,-0.0117890490218997,9.893033027648926,0.00019999999494757503,-0.00009999999747378752,0.07840000092983246,0.006000000186975531,-0.006000000186975531,-0.0039999999856897995
0.010802637785673141,-0.0038115691859275103,9.886751174926758,0.00019999999494757503,-0.00019999999494757503,0.06859999895095825,-0.0009999999964224499,-0.0009999999964224499,-0.007000000079177565
-0.023606829345226288,-0.013876792974770069,9.868621826171875,-0.009399999864399433,-0.00019999999494757503,0.04899999871850014,-0.041000001416626686,-0.019999999511567335,-0.01400000015835513
-0.0021930888760834932,-0.0010821791365742683,9.876091957092285,0.00029999998514540493,0,0.058799996972084045,0.031999999885518396,-0.0019999999928448997,-0.017999999727163266
-0.0010342950699850917,-0.009548076428472996,9.893654823303223,0.00029999998514540493,-0.00009999999747378752,0.07840000092983246,-0.012000000373951061,0.0039999999856897995,-0.04600000004387353
-0.00009576806769473478,0.0027006594464182854,9.892641067504883,0.00029999998514540493,-0.00009999999747378752,0.06859999895095825,0.0039999999856897995,-0.01700000066872456,-0.0019999999928448997
-0.0038115691859275103,0.004865017719566822,9.876791000366211,0.00019999999494757503,-0.00009999999747378752,0.058799996972084045,-0.048000001495804245,0.0030000000934877653,-0.019999999511567335
-0.011032480746507645,0.004558559972792864,9.876580238342285,0.00019999999494757503,0,0.058799996972084045,-0.035000000395887826,-0.048000001495804245,0.004999999877891834
-0.0019919758196920156,0.00036391866160556674,9.892611503601074,0.00009999999747378752,0,0.06859999895095825,0.008999999863581633,0.02800000031671026,0.01700000066872456
0.012660538777709007,-0.005813121795654297,9.888148307800293,0.00019999999494757503,0,0.06859999895095825,-0.0009999999964224499,0.019000000453128628,-0.0039999999856897995
0.006684611551463604,-0.0017621323931962252,9.902609825134277,0.00019999999494757503,0,0.058799996972084045,0.007999999971379599,-0.008999999863581633,0.024000000747902123
0.010323798283934593,0.012555194087326527,9.890542984008789,0.00029999998514540493,0,0.08819999545812607,-0.0009999999964224499,0.013000000266153095,-0.0039999999856897995
-0.0005075707449577749,-0.0031316159293055534,9.88731575012207,0.00029999998514540493,0,0.06859999895095825,-0.05900000114378995,-0.0009999999964224499,-0.0030000000934877653
0.0011971008498221636,-0.0016855180729180574,9.890514373779297,0.00029999998514540493,0.00009999999747378752,0.06859999895095825,-0.012000000373951061,-0.0329999989439571,0.021999999295971403
-0.007326257415115833,-0.005880159325897694,9.8871431350708,0.00019999999494757503,0.00009999999747378752,0.06859999895095825,-0.007999999971379599,-0.021999999295971403,-0.004999999877891834
-0.00006703764665871859,-0.008015787228941917,9.893674850463867,0.00009999999747378752,0.00009999999747378752,0.07840000092983246,-0.02600000053230619,0.017999999727163266,0.03100000082707969
0.024258051067590714,0.0005171475349925458,9.876110076904297,0.009800000116229057,0.00019999999494757503,0.058799996972084045,-0.05499999823992851,-0.0039999999856897995,0
0.01188481692224741,0.0006033388199284673,9.859734535217285,0,0.00039999998989515007,0.03920000046491623,-0.03100000082707969,0.009999999755783667,-0.0039999999856897995
-0.004079719539731741,0.009634267538785934,9.873170852661133,0.00009999999747378752,0.00039999998989515007,0.04899999871850014,-0.009999999755783667,-0.004999999877891834,-0.0039999999856897995
0.016481684520840645,0.004769249819219112,9.888713836669922,0,0.0004999999655410647,0.06859999895095825,0.03999999902313467,-0.006000000186975531,-0.0030000000934877653
0.002384624909609556,-0.004060565959662199,9.889738082885742,0,0.00029999998514540493,0.06859999895095825,-0.043999998591942806,-0.006000000186975531,-0.0009999999964224499
-0.008667009882628918,0.004568136762827635,9.87989330291748,0,0.0004999999655410647,0.058799996972084045,0.007000000079177565,0.0019999999928448997,0.024999999806340833
-0.0070772599428892136,0.006138733588159084,9.893091201782227,0,0.00039999998989515007,0.07840000092983246,0.007000000079177565,0.035000000395887826,-0.004999999877891834
0.02127966471016407,0.00497036287561059,9.878552436828613,0.009800000116229057,0.00039999998989515007,0.058799996972084045,0.007999999971379599,-0.0009999999964224499,-0.009999999755783667
-0.007067683152854443,-0.008475474081933498,9.881568908691406,0,0.00039999998989515007,0.058799996972084045,-0.038000000906257256,-0.009999999755783667,0.006000000186975531
0.002221819246187806,0.011338939890265465,9.903510093688965,0,0.0004999999655410647,0.08819999545812607,-0.043999998591942806,-0.010999999647985701,-0.01700000066872456
-0.014154519885778427,0.0012066776398569345,9.88473892211914,0,0.0005999999702908099,0.06859999895095825,-0.04500000098543482,-0.006000000186975531,0
0.012555194087326527,-0.00771890627220273,9.882575035095215,0,0.000699999975040555,0.058799996972084045,-0.03599999945432653,-0.0039999999856897995,0.03899999996469596
0.0006320692482404411,-0.003361459355801344,9.886147499084473,0,0.0007999999797903001,0.06859999895095825,0.07000000079177565,-0.007000000079177565,0.01700000066872456
-0.013043610379099846,0.004003105219453573,9.886540412902832,0,0.0005999999702908099,0.06859999895095825,-0.007000000079177565,-0.0030000000934877653,-0.057000003026912535
0.0034668040461838245,-0.023520637303590775,9.880899429321289,0,-0.008999999612569809,0.058799996972084045,0.008999999863581633,0.019000000453128628,0.004999999877891834
-0.006703765131533146,-0.00988326407968998,9.878016471862793,0,0.000699999975040555,0.058799996972084045,0.007999999971379599,-0.07199999890865307,-0.048000001495804245
0.01169328112155199,-0.0047405194491147995,9.87441635131836,-0.00019999999494757503,0.000699999975040555,0.058799996972084045,-0.007000000079177565,0.0009999999964224499,0.006000000186975531
0.01014183834195137,-0.01159751322120428,9.876876831054688,-0.00019999999494757503,0.000699999975040555,0.058799996972084045,0.0039999999856897995,-0.007999999971379599,0.013000000266153095
0.0023654713295400143,-0.011722011491656303,9.88687515258789,-0.00019999999494757503,0.000699999975040555,0.06859999895095825,-0.008999999863581633,-0.006000000186975531,0
-0.005631162319332361,-0.0013215993531048298,9.897878646850586,-0.00019999999494757503,0.000699999975040555,0.07840000092983246,-0.008999999863581633,-0.007000000079177565,0.006000000186975531
0.011635820381343365,-0.006445190869271755,9.8797025680542,-0.00019999999494757503,0.000699999975040555,0.058799996972084045,0.0030000000934877653,0.013000000266153095,-0.0019999999928448997
0.005506663583219051,-0.012622231617569923,9.886615753173828,-0.00019999999494757503,0.000699999975040555,0.058799996972084045,-0.0039999999856897995,-0.02800000031671026,-0.017999999727163266
-0.012315774336457253,0.0027102362364530563,9.883332252502441,-0.00029999998514540493,0.000699999975040555,0.06859999895095825,-0.029999998433587676,-0.0009999999964224499,-0.004999999877891834
0.01348414458334446,-0.01317768543958664,9.899526596069336,-0.00029999998514540493,0.0007999999797903001,0.07840000092983246,-0.013000000266153095,-0.007000000079177565,0.03899999996469596
-0.007345410995185375,0.008791509084403515,9.884404182434082,-0.00029999998514540493,0.0007999999797903001,0.06859999895095825,0.0039999999856897995,0.006000000186975531,-0.02899999937514897
-0.008628702722489834,-0.013656526803970337,9.887171745300293,-0.00029999998514540493,0.0007999999797903001,0.06859999895095825,0.007000000079177565,0.021999999295971403,-0.02899999937514897
-0.0034955344162881374,-0.00319865345954895,9.882039070129395,-0.00019999999494757503,0.0007999999797903001,0.058799996972084045,0.0269999995907449,0.010999999647985701,0.013000000266153095
0.008207323029637337,-0.011032480746507645,9.885428428649902,-0.00019999999494757503,0.000699999975040555,0.06859999895095825,0.01700000066872456,0.0030000000934877653,0.03100000082707969
-0.005717353895306587,-0.0015227121766656637,9.878170013427734,-0.00019999999494757503,0.0005999999702908099,0.058799996972084045,0.009999999755783667,-0.021000000237532696,0.006000000186975531
-0.0003447650233283639,-0.005726930685341358,9.883782386779785,-0.00019999999494757503,0.0005999999702908099,0.06859999895095825,0,-0.024000000747902123,0.012000000373951061
-0.0024899698328226805,-0.0075273700058460236,9.88535213470459,-0.00029999998514540493,0.0005999999702908099,0.06859999895095825,-0.041000001416626686,-0.049999999612681666,-0.019000000453128628
-0.0024899698328226805,-0.0075273700058460236,9.88535213470459,-0.00029999998514540493,0.0005999999702908099,0.06859999895095825,-0.041000001416626686,-0.049999999612681666,-0.019000000453128628
-0.0008523358264937997,-0.017410634085536003,9.891060829162598,-0.0004999999655410647,0.0005999999702908099,0.06859999895095825,0.008999999863581633,-0.007000000079177565,-0.006000000186975531
0.0027198130264878273,-0.003869029926136136,9.871599197387695,-0.0004999999655410647,0.0004999999655410647,0.04899999871850014,0.024999999806340833,-0.006000000186975531,0.008999999863581633
-0.002911349292844534,-0.0013982137897983193,9.881799697875977,-0.0004999999655410647,0.0004999999655410647,0.058799996972084045,-0.035000000395887826,-0.004999999877891834,-0.007999999971379599
-0.0008619126165285707,0.002853888552635908,9.892812728881836,-0.0004999999655410647,0.0005999999702908099,0.06859999895095825,0.008999999863581633,-0.031999999885518396,-0.009999999755783667
-0.0219213105738163,-0.0013215993531048298,9.894794464111328,-0.010300000198185444,0.0004999999655410647,0.07840000092983246,-0.019000000453128628,-0.02899999937514897,0.0009999999964224499
0.002442085649818182,0.0012066776398569345,9.895255088806152,-0.0004999999655410647,0.0005999999702908099,0.07840000092983246,-0.024000000747902123,-0.03400000133744912,-0.0039999999856897995
-0.020676326006650925,0.00039264908991754055,9.890035629272461,-0.010300000198185444,0.0005999999702908099,0.06859999895095825,0.004999999877891834,-0.02600000053230619,-0.0030000000934877653
0.00009576806769473478,-0.0004979939549230039,9.894153594970703,-0.0005999999702908099,0.0005999999702908099,0.07840000092983246,-0.0269999995907449,-0.007000000079177565,0.024999999806340833
0.010170568712055683,-0.000957680691499263,9.890820503234863,-0.0005999999702908099,0.000699999975040555,0.06859999895095825,0.008999999863581633,0.021000000237532696,-0.0039999999856897995
-0.012746729888021946,0.008092401549220085,9.880037307739258,-0.0004999999655410647,0.0005999999702908099,0.058799996972084045,-0.02600000053230619,-0.0019999999928448997,-0.0039999999856897995
0.009117119945585728,-0.007920019328594208,9.873429298400879,-0.0004999999655410647,0.000699999975040555,0.04899999871850014,0.008999999863581633,0.049999999612681666,0.048000001495804245
-0.012325351126492023,0.00584185216575861,9.88072681427002,-0.00039999998989515007,0.000699999975040555,0.058799996972084045,0.013000000266153095,0.06399999977103679,0.010999999647985701
-0.008753201924264431,-0.001465251436457038,9.884902000427246,-0.00019999999494757503,0.0005999999702908099,0.06859999895095825,-0.029999998433587676,-0.031999999885518396,-0.0039999999856897995
-0.005851428955793381,-0.002135627903044224,9.881511688232422,-0.00029999998514540493,0.000699999975040555,0.058799996972084045,0.0269999995907449,0.0030000000934877653,-0.04500000098543482
0.005525817163288593,-0.01571553945541382,9.890351295471191,-0.00029999998514540493,0.0005999999702908099,0.06859999895095825,-0.0009999999964224499,-0.007000000079177565,-0.012000000373951061
-0.0027772739995270967,-0.0031220391392707825,9.880123138427734,-0.00029999998514540493,0.0005999999702908099,0.058799996972084045,-0.0019999999928448997,-0.007000000079177565,-0.019999999511567335
-0.002240972826257348,-0.010821791365742683,9.880248069763184,-0.00029999998514540493,0.0005999999702908099,0.058799996972084045,0.008999999863581633,0.07999999804626934,-0.0039999999856897995
0.0027964275795966387,-0.0017717091832309961,9.880315780639648,-0.00009999999747378752,0.0005999999702908099,0.058799996972084045,0.007999999971379599,-0.0030000000934877653,0.012000000373951061
-0.013369223102927208,0.02518700249493122,9.889211654663086,-0.00009999999747378752,0.010300000198185444,0.06859999895095825,-0.03400000133744912,0.009999999755783667,-0.0019999999928448997
0.001101332833059132,0.014901511371135712,9.885955810546875,-0.00009999999747378752,0.0004999999655410647,0.06859999895095825,0.007999999971379599,0.046999999102312236,0.0039999999856897995
0.00004788403384736739,0.0021835120860487223,9.882660865783691,0,0.0004999999655410647,0.058799996972084045,0.015999999942759198,-0.0039999999856897995,-0.0039999999856897995
-0.008762778714299202,-0.005717353895306587,9.894450187683105,0,0.0004999999655410647,0.07840000092983246,0,-0.0329999989439571,-0.04500000098543482
-0.0021547814831137657,0.002451662439852953,9.895838737487793,-0.00009999999747378752,0.00039999998989515007,0.07840000092983246,-0.029999998433587676,-0.031999999885518396,-0.0039999999856897995
0.004788403399288654,-0.009988609701395035,9.896241188049316,-0.00009999999747378752,0.0004999999655410647,0.07840000092983246,0.007999999971379599,-0.031999999885518396,-0.0019999999928448997
-0.011013327166438103,-0.00397437484934926,9.889728546142578,-0.00019999999494757503,0.0004999999655410647,0.06859999895095825,-0.015999999942759198,-0.006000000186975531,0.03100000082707969
-0.005525817163288593,0.011425131000578403,9.880066871643066,-0.00019999999494757503,0.0004999999655410647,0.058799996972084045,0.02600000053230619,0.017999999727163266,0.017999999727163266
-0.0010534487664699554,-0.006004657596349716,9.892928123474121,-0.00019999999494757503,0.0004999999655410647,0.07840000092983246,-0.01700000066872456,-0.004999999877891834,0.0039999999856897995
0.0024899698328226805,0.015591041184961796,9.877288818359375,-0.00019999999494757503,0.0004999999655410647,0.058799996972084045,-0.009999999755783667,-0.008999999863581633,-0.004999999877891834
-0.011520898900926113,-0.010323798283934593,9.888781547546387,-0.00019999999494757503,0.0004999999655410647,0.06859999895095825,0.004999999877891834,0.0329999989439571,0.013000000266153095
-0.005736507475376129,-0.019115306437015533,9.8811674118042,-0.00009999999747378752,0.0004999999655410647,0.058799996972084045,0.019000000453128628,0.0009999999964224499,0.021000000237532696
-0.004003105219453573,-0.016912641003727913,9.882172584533691,-0.00009999999747378752,0.00039999998989515007,0.058799996972084045,0.007000000079177565,-0.004999999877891834,-0.0039999999856897995
-0.0006991068948991597,-0.0053917421028018,9.88038158416748,-0.00009999999747378752,0.00039999998989515007,0.058799996972084045,0.008999999863581633,-0.03100000082707969,-0.02600000053230619
-0.000967257481534034,-0.005736507475376129,9.893521308898926,-0.00019999999494757503,0.00039999998989515007,0.07840000092983246,0.031999999885518396,0.012000000373951061,0.013000000266153095
0.0034189200960099697,-0.001944091753102839,9.895015716552734,-0.00019999999494757503,0.00029999998514540493,0.07840000092983246,-0.03599999945432653,-0.004999999877891834,-0.0039999999856897995
-0.006406883709132671,0.0071921818889677525,9.885687828063965,-0.00019999999494757503,0.00039999998989515007,0.06859999895095825,-0.024999999806340833,-0.021000000237532696,-0.01400000015835513
-0.0017717091832309961,-0.002384624909609556,9.894316673278809,-0.00019999999494757503,0.0004999999655410647,0.07840000092983246,0.024000000747902123,0.017999999727163266,0.007999999971379599
0.010342951864004135,-0.010716446675360203,9.8876314163208,-0.00019999999494757503,0.00039999998989515007,0.06859999895095825,0.029999998433587676,-0.06899999839828364,-0.007999999971379599
-0.000957680691499263,-0.001944091753102839,9.88050651550293,-0.00039999998989515007,0.00029999998514540493,0.058799996972084045,-0.008999999863581633,-0.006000000186975531,-0.007999999971379599
-0.005717353895306587,-0.015619771555066109,9.88846492767334,-0.00039999998989515007,0.00029999998514540493,0.06859999895095825,-0.015999999942759198,-0.007999999971379599,-0.021000000237532696
-0.0009097966831177473,0.00033518823329359293,9.892621040344238,-0.00039999998989515007,0.00039999998989515007,0.058799996972084045,-0.0009999999964224499,-0.010999999647985701,0.015999999942759198
-0.008418013341724873,-0.0023558945395052433,9.868066787719727,-0.00039999998989515007,0.00039999998989515007,0.06859999895095825,0.0269999995907449,0.0019999999928448997,0.03100000082707969
0.01886630989611149,0.004673481918871403,9.886453628540039,-0.00039999998989515007,0.00039999998989515007,0.04899999871850014,0.02600000053230619,0.019000000453128628,0.04900000055424296
-0.01148259174078703,0.005975927226245403,9.893654823303223,-0.00039999998989515007,0.00019999999494757503,0.07840000092983246,-0.012000000373951061,-0.007000000079177565,-0.0030000000934877653
-0.008676586672663689,-0.005573701579123735,9.888397216796875,-0.00039999998989515007,0.00019999999494757503,0.06859999895095825,-0.015999999942759198,0.035000000395887826,-0.0039999999856897995
0.005995080806314945,-0.0007278373232111335,9.875852584838867,-0.00029999998514540493,0.00029999998514540493,0.058799996972084045,0,0.009999999755783667,-0.03699999851276524
0.008820239454507828,-0.0007661445415578783,9.882316589355469,-0.00029999998514540493,0.00029999998514540493,0.058799996972084045,-0.01700000066872456,-0.007000000079177565,-0.0009999999964224499
-0.005832275375723839,0.0008331821882165968,9.873332977294922,-0.00029999998514540493,0.00029999998514540493,0.04899999871850014,0.008999999863581633,0,-0.007999999971379599
-0.0012449849164113402,-0.001139639993198216,9.868449211120605,-0.00029999998514540493,0.00029999998514540493,0.04899999871850014,0.008999999863581633,-0.01700000066872456,-0.006000000186975531
-0.00869574025273323,0.02331952564418316,9.894440650939941,-0.00029999998514540493,0.009999999776482582,0.07840000092983246,-0.004999999877891834,-0.031999999885518396,-0.014999999216793838
-0.006311115808784962,0.019057845696806908,9.878782272338867,-0.00039999998989515007,0.00019999999494757503,0.058799996972084045,0.008999999863581633,0.008999999863581633,0.021000000237532696
-0.0161177646368742,-0.01458547729998827,9.892104148864746,-0.00039999998989515007,0.00019999999494757503,0.06859999895095825,0.004999999877891834,-0.024999999806340833,0.0039999999856897995
0.009346963837742805,0.0028155811596661806,9.903136253356934,-0.00039999998989515007,0.00009999999747378752,0.08819999545812607,-0.08100000043976135,-0.007999999971379599,0.009999999755783667
-0.0046543278731405735,-0.012631808407604694,9.885964393615723,-0.00039999998989515007,0.00039999998989515007,0.06859999895095825,0.0039999999856897995,0.0269999995907449,-0.0009999999964224499
0.013876792974770069,0.003696647472679615,9.881579399108887,-0.00039999998989515007,0.00029999998514540493,0.058799996972084045,0.004999999877891834,0.0019999999928448997,-0.03999999902313467
-0.016912641003727913,-0.014326903037726879,9.886798858642578,-0.00039999998989515007,0.00029999998514540493,0.06859999895095825,-0.021999999295971403,-0.0030000000934877653,-0.006000000186975531
0.002834734972566366,-0.011616666801273823,9.88841724395752,-0.00039999998989515007,0.00039999998989515007,0.06859999895095825,-0.01400000015835513,-0.048000001495804245,-0.0009999999964224499
-0.0023558945395052433,0.004635174293071032,9.884346961975098,-0.0004999999655410647,0.00039999998989515007,0.06859999895095825,0.008999999863581633,-0.06700000028140622,-0.0039999999856897995
0.00924161821603775,0.0063973069190979,9.893856048583984,-0.000699999975040555,0.00039999998989515007,0.07840000092983246,-0.0039999999856897995,0.02899999937514897,-0.0039999999856897995
0.0059184664860367775,-0.002461239229887724,9.877930641174316,-0.0005999999702908099,0.00039999998989515007,0.058799996972084045,0.007000000079177565,0.02800000031671026,0.008999999863581633
0.016098611056804657,0.0017717091832309961,9.87482738494873,-0.0004999999655410647,0.00039999998989515007,0.058799996972084045,0.0009999999964224499,-0.0039999999856897995,-0.024999999806340833
0.011425131000578403,0.011310209520161152,9.882393836975098,-0.0004999999655410647,0.00039999998989515007,0.058799996972084045,0.014999999216793838,-0.007000000079177565,-0.0019999999928448997
0.0026048915460705757,0.001618480309844017,9.877241134643555,-0.0004999999655410647,0.00029999998514540493,0.058799996972084045,-0.021999999295971403,-0.049999999612681666,0.021000000237532696
-0.012737153097987175,-0.007067683152854443,9.884442329406738,-0.0005999999702908099,0.00039999998989515007,0.06859999895095825,0.0429999995335041,-0.019999999511567335,0.006000000186975531
0.005870582535862923,-0.003284844569861889,9.872836112976074,-0.000699999975040555,0.00019999999494757503,0.04899999871850014,0.009999999755783667,-0.024999999806340833,-0.007000000079177565
