Accelerometer_Gx,Accelerometer_Gy,Accelerometer_Gz,Accelerometer_X,Accelerometer_Y,Accelerometer_Z,Gyroscope_Z,Gyroscope_X,Gyroscope_Y
0.030272286385297775,0.006138733588159084,9.946721076965332,0.016099998727440834,0,0.1273999959230423,-0.015999999942759198,-0.010999999647985701,-0.015999999942759198
0.007335834205150604,-0.01308191753923893,9.944795608520508,-0.00279999990016222,0,0.1273999959230423,-0.07099999651516105,-0.0969999987149939,0.07399999702553048
0.009059659205377102,0.01317768543958664,9.949239730834961,-0.0024999999441206455,0.00009999999747378752,0.1273999959230423,-0.07099999651516105,0.024000000747902123,0.01400000015835513
-0.015045163221657276,0.0025953147560358047,9.947677612304688,-0.001999999862164259,0.00029999998514540493,0.1273999959230423,0.049999999612681666,0.08499999667351618,0.13499999628619785
-0.0037924153730273247,0.00031603462412022054,9.948769569396973,-0.00139999995008111,0.00009999999747378752,0.1273999959230423,-0.009999999755783667,0.08499999667351618,-0.046999999102312236
0.0020302829798310995,-0.007508216425776482,9.940534591674805,-0.0009999999310821295,0.00009999999747378752,0.11759999394416809,0.04500000098543482,-0.017999999727163266,-0.0030000000934877653
-0.006722918711602688,-0.002834734972566366,9.938791275024414,-0.0007999999797903001,0,0.1371999979019165,-0.03400000133744912,-0.007000000079177565,-0.03100000082707969
0.0010151414899155498,-0.001934514963068068,9.942286491394043,-0.0005999999702908099,0,0.11759999394416809,-0.03400000133744912,-0.007000000079177565,-0.03100000082707969
0.004098873119801283,0.0019632454495877028,9.94584846496582,-0.0004999999655410647,0,0.1273999959230423,-0.01700000066872456,0.04200000047506539,0.03699999851276524
-0.0050948611460626125,-0.000488417164888233,9.950867652893066,-0.0004999999655410647,0,0.1273999959230423,-0.03599999945432653,-0.0019999999928448997,-0.015999999942759198
-0.0012258312199264765,-0.0014939818065613508,9.942717552185059,-0.00039999998989515007,0.00009999999747378752,0.1273999959230423,0.009999999755783667,0.023000000021936765,0.041000001416626686
0.0012928689830005169,0.015217546373605728,9.948482513427734,-0.00029999998514540493,0.00009999999747378752,0.1273999959230423,0.0039999999856897995,-0.007000000079177565,0.046999999102312236
0.00242293206974864,-0.002250549616292119,9.929779052734375,-0.00029999998514540493,0.00009999999747378752,0.10779999941587448,-0.019000000453128628,0.01700000066872456,-0.004999999877891834
0.013723564334213734,0.002930502872914076,9.931368827819824,-0.00029999998514540493,0.00009999999747378752,0.11759999394416809,-0.043999998591942806,0.0269999995907449,0.014999999216793838
-0.010113107971847057,-0.0010726023465394974,9.923419952392578,-0.00019999999494757503,0.00019999999494757503,0.10779999941587448,-0.024000000747902123,-0.006000000186975531,-0.0009999999964224499
-0.0027868507895618677,-0.0017908628797158599,9.9215726852417,-0.00019999999494757503,0.00029999998514540493,0.10779999941587448,0.008999999863581633,-0.0039999999856897995,-0.004999999877891834
0.004012682009488344,-0.000957680691499263,9.922337532043457,-0.00019999999494757503,0.00029999998514540493,0.10779999941587448,0.02800000031671026,0.01700000066872456,0.019000000453128628
0.0034284968860447407,0.00038307227077893913,9.932795524597168,-0.00019999999494757503,0.00019999999494757503,0.11759999394416809,0.008999999863581633,0.012000000373951061,-0.007999999971379599
0.009854533709585667,0.0046447510831058025,9.9153470993042,-0.00019999999494757503,0.00019999999494757503,0.09799999743700027,-0.015999999942759198,-0.05200000106461238,-0.03100000082707969
0.0015610195696353912,-0.015217546373605728,9.926398277282715,-0.00029999998514540493,0.00019999999494757503,0.10779999941587448,-0.02800000031671026,-0.019000000453128628,-0.031999999885518396
-0.0013024457730352879,-0.0057460842654109,9.933945655822754,-0.00029999998514540493,0.00029999998514540493,0.11759999394416809,0.03400000133744912,-0.007000000079177565,0.0429999995335041
-0.002403778489679098,-0.0008427590364590287,9.92371654510498,-0.00039999998989515007,0.00019999999494757503,0.10779999941587448,0.007000000079177565,-0.007000000079177565,-0.004999999877891834
-0.00015322890249080956,0.009481038898229599,9.914332389831543,-0.00039999998989515007,0.00019999999494757503,0.09799999743700027,0.0030000000934877653,-0.007000000079177565,-0.0039999999856897995
-0.003687070682644844,0.009318233467638493,9.922768592834473,-0.00039999998989515007,0.00019999999494757503,0.10779999941587448,0.0009999999964224499,-0.02800000031671026,-0.004999999877891834
-0.005707777105271816,0.002212242456153035,9.92090129852295,-0.0004999999655410647,0.00019999999494757503,0.09799999743700027,0.006000000186975531,0.031999999885518396,0.017999999727163266
0.007412448525428772,0.014633361250162125,9.92003059387207,-0.00039999998989515007,0.00019999999494757503,0.09799999743700027,-0.01700000066872456,0.021000000237532696,0.012000000373951061
-0.003064578166231513,-0.0025378537829965353,9.918746948242188,-0.00029999998514540493,0.00019999999494757503,0.09799999743700027,-0.02600000053230619,0.01700000066872456,0.006000000186975531
-0.0017046716529875994,-0.007508216425776482,9.914158821105957,-0.00029999998514540493,0.00029999998514540493,0.09799999743700027,0.0039999999856897995,-0.007000000079177565,0.03899999996469596
0.0026623522862792015,-0.014202403835952282,9.924051284790039,-0.00029999998514540493,0.00029999998514540493,0.10779999941587448,0.015999999942759198,-0.014999999216793838,-0.004999999877891834
-0.005803545005619526,0.010678139515221119,9.903949737548828,-0.00029999998514540493,0.00019999999494757503,0.08819999545812607,-0.0009999999964224499,0.0030000000934877653,-0.0269999995907449
-0.009375694207847118,0.004855440929532051,9.917319297790527,-0.00029999998514540493,0.00019999999494757503,0.09799999743700027,-0.03400000133744912,0.009999999755783667,0.05600000063342052
0.00029688101494684815,0.002461239229887724,9.907628059387207,-0.00039999998989515007,0.00009999999747378752,0.09799999743700027,0.0039999999856897995,0.009999999755783667,0.015999999942759198
0.0013120225630700588,-0.007067683152854443,9.905904769897461,-0.00029999998514540493,0.00019999999494757503,0.08819999545812607,0.006000000186975531,-0.0030000000934877653,-0.029999998433587676
0.00164721067994833,0.010304644703865051,9.902724266052246,-0.00039999998989515007,0.00019999999494757503,0.08819999545812607,0.008999999863581633,0.013000000266153095,-0.004999999877891834
0.0037636850029230118,-0.015380351804196835,9.914504051208496,-0.00029999998514540493,0.00019999999494757503,0.09799999743700027,-0.004999999877891834,-0.004999999877891834,0.006000000186975531
0.014192827045917511,0.007479486055672169,9.912186622619629,-0.00029999998514540493,0.00019999999494757503,0.09799999743700027,0.008999999863581633,-0.010999999647985701,-0.008999999863581633
0.00938527099788189,-0.01068771630525589,9.9131441116333,-0.00039999998989515007,0.00019999999494757503,0.09799999743700027,0.007999999971379599,0.017999999727163266,0
0.004185064695775509,0.0043670241720974445,9.92330551147461,-0.00029999998514540493,0.00009999999747378752,0.10779999941587448,-0.03100000082707969,0.008999999863581633,0.0039999999856897995
-0.010812214575707912,-0.007010222412645817,9.910520553588867,-0.00029999998514540493,0.00019999999494757503,0.08819999545812607,0.006000000186975531,-0.0019999999928448997,-0.029999998433587676
-0.002911349292844534,-0.01543781254440546,9.91344165802002,-0.00029999998514540493,0.00019999999494757503,0.09799999743700027,0.007000000079177565,-0.007000000079177565,0
0.0006607996765524149,0.005410895682871342,9.90469741821289,-0.00029999998514540493,0.00019999999494757503,0.08819999545812607,0.05900000114378995,0.0019999999928448997,-0.006000000186975531
-0.00014365209790412337,-0.003227383829653263,9.915854454040527,-0.00029999998514540493,0,0.09799999743700027,-0.007999999971379599,0.015999999942759198,0.043999998591942806
-0.007211335469037294,-0.0031603462994098663,9.90109634399414,-0.00029999998514540493,0,0.07840000092983246,0.008999999863581633,0.009999999755783667,0.019000000453128628
0.005602431949228048,-0.022285228595137596,9.91086483001709,-0.00019999999494757503,-0.00969999935477972,0.08819999545812607,-0.012000000373951061,0.03999999902313467,0.010999999647985701
-0.00649307481944561,0.006177040748298168,9.904266357421875,-0.00009999999747378752,0.00009999999747378752,0.08819999545812607,-0.01700000066872456,-0.007000000079177565,-0.004999999877891834
0.011195287108421326,0.01703714020550251,9.902359962463379,-0.00009999999747378752,0.00009999999747378752,0.07840000092983246,0.0329999989439571,0.009999999755783667,0.010999999647985701
-0.0030741551890969276,-0.0026815058663487434,9.898347854614258,-0.00009999999747378752,0,0.07840000092983246,0.024000000747902123,-0.02800000031671026,-0.0009999999964224499
0.013321338221430779,0.0031890766695141792,9.899238586425781,-0.00019999999494757503,0,0.07840000092983246,-0.035000000395887826,0.0019999999928448997,-0.008999999863581633
0.005075707565993071,0.004328716546297073,9.91321086883545,-0.00019999999494757503,0.00009999999747378752,0.09799999743700027,0.0019999999928448997,0.024000000747902123,-0.0269999995907449
-0.012555194087326527,0.0026336219161748886,9.902581214904785,-0.00009999999747378752,0.00009999999747378752,0.08819999545812607,0.013000000266153095,-0.024999999806340833,0.013000000266153095
0.007144297938793898,-0.006904877722263336,9.90677547454834,-0.00019999999494757503,0,0.08819999545812607,0.008999999863581633,0.03999999902313467,0.0039999999856897995
-0.004462792072445154,0.007220912259072065,9.910712242126465,-0.00009999999747378752,0,0.08819999545812607,0.008999999863581633,0.0009999999964224499,-0.009999999755783667
-0.0025857379660010338,0.010534487664699554,9.893856048583984,-0.00009999999747378752,0,0.07840000092983246,-0.009999999755783667,-0.043999998591942806,-0.0039999999856897995
-0.001283292076550424,0.0075465235859155655,9.907743453979492,-0.00019999999494757503,0,0.08819999545812607,0.008999999863581633,-0.007000000079177565,0.0019999999928448997
-0.011836932972073555,0.00009576806769473478,9.89887523651123,-0.00019999999494757503,0,0.08819999545812607,-0.05099999867112037,0.06099999926066736,0.0039999999856897995
-0.005937620066106319,0.0025282769929617643,9.897418975830078,0,0.00009999999747378752,0.07840000092983246,0.008999999863581633,-0.004999999877891834,0.029999998433587676
-0.018205508589744568,0.0029975404031574726,9.900981903076172,-0.00009999999747378752,0.00009999999747378752,0.07840000092983246,-0.0009999999964224499,-0.012000000373951061,0.010999999647985701
-0.0202645231038332,0.0063973069190979,9.901575088500977,-0.009800000116229057,0.00009999999747378752,0.07840000092983246,0.007999999971379599,-0.007000000079177565,-0.004999999877891834
0.012363658286631107,-0.00824563018977642,9.91300106048584,-0.00009999999747378752,0.00009999999747378752,0.09799999743700027,0.007999999971379599,0.021000000237532696,0.012000000373951061
-0.014652514830231667,0.002394201699644327,9.893147468566895,0,0,0.07840000092983246,0.0009999999964224499,0.010999999647985701,-0.004999999877891834
0.01238281186670065,-0.004788403399288654,9.899248123168945,0,0,0.07840000092983246,0.009999999755783667,0.0030000000934877653,-0.004999999877891834
-0.0018866308964788914,0.0009002198348753154,9.886913299560547,0,0,0.06859999895095825,-0.015999999942759198,-0.007000000079177565,-0.004999999877891834
0.004003105219453573,-0.004491522442549467,9.906909942626953,0,0,0.08819999545812607,-0.004999999877891834,0.015999999942759198,-0.0009999999964224499
-0.002882618922740221,0.008638279512524605,9.887420654296875,0,0.00009999999747378752,0.06859999895095825,0.008999999863581633,-0.007999999971379599,-0.006000000186975531
-0.01334049180150032,-0.0007565676933154464,9.899660110473633,0,0,0.07840000092983246,0.019000000453128628,-0.014999999216793838,0.012000000373951061
0.004912901669740677,0.005612008739262819,9.90188217163086,0,0,0.07840000092983246,-0.019000000453128628,-0.007000000079177565,-0.004999999877891834
-0.00014365209790412337,-0.000028730421036016196,9.90420913696289,0,0,0.08819999545812607,0.021000000237532696,0.0329999989439571,0.012000000373951061
-0.00729752704501152,-0.009165003895759583,9.91032886505127,0,0,0.08819999545812607,0.017999999727163266,-0.007000000079177565,-0.0009999999964224499
-0.0030071171931922436,-0.005736507475376129,9.900790214538574,0,0,0.07840000092983246,0.008999999863581633,0.021000000237532696,-0.041000001416626686
-0.0015418659895658493,-0.010429142974317074,9.896020889282227,0,0,0.07840000092983246,-0.019999999511567335,0.01700000066872456,-0.03100000082707969
-0.008322244510054588,0.0023750481195747852,9.895522117614746,0.00009999999747378752,0,0.07840000092983246,-0.06500000216452881,0.013000000266153095,-0.006000000186975531
-0.01308191753923893,-0.0005267243832349777,9.897504806518555,0.00009999999747378752,0.00009999999747378752,0.07840000092983246,-0.0009999999964224499,0.03400000133744912,-0.015999999942759198
0.0034572272561490536,0.0010438719764351845,9.897994041442871,0.00019999999494757503,0.00009999999747378752,0.07840000092983246,-0.03400000133744912,0.010999999647985701,0.019999999511567335
-0.01159751322120428,-0.0012641384964808822,9.889710426330566,0.00019999999494757503,0.00019999999494757503,0.06859999895095825,0.0329999989439571,0.01700000066872456,-0.021000000237532696
-0.0004118026699870825,-0.007776367012411356,9.880008697509766,0.00019999999494757503,0,0.058799996972084045,-0.004999999877891834,-0.007000000079177565,-0.01400000015835513
-0.002758120186626911,0.0031794998794794083,9.889785766601562,0.00019999999494757503,0.00009999999747378752,0.06859999895095825,0.009999999755783667,0.029999998433587676,-0.006000000186975531
-0.002758120186626911,0.0031794998794794083,9.889785766601562,0.00019999999494757503,0.00009999999747378752,0.06859999895095825,0.009999999755783667,0.029999998433587676,-0.006000000186975531
0.0076422919519245625,-0.0047405194491147995,9.890763282775879,0.00029999998514540493,0,0.06859999895095825,0.03100000082707969,-0.007000000079177565,-0.004999999877891834
-0.0027772739995270967,-0.0018674773164093494,9.891386032104492,0.00029999998514540493,0,0.06859999895095825,0.008999999863581633,-0.007999999971379599,-0.021999999295971403
-0.0031794998794794083,-0.005975927226245403,9.894536018371582,0.00029999998514540493,0,0.07840000092983246,0.0329999989439571,0.010999999647985701,-0.004999999877891834
-0.0071634515188634396,0.0028060043696314096,9.912138938903809,0.00029999998514540493,-0.00009999999747378752,0.09799999743700027,0.03400000133744912,0.019000000453128628,-0.004999999877891834
0.0054587796330451965,-0.006866570562124252,9.884892463684082,0.00029999998514540493,-0.00019999999494757503,0.06859999895095825,0.008999999863581633,-0.0039999999856897995,-0.02600000053230619
0.004003105219453573,-0.0012737152865156531,9.90699577331543,0.00029999998514540493,-0.00019999999494757503,0.08819999545812607,-0.03899999996469596,0.009999999755783667,0.019000000453128628
-0.006464344449341297,-0.0027102362364530563,9.88939380645752,0.00029999998514540493,-0.00009999999747378752,0.06859999895095825,-0.024000000747902123,0.035000000395887826,-0.0039999999856897995
0.011635820381343365,-0.008552088402211666,9.905980110168457,0.00039999998989515007,0,0.08819999545812607,0.006000000186975531,0.012000000373951061,0.057000003026912535
-0.004501099232584238,-0.0070964135229587555,9.897160530090332,0.0004999999655410647,0,0.07840000092983246,0.017999999727163266,-0.013000000266153095,0
-0.009097966365516186,-0.006560112349689007,9.902581214904785,0.00039999998989515007,-0.00009999999747378752,0.08819999545812607,-0.015999999942759198,0.0019999999928448997,-0.013000000266153095
0.004175487905740738,-0.0209732074290514,9.890877723693848,0.00039999998989515007,-0.00969999935477972,0.06859999895095825,0.01400000015835513,0.007000000079177565,0.007999999971379599
-0.0010055646998807788,-0.009979032911360264,9.894862174987793,0.00039999998989515007,0,0.07840000092983246,-0.02600000053230619,-0.009999999755783667,-0.009999999755783667
-0.016855180263519287,0.004721365869045258,9.882057189941406,0.00039999998989515007,0,0.058799996972084045,0.0269999995907449,-0.021000000237532696,-0.006000000186975531
-0.01656787469983101,0.00018195933080278337,9.889939308166504,0.00029999998514540493,0,0.06859999895095825,-0.019000000453128628,0.02800000031671026,-0.004999999877891834
-0.01228704396635294,0.001120486413128674,9.906661033630371,0.00039999998989515007,0,0.058799996972084045,0.007000000079177565,0.004999999877891834,-0.004999999877891834
-0.004510676022619009,0.005008670035749674,9.896729469299316,0.00039999998989515007,0,0.08819999545812607,0,-0.024999999806340833,-0.0030000000934877653
-0.009117119945585728,-0.0047309426590800285,9.884098052978516,0.00039999998989515007,0,0.07840000092983246,0.008999999863581633,-0.007000000079177565,-0.019999999511567335
-0.009117119945585728,-0.0047309426590800285,9.884098052978516,0.00029999998514540493,0,0.06859999895095825,0.008999999863581633,-0.007000000079177565,-0.019999999511567335
-0.008427590131759644,0.002844311762601137,9.893684387207031,0.00029999998514540493,0,0.07840000092983246,-0.015999999942759198,0.02800000031671026,-0.004999999877891834
-0.0034859576262533665,-0.007048529572784901,9.895992279052734,0.00039999998989515007,0,0.06859999895095825,0.008999999863581633,-0.007000000079177565,-0.03100000082707969
0.000028730421036016196,0.007354987785220146,9.890351295471191,0.00039999998989515007,0,0.06859999895095825,0.008999999863581633,-0.012000000373951061,0.019000000453128628
-0.016127342358231544,0.012018891982734203,9.886147499084473,0.00029999998514540493,0,0.06859999895095825,-0.0329999989439571,-0.02899999937514897,0.019999999511567335
0.011176133528351784,-0.005209783092141151,9.881254196166992,0.00029999998514540493,0.00009999999747378752,0.058799996972084045,-0.05999999686717535,0.0019999999928448997,-0.031999999885518396
0.003696647472679615,0.005209783092141151,9.882307052612305,0.00029999998514540493,0.00029999998514540493,0.058799996972084045,0.008999999863581633,-0.019999999511567335,-0.0019999999928448997
-0.001953668659552932,0.0009193734731525183,9.895637512207031,0.00019999999494757503,0.00019999999494757503,0.07840000092983246,0.008999999863581633,0.02800000031671026,-0.004999999877891834
-0.005353434942662716,-0.0010342950699850917,9.87674331665039,0.00029999998514540493,0.00019999999494757503,0.058799996972084045,0.007999999971379599,0.0429999995335041,-0.008999999863581633
0.009557653218507767,-0.004098873119801283,9.878447532653809,0.00039999998989515007,0.00019999999494757503,0.058799996972084045,0.05200000106461238,0.0019999999928448997,-0.006000000186975531
-0.006052541546523571,0.001101332833059132,9.877260208129883,0.00039999998989515007,0,0.058799996972084045,0.008999999863581633,0.008999999863581633,-0.015999999942759198
-0.015140931122004986,0.014480131678283215,9.884978294372559,0.00039999998989515007,0,0.06859999895095825,0.02600000053230619,0.010999999647985701,0.012000000373951061
-0.001637633889913559,0.0008714894065633416,9.86894702911377,0.00039999998989515007,0,0.04899999871850014,-0.019000000453128628,-0.007000000079177565,-0.019999999511567335
0.003284844569861889,-0.005937620066106319,9.886540412902832,0.00039999998989515007,0,0.06859999895095825,0.03999999902313467,0.006000000186975531,0.03699999851276524
-0.005008670035749674,-0.010295066982507706,9.887506484985352,0.00039999998989515007,0,0.06859999895095825,0.008999999863581633,0.0039999999856897995,0
-0.0011683704797178507,0.0009481038432568312,9.892170906066895,0.00039999998989515007,0,0.06859999895095825,0.017999999727163266,-0.0329999989439571,-0.0030000000934877653
-0.0005554548115469515,-0.0063494229689240456,9.897639274597168,0.00029999998514540493,-0.00009999999747378752,0.07840000092983246,0.023000000021936765,-0.006000000186975531,-0.008999999863581633
0.010678139515221119,-0.007785943802446127,9.897706031799316,0.00029999998514540493,-0.00009999999747378752,0.07840000092983246,-0.0009999999964224499,-0.024000000747902123,0
-0.014135366305708885,0.00016280572162941098,9.888263702392578,0.00019999999494757503,-0.00009999999747378752,0.06859999895095825,0.007999999971379599,0.01700000066872456,0.0019999999928448997
0.003725377842783928,0.004175487905740738,9.893770217895508,0.00029999998514540493,-0.00019999999494757503,0.07840000092983246,-0.01700000066872456,0.02800000031671026,-0.021999999295971403
-0.0030550011433660984,0.008255206979811192,9.8851318359375,0.00039999998989515007,-0.00009999999747378752,0.06859999895095825,-0.021999999295971403,0.02899999937514897,-0.04600000004387353
-0.002279279986396432,0.0071730283088982105,9.894699096679688,0.00039999998989515007,0,0.07840000092983246,0.029999998433587676,0,0.007999999971379599
0.014154519885778427,0.0031220391392707825,9.895675659179688,0.00039999998989515007,-0.00009999999747378752,0.07840000092983246,0.010999999647985701,0.0429999995335041,-0.041000001416626686
0.014154519885778427,0.0031220391392707825,9.895675659179688,0.0004999999655410647,-0.00019999999494757503,0.07840000092983246,-0.0009999999964224499,0.007000000079177565,-0.004999999877891834
-0.005228936672210693,-0.00823605339974165,9.900359153747559,0.0005999999702908099,-0.00019999999494757503,0.06859999895095825,0.006000000186975531,0.02600000053230619,-0.023000000021936765
-0.005228936672210693,-0.00823605339974165,9.900359153747559,0.0005999999702908099,-0.00019999999494757503,0.07840000092983246,-0.007999999971379599,0.031999999885518396,0.006000000186975531
-0.012957419268786907,0.015504850074648857,9.87975025177002,0.000699999975040555,-0.00009999999747378752,0.058799996972084045,0.021999999295971403,0.017999999727163266,-0.023000000021936765
-0.0015322890831157565,-0.016060303896665573,9.892189979553223,0.0007999999797903001,-0.00029999998514540493,0.06859999895095825,0.017999999727163266,-0.0269999995907449,0
0.009749189019203186,-0.0026719290763139725,9.882346153259277,0.0007999999797903001,-0.00029999998514540493,0.06859999895095825,0.017999999727163266,-0.0269999995907449,0
-0.017669208347797394,0.010457873344421387,9.899382591247559,0.0007999999797903001,-0.0004999999655410647,0.07840000092983246,0.007000000079177565,-0.006000000186975531,-0.004999999877891834
0.002442085649818182,0.0195462629199028,9.89286994934082,0.0007999999797903001,0.009099999442696571,0.07840000092983246,0.007999999971379599,0.021000000237532696,-0.006000000186975531
-0.004893748089671135,-0.004826710559427738,9.88966178894043,0.0007999999797903001,-0.0005999999702908099,0.06859999895095825,0,-0.009999999755783667,-0.004999999877891834
-0.001934514963068068,-0.006483498029410839,9.890667915344238,0.0007999999797903001,-0.0005999999702908099,0.06859999895095825,0.019000000453128628,0,0.019999999511567335
-0.00009576806769473478,-0.0026527754962444305,9.90317440032959,0.0007999999797903001,-0.0005999999702908099,0.08819999545812607,0.019000000453128628,-0.0039999999856897995,-0.029999998433587676
-0.005449202843010426,-0.010352528654038906,9.8886079788208,0.000699999975040555,-0.000699999975040555,0.06859999895095825,-0.0019999999928448997,-0.007000000079177565,-0.0030000000934877653
0.012066775932908058,-0.005573701579123735,9.885448455810547,0.000699999975040555,-0.0005999999702908099,0.06859999895095825,0.035000000395887826,-0.031999999885518396,-0.0039999999856897995
-0.001426944276317954,-0.010333375073969364,9.887918472290039,0.0005999999702908099,-0.000699999975040555,0.06859999895095825,0.024000000747902123,0.019000000453128628,0.07199999890865307
0.009318233467638493,0.009193734265863895,9.869397163391113,0.000699999975040555,-0.0007999999797903001,0.04899999871850014,0.0429999995335041,-0.006000000186975531,0.0539999991814898
0.013378799892961979,-0.002202665666118264,9.878371238708496,0.0005999999702908099,-0.0008999999845400453,0.058799996972084045,-0.006000000186975531,-0.019999999511567335,0.021000000237532696
0.006924031302332878,-0.014010868035256863,9.874396324157715,0.0005999999702908099,-0.0008999999845400453,0.058799996972084045,0.021999999295971403,-0.0039999999856897995,-0.0039999999856897995
0.01238281186670065,-0.009011775255203247,9.877202033996582,0.0005999999702908099,-0.0008999999845400453,0.058799996972084045,0.007000000079177565,-0.02899999937514897,-0.008999999863581633
0.0026719290763139725,0.0017621323931962252,9.887660026550293,0.0004999999655410647,-0.0008999999845400453,0.06859999895095825,0.008999999863581633,-0.05499999823992851,-0.0039999999856897995
-0.002920926082879305,0.011463438160717487,9.888359069824219,0.00029999998514540493,-0.0008999999845400453,0.06859999895095825,-0.0429999995335041,-0.0039999999856897995,0.007000000079177565
-0.0025857379660010338,0.009557653218507767,9.879117965698242,0.00029999998514540493,-0.0007999999797903001,0.058799996972084045,0.009999999755783667,0.04500000098543482,0.006000000186975531
-0.007000645622611046,-0.00868616346269846,9.884902000427246,0.00039999998989515007,-0.0007999999797903001,0.06859999895095825,-0.007999999971379599,-0.015999999942759198,0.023000000021936765
-0.005430049262940884,-0.005315127782523632,9.886759757995605,0.00039999998989515007,-0.0007999999797903001,0.06859999895095825,-0.010999999647985701,0.004999999877891834,0.041000001416626686
0.01713290810585022,0.012267890386283398,9.89603042602539,0.00039999998989515007,-0.0007999999797903001,0.07840000092983246,0.02899999937514897,-0.006000000186975531,-0.013000000266153095
-0.0060429647564888,-0.0017908628797158599,9.888819694519043,0.00039999998989515007,-0.0007999999797903001,0.06859999895095825,0.007999999971379599,0.014999999216793838,-0.03999999902313467
-0.010658985935151577,-0.006263231858611107,9.892352104187012,0.00039999998989515007,-0.0008999999845400453,0.06859999895095825,0.008999999863581633,0.038000000906257256,0.01700000066872456
-0.005439626052975655,0.0060429647564888,9.898309707641602,0.0004999999655410647,-0.0008999999845400453,0.07840000092983246,0.03400000133744912,-0.03100000082707969,0.008999999863581633
-0.0013024457730352879,0.0018962076865136623,9.876311302185059,0.00039999998989515007,-0.0009999999310821295,0.06859999895095825,-0.02600000053230619,-0.017999999727163266,-0.014999999216793838
-0.0013024457730352879,0.0018962076865136623,9.876311302185059,0.00039999998989515007,-0.0008999999845400453,0.058799996972084045,-0.02600000053230619,-0.017999999727163266,-0.014999999216793838
0.010256759822368622,0.016692375764250755,9.891088485717773,0.00029999998514540493,-0.0007999999797903001,0.06859999895095825,0.008999999863581633,0.010999999647985701,-0.0039999999856897995
0.01229662075638771,-0.005372588522732258,9.877604484558105,0.00039999998989515007,-0.0007999999797903001,0.058799996972084045,0.008999999863581633,-0.006000000186975531,-0.009999999755783667
-0.008312667720019817,0.0006512228865176439,9.895695686340332,0.00029999998514540493,-0.0007999999797903001,0.07840000092983246,0.008999999863581633,-0.03100000082707969,-0.004999999877891834
-0.003208230249583721,0.01339795347303152,9.883359909057617,0.00029999998514540493,-0.0007999999797903001,0.058799996972084045,-0.02600000053230619,-0.006000000186975531,0.004999999877891834
0.004568136762827635,-0.004347870126366615,9.8873929977417,0.00019999999494757503,-0.000699999975040555,0.06859999895095825,-0.01700000066872456,0,0.04500000098543482
0.009873687289655209,0.005755661055445671,9.878782272338867,0.00019999999494757503,-0.000699999975040555,0.058799996972084045,-0.03400000133744912,-0.006000000186975531,-0.0039999999856897995
0.0023558945395052433,0.002834734972566366,9.887104034423828,0.00019999999494757503,-0.0005999999702908099,0.06859999895095825,-0.0039999999856897995,0.010999999647985701,-0.03999999902313467
-0.002461239229887724,0.013656526803970337,9.88072681427002,0.00019999999494757503,-0.0005999999702908099,0.058799996972084045,0.021999999295971403,-0.057000003026912535,0.03899999996469596
0.004127603489905596,0.003945644479244947,9.890907287597656,0.00009999999747378752,-0.0005999999702908099,0.06859999895095825,-0.015999999942759198,0.010999999647985701,-0.0039999999856897995
0.00036391866160556674,-0.006675034295767546,9.892295837402344,0.00009999999747378752,-0.0005999999702908099,0.06859999895095825,0,0.017999999727163266,-0.015999999942759198
-0.013560758903622627,-0.017257405444979668,9.897141456604004,0.00009999999747378752,-0.0005999999702908099,0.07840000092983246,0.007999999971379599,-0.013000000266153095,-0.03100000082707969
0.0034572272561490536,-0.00739329494535923,9.885113716125488,0.00009999999747378752,-0.0005999999702908099,0.06859999895095825,0.03599999945432653,0.017999999727163266,0.05600000063342052
0.003993528429418802,0.006387730129063129,9.886482238769531,0.00009999999747378752,-0.000699999975040555,0.06859999895095825,0,0.0039999999856897995,0.019000000453128628
0.0018387469463050365,0.0005363011732697487,9.867415428161621,0.00019999999494757503,-0.000699999975040555,0.04899999871850014,0.021999999295971403,0.02600000053230619,0.05600000063342052
0.00011492168414406478,0.008858546614646912,9.8903226852417,0.00019999999494757503,-0.000699999975040555,0.06859999895095825,0.009999999755783667,-0.007000000079177565,-0.0030000000934877653
-0.01298614963889122,-0.005008670035749674,9.872998237609863,0.00019999999494757503,-0.000699999975040555,0.04899999871850014,-0.009999999755783667,-0.006000000186975531,-0.05999999686717535
0.004721365869045258,-0.003256114199757576,9.87930965423584,0.00019999999494757503,-0.000699999975040555,0.058799996972084045,-0.008999999863581633,-0.006000000186975531,-0.01400000015835513
-0.007766790222376585,0.0013120225630700588,9.872462272644043,0.00019999999494757503,-0.000699999975040555,0.04899999871850014,0.007999999971379599,0.017999999727163266,-0.004999999877891834
0.00684741698205471,0.0036391867324709892,9.883724212646484,0.00019999999494757503,-0.000699999975040555,0.06859999895095825,0.05900000114378995,0.017999999727163266,-0.012000000373951061
0.0012737152865156531,0.00009576806769473478,9.88158893585205,0.00029999998514540493,-0.0007999999797903001,0.058799996972084045,-0.008999999863581633,-0.006000000186975531,-0.0039999999856897995
-0.0015227121766656637,-0.0027676972094923258,9.87205982208252,0.00019999999494757503,-0.0007999999797903001,0.058799996972084045,0.008999999863581633,0.03599999945432653,0.0269999995907449
-0.0015227121766656637,-0.0027676972094923258,9.87205982208252,0.00019999999494757503,-0.000699999975040555,0.04899999871850014,0.008999999863581633,0.03599999945432653,0.0269999995907449
-0.013646950013935566,0.0036296097096055746,9.896806716918945,0.00029999998514540493,-0.0007999999797903001,0.07840000092983246,0.013000000266153095,0.01700000066872456,-0.021000000237532696
-0.0029592332430183887,0.0012066776398569345,9.890887260437012,0.00029999998514540493,-0.0007999999797903001,0.06859999895095825,0.008999999863581633,0.0030000000934877653,0.04200000047506539
0.0012258312199264765,-0.0010151414899155498,9.902034759521484,0.00039999998989515007,-0.0007999999797903001,0.07840000092983246,-0.012000000373951061,-0.0030000000934877653,-0.004999999877891834
-0.003840299556031823,-0.00008619125583209097,9.887526512145996,0.00029999998514540493,-0.0007999999797903001,0.06859999895095825,0.023000000021936765,0.007999999971379599,-0.03100000082707969
0.007450755685567856,0.006263231858611107,9.884424209594727,0.00029999998514540493,-0.000699999975040555,0.06859999895095825,-0.008999999863581633,0.03100000082707969,0.0030000000934877653
-0.0023367409594357014,-0.0013982137897983193,9.886597633361816,0.00039999998989515007,-0.0007999999797903001,0.06859999895095825,0.008999999863581633,-0.007000000079177565,0.004999999877891834
-0.011070788837969303,0.000967257481534034,9.872184753417969,0.00039999998989515007,-0.0007999999797903001,0.04899999871850014,0.0039999999856897995,0.012000000373951061,0
-0.0018195933662354946,0.00629196222871542,9.88552474975586,0.00039999998989515007,-0.0007999999797903001,0.06859999895095825,0.004999999877891834,-0.02800000031671026,-0.006000000186975531
0.002901772502809763,-0.007422025315463543,9.889154434204102,0.00039999998989515007,-0.0007999999797903001,0.06859999895095825,0.014999999216793838,-0.004999999877891834,0
-0.00364876352250576,0.0013886369997635484,9.877882957458496,0.00029999998514540493,-0.0007999999797903001,0.058799996972084045,-0.004999999877891834,0.019000000453128628,0.041000001416626686
-0.008446743711829185,0.0038211459759622812,9.87331485748291,0.00039999998989515007,-0.0007999999797903001,0.04899999871850014,-0.014999999216793838,-0.007999999971379599,-0.010999999647985701
0.0037732617929577827,-0.009576806798577309,9.873534202575684,0.00039999998989515007,-0.000699999975040555,0.04899999871850014,0.008999999863581633,-0.019999999511567335,-0.004999999877891834
-0.02886449545621872,0.0057460842654109,9.863804817199707,-0.01889999955892563,-0.0007999999797903001,0.03920000046491623,0.017999999727163266,-0.0039999999856897995,-0.06700000028140622
-0.01698925532400608,-0.01114740315824747,9.874090194702148,0.0005999999702908099,-0.0007999999797903001,0.058799996972084045,0.004999999877891834,-0.0269999995907449,0.01400000015835513
-0.003342305775731802,0.000814028549939394,9.884902000427246,0.0004999999655410647,-0.0007999999797903001,0.06859999895095825,0.10299999973573276,0.0039999999856897995,-0.029999998433587676
0.0031699230894446373,0.0013024457730352879,9.890226364135742,0.0004999999655410647,-0.0010999999940395355,0.06859999895095825,0.008999999863581633,-0.006000000186975531,-0.004999999877891834
-0.01123359426856041,-0.0034572272561490536,9.88566780090332,0.0004999999655410647,-0.0010999999940395355,0.06859999895095825,0.03400000133744912,-0.007000000079177565,-0.004999999877891834
-0.0006991068948991597,0.010352528654038906,9.901077270507812,0.0004999999655410647,-0.0011999999405816197,0.07840000092983246,0.02600000053230619,-0.006000000186975531,-0.02600000053230619
-0.0009864111198112369,0.0024803930427879095,9.892295837402344,0.0004999999655410647,-0.0011999999405816197,0.06859999895095825,0.007999999971379599,-0.0039999999856897995,-0.03999999902313467
-0.006167463958263397,0.011520898900926113,9.889758110046387,0.00039999998989515007,-0.0011999999405816197,0.06859999895095825,0.01700000066872456,0.017999999727163266,-0.03400000133744912
-0.006924031302332878,0.0015322890831157565,9.890284538269043,0.00039999998989515007,-0.0013000000035390258,0.06859999895095825,0.0030000000934877653,0,-0.004999999877891834
-0.006924031302332878,0.0015322890831157565,9.890284538269043,0.00039999998989515007,-0.0013000000035390258,0.06859999895095825,0.0030000000934877653,0,-0.004999999877891834
-0.005707777105271816,0.00031603462412022054,9.882680892944336,0.00039999998989515007,-0.0013000000035390258,0.058799996972084045,0,0.010999999647985701,-0.004999999877891834
0.001139639993198216,0.0031794998794794083,9.879682540893555,0.0004999999655410647,-0.0011999999405816197,0.058799996972084045,-0.014999999216793838,-0.0039999999856897995,-0.004999999877891834
0.005075707565993071,-0.016462530940771103,9.880535125732422,0.00039999998989515007,-0.0011999999405816197,0.058799996972084045,0.007000000079177565,-0.007000000079177565,-0.004999999877891834
0.009749189019203186,-0.00407014274969697,9.878620147705078,0.00039999998989515007,-0.0011999999405816197,0.058799996972084045,0.009999999755783667,-0.006000000186975531,0.008999999863581633
-0.0021739350631833076,0.007891288958489895,9.884892463684082,0.00039999998989515007,-0.0011999999405816197,0.06859999895095825,-0.03699999851276524,0.0009999999964224499,0.024000000747902123
-0.017353173345327377,0.0029879636131227016,9.878092765808105,0.00039999998989515007,-0.0010999999940395355,0.058799996972084045,-0.03599999945432653,-0.006000000186975531,-0.0009999999964224499
-0.009758765809237957,0.004089296329766512,9.87756633758545,0.00039999998989515007,-0.0009999999310821295,0.058799996972084045,-0.021000000237532696,-0.0030000000934877653,-0.004999999877891834
0.008303090929985046,0.01177947223186493,9.90109634399414,0.00039999998989515007,-0.0008999999845400453,0.07840000092983246,0.009999999755783667,-0.004999999877891834,0.03599999945432653
0.003217807039618492,0.003964798059314489,9.885418891906738,0.00029999998514540493,-0.0008999999845400453,0.058799996972084045,-0.008999999863581633,0.05200000106461238,0.019999999511567335
-0.004817133769392967,0.005209783092141151,9.885046005249023,0.00029999998514540493,-0.0008999999845400453,0.06859999895095825,0.0039999999856897995,-0.006000000186975531,-0.01400000015835513
-0.0036296097096055746,0.004453215282410383,9.897073745727539,0.00039999998989515007,-0.0008999999845400453,0.07840000092983246,0.03100000082707969,-0.006000000186975531,-0.006000000186975531
0.001417367486283183,0.0012354080099612474,9.887229919433594,0.00039999998989515007,-0.0009999999310821295,0.06859999895095825,0.013000000266153095,0.02899999937514897,0.013000000266153095
-0.003830722765997052,-0.005219359882175922,9.873716354370117,0.00039999998989515007,-0.0009999999310821295,0.058799996972084045,0.007999999971379599,0.0429999995335041,0.014999999216793838
0.0013982137897983193,-0.004663905128836632,9.863996505737305,0.0004999999655410647,-0.0009999999310821295,0.03920000046491623,0.05499999823992851,0,-0.004999999877891834
0.00045968673657625914,-0.004434061702340841,9.896480560302734,0.0004999999655410647,-0.0010999999940395355,0.07840000092983246,-0.0009999999964224499,-0.006000000186975531,0.031999999885518396
-0.008418013341724873,-0.01841619797050953,9.876426696777344,0.0004999999655410647,-0.0010999999940395355,0.058799996972084045,-0.0039999999856897995,0.0030000000934877653,-0.007999999971379599
-0.002451662439852953,0.002432508859783411,9.883332252502441,0.0004999999655410647,-0.0010999999940395355,0.06859999895095825,-0.0329999989439571,-0.024000000747902123,-0.0030000000934877653
0.00584185216575861,0.007115567568689585,9.870393753051758,0.00039999998989515007,-0.0009999999310821295,0.04899999871850014,-0.008999999863581633,-0.006000000186975531,-0.0030000000934877653
0.013972560875117779,0.008092401549220085,9.87723159790039,0.00039999998989515007,-0.0009999999310821295,0.058799996972084045,-0.019999999511567335,-0.007999999971379599,-0.0030000000934877653
-0.00407014274969697,-0.005257667042315006,9.887382507324219,0.00039999998989515007,-0.0008999999845400453,0.06859999895095825,0.0269999995907449,-0.006000000186975531,0
-0.011463438160717487,-0.013962984085083008,9.890868186950684,0.00039999998989515007,-0.0008999999845400453,0.06859999895095825,0.007000000079177565,-0.006000000186975531,-0.004999999877891834
-0.005784391425549984,-0.008446743711829185,9.89162540435791,0.00029999998514540493,-0.0009999999310821295,0.06859999895095825,0.008999999863581633,0.013000000266153095,-0.004999999877891834
-0.0031890766695141792,0.006607996299862862,9.899353981018066,0.00039999998989515007,-0.0009999999310821295,0.07840000092983246,0.007999999971379599,-0.0019999999928448997,-0.004999999877891834
0.0016759412828832865,-0.006684611551463604,9.884806632995605,0.00039999998989515007,-0.0009999999310821295,0.06859999895095825,-0.015999999942759198,-0.031999999885518396,-0.004999999877891834
0.01099417358636856,0.015543157234787941,9.900598526000977,0.00029999998514540493,-0.0008999999845400453,0.07840000092983246,-0.008999999863581633,-0.015999999942759198,-0.004999999877891834
-0.014642938040196896,-0.0030454243533313274,9.899152755737305,0.00019999999494757503,-0.0008999999845400453,0.07840000092983246,0.007999999971379599,0.017999999727163266,0.014999999216793838
-0.00045968673657625914,-0.014508862048387527,9.890054702758789,0.00029999998514540493,-0.0008999999845400453,0.06859999895095825,0.007999999971379599,-0.004999999877891834,0.01400000015835513
0.0006224924582056701,0.006952761672437191,9.882967948913574,0.00029999998514540493,-0.0008999999845400453,0.058799996972084045,-0.007999999971379599,0.013000000266153095,-0.021999999295971403
-0.0019057845929637551,0.006627150345593691,9.893416404724121,0.00029999998514540493,-0.0008999999845400453,0.07840000092983246,-0.021000000237532696,-0.004999999877891834,0.03599999945432653
0.005248090252280235,0.006157887168228626,9.8799409866333,0.00029999998514540493,-0.0007999999797903001,0.058799996972084045,-0.017999999727163266,0.0030000000934877653,-0.0009999999964224499
0.006483498029410839,-0.012076352722942829,9.883485794067383,0.00029999998514540493,-0.0007999999797903001,0.06859999895095825,-0.014999999216793838,-0.0039999999856897995,-0.021000000237532696
-0.006157887168228626,0.0006895300466567278,9.880755424499512,0.00029999998514540493,-0.000699999975040555,0.058799996972084045,0.009999999755783667,-0.006000000186975531,0.007000000079177565
0.009864110499620438,-0.022946029901504517,9.880516052246094,0.00019999999494757503,-0.000699999975040555,0.058799996972084045,0.0269999995907449,-0.007999999971379599,-0.004999999877891834
-0.008667009882628918,0.006981492042541504,9.893138885498047,0.00019999999494757503,-0.010400000028312206,0.058799996972084045,0.0030000000934877653,-0.012000000373951061,-0.0030000000934877653
0.006004657596349716,0.004050989169627428,9.873888969421387,0.00019999999494757503,-0.000699999975040555,0.058799996972084045,0.008999999863581633,0.06200000165415938,0
-0.010975020006299019,-0.008647856302559376,9.896797180175781,0.00029999998514540493,-0.000699999975040555,0.07840000092983246,-0.019000000453128628,-0.006000000186975531,-0.0039999999856897995
0.0003543418715707958,-0.007326257415115833,9.887372970581055,0.00029999998514540493,-0.0005999999702908099,0.06859999895095825,0.008999999863581633,-0.031999999885518396,0.012000000373951061
-0.0007182605331763625,-0.000976834329776466,9.883838653564453,0.00019999999494757503,-0.000699999975040555,0.06859999895095825,-0.046999999102312236,-0.006000000186975531,-0.0030000000934877653
-0.0030933087691664696,0.00461602071300149,9.884749412536621,0.00019999999494757503,-0.0004999999655410647,0.06859999895095825,0.008999999863581633,0.013000000266153095,-0.004999999877891834
-0.009356540627777576,0.0012545617064461112,9.894909858703613,0.00019999999494757503,-0.0004999999655410647,0.07840000092983246,0.09600000299160849,-0.0039999999856897995,-0.004999999877891834
-0.0038211459759622812,0.009279925376176834,9.885189056396484,0.00019999999494757503,-0.0007999999797903001,0.06859999895095825,-0.004999999877891834,-0.0009999999964224499,-0.0030000000934877653
-0.009902418591082096,-0.019134460017085075,9.88758373260498,0.00019999999494757503,-0.0007999999797903001,0.06859999895095825,0.043999998591942806,0.046999999102312236,-0.0039999999856897995
0.006703765131533146,-0.0004501099174376577,9.875651359558105,0.00029999998514540493,-0.0008999999845400453,0.058799996972084045,-0.019999999511567335,-0.006000000186975531,0.01400000015835513
0.0011779472697526217,0.017927782610058784,9.888235092163086,0.00029999998514540493,-0.0007999999797903001,0.06859999895095825,0.014999999216793838,0.008999999863581633,-0.010999999647985701
-0.015619771555066109,-0.0003543418715707958,9.88846492767334,0.00029999998514540493,-0.0008999999845400453,0.06859999895095825,0.007999999971379599,0.015999999942759198,0.021999999295971403
-0.017334019765257835,0.01198058482259512,9.885984420776367,0.00039999998989515007,-0.0008999999845400453,0.06859999895095825,0.008999999863581633,-0.007999999971379599,0.03999999902313467
0.017381904646754265,-0.004865017719566822,9.876474380493164,0.00029999998514540493,-0.0008999999845400453,0.058799996972084045,-0.015999999942759198,-0.006000000186975531,-0.006000000186975531
-0.0006895300466567278,0.012756306678056717,9.877490043640137,0.00029999998514540493,-0.0007999999797903001,0.058799996972084045,-0.0429999995335041,-0.0039999999856897995,-0.05900000114378995
-0.0020015526097267866,-0.0051714759320020676,9.868621826171875,0.00029999998514540493,-0.000699999975040555,0.04899999871850014,-0.041000001416626686,-0.006000000186975531,-0.03400000133744912
-0.008446743711829185,0.000804451759904623,9.87411880493164,0.00029999998514540493,-0.0005999999702908099,0.058799996972084045,0.038000000906257256,0,-0.004999999877891834
-0.006464344449341297,-0.010630255565047264,9.874492645263672,0.00029999998514540493,-0.000699999975040555,0.058799996972084045,0.007999999971379599,-0.031999999885518396,-0.031999999885518396
-0.016175225377082825,-0.0027006594464182854,9.879425048828125,0.00019999999494757503,-0.000699999975040555,0.058799996972084045,-0.0429999995335041,-0.01700000066872456,-0.007000000079177565
-0.00594719685614109,0.010055647231638432,9.881148338317871,0.00009999999747378752,-0.0005999999702908099,0.058799996972084045,0.007999999971379599,0.0030000000934877653,-0.0039999999856897995
-0.013876792974770069,0.0020207061897963285,9.882804870605469,0.00019999999494757503,-0.0005999999702908099,0.058799996972084045,0.0039999999856897995,-0.03899999996469596,0.013000000266153095
-0.01267969235777855,0.012938265688717365,9.885591506958008,0,-0.0005999999702908099,0.06859999895095825,0.008999999863581633,-0.008999999863581633,-0.006000000186975531
0.0025091234128922224,0.008571241982281208,9.882776260375977,0,-0.0005999999702908099,0.058799996972084045,0.01700000066872456,0.008999999863581633,-0.02600000053230619
-0.0004788403457496315,-0.013608642853796482,9.890035629272461,0,-0.0005999999702908099,0.07840000092983246,-0.03400000133744912,-0.006000000186975531,-0.0039999999856897995
0.004702212288975716,0.01158793643116951,9.87433910369873,0.00009999999747378752,-0.0005999999702908099,0.06859999895095825,0.0030000000934877653,0.043999998591942806,0.012000000373951061
0.012105083093047142,-0.00016280572162941098,9.893310546875,0.00019999999494757503,-0.0004999999655410647,0.07840000092983246,0.015999999942759198,-0.0019999999928448997,-0.0039999999856897995
0.003687070682644844,-0.015255853533744812,9.875191688537598,0.00019999999494757503,-0.0005999999702908099,0.058799996972084045,0.006000000186975531,0.02800000031671026,0
-0.006033387966454029,-0.002202665666118264,9.87717342376709,0.00029999998514540493,-0.0005999999702908099,0.058799996972084045,0.008999999863581633,0.017999999727163266,-0.014999999216793838
0.0029496564529836178,-0.016816873103380203,9.896222114562988,0.00029999998514540493,-0.0005999999702908099,0.07840000092983246,0.008999999863581633,0.010999999647985701,-0.0009999999964224499
0.00549708679318428,0.011769895441830158,9.884806632995605,0.00039999998989515007,-0.0005999999702908099,0.06859999895095825,0.007999999971379599,-0.0009999999964224499,0.0039999999856897995
0.001120486413128674,-0.00022984336828812957,9.88944149017334,0.00029999998514540493,-0.0005999999702908099,0.06859999895095825,-0.031999999885518396,-0.043999998591942806,-0.029999998433587676
-0.0130914943292737,-0.009174580685794353,9.88354206085205,0.00019999999494757503,-0.0004999999655410647,0.06859999895095825,-0.04200000047506539,0.017999999727163266,-0.004999999877891834
0.009404424577951431,-0.00883939303457737,9.883293151855469,0.00029999998514540493,-0.00039999998989515007,0.06859999895095825,0.043999998591942806,-0.006000000186975531,-0.0039999999856897995
-0.010917559266090393,-0.013369223102927208,9.886606216430664,0.00019999999494757503,-0.0004999999655410647,0.06859999895095825,0.038000000906257256,0.008999999863581633,-0.0009999999964224499
0.0025187002029269934,-0.007709329482167959,9.880764961242676,0.00029999998514540493,-0.0005999999702908099,0.058799996972084045,-0.009999999755783667,0.023000000021936765,0.0039999999856897995
0.0076135615818202496,-0.0003064578049816191,9.890811920166016,0.00029999998514540493,-0.0005999999702908099,0.06859999895095825,0.008999999863581633,0.03699999851276524,-0.02800000031671026
-0.005305550992488861,-0.01368525717407465,9.895379066467285,0.00039999998989515007,-0.0005999999702908099,0.07840000092983246,0.02600000053230619,0.021999999295971403,-0.004999999877891834
-0.004031835589557886,-0.014738705940544605,9.88638687133789,0.0004999999655410647,-0.000699999975040555,0.06859999895095825,0.03400000133744912,0.0039999999856897995,-0.0030000000934877653
0.009519346058368683,-0.007144297938793898,9.884998321533203,0.0004999999655410647,-0.0007999999797903001,0.06859999895095825,0.007999999971379599,-0.009999999755783667,0.041000001416626686
-0.004539406392723322,-0.015198391862213612,9.885553359985352,0.00039999998989515007,-0.0007999999797903001,0.06859999895095825,-0.007999999971379599,0.014999999216793838,-0.02899999937514897
-0.00010534487955737859,0.00978749617934227,9.883551597595215,0.0004999999655410647,-0.000699999975040555,0.06859999895095825,-0.010999999647985701,-0.0019999999928448997,-0.02600000053230619
-0.003265690989792347,-0.0011875240597873926,9.871159553527832,0.0004999999655410647,-0.000699999975040555,0.04899999871850014,0.01700000066872456,-0.006000000186975531,-0.015999999942759198
-0.007833828218281269,-0.010342951864004135,9.874004364013672,0.00039999998989515007,-0.000699999975040555,0.058799996972084045,-0.015999999942759198,-0.007999999971379599,0.012000000373951061
0.006627150345593691,0.009624690748751163,9.87389850616455,0.00039999998989515007,-0.000699999975040555,0.058799996972084045,0.007999999971379599,-0.02600000053230619,0.019000000453128628
0.01817677915096283,0.006282385438680649,9.879300117492676,0.00029999998514540493,-0.000699999975040555,0.058799996972084045,-0.017999999727163266,-0.021999999295971403,-0.0039999999856897995
-0.014729129150509834,-0.0020111293997615576,9.893348693847656,0.00029999998514540493,-0.0005999999702908099,0.07840000092983246,0.007999999971379599,-0.05499999823992851,-0.0039999999856897995
0.0027006594464182854,0.007259219419211149,9.88001823425293,0.00009999999747378752,-0.0005999999702908099,0.058799996972084045,-0.004999999877891834,-0.03100000082707969,0.05900000114378995
-0.00026815058663487434,-0.0053917421028018,9.902839660644531,0,-0.0005999999702908099,0.058799996972084045,-0.0009999999964224499,0.007999999971379599,0
0.00894473772495985,-0.003955221269279718,9.890475273132324,0.00009999999747378752,-0.0005999999702908099,0.08819999545812607,-0.004999999877891834,-0.006000000186975531,-0.017999999727163266
-0.011750741861760616,-0.00849462766200304,9.88202953338623,0,-0.0005999999702908099,0.058799996972084045,0.014999999216793838,0.010999999647985701,-0.0039999999856897995
-0.004185064695775509,0.018215086311101913,9.893129348754883,0,-0.0005999999702908099,0.07840000092983246,0.009999999755783667,-0.006000000186975531,-0.013000000266153095
0.010898405686020851,-0.017362751066684723,9.883196830749512,0,-0.0005999999702908099,0.058799996972084045,-0.013000000266153095,-0.019999999511567335,-0.004999999877891834
0.004529829602688551,0.00497036287561059,9.882230758666992,0,-0.0005999999702908099,0.058799996972084045,0.007999999971379599,-0.04600000004387353,-0.03400000133744912
-0.00027772740577347577,-0.0008810661965981126,9.88601303100586,-0.00009999999747378752,-0.0005999999702908099,0.06859999895095825,-0.015999999942759198,-0.007000000079177565,-0.004999999877891834
-0.013464991003274918,-0.017908629029989243,9.87926197052002,-0.00019999999494757503,-0.0004999999655410647,0.058799996972084045,-0.02600000053230619,-0.029999998433587676,-0.007999999971379599
0.0015514427796006203,0.009567230008542538,9.871925354003906,-0.00019999999494757503,-0.00039999998989515007,0.04899999871850014,0.0039999999856897995,-0.023000000021936765,-0.0030000000934877653
0.010314221493899822,-0.004692635498940945,9.879156112670898,-0.00029999998514540493,-0.0004999999655410647,0.058799996972084045,0.0039999999856897995,-0.0030000000934877653,0.01700000066872456
-0.010438719764351845,-0.003754108212888241,9.876819610595703,-0.00029999998514540493,-0.0004999999655410647,0.058799996972084045,0.008999999863581633,-0.004999999877891834,-0.0030000000934877653
0.007335834205150604,-0.011616666801273823,9.870823860168457,-0.00029999998514540493,-0.0004999999655410647,0.04899999871850014,-0.021000000237532696,0.010999999647985701,-0.013000000266153095
-0.00039264908991754055,-0.00007661445124540478,9.876570701599121,-0.00029999998514540493,-0.00039999998989515007,0.058799996972084045,-0.019999999511567335,-0.023000000021936765,0.012000000373951061
0.0063685765489935875,-0.0006607996765524149,9.875967025756836,-0.00029999998514540493,-0.00039999998989515007,0.058799996972084045,0.015999999942759198,-0.0019999999928448997,-0.006000000186975531
0.011971008032560349,0.000976834329776466,9.886703491210938,-0.00029999998514540493,-0.00039999998989515007,0.06859999895095825,-0.007999999971379599,-0.0030000000934877653,0
0.002126051113009453,-0.0029496564529836178,9.879472732543945,-0.00029999998514540493,-0.00039999998989515007,0.058799996972084045,-0.008999999863581633,-0.015999999942759198,-0.023000000021936765
-0.0031890766695141792,-0.011769895441830158,9.886703491210938,-0.00039999998989515007,-0.00029999998514540493,0.06859999895095825,0.008999999863581633,0,0.004999999877891834
-0.011195287108421326,0.005822698585689068,9.885534286499023,-0.00039999998989515007,-0.00039999998989515007,0.06859999895095825,-0.01700000066872456,0.0030000000934877653,-0.019999999511567335
-0.009318233467638493,-0.00011492168414406478,9.884366035461426,-0.00039999998989515007,-0.00029999998514540493,0.06859999895095825,0,0.048000001495804245,-0.013000000266153095
0.0020781669300049543,0.008006210438907146,9.88398265838623,-0.00019999999494757503,-0.00029999998514540493,0.06859999895095825,-0.012000000373951061,-0.02600000053230619,-0.02600000053230619
-0.009471462108194828,-0.01398213766515255,9.896998405456543,-0.00029999998514540493,-0.00029999998514540493,0.07840000092983246,-0.007999999971379599,0.017999999727163266,-0.019999999511567335
0.010917559266090393,0.0007948749698698521,9.879730224609375,-0.00019999999494757503,-0.00019999999494757503,0.058799996972084045,-0.019999999511567335,-0.004999999877891834,-0.023000000021936765
0.010400412604212761,-0.009921572171151638,9.87117862701416,-0.00019999999494757503,-0.00019999999494757503,0.04899999871850014,0.01400000015835513,0.017999999727163266,0.004999999877891834
0.006837840192019939,-0.01592622883617878,9.887813568115234,-0.00019999999494757503,-0.00019999999494757503,0.058799996972084045,0.007999999971379599,-0.006000000186975531,0.01400000015835513
0.006837840192019939,-0.01592622883617878,9.887813568115234,-0.00019999999494757503,-0.00019999999494757503,0.06859999895095825,0.014999999216793838,0.03699999851276524,0
0.00020111293997615576,-0.0031507695093750954,9.866687774658203,-0.00009999999747378752,-0.00029999998514540493,0.058799996972084045,-0.004999999877891834,-0.007999999971379599,-0.0039999999856897995
0.018349161371588707,-0.010534487664699554,9.875229835510254,-0.00009999999747378752,-0.00019999999494757503,0.058799996972084045,0.03400000133744912,0,0.023000000021936765
-0.00004788403384736739,0.012373235076665878,9.87397575378418,-0.00009999999747378752,-0.00029999998514540493,0.058799996972084045,-0.008999999863581633,-0.015999999942759198,0.0030000000934877653
-0.010285490192472935,0.00209732074290514,9.864130020141602,-0.00019999999494757503,-0.00029999998514540493,0.04899999871850014,-0.02800000031671026,-0.031999999885518396,0.0329999989439571
-0.005439626052975655,0.013129801489412785,9.889106750488281,-0.00029999998514540493,-0.00019999999494757503,0.06859999895095825,0.006000000186975531,-0.007999999971379599,0.006000000186975531
0.004309562966227531,0.005602431949228048,9.883465766906738,-0.00029999998514540493,-0.00019999999494757503,0.06859999895095825,0.038000000906257256,-0.007000000079177565,-0.0039999999856897995
-0.0008427590364590287,0.003562572179362178,9.893579483032227,-0.00029999998514540493,-0.00029999998514540493,0.07840000092983246,0.004999999877891834,-0.015999999942759198,0
0.00020111293997615576,-0.0035913025494664907,9.879596710205078,-0.00029999998514540493,-0.00029999998514540493,0.058799996972084045,0.010999999647985701,-0.007999999971379599,-0.048000001495804245
-0.006636727135628462,-0.003275267779827118,9.88927936553955,-0.00029999998514540493,-0.00029999998514540493,0.06859999895095825,0.004999999877891834,-0.009999999755783667,-0.0039999999856897995
0.003983951639384031,0.006081271916627884,9.88758373260498,-0.00039999998989515007,-0.00039999998989515007,0.06859999895095825,0.004999999877891834,-0.019000000453128628,0.021000000237532696
-0.010352528654038906,-0.008216899819672108,9.887612342834473,-0.00039999998989515007,-0.00039999998989515007,0.06859999895095825,-0.007000000079177565,0.013000000266153095,0.004999999877891834
0.004472368862479925,-0.008504204452037811,9.890398979187012,-0.00039999998989515007,-0.00029999998514540493,0.06859999895095825,0.007000000079177565,-0.008999999863581633,-0.02600000053230619
0.008542511612176895,0.010419566184282303,9.886731147766113,-0.00039999998989515007,-0.00039999998989515007,0.06859999895095825,0.007000000079177565,-0.007999999971379599,-0.031999999885518396
0.005880159325897694,-0.0034476504661142826,9.879347801208496,-0.00039999998989515007,-0.00039999998989515007,0.058799996972084045,0.007000000079177565,0.02600000053230619,0.021000000237532696
-0.00562158552929759,-0.0027964275795966387,9.884346961975098,-0.00029999998514540493,-0.00039999998989515007,0.06859999895095825,0.031999999885518396,-0.007999999971379599,0.09200000008774706
-0.008858546614646912,0.009672574698925018,9.878409385681152,-0.00039999998989515007,-0.0004999999655410647,0.058799996972084045,0.007000000079177565,0.0009999999964224499,0.019999999511567335
-0.00022984336828812957,-0.007766790222376585,9.876293182373047,-0.00029999998514540493,-0.0004999999655410647,0.058799996972084045,-0.1070000026395942,0.01700000066872456,0.004999999877891834
0.005027823615819216,-0.0012354080099612474,9.879481315612793,-0.00029999998514540493,-0.00019999999494757503,0.058799996972084045,0.03699999851276524,-0.043999998591942806,-0.03899999996469596
-0.0034572272561490536,-0.0013694833032786846,9.885150909423828,-0.00039999998989515007,-0.00029999998514540493,0.06859999895095825,0.024000000747902123,0.0030000000934877653,-0.0039999999856897995
0.005257667042315006,-0.020503941923379898,9.880535125732422,-0.00039999998989515007,-0.009999999776482582,0.058799996972084045,0.009999999755783667,-0.007999999971379599,0
-0.01737232692539692,-0.010639832355082035,9.87886905670166,-0.00039999998989515007,-0.00019999999494757503,0.058799996972084045,-0.0009999999964224499,-0.007999999971379599,-0.0030000000934877653
0.000488417164888233,0.005688623525202274,9.888282775878906,-0.00039999998989515007,-0.00019999999494757503,0.058799996972084045,-0.007000000079177565,0.004999999877891834,0.013000000266153095
0.010429142974317074,-0.01563892513513565,9.901211738586426,-0.00039999998989515007,-0.00019999999494757503,0.06859999895095825,-0.007000000079177565,0.004999999877891834,0.013000000266153095
0.014365210197865963,-0.009950302541255951,9.88748836517334,-0.00029999998514540493,-0.00019999999494757503,0.06859999895095825,-0.041000001416626686,-0.010999999647985701,-0.0039999999856897995
-0.009279925376176834,-0.0012258312199264765,9.892046928405762,-0.00029999998514540493,-0.00019999999494757503,0.06859999895095825,-0.041000001416626686,-0.010999999647985701,-0.0039999999856897995
0.006004657596349716,-0.0004118026699870825,9.882939338684082,-0.00029999998514540493,-0.00019999999494757503,0.058799996972084045,0.007999999971379599,0.010999999647985701,0.02800000031671026
0.007920019328594208,-0.018406622111797333,9.885908126831055,-0.00029999998514540493,-0.00019999999494757503,0.06859999895095825,0.004999999877891834,0.008999999863581633,-0.0039999999856897995
-0.002202665666118264,-0.018598157912492752,9.876733779907227,-0.00029999998514540493,-0.00019999999494757503,0.058799996972084045,0.004999999877891834,0.012000000373951061,-0.0039999999856897995
-0.0007565676933154464,0.00442448491230607,9.874751091003418,-0.00019999999494757503,-0.00019999999494757503,0.058799996972084045,0.007000000079177565,-0.021999999295971403,0.023000000021936765
-0.00949061568826437,0.006167463958263397,9.871015548706055,-0.00029999998514540493,-0.00019999999494757503,0.04899999871850014,0.0030000000934877653,0.015999999942759198,0.021999999295971403
-0.008054094389081001,0.007431602105498314,9.867653846740723,-0.00019999999494757503,-0.00019999999494757503,0.04899999871850014,-0.03599999945432653,0.05799999875029794,0.013000000266153095
0.0034668040461838245,0.005075707565993071,9.887737274169922,-0.00009999999747378752,-0.00009999999747378752,0.06859999895095825,0.007999999971379599,0.01400000015835513,0.029999998433587676
-0.0021452046930789948,-0.0028155811596661806,9.888503074645996,0,-0.00009999999747378752,0.06859999895095825,-0.021000000237532696,-0.008999999863581633,-0.006000000186975531
-0.014614207670092583,-0.0030741551890969276,9.879108428955078,-0.00009999999747378752,-0.00009999999747378752,0.058799996972084045,0.007000000079177565,-0.049999999612681666,0.06399999977103679
-0.0004501099174376577,0.015361198224127293,9.885275840759277,-0.00019999999494757503,-0.00009999999747378752,0.06859999895095825,0.007000000079177565,-0.02899999937514897,-0.021000000237532696
0.003265690989792347,-0.00018195933080278337,9.89354133605957,-0.00029999998514540493,-0.00009999999747378752,0.07840000092983246,0.0009999999964224499,-0.007999999971379599,-0.006000000186975531
-0.007852981798350811,-0.006713341921567917,9.8893461227417,-0.00029999998514540493,-0.00009999999747378752,0.06859999895095825,0.004999999877891834,0.0019999999928448997,-0.009999999755783667
-0.0013982137897983193,-0.003380612935870886,9.887191772460938,-0.00029999998514540493,-0.00009999999747378752,0.06859999895095825,0.006000000186975531,0.004999999877891834,0.03100000082707969
-0.0028155811596661806,-0.0033231519628316164,9.88927936553955,-0.00029999998514540493,-0.00009999999747378752,0.06859999895095825,0.01700000066872456,-0.05200000106461238,0.0039999999856897995
0.0018100164597854018,0.002212242456153035,9.88730525970459,-0.00039999998989515007,-0.00019999999494757503,0.06859999895095825,-0.010999999647985701,-0.0039999999856897995,-0.0039999999856897995
0.0028251581825315952,0.0029975404031574726,9.87433910369873,-0.00039999998989515007,-0.00019999999494757503,0.058799996972084045,0.006000000186975531,-0.007999999971379599,-0.0039999999856897995
0.01168370433151722,-0.0030454243533313274,9.876120567321777,-0.00039999998989515007,-0.00019999999494757503,0.058799996972084045,-0.013000000266153095,-0.014999999216793838,0.013000000266153095
-0.011042057536542416,0.0017046716529875994,9.874367713928223,-0.0004999999655410647,-0.00009999999747378752,0.058799996972084045,0.004999999877891834,0,0.021000000237532696
-0.0076327151618897915,-0.011185710318386555,9.874894142150879,-0.0004999999655410647,-0.00009999999747378752,0.058799996972084045,-0.017999999727163266,-0.02800000031671026,0.019999999511567335
-0.004319139756262302,0.004568136762827635,9.883340835571289,-0.0004999999655410647,-0.00009999999747378752,0.06859999895095825,0.007000000079177565,-0.012000000373951061,-0.024999999806340833
0.003064578166231513,0.01158793643116951,9.873735427856445,-0.0004999999655410647,-0.00009999999747378752,0.058799996972084045,-0.024999999806340833,-0.007999999971379599,-0.007999999971379599
-0.000967257481534034,0.001149216783232987,9.86507797241211,-0.0005999999702908099,0,0.04899999871850014,-0.017999999727163266,-0.019000000453128628,-0.0039999999856897995
-0.008561665192246437,-0.0025570073630660772,9.868496894836426,-0.0004999999655410647,0,0.04899999871850014,0.02899999937514897,0.03400000133744912,0.014999999216793838
-0.013072340749204159,0.0025953147560358047,9.88492202758789,-0.0004999999655410647,0,0.04899999871850014,-0.0030000000934877653,0.013000000266153095,0.013000000266153095
-0.010764330625534058,-0.006607996299862862,9.880592346191406,-0.00039999998989515007,-0.00009999999747378752,0.058799996972084045,0.031999999885518396,-0.007999999971379599,-0.02800000031671026
0.000028730421036016196,0.0031603462994098663,9.881627082824707,-0.00039999998989515007,-0.00019999999494757503,0.058799996972084045,0.007000000079177565,0.008999999863581633,0.004999999877891834
0.00884896982461214,-0.0009097966831177473,9.879913330078125,-0.00039999998989515007,-0.00019999999494757503,0.058799996972084045,0.007000000079177565,0.014999999216793838,-0.004999999877891834
-0.0107834842056036,0.007144297938793898,9.90046501159668,-0.00029999998514540493,-0.00019999999494757503,0.07840000092983246,0.007000000079177565,-0.019000000453128628,0
0.006186617538332939,-0.007374141365289688,9.87767219543457,-0.00039999998989515007,-0.00019999999494757503,0.058799996972084045,-0.03699999851276524,-0.05499999823992851,-0.0039999999856897995
-0.007795520592480898,0.0054587796330451965,9.885055541992188,-0.0004999999655410647,-0.00009999999747378752,0.06859999895095825,-0.009999999755783667,-0.007999999971379599,-0.013000000266153095
0.008916007354855537,-0.006244078278541565,9.879146575927734,-0.0004999999655410647,-0.00009999999747378752,0.058799996972084045,0.007999999971379599,-0.007999999971379599,0
0.011300632730126381,-0.0031794998794794083,9.881129264831543,-0.0004999999655410647,-0.00009999999747378752,0.058799996972084045,0.014999999216793838,0.008999999863581633,-0.004999999877891834
0.0034859576262533665,-0.0007948749698698521,9.86241626739502,-0.0004999999655410647,-0.00009999999747378752,0.03920000046491623,-0.01700000066872456,-0.0009999999964224499,-0.0039999999856897995
0.0034763808362185955,0.02059013396501541,9.8787260055542,-0.0004999999655410647,0.009499999694526196,0.058799996972084045,0.007999999971379599,-0.0030000000934877653,-0.01400000015835513
0.0004501099174376577,0.01098459679633379,9.885074615478516,-0.0004999999655410647,-0.00019999999494757503,0.06859999895095825,0.03899999996469596,0.009999999755783667,0
0.009030928835272789,-0.005439626052975655,9.873276710510254,-0.0004999999655410647,-0.00029999998514540493,0.04899999871850014,0.0019999999928448997,-0.008999999863581633,-0.014999999216793838
0.001149216783232987,0.002566584153100848,9.882134437561035,-0.0004999999655410647,-0.00029999998514540493,0.058799996972084045,-0.02800000031671026,0.008999999863581633,-0.0030000000934877653
-0.0027772739995270967,0.010678139515221119,9.876809120178223,-0.0004999999655410647,-0.00019999999494757503,0.058799996972084045,-0.01700000066872456,-0.0009999999964224499,-0.0269999995907449
0.009423578158020973,-0.006789956241846085,9.885438919067383,-0.0004999999655410647,-0.00019999999494757503,0.06859999895095825,0.0039999999856897995,0,-0.0039999999856897995
0.014298172667622566,0.002853888552635908,9.891501426696777,-0.00039999998989515007,-0.00019999999494757503,0.06859999895095825,-0.0030000000934877653,-0.0269999995907449,-0.0030000000934877653
0.00022984336828812957,0.0010726023465394974,9.889365196228027,-0.0004999999655410647,-0.00019999999494757503,0.06859999895095825,0.024999999806340833,-0.008999999863581633,0.004999999877891834
0.0007278373232111335,-0.007479486055672169,9.892822265625,-0.0004999999655410647,-0.00029999998514540493,0.06859999895095825,-0.031999999885518396,0.013000000266153095,-0.021999999295971403
-0.019661184400320053,-0.009768342599272728,9.885649681091309,-0.010199999436736107,-0.00019999999494757503,0.06859999895095825,0.008999999863581633,0.0269999995907449,-0.008999999863581633
0.007671022322028875,-0.0072687966749072075,9.868718147277832,-0.00029999998514540493,-0.00019999999494757503,0.04899999871850014,0.007000000079177565,-0.024999999806340833,0
0.0023654713295400143,-0.002116474322974682,9.880602836608887,-0.00039999998989515007,-0.00019999999494757503,0.058799996972084045,-0.017999999727163266,0.006000000186975531,-0.023000000021936765
0.0004979939549230039,-0.011329363100230694,9.87668514251709,-0.00029999998514540493,-0.00019999999494757503,0.058799996972084045,-0.03699999851276524,0.035000000395887826,-0.012000000373951061
-0.005861005745828152,0.011903970502316952,9.869110107421875,-0.00019999999494757503,0,0.03920000046491623,-0.012000000373951061,0.019999999511567335,0.01700000066872456
0.0009481038432568312,0.00407014274969697,9.865738868713379,-0.00019999999494757503,0,0.04899999871850014,0.0009999999964224499,0.029999998433587676,0.01400000015835513
0.0017334020230919123,-0.0026048915460705757,9.886491775512695,-0.00019999999494757503,0,0.06859999895095825,0.024999999806340833,-0.007999999971379599,0.007000000079177565
-0.0006607996765524149,-0.002432508859783411,9.886472702026367,-0.00019999999494757503,-0.00009999999747378752,0.06859999895095825,0.046999999102312236,-0.0019999999928448997,-0.029999998433587676
-0.010821791365742683,0.007019799202680588,9.869091033935547,-0.00019999999494757503,-0.00019999999494757503,0.04899999871850014,0.007000000079177565,-0.007999999971379599,-0.01400000015835513
-0.014173673465847969,0.011664550751447678,9.880094528198242,-0.00019999999494757503,-0.00019999999494757503,0.058799996972084045,0.0039999999856897995,-0.007999999971379599,-0.0039999999856897995
0.006387730129063129,0.014269442297518253,9.880582809448242,-0.00029999998514540493,-0.00029999998514540493,0.058799996972084045,0.007999999971379599,-0.007999999971379599,-0.04500000098543482
-0.0004118026699870825,0.013359645381569862,9.88988208770752,-0.00029999998514540493,-0.00029999998514540493,0.06859999895095825,-0.02600000053230619,0.008999999863581633,-0.07000000079177565
-0.017238251864910126,-0.009404424577951431,9.884749412536621,-0.00019999999494757503,-0.00019999999494757503,0.06859999895095825,0.007000000079177565,0.0009999999964224499,-0.0030000000934877653
-0.0004979939549230039,-0.008159439079463482,9.88628101348877,-0.00019999999494757503,-0.00019999999494757503,0.06859999895095825,0.008999999863581633,-0.043999998591942806,0.01700000066872456
0.0007182605331763625,-0.012344504706561565,9.881425857543945,-0.00039999998989515007,-0.00019999999494757503,0.058799996972084045,0.007000000079177565,0.015999999942759198,0.019000000453128628
0.01318726222962141,-0.015370775014162064,9.888618469238281,-0.00029999998514540493,-0.00029999998514540493,0.06859999895095825,-0.0019999999928448997,0.0019999999928448997,-0.0009999999964224499
-0.008446743711829185,0.003351882565766573,9.884117126464844,-0.00029999998514540493,-0.00019999999494757503,0.06859999895095825,-0.03999999902313467,0.008999999863581633,0.014999999216793838
-0.009950302541255951,-0.009433154948055744,9.870834350585938,-0.00029999998514540493,-0.00009999999747378752,0.04899999871850014,-0.035000000395887826,-0.007999999971379599,0.0030000000934877653
-0.002432508859783411,-0.005353434942662716,9.884614944458008,-0.00029999998514540493,0,0.06859999895095825,0.021000000237532696,-0.007999999971379599,0.004999999877891834
0.0030262707732617855,0.005832275375723839,9.878677368164062,-0.00029999998514540493,-0.00009999999747378752,0.058799996972084045,-0.0019999999928448997,-0.007999999971379599,0.021000000237532696
-0.0019728222396224737,0.006301539018750191,9.894766807556152,-0.00029999998514540493,-0.00009999999747378752,0.07840000092983246,-0.017999999727163266,-0.0039999999856897995,-0.015999999942759198
0.006789956241846085,-0.002202665666118264,9.883647918701172,-0.00029999998514540493,0,0.06859999895095825,0.007000000079177565,-0.008999999863581633,-0.007999999971379599
-0.000019153612811351195,0.015389928594231606,9.883925437927246,-0.00039999998989515007,0,0.06859999895095825,0.007000000079177565,-0.0039999999856897995,-0.0009999999964224499
-0.0025378537829965353,-0.009088389575481415,9.886703491210938,-0.00039999998989515007,-0.00009999999747378752,0.06859999895095825,0.03999999902313467,-0.007999999971379599,0.01400000015835513
-0.002250549616292119,-0.006014234386384487,9.88110065460205,-0.00039999998989515007,-0.00019999999494757503,0.058799996972084045,0.007000000079177565,-0.0039999999856897995,0.010999999647985701
0.0026336219161748886,0.0067995330318808556,9.890974044799805,-0.00039999998989515007,-0.00019999999494757503,0.06859999895095825,0.03100000082707969,0.017999999727163266,0.035000000395887826
-0.00629196222871542,-0.003064578166231513,9.884930610656738,-0.00029999998514540493,-0.00029999998514540493,0.06859999895095825,-0.05499999823992851,-0.0039999999856897995,0.004999999877891834
0.00849462766200304,-0.0015035585965961218,9.881991386413574,-0.00029999998514540493,-0.00009999999747378752,0.058799996972084045,-0.012000000373951061,0.017999999727163266,-0.0039999999856897995
0.00016280572162941098,0.004932055249810219,9.886117935180664,-0.00029999998514540493,-0.00009999999747378752,0.06859999895095825,0.007000000079177565,0.007000000079177565,0.0019999999928448997
0.013359645381569862,-0.007508216425776482,9.870086669921875,-0.00029999998514540493,-0.00009999999747378752,0.06859999895095825,0.01700000066872456,-0.01400000015835513,0.03400000133744912
-0.0037828385829925537,-0.005793968215584755,9.881856918334961,-0.00029999998514540493,0,0.04899999871850014,-0.031999999885518396,0,-0.0039999999856897995
-0.0015035585965961218,0.00023942017287481576,9.879060745239258,-0.00029999998514540493,0,0.058799996972084045,0.024999999806340833,0.008999999863581633,0.021999999295971403
0.007000645622611046,0.006924031302332878,9.870671272277832,-0.00029999998514540493,0,0.04899999871850014,-0.017999999727163266,-0.007999999971379599,-0.012000000373951061
0.017401058226823807,-0.00287304213270545,9.875066757202148,-0.00029999998514540493,0,0.058799996972084045,0.014999999216793838,-0.007999999971379599,-0.01400000015835513
-0.00874362513422966,-0.01407790556550026,9.87205982208252,-0.00029999998514540493,0,0.04899999871850014,0.013000000266153095,-0.0269999995907449,-0.0009999999964224499
-0.0005075707449577749,0.018157625570893288,9.890581130981445,-0.00039999998989515007,0,0.06859999895095825,-0.03699999851276524,0.021999999295971403,-0.007999999971379599
-0.01602199673652649,0.004979939665645361,9.888388633728027,-0.00029999998514540493,0,0.06859999895095825,-0.03599999945432653,-0.06099999926066736,-0.0019999999928448997
0.009251195006072521,-0.0104866037145257,9.888406753540039,-0.0004999999655410647,0.00009999999747378752,0.06859999895095825,0.007000000079177565,-0.024999999806340833,0
0.0013407529331743717,-0.01123359426856041,9.892937660217285,-0.0005999999702908099,0,0.07840000092983246,0.01700000066872456,-0.031999999885518396,0.0039999999856897995
0.004865017719566822,-0.006033387966454029,9.882210731506348,-0.0005999999702908099,0,0.058799996972084045,0.014999999216793838,-0.007999999971379599,-0.004999999877891834
-0.0043766009621322155,-0.010007763281464577,9.879664421081543,-0.0005999999702908099,0,0.058799996972084045,0.007000000079177565,-0.013000000266153095,-0.024000000747902123
-0.0006607996765524149,0.00009576806769473478,9.894105911254883,-0.000699999975040555,0,0.07840000092983246,0.007000000079177565,-0.008999999863581633,0.013000000266153095
-0.00023942017287481576,0.009270348586142063,9.89784049987793,-0.000699999975040555,0,0.07840000092983246,-0.009999999755783667,-0.007999999971379599,-0.021999999295971403
0.011875240132212639,0.01489193458110094,9.877586364746094,-0.000699999975040555,0,0.058799996972084045,-0.021000000237532696,0.0030000000934877653,0.008999999863581633
-0.009825803339481354,-0.01317768543958664,9.885294914245605,-0.000699999975040555,0,0.06859999895095825,-0.014999999216793838,0.0009999999964224499,0.007999999971379599
-0.005372588522732258,-0.016481684520840645,9.877317428588867,-0.000699999975040555,0,0.058799996972084045,0.02899999937514897,-0.043999998591942806,0.013000000266153095
0.008082824759185314,-0.006694188341498375,9.873591423034668,-0.0007999999797903001,0,0.04899999871850014,0.006000000186975531,0.0019999999928448997,0.035000000395887826
-0.008283937349915504,0.005410895682871342,9.86948299407959,-0.0007999999797903001,0,0.04899999871850014,0.007000000079177565,0.004999999877891834,0.0030000000934877653
0.021270088851451874,-0.00883939303457737,9.872749328613281,0.008799999952316284,0,0.04899999871850014,-0.07999999804626934,-0.03400000133744912,0.004999999877891834
0.009548076428472996,-0.002279279986396432,9.881186485290527,-0.0009999999310821295,0.00009999999747378752,0.058799996972084045,0.010999999647985701,0.05300000012305109,-0.0030000000934877653
-0.0005171475349925458,0.0021739350631833076,9.873679161071777,-0.0007999999797903001,0.00009999999747378752,0.04899999871850014,0.010999999647985701,-0.014999999216793838,-0.014999999216793838
0.016510413959622383,0.009155427105724812,9.88841724395752,-0.0007999999797903001,0.00009999999747378752,0.06859999895095825,0.008999999863581633,0.015999999942759198,-0.021999999295971403
-0.00619619432836771,-0.00031603462412022054,9.89490032196045,-0.0007999999797903001,0.00009999999747378752,0.06859999895095825,0.006000000186975531,0.01400000015835513,0.021999999295971403
-0.0012641384964808822,0.010314221493899822,9.893033027648926,-0.000699999975040555,0,0.07840000092983246,0.021000000237532696,-0.035000000395887826,-0.0039999999856897995
-0.009184157475829124,-0.0026815058663487434,9.88704776763916,-0.0007999999797903001,0,0.06859999895095825,-0.009999999755783667,0.013000000266153095,-0.0019999999928448997
0.003945644479244947,0.007307103835046291,9.88769817352295,-0.0007999999797903001,0,0.06859999895095825,-0.02800000031671026,-0.02800000031671026,0.013000000266153095
-0.007671022322028875,0.0043670241720974445,9.894095420837402,-0.0008999999845400453,0.00009999999747378752,0.07840000092983246,-0.0019999999928448997,0.0009999999964224499,-0.035000000395887826
-0.013407530263066292,0.0015131353866308928,9.88197135925293,-0.0007999999797903001,0.00009999999747378752,0.058799996972084045,0.014999999216793838,-0.02899999937514897,0.041000001416626686
0.01058237161487341,-0.008370129391551018,9.873984336853027,-0.0008999999845400453,0,0.058799996972084045,-0.02899999937514897,-0.008999999863581633,-0.021999999295971403
0.002240972826257348,0.0019057845929637551,9.87157154083252,-0.0008999999845400453,0.00009999999747378752,0.04899999871850014,0.021000000237532696,-0.029999998433587676,-0.021999999295971403
-0.013895946554839611,0.004022258799523115,9.88001823425293,-0.0009999999310821295,0,0.058799996972084045,0.007000000079177565,-0.007999999971379599,0.007999999971379599
0.00024899697746150196,-0.005525817163288593,9.8890962600708,-0.0009999999310821295,0,0.06859999895095825,-0.049999999612681666,0.008999999863581633,-0.024999999806340833
0.007125144358724356,-0.007019799202680588,9.879549026489258,-0.0009999999310821295,0.00009999999747378752,0.058799996972084045,-0.05600000063342052,-0.013000000266153095,-0.01700000066872456
-0.012210427783429623,-0.0035529951564967632,9.880889892578125,-0.0009999999310821295,0.00029999998514540493,0.058799996972084045,0.024000000747902123,0.008999999863581633,0.04500000098543482
-0.003907337319105864,-0.005324704572558403,9.895216941833496,-0.0009999999310821295,0.00019999999494757503,0.07840000092983246,0.04200000047506539,0.023000000021936765,-0.0039999999856897995
-0.005027823615819216,-0.006991068832576275,9.889106750488281,-0.0008999999845400453,0.00009999999747378752,0.06859999895095825,0.007000000079177565,-0.007999999971379599,0.008999999863581633
0.007115567568689585,-0.0072783734649419785,9.889776229858398,-0.0008999999845400453,0.00009999999747378752,0.06859999895095825,0.024000000747902123,-0.01400000015835513,0.013000000266153095
0.0017429788131266832,-0.0008619126165285707,9.892362594604492,-0.0008999999845400453,0,0.06859999895095825,0.007000000079177565,0.0009999999964224499,0.007999999971379599
-0.0039264908991754055,0.0025474305730313063,9.894871711730957,-0.0008999999845400453,0,0.07840000092983246,0.004999999877891834,0.008999999863581633,0.0009999999964224499
0.007201758679002523,-0.0027676972094923258,9.884537696838379,-0.0008999999845400453,0,0.06859999895095825,0.007999999971379599,0.010999999647985701,-0.007999999971379599
-0.01267969235777855,0.005420472472906113,9.886894226074219,-0.0007999999797903001,0,0.06859999895095825,0.023000000021936765,-0.007000000079177565,0.02600000053230619
0.014518438838422298,0.0035146879963576794,9.875516891479492,-0.0007999999797903001,0,0.058799996972084045,-0.031999999885518396,0.01700000066872456,-0.007000000079177565
0.007010222412645817,-0.00988326407968998,9.880804061889648,-0.0007999999797903001,0,0.058799996972084045,0.0030000000934877653,-0.07000000079177565,0.004999999877891834
0.007757213432341814,0.0020015526097267866,9.881319999694824,-0.0009999999310821295,0,0.058799996972084045,-0.008999999863581633,0.01700000066872456,0.013000000266153095
0.009653421118855476,0.00027772740577347577,9.879903793334961,-0.0008999999845400453,0,0.058799996972084045,0.008999999863581633,-0.007999999971379599,-0.0039999999856897995
0.003907337319105864,-0.0023558945395052433,9.874626159667969,-0.0008999999845400453,0,0.058799996972084045,0.015999999942759198,-0.0030000000934877653,0.049999999612681666
0.005353434942662716,0.0031794998794794083,9.892094612121582,-0.0008999999845400453,0,0.06859999895095825,-0.009999999755783667,-0.0039999999856897995,-0.0039999999856897995
-0.0021739350631833076,-0.004778826609253883,9.88476848602295,-0.0008999999845400453,0,0.06859999895095825,0.008999999863581633,-0.03400000133744912,0.04900000055424296
0.004979939665645361,0.007010222412645817,9.871782302856445,-0.0008999999845400453,0,0.04899999871850014,0.007000000079177565,-0.007999999971379599,0
0.00407014274969697,0.009931148961186409,9.8866548538208,-0.0008999999845400453,0,0.06859999895095825,0.007000000079177565,-0.009999999755783667,0.024000000747902123
0.00407014274969697,0.009931148961186409,9.8866548538208,-0.0008999999845400453,0,0.06859999895095825,0.007000000079177565,-0.009999999755783667,0.024000000747902123
0.0003734954516403377,0.0030262707732617855,9.886807441711426,-0.0008999999845400453,0,0.06859999895095825,-0.009999999755783667,0.009999999755783667,0.03899999996469596
-0.00771890627220273,0.003983951639384031,9.889595031738281,-0.0007999999797903001,0,0.06859999895095825,-0.010999999647985701,0.0009999999964224499,0.0019999999928448997
-0.008925584144890308,0.003265690989792347,9.89673900604248,-0.0007999999797903001,0,0.07840000092983246,-0.0019999999928448997,0.007000000079177565,0.021999999295971403
0.0005267243832349777,0.0016663643764331937,9.896490097045898,-0.0007999999797903001,0,0.07840000092983246,0.0009999999964224499,-0.007000000079177565,-0.0039999999856897995
-0.010352528654038906,-0.009634267538785934,9.881080627441406,-0.0007999999797903001,0,0.058799996972084045,0.007999999971379599,-0.0019999999928448997,-0.0009999999964224499
0.007125144358724356,-0.009672574698925018,9.876935005187988,-0.0007999999797903001,0,0.058799996972084045,0.031999999885518396,-0.008999999863581633,0.021000000237532696
0.01348414458334446,-0.00407014274969697,9.882882118225098,-0.0007999999797903001,0,0.058799996972084045,0.03999999902313467,-0.043999998591942806,0.01400000015835513
0.014958972111344337,-0.0031411927193403244,9.884069442749023,-0.0008999999845400453,-0.00009999999747378752,0.06859999895095825,0.007000000079177565,-0.007999999971379599,0
0.007134721148759127,-0.0016855180729180574,9.874004364013672,-0.0008999999845400453,-0.00009999999747378752,0.058799996972084045,0.049999999612681666,-0.05200000106461238,-0.0039999999856897995
-0.010802637785673141,-0.0071826050989329815,9.86789321899414,-0.0010999999940395355,-0.00029999998514540493,0.04899999871850014,0.029999998433587676,0.0009999999964224499,-0.0039999999856897995
0.008638279512524605,-0.002250549616292119,9.890686988830566,-0.0010999999940395355,-0.00039999998989515007,0.06859999895095825,0.004999999877891834,0.02600000053230619,-0.0039999999856897995
-0.0017908628797158599,-0.004462792072445154,9.888235092163086,-0.0009999999310821295,-0.00039999998989515007,0.06859999895095825,-0.012000000373951061,0,0.021999999295971403
0.010553641244769096,0.015399505384266376,9.889106750488281,-0.0009999999310821295,-0.00029999998514540493,0.06859999895095825,0.006000000186975531,0.015999999942759198,-0.007000000079177565
-0.005382165312767029,-0.007144297938793898,9.890007019042969,-0.0008999999845400453,-0.00029999998514540493,0.06859999895095825,-0.029999998433587676,-0.008999999863581633,0.004999999877891834
0.0036200329195708036,0.002461239229887724,9.88976764678955,-0.0008999999845400453,-0.0004999999655410647,0.06859999895095825,0.004999999877891834,0.024999999806340833,0.013000000266153095
-0.005075707565993071,0.0043766009621322155,9.889785766601562,-0.0008999999845400453,-0.0004999999655410647,0.06859999895095825,0.024999999806340833,-0.019000000453128628,-0.013000000266153095
0.002403778489679098,0.010228029452264309,9.893741607666016,-0.0008999999845400453,-0.0004999999655410647,0.07840000092983246,0.007000000079177565,-0.012000000373951061,0.004999999877891834
-0.008159439079463482,-0.004692635498940945,9.891777992248535,-0.0008999999845400453,-0.0004999999655410647,0.06859999895095825,-0.013000000266153095,0.004999999877891834,-0.0039999999856897995
-0.00010534487955737859,0.0067995330318808556,9.889863014221191,-0.0008999999845400453,-0.0004999999655410647,0.06859999895095825,0.017999999727163266,0.0009999999964224499,0
-0.004175487905740738,-0.004491522442549467,9.876033782958984,-0.0008999999845400453,-0.0004999999655410647,0.058799996972084045,0.01700000066872456,0.007999999971379599,-0.0039999999856897995
0.0012162544298917055,-0.00484586413949728,9.892698287963867,-0.0007999999797903001,-0.0005999999702908099,0.06859999895095825,0.01400000015835513,-0.010999999647985701,0.006000000186975531
0.0005171475349925458,0.0024899698328226805,9.877269744873047,-0.0008999999845400453,-0.0005999999702908099,0.058799996972084045,-0.0019999999928448997,0.0030000000934877653,0.03100000082707969
0.013637373223900795,-0.013915100134909153,9.881665229797363,-0.0007999999797903001,-0.0005999999702908099,0.058799996972084045,0.007000000079177565,0.019000000453128628,-0.0039999999856897995
0.015255853533744812,0.006234501488506794,9.880392074584961,-0.0007999999797903001,-0.0005999999702908099,0.058799996972084045,0.031999999885518396,-0.0039999999856897995,0.010999999647985701
-0.00374453142285347,-0.008293514139950275,9.872346878051758,-0.0007999999797903001,-0.000699999975040555,0.04899999871850014,0.012000000373951061,-0.019000000453128628,-0.0019999999928448997
0.0016663643764331937,0.006856993772089481,9.890839576721191,-0.0007999999797903001,-0.000699999975040555,0.06859999895095825,-0.06099999926066736,-0.007000000079177565,-0.007000000079177565
0.0038019923958927393,-0.015667656436562538,9.8799409866333,-0.0007999999797903001,-0.0004999999655410647,0.058799996972084045,0.031999999885518396,0.014999999216793838,0
0.00013407529331743717,0.0020494365599006414,9.876225471496582,-0.0007999999797903001,-0.0005999999702908099,0.058799996972084045,-0.008999999863581633,-0.021000000237532696,-0.014999999216793838
-0.0012641384964808822,-0.002901772502809763,9.875307083129883,-0.0007999999797903001,-0.0005999999702908099,0.058799996972084045,0.007000000079177565,-0.009999999755783667,0.004999999877891834
0.007479486055672169,-0.0018483237363398075,9.88971996307373,-0.0007999999797903001,-0.0005999999702908099,0.06859999895095825,-0.02800000031671026,-0.007000000079177565,0.021999999295971403
-0.010352528654038906,-0.019728220999240875,9.876542091369629,-0.0007999999797903001,-0.010199999436736107,0.058799996972084045,0.02899999937514897,0.010999999647985701,-0.007999999971379599
0.010658985935151577,0.0011683704797178507,9.883264541625977,-0.0007999999797903001,-0.0004999999655410647,0.06859999895095825,0.010999999647985701,0.035000000395887826,-0.0019999999928448997
0.007345410995185375,-0.015026009641587734,9.880123138427734,-0.000699999975040555,-0.0004999999655410647,0.06859999895095825,0.007000000079177565,-0.019000000453128628,-0.0039999999856897995
-0.012603078037500381,-0.0027293898165225983,9.894278526306152,-0.000699999975040555,-0.0004999999655410647,0.058799996972084045,-0.007000000079177565,0.03699999851276524,-0.021999999295971403
0.013168108649551868,-0.008762778714299202,9.883025169372559,-0.0007999999797903001,-0.0004999999655410647,0.07840000092983246,-0.015999999942759198,-0.007999999971379599,-0.0039999999856897995
0.013168108649551868,-0.008762778714299202,9.883025169372559,-0.000699999975040555,-0.0004999999655410647,0.058799996972084045,-0.015999999942759198,-0.007999999971379599,-0.0039999999856897995
0.008791509084403515,0.004635174293071032,9.877862930297852,-0.000699999975040555,-0.00039999998989515007,0.058799996972084045,-0.02800000031671026,-0.04500000098543482,0.004999999877891834
0.004319139756262302,-0.007115567568689585,9.878504753112793,-0.0007999999797903001,-0.00029999998514540493,0.058799996972084045,-0.05300000012305109,-0.004999999877891834,-0.007000000079177565
0.007230489049106836,-0.009911995381116867,9.885418891906738,-0.0007999999797903001,-0.00019999999494757503,0.058799996972084045,-0.019000000453128628,-0.023000000021936765,0.02800000031671026
-0.005085284356027842,0.0010821791365742683,9.875191688537598,-0.0007999999797903001,-0.00019999999494757503,0.058799996972084045,-0.007999999971379599,-0.0659999978879142,-0.015999999942759198
0.0031699230894446373,0.0047405194491147995,9.88744068145752,-0.0009999999310821295,-0.00019999999494757503,0.06859999895095825,-0.015999999942759198,0.03599999945432653,0.019999999511567335
-0.0027868507895618677,-0.003236960619688034,9.885418891906738,-0.0008999999845400453,-0.00009999999747378752,0.06859999895095825,0.019000000453128628,-0.008999999863581633,0
-0.003869029926136136,0.006761225871741772,9.881013870239258,-0.0008999999845400453,-0.00019999999494757503,0.058799996972084045,-0.05799999875029794,-0.029999998433587676,-0.007000000079177565
-0.01088882889598608,0.0009193734731525183,9.876358985900879,-0.0009999999310821295,0,0.058799996972084045,0.007000000079177565,-0.004999999877891834,-0.0019999999928448997
-0.002202665666118264,-0.007900865748524666,9.890457153320312,-0.0009999999310821295,0,0.06859999895095825,0,-0.004999999877891834,-0.010999999647985701
0.0008619126165285707,0.008580818772315979,9.888273239135742,-0.0009999999310821295,0,0.06859999895095825,0.004999999877891834,0.013000000266153095,0
-0.005363011732697487,-0.00771890627220273,9.90415096282959,-0.0008999999845400453,0,0.08819999545812607,-0.019000000453128628,-0.03100000082707969,0.021999999295971403
0.006876147352159023,0.003734954632818699,9.885974884033203,-0.0009999999310821295,0,0.06859999895095825,-0.012000000373951061,-0.008999999863581633,0.015999999942759198
-0.013311761431396008,-0.006962338462471962,9.886127471923828,-0.0009999999310821295,0,0.06859999895095825,0.004999999877891834,0.007999999971379599,-0.0039999999856897995
-0.0007182605331763625,0.010467450134456158,9.885466575622559,-0.0009999999310821295,0,0.06859999895095825,0.004999999877891834,0.029999998433587676,-0.023000000021936765
0.002231396036222577,0.008082824759185314,9.861841201782227,-0.0008999999845400453,0,0.03920000046491623,-0.0269999995907449,-0.03100000082707969,-0.0429999995335041
0.003361459355801344,-0.0015322890831157565,9.878084182739258,-0.0008999999845400453,0,0.058799996972084045,-0.038000000906257256,-0.0030000000934877653,-0.024000000747902123
-0.0020111293997615576,0.00729752704501152,9.87651252746582,-0.0008999999845400453,0.00009999999747378752,0.058799996972084045,-0.0009999999964224499,0.01700000066872456,-0.031999999885518396
0.005803545005619526,0.004635174293071032,9.881301879882812,-0.0008999999845400453,0.00009999999747378752,0.058799996972084045,-0.019000000453128628,-0.008999999863581633,0.009999999755783667
-0.006167463958263397,-0.00011492168414406478,9.874195098876953,-0.0008999999845400453,0.00009999999747378752,0.058799996972084045,-0.02899999937514897,-0.006000000186975531,0.007000000079177565
0.01014183834195137,-0.016079457476735115,9.889365196228027,-0.0008999999845400453,0.00019999999494757503,0.06859999895095825,-0.012000000373951061,0.008999999863581633,0
0.012526463717222214,0.000804451759904623,9.884537696838379,-0.0008999999845400453,0.00019999999494757503,0.06859999895095825,0.03100000082707969,-0.024000000747902123,-0.004999999877891834
0.011607090011239052,-0.001781286089681089,9.885189056396484,-0.0008999999845400453,0.00019999999494757503,0.06859999895095825,0.004999999877891834,-0.01700000066872456,-0.007000000079177565
0.004711789079010487,0.0007086837431415915,9.8903226852417,-0.0008999999845400453,0.00009999999747378752,0.06859999895095825,0.0009999999964224499,-0.004999999877891834,0
-0.0051044379360973835,-0.00868616346269846,9.893416404724121,-0.0009999999310821295,0.00009999999747378752,0.06859999895095825,0.012000000373951061,0.03100000082707969,0.007999999971379599
-0.0051044379360973835,-0.00868616346269846,9.893416404724121,-0.0008999999845400453,0.00009999999747378752,0.07840000092983246,-0.02600000053230619,-0.004999999877891834,-0.01400000015835513
0.0035051112063229084,-0.003859453136101365,9.885189056396484,-0.0008999999845400453,0.00019999999494757503,0.06859999895095825,-0.048000001495804245,0.019000000453128628,-0.0030000000934877653
-0.0008619126165285707,0.00008619125583209097,9.88403034210205,-0.0007999999797903001,0.00029999998514540493,0.06859999895095825,-0.004999999877891834,-0.004999999877891834,0.017999999727163266
-0.0006320692482404411,0.017899051308631897,9.881780624389648,-0.0007999999797903001,0.00029999998514540493,0.058799996972084045,0.009999999755783667,-0.004999999877891834,-0.0019999999928448997
0.005142745096236467,0.008552088402211666,9.871110916137695,-0.0007999999797903001,0.00029999998514540493,0.04899999871850014,-0.029999998433587676,-0.0009999999964224499,-0.006000000186975531
0.010180145502090454,0.0021643582731485367,9.874703407287598,-0.0007999999797903001,0.00039999998989515007,0.058799996972084045,-0.01400000015835513,0,-0.007999999971379599
-0.015361198224127293,0.0025187002029269934,9.870211601257324,-0.0007999999797903001,0.00039999998989515007,0.04899999871850014,0.004999999877891834,-0.015999999942759198,-0.015999999942759198
-0.003236960619688034,-0.018061857670545578,9.894432067871094,-0.0007999999797903001,0.00039999998989515007,0.07840000092983246,-0.029999998433587676,-0.004999999877891834,-0.007000000079177565
-0.00022984336828812957,0.003955221269279718,9.87668514251709,-0.0007999999797903001,0.0004999999655410647,0.058799996972084045,-0.012000000373951061,-0.0039999999856897995,0.02899999937514897
-0.0026240451261401176,-0.002844311762601137,9.875938415527344,-0.0007999999797903001,0.0004999999655410647,0.058799996972084045,0.004999999877891834,-0.015999999942759198,-0.006000000186975531
-0.006732495501637459,-0.010917559266090393,9.882441520690918,-0.0008999999845400453,0.0004999999655410647,0.058799996972084045,-0.012000000373951061,-0.012000000373951061,0.010999999647985701
0.0038115691859275103,-0.01698925532400608,9.878658294677734,-0.0008999999845400453,0.0004999999655410647,0.058799996972084045,0.023000000021936765,-0.004999999877891834,0.008999999863581633
-0.006406883709132671,0.01618480309844017,9.890724182128906,-0.0008999999845400453,0.00039999998989515007,0.06859999895095825,-0.013000000266153095,-0.048000001495804245,-0.008999999863581633
-0.002844311762601137,-0.015581464394927025,9.893712997436523,-0.0009999999310821295,0.0004999999655410647,0.07840000092983246,-0.03999999902313467,-0.01700000066872456,-0.004999999877891834
0.0024899698328226805,0.004338293336331844,9.883838653564453,-0.0009999999310821295,0.0005999999702908099,0.06859999895095825,0.05200000106461238,0.0039999999856897995,-0.010999999647985701
-0.01308191753923893,-0.003715801052749157,9.88700008392334,-0.0009999999310821295,0.00039999998989515007,0.06859999895095825,0.0009999999964224499,-0.004999999877891834,-0.021000000237532696
0.0107834842056036,0.010065224021673203,9.873706817626953,-0.0009999999310821295,0.00039999998989515007,0.058799996972084045,0.01700000066872456,0.010999999647985701,-0.0539999991814898
-0.003342305775731802,0.0013790600933134556,9.879759788513184,-0.0009999999310821295,0.00029999998514540493,0.058799996972084045,-0.019000000453128628,-0.007000000079177565,-0.01700000066872456
-0.015725117176771164,0.0034284968860447407,9.8809175491333,-0.0009999999310821295,0.00039999998989515007,0.058799996972084045,-0.041000001416626686,0.017999999727163266,-0.006000000186975531
-0.009739612229168415,-0.007240065839141607,9.862961769104004,-0.0008999999845400453,0.0004999999655410647,0.03920000046491623,0.004999999877891834,-0.024000000747902123,-0.0269999995907449
-0.007920019328594208,-0.00793917290866375,9.8814058303833,-0.0009999999310821295,0.0004999999655410647,0.058799996972084045,0.019999999511567335,-0.019999999511567335,-0.006000000186975531
-0.0007469909032806754,0.0009002198348753154,9.894278526306152,-0.0009999999310821295,0.00039999998989515007,0.07840000092983246,-0.03699999851276524,-0.06500000216452881,-0.007000000079177565
-0.00694318488240242,0.0012258312199264765,9.876245498657227,-0.0011999999405816197,0.0004999999655410647,0.058799996972084045,-0.0039999999856897995,-0.01700000066872456,-0.007000000079177565
0.015380351804196835,-0.009538499638438225,9.877699851989746,-0.0011999999405816197,0.0004999999655410647,0.058799996972084045,-0.017999999727163266,-0.05600000063342052,0.007000000079177565
-0.005602431949228048,0.004003105219453573,9.878389358520508,-0.0013000000035390258,0.0005999999702908099,0.058799996972084045,-0.019000000453128628,-0.023000000021936765,0.021000000237532696
0.003945644479244947,0.01059194840490818,9.883800506591797,-0.00139999995008111,0.0005999999702908099,0.058799996972084045,0.004999999877891834,-0.004999999877891834,0.021999999295971403
-0.0013886369997635484,-0.006598419509828091,9.887420654296875,-0.0013000000035390258,0.0005999999702908099,0.06859999895095825,0.009999999755783667,-0.006000000186975531,0.03599999945432653
-0.01874181255698204,-0.006502651609480381,9.885189056396484,-0.0013000000035390258,0.0004999999655410647,0.06859999895095825,-0.012000000373951061,-0.004999999877891834,-0.031999999885518396
0.006607996299862862,0.004079719539731741,9.882834434509277,-0.0013000000035390258,0.0005999999702908099,0.058799996972084045,0.004999999877891834,0.09899999683187131,0.0429999995335041
-0.016156071797013283,-0.007134721148759127,9.876388549804688,-0.0010999999940395355,0.0005999999702908099,0.058799996972084045,-0.019999999511567335,-0.0039999999856897995,-0.004999999877891834
-0.007412448525428772,-0.015322891063988209,9.879587173461914,-0.0009999999310821295,0.0005999999702908099,0.058799996972084045,-0.03899999996469596,-0.021999999295971403,-0.007000000079177565
-0.010180145502090454,-0.008973468095064163,9.882757186889648,-0.0010999999940395355,0.000699999975040555,0.058799996972084045,0.0039999999856897995,0.0039999999856897995,0.0009999999964224499
-0.0016567875863984227,0.001120486413128674,9.869407653808594,-0.0010999999940395355,0.000699999975040555,0.04899999871850014,0.004999999877891834,0.019000000453128628,0.012000000373951061
0.0004309563082642853,-0.0004022258799523115,9.871513366699219,-0.0009999999310821295,0.000699999975040555,0.04899999871850014,-0.007999999971379599,-0.004999999877891834,-0.007000000079177565
-0.0035817257594317198,-0.007699752692133188,9.869378089904785,-0.0009999999310821295,0.000699999975040555,0.04899999871850014,-0.03899999996469596,-0.004999999877891834,0.04600000004387353
-0.008523358032107353,0.004951209295541048,9.879108428955078,-0.0009999999310821295,0.0007999999797903001,0.058799996972084045,-0.019000000453128628,-0.007000000079177565,-0.0019999999928448997
0.001283292076550424,-0.009011775255203247,9.887918472290039,-0.0009999999310821295,0.0007999999797903001,0.06859999895095825,-0.03699999851276524,-0.03100000082707969,0.06700000028140622
0.0030454243533313274,-0.0026815058663487434,9.890083312988281,-0.0010999999940395355,0.0008999999845400453,0.06859999895095825,-0.031999999885518396,-0.024999999806340833,0.0039999999856897995
-0.0031028855592012405,0.007441178895533085,9.882393836975098,-0.0010999999940395355,0.0009999999310821295,0.058799996972084045,0.019999999511567335,-0.006000000186975531,0.023000000021936765
0.008360552601516247,0.0038211459759622812,9.891558647155762,-0.0010999999940395355,0.0008999999845400453,0.06859999895095825,-0.06899999839828364,-0.004999999877891834,0.009999999755783667
0.0003447650233283639,0.011616666801273823,9.875201225280762,-0.0010999999940395355,0.0010999999940395355,0.058799996972084045,0.004999999877891834,0.041000001416626686,-0.035000000395887826
-0.005037400405853987,0.0051044379360973835,9.882987022399902,-0.0009999999310821295,0.0010999999940395355,0.058799996972084045,0.03999999902313467,-0.004999999877891834,0.05499999823992851
-0.001608903519809246,-0.008350975811481476,9.891912460327148,-0.0009999999310821295,0.0008999999845400453,0.06859999895095825,-0.012000000373951061,-0.0019999999928448997,0.009999999755783667
0.010381259024143219,-0.011827356182038784,9.885266304016113,-0.0009999999310821295,0.0009999999310821295,0.06859999895095825,0.0009999999964224499,-0.004999999877891834,-0.007000000079177565
-0.01708502322435379,0.0010055646998807788,9.881627082824707,-0.0009999999310821295,0.0008999999845400453,0.058799996972084045,-0.013000000266153095,-0.007999999971379599,0.03400000133744912
0.008293514139950275,0.0051044379360973835,9.885869026184082,-0.0009999999310821295,0.0009999999310821295,0.06859999895095825,-0.03699999851276524,-0.0030000000934877653,0.012000000373951061
-0.0025282769929617643,0.007115567568689585,9.887372970581055,-0.0009999999310821295,0.0010999999940395355,0.06859999895095825,-0.012000000373951061,-0.0030000000934877653,0.007000000079177565
0.001953668659552932,-0.008073247969150543,9.87805461883545,-0.0009999999310821295,0.0010999999940395355,0.058799996972084045,0.04200000047506539,-0.046999999102312236,0.02800000031671026
-0.0028060043696314096,-0.0015227121766656637,9.884413719177246,-0.0010999999940395355,0.0008999999845400453,0.06859999895095825,0.04500000098543482,-0.010999999647985701,0.017999999727163266
0.01317768543958664,0.009548076428472996,9.879931449890137,-0.0010999999940395355,0.0007999999797903001,0.058799996972084045,-0.014999999216793838,0.0039999999856897995,0.12299999424472013
-0.0026431987062096596,0.0035146879963576794,9.871264457702637,-0.0010999999940395355,0.0007999999797903001,0.058799996972084045,0.021999999295971403,-0.004999999877891834,0.0039999999856897995
-0.003830722765997052,0.00021068975911475718,9.87820816040039,-0.0011999999405816197,0.0007999999797903001,0.04899999871850014,0.006000000186975531,0.01400000015835513,0.009999999755783667
0.0021739350631833076,-0.001120486413128674,9.877498626708984,-0.0011999999405816197,0.000699999975040555,0.058799996972084045,0.006000000186975531,0.01400000015835513,0.009999999755783667
0.0030454243533313274,-0.006052541546523571,9.875823020935059,-0.0011999999405816197,0.000699999975040555,0.058799996972084045,-0.03899999996469596,-0.03100000082707969,-0.014999999216793838
-0.00009576806769473478,-0.009911995381116867,9.887277603149414,-0.0011999999405816197,0.000699999975040555,0.06859999895095825,0.006000000186975531,0.014999999216793838,-0.007000000079177565
-0.00009576806769473478,-0.009911995381116867,9.887277603149414,-0.0011999999405816197,0.000699999975040555,0.06859999895095825,0.006000000186975531,0.014999999216793838,-0.007000000079177565
0.005822698585689068,-0.005851428955793381,9.886003494262695,-0.0011999999405816197,0.000699999975040555,0.058799996972084045,0.0019999999928448997,-0.004999999877891834,0.007000000079177565
0.004606443922966719,-0.019086576998233795,9.88503646850586,-0.0010999999940395355,0.000699999975040555,0.06859999895095825,0.006000000186975531,-0.007000000079177565,-0.07600000181251451
-0.011099519208073616,-0.001455674646422267,9.881254196166992,-0.0010999999940395355,0.0005999999702908099,0.058799996972084045,0.004999999877891834,0.0039999999856897995,-0.0019999999928448997
0.0059184664860367775,0.008657433092594147,9.880200386047363,-0.0010999999940395355,0.0005999999702908099,0.058799996972084045,-0.04900000055424296,0.029999998433587676,-0.014999999216793838
-0.001637633889913559,0.007776367012411356,9.88259506225586,-0.0009999999310821295,0.000699999975040555,0.058799996972084045,-0.03699999851276524,-0.014999999216793838,0.03899999996469596
-0.0023558945395052433,-0.012038045562803745,9.881455421447754,-0.0009999999310821295,0.0007999999797903001,0.058799996972084045,0.008999999863581633,-0.0009999999964224499,0.012000000373951061
-0.006761225871741772,0.00039264908991754055,9.87380313873291,-0.0009999999310821295,0.0007999999797903001,0.058799996972084045,0.0009999999964224499,-0.004999999877891834,0.021000000237532696
0.00684741698205471,-0.009097966365516186,9.87002944946289,-0.0009999999310821295,0.0007999999797903001,0.04899999871850014,0.007000000079177565,-0.0019999999928448997,-0.024000000747902123
-0.012354081496596336,-0.0012066776398569345,9.875076293945312,-0.0009999999310821295,0.000699999975040555,0.058799996972084045,-0.010999999647985701,0.03699999851276524,0.004999999877891834
0.008983044885098934,-0.009768342599272728,9.882843017578125,-0.0008999999845400453,0.0007999999797903001,0.058799996972084045,0.008999999863581633,0.024000000747902123,0
-0.0009289502631872892,0.0050948611460626125,9.868487358093262,-0.0007999999797903001,0.000699999975040555,0.04899999871850014,0.004999999877891834,0.006000000186975531,-0.007000000079177565
0.009777919389307499,-0.004050989169627428,9.896241188049316,-0.0007999999797903001,0.000699999975040555,0.07840000092983246,0.023000000021936765,0.0009999999964224499,0.007999999971379599
0.0012737152865156531,0.0036200329195708036,9.877862930297852,-0.0007999999797903001,0.0005999999702908099,0.058799996972084045,0.03100000082707969,-0.013000000266153095,-0.006000000186975531
-0.008312667720019817,0.022333113476634026,9.879327774047852,-0.0007999999797903001,0.010199999436736107,0.058799996972084045,0.013000000266153095,-0.004999999877891834,0.017999999727163266
-0.008264783769845963,-0.002279279986396432,9.875823020935059,-0.0007999999797903001,0.00039999998989515007,0.058799996972084045,-0.043999998591942806,-0.007999999971379599,-0.007000000079177565
-0.01099417358636856,-0.011329363100230694,9.884662628173828,-0.0007999999797903001,0.0004999999655410647,0.06859999895095825,-0.0039999999856897995,0.021000000237532696,0.009999999755783667
0.012124236673116684,-0.00038307227077893913,9.884930610656738,-0.0007999999797903001,0.0004999999655410647,0.06859999895095825,-0.03400000133744912,-0.04900000055424296,-0.007000000079177565
-0.007058106362819672,0.0003543418715707958,9.869186401367188,-0.0008999999845400453,0.0005999999702908099,0.04899999871850014,0.0039999999856897995,0.0039999999856897995,0
-0.0036296097096055746,0.021155167371034622,9.89064884185791,-0.0008999999845400453,0.010300000198185444,0.06859999895095825,0.0009999999964224499,0.021999999295971403,0.024000000747902123
-0.011731588281691074,0.009768342599272728,9.882622718811035,-0.0007999999797903001,0.00039999998989515007,0.06859999895095825,-0.006000000186975531,0.0039999999856897995,-0.0009999999964224499
-0.011731588281691074,0.009768342599272728,9.882622718811035,-0.0007999999797903001,0.0004999999655410647,0.058799996972084045,-0.008999999863581633,0.012000000373951061,-0.024999999806340833
0.010898405686020851,-0.005813121795654297,9.86567211151123,-0.000699999975040555,0.0004999999655410647,0.04899999871850014,-0.0039999999856897995,0.0009999999964224499,0.017999999727163266
0.003380612935870886,0.00684741698205471,9.879712104797363,-0.000699999975040555,0.0004999999655410647,0.058799996972084045,-0.041000001416626686,-0.0019999999928448997,0.02800000031671026
-0.0015610195696353912,0.0034284968860447407,9.872117042541504,-0.000699999975040555,0.0004999999655410647,0.058799996972084045,0.02800000031671026,-0.019999999511567335,0.029999998433587676
-0.015169661492109299,-0.005583278369158506,9.876819610595703,-0.0007999999797903001,0.0004999999655410647,0.058799996972084045,0.0039999999856897995,0.0019999999928448997,0.03400000133744912
0.001628057099878788,-0.0026719290763139725,9.87656021118164,-0.000699999975040555,0.0004999999655410647,0.058799996972084045,0.038000000906257256,-0.0039999999856897995,0.010999999647985701
0.002566584153100848,-0.0018866308964788914,9.89010238647461,-0.000699999975040555,0.00029999998514540493,0.06859999895095825,-0.05499999823992851,-0.024999999806340833,-0.031999999885518396
0.00026815058663487434,-0.000488417164888233,9.877575874328613,-0.0007999999797903001,0.0004999999655410647,0.058799996972084045,0.0039999999856897995,-0.0009999999964224499,0.035000000395887826
0.008063671179115772,0.0009385270532220602,9.882814407348633,-0.0007999999797903001,0.0004999999655410647,0.058799996972084045,-0.007999999971379599,0.004999999877891834,-0.007000000079177565
0.0004405330982990563,-0.007584830746054649,9.882843017578125,-0.0007999999797903001,0.0004999999655410647,0.058799996972084045,0.013000000266153095,-0.01700000066872456,0.017999999727163266
0.005707777105271816,0.004932055249810219,9.873955726623535,-0.0007999999797903001,0.00039999998989515007,0.058799996972084045,-0.03699999851276524,-0.015999999942759198,0.02600000053230619
-0.01488235779106617,-0.0015035585965961218,9.874061584472656,-0.0007999999797903001,0.0004999999655410647,0.058799996972084045,0.004999999877891834,0.012000000373951061,-0.007000000079177565
0.005161899141967297,-0.013120224699378014,9.879615783691406,-0.0007999999797903001,0.0004999999655410647,0.058799996972084045,-0.0039999999856897995,0.043999998591942806,0.021999999295971403
0.010936712846159935,0.00026815058663487434,9.874482154846191,-0.000699999975040555,0.0004999999655410647,0.058799996972084045,-0.07799999992939192,0.012000000373951061,0.017999999727163266
0.0063781533390283585,-0.014997279271483421,9.882009506225586,-0.0005999999702908099,0.000699999975040555,0.058799996972084045,-0.019999999511567335,-0.006000000186975531,-0.014999999216793838
-0.0030166939832270145,0.012861651368439198,9.880392074584961,-0.0005999999702908099,0.0007999999797903001,0.058799996972084045,-0.008999999863581633,-0.021999999295971403,0.01400000015835513
0.016270993277430534,-0.01517923828214407,9.87668514251709,-0.000699999975040555,0.0007999999797903001,0.058799996972084045,0.023000000021936765,0.004999999877891834,-0.007000000079177565
-0.0036296097096055746,-0.005018246825784445,9.873400688171387,-0.000699999975040555,0.000699999975040555,0.04899999871850014,-0.04600000004387353,0.019999999511567335,0.0269999995907449
-0.002279279986396432,-0.013857639394700527,9.876388549804688,-0.0005999999702908099,0.0007999999797903001,0.058799996972084045,0.01700000066872456,-0.004999999877891834,-0.007000000079177565
0.002834734972566366,-0.003907337319105864,9.878122329711914,-0.0005999999702908099,0.0007999999797903001,0.058799996972084045,-0.019000000453128628,-0.004999999877891834,-0.021000000237532696
0.004577713552862406,-0.002308010356500745,9.879395484924316,-0.0005999999702908099,0.0007999999797903001,0.058799996972084045,0.0039999999856897995,-0.024000000747902123,0.0030000000934877653
0.014355633407831192,-0.004501099232584238,9.881330490112305,-0.000699999975040555,0.0007999999797903001,0.058799996972084045,0.023000000021936765,-0.004999999877891834,0.007000000079177565
-0.004932055249810219,-0.004453215282410383,9.894660949707031,-0.000699999975040555,0.000699999975040555,0.07840000092983246,0,0.012000000373951061,-0.07099999651516105
-0.00020111293997615576,0.0025378537829965353,9.872519493103027,-0.0005999999702908099,0.000699999975040555,0.04899999871850014,-0.012000000373951061,0.021999999295971403,0.004999999877891834
-0.006607996299862862,-0.002442085649818182,9.882719039916992,-0.0005999999702908099,0.000699999975040555,0.058799996972084045,0.029999998433587676,-0.0019999999928448997,0.029999998433587676
0.010668562725186348,0.007450755685567856,9.8955717086792,-0.0005999999702908099,0.0005999999702908099,0.058799996972084045,0,0.019000000453128628,0
0.010668562725186348,0.007450755685567856,9.8955717086792,-0.0005999999702908099,0.000699999975040555,0.07840000092983246,0,0.019000000453128628,0
0.007881712168455124,-0.009605537168681622,9.873679161071777,-0.0005999999702908099,0.000699999975040555,0.058799996972084045,0.006000000186975531,0.019000000453128628,-0.007000000079177565
0.003677493892610073,-0.000019153612811351195,9.876206398010254,-0.0004999999655410647,0.000699999975040555,0.04899999871850014,0.004999999877891834,0.03699999851276524,-0.007000000079177565
-0.0016759412828832865,-0.006253655068576336,9.874922752380371,-0.00039999998989515007,0.0005999999702908099,0.058799996972084045,-0.01700000066872456,-0.004999999877891834,0.007999999971379599
0.0006320692482404411,0.006713341921567917,9.86802864074707,-0.00039999998989515007,0.000699999975040555,0.04899999871850014,-0.04200000047506539,0.0009999999964224499,-0.024000000747902123
-0.008724471554160118,-0.008226476609706879,9.879576683044434,-0.00039999998989515007,0.0007999999797903001,0.058799996972084045,-0.029999998433587676,-0.004999999877891834,0.004999999877891834
0.0033327287528663874,-0.009538499638438225,9.87814998626709,-0.00039999998989515007,0.0008999999845400453,0.058799996972084045,-0.043999998591942806,0.006000000186975531,0.017999999727163266
-0.0070868367329239845,0.015447389334440231,9.882307052612305,-0.00029999998514540493,0.0009999999310821295,0.058799996972084045,0.008999999863581633,-0.004999999877891834,-0.004999999877891834
-0.008753201924264431,0.012047622352838516,9.883915901184082,-0.00029999998514540493,0.0008999999845400453,0.06859999895095825,0.024000000747902123,-0.023000000021936765,-0.004999999877891834
0.012440272606909275,-0.0010630255565047264,9.87548828125,-0.00039999998989515007,0.0007999999797903001,0.058799996972084045,0.0030000000934877653,-0.004999999877891834,-0.007000000079177565
0.005037400405853987,-0.0021643582731485367,9.871198654174805,-0.00039999998989515007,0.0007999999797903001,0.04899999871850014,0.0039999999856897995,-0.0030000000934877653,-0.019999999511567335
-0.005334281362593174,-0.018004396930336952,9.875507354736328,-0.00039999998989515007,0.0007999999797903001,0.058799996972084045,0.007999999971379599,-0.004999999877891834,-0.006000000186975531
-0.0020685901399701834,0.0046543278731405735,9.873372077941895,-0.00039999998989515007,0.0007999999797903001,0.04899999871850014,-0.043999998591942806,0.012000000373951061,0.0030000000934877653
0.018157625570893288,-0.002863465342670679,9.87472152709961,-0.00039999998989515007,0.0008999999845400453,0.058799996972084045,0.006000000186975531,-0.004999999877891834,0.007000000079177565
-0.0033327287528663874,-0.006406883709132671,9.878036499023438,-0.00039999998989515007,0.0008999999845400453,0.058799996972084045,0.04900000055424296,-0.007000000079177565,-0.006000000186975531
-0.0027772739995270967,-0.00694318488240242,9.880200386047363,-0.00039999998989515007,0.000699999975040555,0.058799996972084045,-0.007999999971379599,-0.0009999999964224499,0.02800000031671026
-0.02353021502494812,-0.005209783092141151,9.883139610290527,-0.010099999606609344,0.000699999975040555,0.058799996972084045,0.021999999295971403,-0.007999999971379599,-0.004999999877891834
-0.003227383829653263,0.00914585031569004,9.872509956359863,-0.00029999998514540493,0.000699999975040555,0.04899999871850014,-0.012000000373951061,-0.013000000266153095,0.019000000453128628
-0.005861005745828152,0.005353434942662716,9.88273811340332,-0.00029999998514540493,0.000699999975040555,0.058799996972084045,-0.012000000373951061,0.006000000186975531,-0.048000001495804245
-0.005861005745828152,0.005353434942662716,9.88273811340332,-0.00039999998989515007,0.000699999975040555,0.058799996972084045,-0.012000000373951061,0.006000000186975531,-0.048000001495804245
0.004817133769392967,-0.0023750481195747852,9.885457992553711,-0.00039999998989515007,0.000699999975040555,0.06859999895095825,0.010999999647985701,-0.0039999999856897995,0.0030000000934877653
-0.0018483237363398075,0.002853888552635908,9.884625434875488,-0.00039999998989515007,0.000699999975040555,0.06859999895095825,0.0039999999856897995,0.03699999851276524,0.021999999295971403
0.006971915252506733,0.004721365869045258,9.882230758666992,-0.00029999998514540493,0.000699999975040555,0.058799996972084045,-0.02600000053230619,0.013000000266153095,-0.004999999877891834
-0.011099519208073616,-0.0015514427796006203,9.88676929473877,-0.00019999999494757503,0.000699999975040555,0.06859999895095825,0.004999999877891834,-0.03899999996469596,0.017999999727163266
-0.00329442135989666,0.008504204452037811,9.873496055603027,-0.00029999998514540493,0.000699999975040555,0.04899999871850014,0.008999999863581633,0.007000000079177565,-0.023000000021936765
-0.01139640063047409,-0.009844956919550896,9.878744125366211,-0.00029999998514540493,0.000699999975040555,0.058799996972084045,-0.03999999902313467,0.004999999877891834,0.017999999727163266
-0.007115567568689585,0.006962338462471962,9.879951477050781,-0.00029999998514540493,0.000699999975040555,0.058799996972084045,-0.0039999999856897995,0.009999999755783667,-0.029999998433587676
-0.0031699230894446373,-0.007201758679002523,9.872883796691895,-0.00019999999494757503,0.0007999999797903001,0.04899999871850014,0.006000000186975531,-0.017999999727163266,-0.006000000186975531
0.012765883468091488,-0.0054683564230799675,9.893789291381836,-0.00029999998514540493,0.000699999975040555,0.07840000092983246,-0.02600000053230619,0.05900000114378995,0.017999999727163266
0.0007565676933154464,0.007326257415115833,9.866974830627441,-0.00009999999747378752,0.0007999999797903001,0.04899999871850014,0.0009999999964224499,-0.015999999942759198,-0.0030000000934877653
-0.009528922848403454,0.00619619432836771,9.876062393188477,-0.00019999999494757503,0.0007999999797903001,0.058799996972084045,0.004999999877891834,-0.004999999877891834,-0.012000000373951061
0.000488417164888233,0.002231396036222577,9.872001647949219,-0.00019999999494757503,0.0007999999797903001,0.04899999871850014,0.0039999999856897995,0.06399999977103679,0.010999999647985701
0.0008523358264937997,-0.016156071797013283,9.869281768798828,0,0.000699999975040555,0.04899999871850014,0.03599999945432653,0.014999999216793838,-0.0030000000934877653
0.0021835120860487223,0.0124977333471179,9.878744125366211,0,0.0005999999702908099,0.058799996972084045,0.004999999877891834,-0.015999999942759198,0.029999998433587676
0.0006991068948991597,-0.011310209520161152,9.881598472595215,0,0.0005999999702908099,0.058799996972084045,0.0039999999856897995,-0.004999999877891834,0.008999999863581633
-0.01333091501146555,0.004989516455680132,9.879203796386719,0,0.0005999999702908099,0.058799996972084045,0.015999999942759198,-0.010999999647985701,0.01400000015835513
0.006464344449341297,-0.021796811372041702,9.892765045166016,0,-0.009099999442696571,0.06859999895095825,0.004999999877891834,-0.0039999999856897995,-0.004999999877891834
-0.01708502322435379,0.0010726023465394974,9.884069442749023,-0.00009999999747378752,0.0005999999702908099,0.06859999895095825,-0.03400000133744912,-0.004999999877891834,0
0.009481038898229599,0.007441178895533085,9.875795364379883,-0.00009999999747378752,0.000699999975040555,0.058799996972084045,0.006000000186975531,0,0.03400000133744912
-0.0020494365599006414,-0.008370129391551018,9.871551513671875,-0.00009999999747378752,0.000699999975040555,0.04899999871850014,-0.023000000021936765,-0.0019999999928448997,0.019000000453128628
