Accelerometer_Gx,Accelerometer_Gy,Accelerometer_Gz,Accelerometer_X,Accelerometer_Y,Accelerometer_Z,Gyroscope_Z,Gyroscope_X,Gyroscope_Y
0.0023463177494704723,-0.004625597503036261,9.958921432495117,0,0,0.1371999979019165,0.057000003026912535,-0.03599999945432653,-0.035000000395887826
0.0007182605331763625,-0.0169413723051548,9.955551147460938,0,0,0.1371999979019165,0.057000003026912535,-0.035000000395887826,-0.035000000395887826
0.012660538777709007,0.005286397412419319,9.934069633483887,-0.00009999999747378752,-0.00009999999747378752,0.11759999394416809,-0.06399999977103679,0.024000000747902123,0.02600000053230619
-0.0010055646998807788,-0.00739329494535923,9.94428825378418,0,0,0.1273999959230423,-0.06399999977103679,-0.03599999945432653,0.02600000053230619
0.015313314273953438,-0.005228936672210693,9.94787883758545,-0.00009999999747378752,0.00009999999747378752,0.1273999959230423,0.010999999647985701,-0.0009999999964224499,-0.0009999999964224499
0.007000645622611046,0.008667009882628918,9.93904972076416,-0.00009999999747378752,0,0.1273999959230423,0.019999999511567335,-0.0009999999964224499,-0.004999999877891834
0.007000645622611046,0.008667009882628918,9.93904972076416,0,0,0.11759999394416809,0.0039999999856897995,0.004999999877891834,0.024999999806340833
-0.0035913025494664907,0.003983951639384031,9.94810962677002,0,0,0.1273999959230423,-0.048000001495804245,-0.041000001416626686,-0.041000001416626686
0.0029688100330531597,-0.006675034295767546,9.95149040222168,-0.00009999999747378752,0.00009999999747378752,0.1371999979019165,0.014999999216793838,-0.0009999999964224499,-0.019000000453128628
-0.0035529951564967632,-0.012325351126492023,9.921131134033203,-0.00009999999747378752,0,0.11759999394416809,0.012000000373951061,-0.0009999999964224499,-0.0009999999964224499
0.006445190869271755,-0.0027868507895618677,9.927183151245117,0,0,0.10779999941587448,0,-0.006000000186975531,-0.04900000055424296
0.0030454243533313274,0.013646950013935566,9.92820930480957,0,0,0.10779999941587448,0.0039999999856897995,0.015999999942759198,-0.004999999877891834
-0.0033327287528663874,-0.004089296329766512,9.923583030700684,0.00009999999747378752,0,0.10779999941587448,0.009999999755783667,0.0019999999928448997,-0.012000000373951061
0.00914585031569004,0.000488417164888233,9.928802490234375,0.00009999999747378752,0,0.10779999941587448,0.01400000015835513,-0.03599999945432653,-0.0009999999964224499
0.011166556738317013,-0.0010151414899155498,9.931234359741211,0,0,0.11759999394416809,-0.0019999999928448997,0.019000000453128628,0
0.006224924698472023,0.019613299518823624,9.92379379272461,0,0.00969999935477972,0.10779999941587448,-0.007000000079177565,0.012000000373951061,-0.006000000186975531
0.010438719764351845,-0.005870582535862923,9.927001953125,0.00009999999747378752,0,0.10779999941587448,-0.0030000000934877653,-0.007999999971379599,-0.02600000053230619
-0.0008810661965981126,0.005717353895306587,9.945935249328613,0,0,0.1273999959230423,-0.0269999995907449,0.06399999977103679,-0.004999999877891834
-0.0005554548115469515,0.0058993129059672356,9.932116508483887,0.00019999999494757503,0,0.11759999394416809,-0.017999999727163266,0.008999999863581633,-0.015999999942759198
0.000967257481534034,0.005401318892836571,9.923563003540039,0.00019999999494757503,0,0.10779999941587448,0.014999999216793838,0.04900000055424296,-0.0019999999928448997
-0.0016663643764331937,0.001149216783232987,9.928582191467285,0.00039999998989515007,0,0.10779999941587448,-0.019999999511567335,0.024999999806340833,0.02600000053230619
0.017238251864910126,-0.0043766009621322155,9.92050838470459,0.00039999998989515007,0.00009999999747378752,0.09799999743700027,-0.05200000106461238,-0.0019999999928448997,-0.0019999999928448997
0.00015322890249080956,-0.0033997665159404278,9.916975021362305,0.00039999998989515007,0.00019999999494757503,0.09799999743700027,-0.012000000373951061,-0.0019999999928448997,0.008999999863581633
0.004625597503036261,-0.0015131353866308928,9.908940315246582,0.00039999998989515007,0.00019999999494757503,0.08819999545812607,0.014999999216793838,0.0329999989439571,-0.0009999999964224499
0.011166556738317013,-0.0009959879098460078,9.914380073547363,0.0004999999655410647,0.00019999999494757503,0.09799999743700027,-0.023000000021936765,0.0009999999964224499,-0.021000000237532696
-0.003897760296240449,0.0076422919519245625,9.907705307006836,0.0004999999655410647,0.00019999999494757503,0.08819999545812607,0.0030000000934877653,-0.0329999989439571,0.03699999851276524
0.008781932294368744,0.0021930888760834932,9.90971565246582,0.00039999998989515007,0.00019999999494757503,0.08819999545812607,-0.05600000063342052,-0.017999999727163266,-0.019000000453128628
0.0015227121766656637,0.00803494080901146,9.915336608886719,0.00039999998989515007,0.00039999998989515007,0.09799999743700027,0.014999999216793838,0.031999999885518396,-0.06800000267489824
-0.011856086552143097,0.0015897499397397041,9.91823959350586,0.0004999999655410647,0.00029999998514540493,0.09799999743700027,-0.024999999806340833,-0.0009999999964224499,-0.013000000266153095
0.0005267243832349777,-0.0013215993531048298,9.911372184753418,0.0004999999655410647,0.00039999998989515007,0.08819999545812607,0.03400000133744912,0.0030000000934877653,0
-0.004453215282410383,0.00020111293997615576,9.902389526367188,0.0004999999655410647,0.00029999998514540493,0.07840000092983246,0.03400000133744912,-0.0009999999964224499,-0.02600000053230619
-0.0009959879098460078,-0.0042808325961232185,9.913565635681152,0.0004999999655410647,0.00019999999494757503,0.09799999743700027,0.004999999877891834,-0.009999999755783667,0
-0.001110909623093903,0.003907337319105864,9.915624618530273,0.00039999998989515007,0.00019999999494757503,0.09799999743700027,0.024000000747902123,-0.043999998591942806,0
-0.0025091234128922224,-0.0013790600933134556,9.922979354858398,0.00029999998514540493,0.00009999999747378752,0.08819999545812607,-0.0030000000934877653,-0.010999999647985701,0
0.004951209295541048,0.0025474305730313063,9.91696548461914,0.00029999998514540493,0.00009999999747378752,0.09799999743700027,0.006000000186975531,0.019999999511567335,0.024000000747902123
-0.00020111293997615576,0.0016950948629528284,9.90225601196289,0.00029999998514540493,0.00009999999747378752,0.07840000092983246,-0.012000000373951061,0.02800000031671026,-0.01700000066872456
0.005324704572558403,-0.014547170139849186,9.901308059692383,0.00039999998989515007,0.00009999999747378752,0.07840000092983246,-0.0039999999856897995,-0.010999999647985701,-0.0019999999928448997
0.001781286089681089,-0.006464344449341297,9.929807662963867,0.00039999998989515007,0.00009999999747378752,0.10779999941587448,-0.008999999863581633,-0.03599999945432653,0
0.010630255565047264,0.004692635498940945,9.90731143951416,0.00029999998514540493,0.00019999999494757503,0.08819999545812607,-0.0030000000934877653,0.0030000000934877653,0.015999999942759198
0.004788403399288654,-0.0055641247890889645,9.906296730041504,0.00029999998514540493,0.00019999999494757503,0.08819999545812607,-0.012000000373951061,-0.03599999945432653,-0.0009999999964224499
0.011741165071725845,-0.004960786085575819,9.892563819885254,0.00019999999494757503,0.00019999999494757503,0.06859999895095825,0.03899999996469596,0,0.01700000066872456
0.005056553985923529,0.0014748282264918089,9.909706115722656,0.00019999999494757503,0.00009999999747378752,0.08819999545812607,-0.0269999995907449,0.02800000031671026,0
-0.0042904093861579895,0.009117119945585728,9.90584659576416,0.00029999998514540493,0.00019999999494757503,0.08819999545812607,0.013000000266153095,-0.0009999999964224499,0.0429999995335041
0.008887276984751225,0.009423578158020973,9.894153594970703,0.00029999998514540493,0.00009999999747378752,0.07840000092983246,0.03999999902313467,0.02800000031671026,-0.019000000453128628
0.020197484642267227,-0.010122684761881828,9.900522232055664,0.010099999606609344,0,0.07840000092983246,-0.0030000000934877653,0.006000000186975531,0.019999999511567335
-0.0017908628797158599,0.0063973069190979,9.921446800231934,0.00029999998514540493,0,0.09799999743700027,0.03999999902313467,-0.024000000747902123,0
-0.00009576806769473478,-0.008073247969150543,9.898520469665527,0.00019999999494757503,0,0.07840000092983246,0.05099999867112037,0.03400000133744912,-0.03699999851276524
-0.0006895300466567278,-0.019354727119207382,9.915711402893066,0.00029999998514540493,-0.00989999994635582,0.09799999743700027,-0.007999999971379599,-0.0009999999964224499,0.01400000015835513
-0.005085284356027842,0.006502651609480381,9.908537864685059,0.00029999998514540493,-0.00009999999747378752,0.08819999545812607,0.057000003026912535,-0.041000001416626686,-0.006000000186975531
0.0013790600933134556,-0.005966350436210632,9.91076946258545,0.00019999999494757503,-0.00019999999494757503,0.08819999545812607,-0.0009999999964224499,0.015999999942759198,0
0.0030837319791316986,-0.01798524335026741,9.898970603942871,0.00029999998514540493,-0.00019999999494757503,0.07840000092983246,0.012000000373951061,0.0030000000934877653,-0.009999999755783667
0.015916652977466583,-0.009030928835272789,9.911736488342285,0.00029999998514540493,-0.00019999999494757503,0.08819999545812607,0.023000000021936765,0.01700000066872456,-0.0009999999964224499
-0.0029496564529836178,-0.0035529951564967632,9.905014038085938,0.00029999998514540493,-0.00029999998514540493,0.08819999545812607,0.041000001416626686,-0.0009999999964224499,0.023000000021936765
-0.0013886369997635484,-0.004817133769392967,9.8953218460083,0.00029999998514540493,-0.00039999998989515007,0.07840000092983246,0.019000000453128628,0.04200000047506539,-0.017999999727163266
-0.0027102362364530563,0.013522451743483543,9.89854907989502,0.00039999998989515007,-0.0004999999655410647,0.07840000092983246,-0.010999999647985701,0.0039999999856897995,0.03400000133744912
-0.007134721148759127,-0.0006129156099632382,9.887555122375488,0.00039999998989515007,-0.0004999999655410647,0.07840000092983246,-0.0019999999928448997,-0.008999999863581633,0
-0.01621353253722191,0.008475474081933498,9.900397300720215,0.00039999998989515007,-0.0004999999655410647,0.06859999895095825,0.031999999885518396,-0.017999999727163266,-0.024999999806340833
0.016108188778162003,-0.007374141365289688,9.888598442077637,0.00039999998989515007,-0.0004999999655410647,0.07840000092983246,0.014999999216793838,0.0019999999928448997,0.024000000747902123
-0.00771890627220273,0.009806649759411812,9.899506568908691,0.00029999998514540493,-0.0005999999702908099,0.07840000092983246,0.02800000031671026,-0.019000000453128628,-0.0009999999964224499
-0.00016280572162941098,0.009969456121325493,9.889873504638672,0.00029999998514540493,-0.0005999999702908099,0.06859999895095825,-0.0009999999964224499,0.02800000031671026,-0.0009999999964224499
0.0063781533390283585,0.0013120225630700588,9.902312278747559,0.00029999998514540493,-0.0005999999702908099,0.07840000092983246,-0.013000000266153095,0,-0.008999999863581633
-0.008216899819672108,-0.0047405194491147995,9.900368690490723,0.00029999998514540493,-0.0005999999702908099,0.07840000092983246,0.014999999216793838,-0.014999999216793838,-0.010999999647985701
-0.007450755685567856,0.005774814635515213,9.90464973449707,0.00029999998514540493,-0.0005999999702908099,0.08819999545812607,0.013000000266153095,0.007000000079177565,-0.0009999999964224499
0.009576806798577309,-0.0006033388199284673,9.895033836364746,0.00029999998514540493,-0.000699999975040555,0.07840000092983246,-0.008999999863581633,0,0.0039999999856897995
-0.006138733588159084,0.001149216783232987,9.892026901245117,0.00029999998514540493,-0.0005999999702908099,0.06859999895095825,0.041000001416626686,0.008999999863581633,-0.024999999806340833
0.011128249578177929,0.005133168306201696,9.88682746887207,0.00029999998514540493,-0.000699999975040555,0.06859999895095825,0.004999999877891834,0.021000000237532696,-0.0030000000934877653
0.01219127420336008,-0.01679771952331066,9.896873474121094,0.00039999998989515007,-0.0007999999797903001,0.07840000092983246,0.014999999216793838,0.019999999511567335,-0.004999999877891834
-0.0010151414899155498,0.0035146879963576794,9.899861335754395,0.00039999998989515007,-0.0007999999797903001,0.07840000092983246,-0.0019999999928448997,0.029999998433587676,-0.010999999647985701
-0.007508216425776482,-0.00883939303457737,9.892754554748535,0.0004999999655410647,-0.0007999999797903001,0.06859999895095825,-0.009999999755783667,0.01400000015835513,-0.007000000079177565
0.002317587146535516,0.001618480309844017,9.885199546813965,0.0004999999655410647,-0.000699999975040555,0.06859999895095825,0.03699999851276524,0.0039999999856897995,0.012000000373951061
0.002432508859783411,0.004405331332236528,9.890475273132324,0.0004999999655410647,-0.0007999999797903001,0.06859999895095825,0.009999999755783667,0.021000000237532696,0.024000000747902123
-0.009030928835272789,-0.006426037289202213,9.884356498718262,0.0005999999702908099,-0.0008999999845400453,0.06859999895095825,-0.013000000266153095,-0.0009999999964224499,-0.010999999647985701
0.005018246825784445,0.002087743952870369,9.892803192138672,0.0005999999702908099,-0.0007999999797903001,0.06859999895095825,0.06500000216452881,0.015999999942759198,-0.014999999216793838
-0.01592622883617878,-0.005161899141967297,9.903960227966309,0.0005999999702908099,-0.0009999999310821295,0.08819999545812607,0.0019999999928448997,-0.019000000453128628,-0.0009999999964224499
-0.0006895300466567278,0.007747636642307043,9.894728660583496,0.0005999999702908099,-0.0009999999310821295,0.07840000092983246,0.014999999216793838,0.01700000066872456,0
-0.0006895300466567278,0.007747636642307043,9.894728660583496,0.0005999999702908099,-0.0009999999310821295,0.07840000092983246,0.014999999216793838,0.01700000066872456,0
-0.01298614963889122,0.006636727135628462,9.892716407775879,0.0005999999702908099,-0.0010999999940395355,0.06859999895095825,0.014999999216793838,0.015999999942759198,-0.0009999999964224499
-0.00364876352250576,-0.0014844050165265799,9.895456314086914,0.000699999975040555,-0.0010999999940395355,0.07840000092983246,-0.0019999999928448997,0.007999999971379599,-0.0009999999964224499
-0.009021352045238018,0.0011971008498221636,9.899334907531738,0.000699999975040555,-0.0010999999940395355,0.07840000092983246,0.010999999647985701,0.024999999806340833,0.007999999971379599
0.005382165312767029,-0.022974759340286255,9.892487525939941,0.000699999975040555,-0.010799999348819256,0.06859999895095825,0.007999999971379599,0.0019999999928448997,0.024000000747902123
0.002566584153100848,-0.0021739350631833076,9.889747619628906,0.000699999975040555,-0.0009999999310821295,0.06859999895095825,-0.05300000012305109,0.04900000055424296,-0.02800000031671026
0.0060429647564888,0.0046543278731405735,9.899142265319824,0.0008999999845400453,-0.0008999999845400453,0.07840000092983246,0.014999999216793838,-0.0009999999964224499,0.03999999902313467
-0.0010055646998807788,-0.0034668040461838245,9.877997398376465,0.0007999999797903001,-0.0008999999845400453,0.058799996972084045,0.0269999995907449,0.01700000066872456,-0.009999999755783667
0.009567230008542538,0.004912901669740677,9.880812644958496,0.0008999999845400453,-0.0009999999310821295,0.058799996972084045,-0.0269999995907449,0,0.0019999999928448997
0.005276820622384548,-0.009662997908890247,9.884940147399902,0.0008999999845400453,-0.0008999999845400453,0.06859999895095825,0.015999999942759198,0.01700000066872456,-0.0009999999964224499
-0.011377247050404549,-0.007690175902098417,9.88343620300293,0.0008999999845400453,-0.0009999999310821295,0.06859999895095825,-0.008999999863581633,-0.0009999999964224499,-0.019000000453128628
0.009844956919550896,-0.001934514963068068,9.883974075317383,0.0008999999845400453,-0.0008999999845400453,0.06859999895095825,-0.03100000082707969,-0.007999999971379599,0
0.0020302829798310995,-0.014374786987900734,9.895781517028809,0.0008999999845400453,-0.0007999999797903001,0.07840000092983246,0.05499999823992851,-0.019000000453128628,0.004999999877891834
0.0023654713295400143,-0.009806649759411812,9.88797664642334,0.0007999999797903001,-0.0009999999310821295,0.06859999895095825,-0.02600000053230619,-0.0009999999964224499,-0.019999999511567335
-0.00023942017287481576,-0.009260771796107292,9.903624534606934,0.0007999999797903001,-0.0008999999845400453,0.08819999545812607,-0.023000000021936765,0.035000000395887826,0.0009999999964224499
-0.0008331821882165968,-0.01670195162296295,9.908221244812012,0.0008999999845400453,-0.0007999999797903001,0.08819999545812607,0.014999999216793838,-0.0019999999928448997,-0.023000000021936765
0.002758120186626911,0.0006320692482404411,9.899295806884766,0.0008999999845400453,-0.0008999999845400453,0.07840000092983246,0.01700000066872456,0.04500000098543482,0.012000000373951061
0.0013503297232091427,-0.0063589997589588165,9.88525676727295,0.0009999999310821295,-0.0008999999845400453,0.06859999895095825,-0.007999999971379599,0.0269999995907449,0.008999999863581633
0.007364564575254917,-0.013541605323553085,9.896729469299316,0.0010999999940395355,-0.0008999999845400453,0.07840000092983246,-0.0039999999856897995,-0.012000000373951061,0.008999999863581633
-0.009117119945585728,-0.008054094389081001,9.901211738586426,0.0009999999310821295,-0.0007999999797903001,0.07840000092983246,0.014999999216793838,-0.010999999647985701,-0.0269999995907449
0.0030933087691664696,0.009892841801047325,9.885161399841309,0.0009999999310821295,-0.0008999999845400453,0.06859999895095825,0.014999999216793838,0.024000000747902123,-0.0009999999964224499
-0.004462792072445154,-0.015916652977466583,9.886157035827637,0.0009999999310821295,-0.0008999999845400453,0.06859999895095825,0.05300000012305109,0.015999999942759198,0.0019999999928448997
-0.004395754542201757,0.009605537168681622,9.88802433013916,0.0010999999940395355,-0.0009999999310821295,0.06859999895095825,0.004999999877891834,0,-0.0009999999964224499
0.013962984085083008,-0.004012682009488344,9.888646125793457,0.0010999999940395355,-0.0009999999310821295,0.06859999895095825,-0.0019999999928448997,0,-0.010999999647985701
-0.007211335469037294,0.00849462766200304,9.889758110046387,0.0009999999310821295,-0.0009999999310821295,0.06859999895095825,0.01400000015835513,-0.004999999877891834,-0.0009999999964224499
0.00011492168414406478,-0.009509769268333912,9.907388687133789,0.0009999999310821295,-0.0009999999310821295,0.08819999545812607,0.015999999942759198,-0.021999999295971403,-0.0009999999964224499
0.00018195933080278337,-0.015016432851552963,9.89468002319336,0.0009999999310821295,-0.0010999999940395355,0.07840000092983246,0.014999999216793838,-0.0009999999964224499,-0.02600000053230619
-0.007833828218281269,-0.00014365209790412337,9.897007942199707,0.0008999999845400453,-0.0010999999940395355,0.07840000092983246,-0.015999999942759198,0.05099999867112037,-0.010999999647985701
0.009404424577951431,0.02172977477312088,9.897735595703125,0.0010999999940395355,0.008599999360740185,0.07840000092983246,-0.008999999863581633,0.0039999999856897995,-0.0539999991814898
0.008006210438907146,0.006282385438680649,9.885199546813965,0.0010999999940395355,-0.0010999999940395355,0.06859999895095825,-0.0019999999928448997,-0.004999999877891834,-0.03599999945432653
-0.009825803339481354,-0.004635174293071032,9.88322639465332,0.0010999999940395355,-0.0010999999940395355,0.06859999895095825,-0.06299999737754478,0.0030000000934877653,-0.0009999999964224499
-0.006646303925663233,-0.00006703764665871859,9.890246391296387,0.0010999999940395355,-0.0008999999845400453,0.06859999895095825,-0.01400000015835513,0.0019999999928448997,0.03400000133744912
0.00024899697746150196,-0.00022984336828812957,9.891098976135254,0.0010999999940395355,-0.0008999999845400453,0.06859999895095825,0.014999999216793838,-0.004999999877891834,-0.02600000053230619
0.014346056617796421,-0.0006129156099632382,9.886271476745605,0.0010999999940395355,-0.0008999999845400453,0.06859999895095825,-0.046999999102312236,0.035000000395887826,0.0030000000934877653
0.00859039556235075,0.0033231519628316164,9.88753604888916,0.0011999999405816197,-0.0007999999797903001,0.06859999895095825,0.015999999942759198,0.015999999942759198,-0.0039999999856897995
-0.0013503297232091427,-0.002442085649818182,9.893780708312988,0.0011999999405816197,-0.0007999999797903001,0.07840000092983246,0.004999999877891834,0,-0.006000000186975531
-0.00003830722562270239,-0.0011971008498221636,9.885543823242188,0.0011999999405816197,-0.0007999999797903001,0.06859999895095825,-0.006000000186975531,0.024000000747902123,-0.023000000021936765
-0.018847156316041946,-0.013464991003274918,9.898472785949707,0.0013000000035390258,-0.0007999999797903001,0.07840000092983246,-0.024000000747902123,0.02800000031671026,-0.0009999999964224499
0.008896853774785995,0.004855440929532051,9.896910667419434,0.0013000000035390258,-0.000699999975040555,0.07840000092983246,-0.021000000237532696,-0.021999999295971403,-0.0009999999964224499
-0.0009385270532220602,-0.014451401308178902,9.885103225708008,0.0011999999405816197,-0.000699999975040555,0.06859999895095825,0.008999999863581633,-0.0030000000934877653,-0.02800000031671026
0.004577713552862406,-0.006071695126593113,9.898319244384766,0.0011999999405816197,-0.000699999975040555,0.07840000092983246,0.004999999877891834,0.024999999806340833,0.024000000747902123
-0.007661445531994104,-0.005018246825784445,9.880162239074707,0.0013000000035390258,-0.000699999975040555,0.058799996972084045,-0.0009999999964224499,-0.019999999511567335,0
-0.005267243832349777,0.006426037289202213,9.894843101501465,0.0011999999405816197,-0.000699999975040555,0.07840000092983246,-0.006000000186975531,0.01700000066872456,0
-0.001426944276317954,-0.0027676972094923258,9.882929801940918,0.0011999999405816197,-0.0005999999702908099,0.058799996972084045,-0.0019999999928448997,0.0329999989439571,-0.004999999877891834
-0.005726930685341358,0.0017908628797158599,9.881837844848633,0.0013000000035390258,-0.0005999999702908099,0.058799996972084045,0.024999999806340833,-0.02600000053230619,-0.0019999999928448997
0.01739148050546646,-0.00794874969869852,9.885543823242188,0.0011999999405816197,-0.000699999975040555,0.06859999895095825,0.010999999647985701,0,-0.017999999727163266
-0.005219359882175922,-0.001139639993198216,9.880467414855957,0.0011999999405816197,-0.000699999975040555,0.058799996972084045,-0.006000000186975531,-0.038000000906257256,-0.007000000079177565
-0.006770802661776543,0.004137180279940367,9.893559455871582,0.0010999999940395355,-0.000699999975040555,0.07840000092983246,-0.006000000186975531,-0.019999999511567335,0.01700000066872456
-0.007862558588385582,0.01114740315824747,9.885141372680664,0.0009999999310821295,-0.000699999975040555,0.06859999895095825,0.006000000186975531,0,0.0269999995907449
0.003217807039618492,0.0009864111198112369,9.896661758422852,0.0009999999310821295,-0.000699999975040555,0.07840000092983246,-0.023000000021936765,-0.0019999999928448997,-0.0429999995335041
-0.0009097966831177473,0.002451662439852953,9.883963584899902,0.0009999999310821295,-0.0005999999702908099,0.06859999895095825,0.010999999647985701,-0.019999999511567335,0.0009999999964224499
0.004702212288975716,-0.008169015869498253,9.876829147338867,0.0008999999845400453,-0.0005999999702908099,0.058799996972084045,-0.023000000021936765,0.014999999216793838,-0.01400000015835513
0.002901772502809763,0.0007948749698698521,9.888580322265625,0.0009999999310821295,-0.0005999999702908099,0.06859999895095825,0.006000000186975531,0,0
-0.01333091501146555,-0.006550535559654236,9.8811674118042,0.0009999999310821295,-0.0005999999702908099,0.058799996972084045,-0.04500000098543482,-0.0019999999928448997,-0.012000000373951061
-0.0036008793395012617,0.008542511612176895,9.899209976196289,0.0008999999845400453,-0.00039999998989515007,0.058799996972084045,0.012000000373951061,0.024999999806340833,-0.004999999877891834
0.01099417358636856,0.011300632730126381,9.887191772460938,0.0010999999940395355,-0.00039999998989515007,0.06859999895095825,0.012000000373951061,0.029999998433587676,-0.023000000021936765
-0.0020015526097267866,0.0010342950699850917,9.903386116027832,0.0010999999940395355,-0.00039999998989515007,0.08819999545812607,-0.004999999877891834,-0.06500000216452881,0.03599999945432653
-0.008350975811481476,-0.01223915908485651,9.892553329467773,0.0008999999845400453,-0.00039999998989515007,0.06859999895095825,-0.015999999942759198,0.007000000079177565,0.021000000237532696
0.005765237845480442,0.003265690989792347,9.899076461791992,0.0009999999310821295,-0.00039999998989515007,0.07840000092983246,-0.007000000079177565,-0.024999999806340833,0.004999999877891834
0.0050661307759583,0.0018387469463050365,9.892860412597656,0.0008999999845400453,-0.00029999998514540493,0.07840000092983246,0.0539999991814898,-0.0009999999964224499,-0.014999999216793838
0.016740258783102036,-0.005228936672210693,9.888263702392578,0.0008999999845400453,-0.0004999999655410647,0.06859999895095825,0.029999998433587676,0.021000000237532696,-0.021999999295971403
-0.003715801052749157,-0.0055353944189846516,9.888493537902832,0.0008999999845400453,-0.0005999999702908099,0.06859999895095825,0.007999999971379599,0.007000000079177565,0.01700000066872456
-0.0043670241720974445,-0.011798625811934471,9.893367767333984,0.0008999999845400453,-0.0005999999702908099,0.07840000092983246,0.007999999971379599,-0.009999999755783667,0.0019999999928448997
0.004529829602688551,-0.004079719539731741,9.890628814697266,0.0008999999845400453,-0.0005999999702908099,0.06859999895095825,0.0019999999928448997,-0.0019999999928448997,0.0009999999964224499
0.00008619125583209097,-0.0017525556031614542,9.893109321594238,0.0008999999845400453,-0.0005999999702908099,0.07840000092983246,-0.05999999686717535,-0.0019999999928448997,-0.010999999647985701
-0.0023271639365702868,-0.009777919389307499,9.895044326782227,0.0008999999845400453,-0.00039999998989515007,0.07840000092983246,0.03699999851276524,0.0009999999964224499,0.0030000000934877653
-0.0037636850029230118,-0.004481945652514696,9.898721694946289,0.0008999999845400453,-0.0004999999655410647,0.07840000092983246,0.021999999295971403,0.004999999877891834,0
-0.00823605339974165,-0.008350975811481476,9.899325370788574,0.0008999999845400453,-0.0005999999702908099,0.07840000092983246,0.0019999999928448997,-0.019999999511567335,-0.021999999295971403
-0.011913547292351723,0.005133168306201696,9.894575119018555,0.0007999999797903001,-0.0005999999702908099,0.07840000092983246,0.0019999999928448997,-0.0019999999928448997,0.035000000395887826
-0.005487510003149509,-0.008829816244542599,9.900856971740723,0.0007999999797903001,-0.0005999999702908099,0.07840000092983246,0.019999999511567335,0.019000000453128628,-0.021999999295971403
-0.0076422919519245625,0.0055641247890889645,9.904065132141113,0.0007999999797903001,-0.0005999999702908099,0.08819999545812607,0.008999999863581633,-0.0019999999928448997,0.0030000000934877653
-0.006560112349689007,0.004855440929532051,9.867539405822754,0.0007999999797903001,-0.0005999999702908099,0.04899999871850014,-0.023000000021936765,-0.01400000015835513,-0.007000000079177565
-0.005832275375723839,0.010352528654038906,9.886061668395996,0.0007999999797903001,-0.0005999999702908099,0.06859999895095825,0.0429999995335041,0.021999999295971403,0.021000000237532696
0.0012545617064461112,0.0020302829798310995,9.880066871643066,0.0007999999797903001,-0.000699999975040555,0.058799996972084045,0.012000000373951061,-0.0039999999856897995,-0.0030000000934877653
0.01308191753923893,-0.006186617538332939,9.894344329833984,0.0007999999797903001,-0.000699999975040555,0.07840000092983246,0.012000000373951061,0.0329999989439571,0.0030000000934877653
-0.01158793643116951,0.0013503297232091427,9.881760597229004,0.0008999999845400453,-0.000699999975040555,0.058799996972084045,-0.007999999971379599,0.012000000373951061,0.0030000000934877653
0.0017525556031614542,0.020887015387415886,9.87989330291748,0.0008999999845400453,0.008899999782443047,0.058799996972084045,-0.02899999937514897,0,0.019999999511567335
-0.008418013341724873,-0.0018579005263745785,9.880698204040527,0.0008999999845400453,-0.000699999975040555,0.058799996972084045,0.010999999647985701,0.006000000186975531,0.0039999999856897995
0.0025282769929617643,-0.012717999517917633,9.898750305175781,0.0008999999845400453,-0.000699999975040555,0.04899999871850014,0.012000000373951061,-0.0019999999928448997,-0.015999999942759198
-0.000641646038275212,-0.007805097382515669,9.88481616973877,0.0008999999845400453,-0.0008999999845400453,0.06859999895095825,0.0329999989439571,-0.019000000453128628,0.0019999999928448997
-0.0034476504661142826,0.011674127541482449,9.886597633361816,0.0007999999797903001,-0.0009999999310821295,0.06859999895095825,-0.0429999995335041,0.007000000079177565,0.013000000266153095
0.004127603489905596,0.00994072575122118,9.893109321594238,0.0007999999797903001,-0.0007999999797903001,0.07840000092983246,0.010999999647985701,-0.010999999647985701,0.0030000000934877653
0.0009193734731525183,0.004797980189323425,9.895082473754883,0.0007999999797903001,-0.0008999999845400453,0.07840000092983246,-0.019999999511567335,-0.006000000186975531,0.03100000082707969
-0.00022026654914952815,0.0025091234128922224,9.893732070922852,0.000699999975040555,-0.0007999999797903001,0.07840000092983246,0.0009999999964224499,0.007000000079177565,-0.0019999999928448997
-0.009404424577951431,-0.009308655746281147,9.876283645629883,0.0007999999797903001,-0.0007999999797903001,0.058799996972084045,0.007999999971379599,-0.0009999999964224499,-0.01400000015835513
-0.002221819246187806,0.0053917421028018,9.893952369689941,0.000699999975040555,-0.0007999999797903001,0.07840000092983246,0.031999999885518396,0.041000001416626686,0.006000000186975531
-0.0017334020230919123,0.0020590133499354124,9.88432788848877,0.0007999999797903001,-0.0008999999845400453,0.06859999895095825,0.010999999647985701,0.014999999216793838,0.007000000079177565
-0.002135627903044224,-0.0053917421028018,9.88110065460205,0.0008999999845400453,-0.0008999999845400453,0.058799996972084045,0.012000000373951061,-0.0019999999928448997,-0.007000000079177565
0.0034093433059751987,-0.001915361382998526,9.88944149017334,0.0008999999845400453,-0.0008999999845400453,0.06859999895095825,0.007000000079177565,0.02600000053230619,0.024000000747902123
-0.01398213766515255,-0.004865017719566822,9.889479637145996,0.0008999999845400453,-0.0008999999845400453,0.06859999895095825,0.0039999999856897995,-0.0019999999928448997,0.01700000066872456
0.0005937620298936963,-0.0008331821882165968,9.889327049255371,0.0008999999845400453,-0.0008999999845400453,0.06859999895095825,-0.04200000047506539,0.019000000453128628,0.0030000000934877653
0.004328716546297073,0.004529829602688551,9.888092041015625,0.0008999999845400453,-0.0007999999797903001,0.06859999895095825,0.012000000373951061,-0.05300000012305109,-0.021999999295971403
0.009126696735620499,0.003734954632818699,9.888033866882324,0.0007999999797903001,-0.0007999999797903001,0.06859999895095825,0.019000000453128628,-0.0019999999928448997,-0.029999998433587676
0.0020302829798310995,-0.001915361382998526,9.893396377563477,0.0007999999797903001,-0.0008999999845400453,0.07840000092983246,0.012000000373951061,-0.0019999999928448997,0.023000000021936765
0.01087925210595131,-0.0020015526097267866,9.879558563232422,0.0007999999797903001,-0.0008999999845400453,0.058799996972084045,0.009999999755783667,-0.0019999999928448997,0.024000000747902123
0.0037636850029230118,-0.00529597420245409,9.896480560302734,0.000699999975040555,-0.0008999999845400453,0.07840000092983246,-0.012000000373951061,-0.0009999999964224499,-0.023000000021936765
0.0003064578049816191,-0.002202665666118264,9.88868522644043,0.000699999975040555,-0.0008999999845400453,0.06859999895095825,-0.01400000015835513,-0.0019999999928448997,0.004999999877891834
-0.018617311492562294,-0.0070964135229587555,9.88241195678711,0.000699999975040555,-0.0007999999797903001,0.058799996972084045,-0.029999998433587676,0.007000000079177565,-0.0019999999928448997
-0.018617311492562294,-0.0070964135229587555,9.88241195678711,0.000699999975040555,-0.0007999999797903001,0.058799996972084045,-0.029999998433587676,0.007000000079177565,-0.0019999999928448997
-0.01068771630525589,0.00274854339659214,9.882441520690918,0.000699999975040555,-0.000699999975040555,0.058799996972084045,0.012000000373951061,-0.024999999806340833,0.013000000266153095
-0.0026431987062096596,0.0052002063021063805,9.898425102233887,0.000699999975040555,-0.0007999999797903001,0.07840000092983246,-0.012000000373951061,-0.01400000015835513,0.0030000000934877653
0.011501745320856571,0.008542511612176895,9.88579273223877,0.0005999999702908099,-0.000699999975040555,0.06859999895095825,0.010999999647985701,0.021999999295971403,0.0030000000934877653
-0.004606443922966719,-0.0034572272561490536,9.881138801574707,0.000699999975040555,-0.000699999975040555,0.06859999895095825,-0.007000000079177565,-0.004999999877891834,0.0030000000934877653
-0.004108449909836054,-0.009404424577951431,9.886223793029785,0.0005999999702908099,-0.000699999975040555,0.06859999895095825,0.010999999647985701,-0.02800000031671026,-0.021999999295971403
0.0029592332430183887,-0.0019632454495877028,9.872365951538086,0.0004999999655410647,-0.0007999999797903001,0.04899999871850014,0.012000000373951061,0.017999999727163266,0.0009999999964224499
-0.009021352045238018,-0.011195287108421326,9.882939338684082,0.0005999999702908099,-0.0007999999797903001,0.058799996972084045,0.029999998433587676,-0.0019999999928448997,0.0030000000934877653
-0.008341399021446705,-0.0018387469463050365,9.87739372253418,0.0005999999702908099,-0.0008999999845400453,0.058799996972084045,-0.023000000021936765,-0.021000000237532696,0.021000000237532696
0.00028730419580824673,-0.011645397171378136,9.880956649780273,0.0004999999655410647,-0.0007999999797903001,0.058799996972084045,-0.023000000021936765,0.0009999999964224499,0.0030000000934877653
0.00028730419580824673,-0.011645397171378136,9.880956649780273,0.0004999999655410647,-0.0007999999797903001,0.058799996972084045,-0.023000000021936765,0.0009999999964224499,0.0030000000934877653
0.008628702722489834,-0.015246276743710041,9.890887260437012,0.0004999999655410647,-0.000699999975040555,0.06859999895095825,-0.010999999647985701,0.021000000237532696,0.0019999999928448997
-0.0012258312199264765,-0.008274360559880733,9.892248153686523,0.0004999999655410647,-0.000699999975040555,0.06859999895095825,-0.01400000015835513,-0.0019999999928448997,-0.01700000066872456
0.0004118026699870825,0.0009002198348753154,9.893454551696777,0.0004999999655410647,-0.0005999999702908099,0.07840000092983246,0.009999999755783667,-0.0019999999928448997,-0.006000000186975531
0.004673481918871403,-0.02059013396501541,9.881579399108887,0.0004999999655410647,-0.000699999975040555,0.07840000092983246,0.03699999851276524,0.007999999971379599,0.019999999511567335
0.004673481918871403,-0.02059013396501541,9.881579399108887,0.00039999998989515007,-0.010300000198185444,0.058799996972084045,0.03699999851276524,0.007999999971379599,0.019999999511567335
-0.0107834842056036,-0.005659893155097961,9.883235931396484,0.00039999998989515007,-0.0005999999702908099,0.058799996972084045,0.06899999839828364,-0.038000000906257256,0.0030000000934877653
-0.023405715823173523,0.004568136762827635,9.88530445098877,-0.00930000003427267,-0.0007999999797903001,0.06859999895095825,0.010999999647985701,0.014999999216793838,-0.010999999647985701
0.004271255806088448,-0.0019728222396224737,9.881790161132812,0.0004999999655410647,-0.0007999999797903001,0.058799996972084045,0.012000000373951061,-0.0030000000934877653,0.013000000266153095
0.004271255806088448,-0.0019728222396224737,9.881790161132812,0.00039999998989515007,-0.0007999999797903001,0.058799996972084045,0.012000000373951061,-0.0030000000934877653,0.013000000266153095
-0.007699752692133188,0.005276820622384548,9.877997398376465,0.00039999998989515007,-0.000699999975040555,0.058799996972084045,0.0009999999964224499,-0.0019999999928448997,0.0019999999928448997
-0.003236960619688034,-0.007029375992715359,9.883992195129395,0.00039999998989515007,-0.000699999975040555,0.06859999895095825,0,-0.0009999999964224499,0.007000000079177565
0.002863465342670679,0.003840299556031823,9.8873929977417,0.00039999998989515007,-0.000699999975040555,0.06859999895095825,0.009999999755783667,-0.0019999999928448997,0.0030000000934877653
-0.012737153097987175,-0.009500192478299141,9.889269828796387,0.00039999998989515007,-0.000699999975040555,0.06859999895095825,0.02800000031671026,0.012000000373951061,0.007000000079177565
0.009653421118855476,0.004443638492375612,9.885209083557129,0.00039999998989515007,-0.0007999999797903001,0.06859999895095825,0.012000000373951061,0.02600000053230619,0.03100000082707969
-0.006406883709132671,0.005123591516166925,9.88700008392334,0.0004999999655410647,-0.0007999999797903001,0.06859999895095825,0.006000000186975531,0.023000000021936765,0.0329999989439571
0.0027389666065573692,0.009011775255203247,9.887104034423828,0.0004999999655410647,-0.0007999999797903001,0.06859999895095825,-0.015999999942759198,0.0429999995335041,-0.006000000186975531
-0.0009002198348753154,0.007987056858837605,9.888771057128906,0.0005999999702908099,-0.0007999999797903001,0.06859999895095825,-0.006000000186975531,-0.038000000906257256,0.02800000031671026
0.002231396036222577,0.009155427105724812,9.889758110046387,0.0004999999655410647,-0.0007999999797903001,0.06859999895095825,0.012000000373951061,0,0.024999999806340833
-0.006962338462471962,-0.004232948645949364,9.886405944824219,0.0004999999655410647,-0.0007999999797903001,0.06859999895095825,0.012000000373951061,0.021000000237532696,0.0030000000934877653
-0.011156979948282242,-0.010869675315916538,9.890734672546387,0.0005999999702908099,-0.0007999999797903001,0.06859999895095825,-0.012000000373951061,-0.015999999942759198,0.0030000000934877653
0.009069235995411873,-0.008973468095064163,9.882220268249512,0.0004999999655410647,-0.0007999999797903001,0.058799996972084045,-0.0329999989439571,0.02899999937514897,0.02800000031671026
-0.011348516680300236,-0.003955221269279718,9.887191772460938,0.0005999999702908099,-0.000699999975040555,0.06859999895095825,0.0009999999964224499,-0.0039999999856897995,0.008999999863581633
0.001934514963068068,-0.02232353575527668,9.892505645751953,0.0005999999702908099,-0.010400000028312206,0.06859999895095825,-0.013000000266153095,-0.02800000031671026,0.010999999647985701
0.0030550011433660984,0.007029375992715359,9.888618469238281,0.0004999999655410647,-0.0004999999655410647,0.06859999895095825,0.03100000082707969,-0.0019999999928448997,-0.007999999971379599
0.0002585737674962729,-0.004769249819219112,9.876751899719238,0.0004999999655410647,-0.0005999999702908099,0.058799996972084045,-0.014999999216793838,0.019000000453128628,0.021000000237532696
0.006311115808784962,0.0015801731497049332,9.895647048950195,0.0004999999655410647,-0.0004999999655410647,0.07840000092983246,0.007999999971379599,-0.015999999942759198,-0.015999999942759198
0.004893748089671135,-0.004539406392723322,9.88829231262207,0.0004999999655410647,-0.0005999999702908099,0.06859999895095825,-0.023000000021936765,0.014999999216793838,0.0030000000934877653
-0.0035913025494664907,-0.012832920998334885,9.894306182861328,0.0004999999655410647,-0.0004999999655410647,0.07840000092983246,0.009999999755783667,-0.0030000000934877653,0.0030000000934877653
-0.0042904093861579895,-0.0027102362364530563,9.88829231262207,0.0004999999655410647,-0.0004999999655410647,0.06859999895095825,0.0019999999928448997,0.02600000053230619,0.03899999996469596
0.007144297938793898,-0.006311115808784962,9.890658378601074,0.0005999999702908099,-0.0004999999655410647,0.06859999895095825,0.009999999755783667,-0.0009999999964224499,0.02899999937514897
-0.0016950948629528284,-0.0052002063021063805,9.885706901550293,0.0005999999702908099,-0.0004999999655410647,0.06859999895095825,0.010999999647985701,-0.0019999999928448997,0
0.013838485814630985,-0.006933608092367649,9.889853477478027,0.0004999999655410647,-0.0005999999702908099,0.06859999895095825,0.013000000266153095,0.03999999902313467,-0.0009999999964224499
0.002308010356500745,-0.003208230249583721,9.885706901550293,0.000699999975040555,-0.0005999999702908099,0.06859999895095825,0,0.007000000079177565,0.0030000000934877653
0.002288856776431203,-0.0015897499397397041,9.885065078735352,0.000699999975040555,-0.0005999999702908099,0.06859999895095825,0.012000000373951061,-0.02800000031671026,0.0039999999856897995
-0.0018195933662354946,-0.007776367012411356,9.88720989227295,0.0005999999702908099,-0.0005999999702908099,0.06859999895095825,-0.012000000373951061,-0.006000000186975531,-0.043999998591942806
0.016903065145015717,-0.005669469945132732,9.886693000793457,0.0005999999702908099,-0.0005999999702908099,0.06859999895095825,0.010999999647985701,0.015999999942759198,-0.021000000237532696
0.005238513462245464,-0.02163400687277317,9.884930610656738,0.0005999999702908099,-0.010300000198185444,0.06859999895095825,-0.04900000055424296,0.023000000021936765,-0.031999999885518396
-0.007422025315463543,0.003227383829653263,9.884940147399902,0.0005999999702908099,-0.00039999998989515007,0.06859999895095825,0.008999999863581633,0.015999999942759198,0.0030000000934877653
-0.005305550992488861,0.00868616346269846,9.893607139587402,0.000699999975040555,-0.00039999998989515007,0.07840000092983246,0.015999999942759198,-0.019999999511567335,-0.010999999647985701
-0.004242525435984135,0.001608903519809246,9.877634048461914,0.0005999999702908099,-0.00039999998989515007,0.058799996972084045,-0.004999999877891834,0.021999999295971403,0.02800000031671026
0.0004022258799523115,0.005248090252280235,9.89407730102539,0.000699999975040555,-0.00039999998989515007,0.07840000092983246,0.012000000373951061,-0.019000000453128628,0.0030000000934877653
-0.006406883709132671,0.013417107053101063,9.885946273803711,0.0005999999702908099,-0.00039999998989515007,0.06859999895095825,0.007000000079177565,0.0429999995335041,0.0009999999964224499
0.006272808648645878,-0.014767436310648918,9.881885528564453,0.000699999975040555,-0.00039999998989515007,0.058799996972084045,0.02600000053230619,0.03599999945432653,0.0030000000934877653
0.02398032322525978,0.003208230249583721,9.887162208557129,0.010499999858438969,-0.0004999999655410647,0.06859999895095825,0.009999999755783667,0.04200000047506539,0.014999999216793838
0.01508347038179636,-0.005449202843010426,9.882987022399902,0.0007999999797903001,-0.0004999999655410647,0.058799996972084045,-0.02899999937514897,-0.0039999999856897995,-0.007000000079177565
0.010524910874664783,0.00562158552929759,9.884960174560547,0.0007999999797903001,-0.00039999998989515007,0.06859999895095825,-0.013000000266153095,-0.035000000395887826,0.0019999999928448997
0.009768342599272728,0.0003543418715707958,9.87734603881836,0.000699999975040555,-0.00039999998989515007,0.058799996972084045,-0.0009999999964224499,-0.04600000004387353,-0.015999999942759198
0.007766790222376585,0.004347870126366615,9.874454498291016,0.0004999999655410647,-0.00039999998989515007,0.058799996972084045,0.021999999295971403,-0.019999999511567335,0.02600000053230619
0.011607090011239052,-0.001436521066352725,9.879951477050781,0.0004999999655410647,-0.00039999998989515007,0.058799996972084045,-0.021000000237532696,-0.0039999999856897995,-0.006000000186975531
0.0018674773164093494,0.009567230008542538,9.893914222717285,0.0004999999655410647,-0.00039999998989515007,0.07840000092983246,-0.041000001416626686,-0.0019999999928448997,-0.03999999902313467
0.0006607996765524149,-0.008734048344194889,9.876522064208984,0.0004999999655410647,-0.00029999998514540493,0.058799996972084045,0.012000000373951061,-0.02800000031671026,0.0009999999964224499
0.00027772740577347577,-0.003361459355801344,9.887104034423828,0.00039999998989515007,-0.00029999998514540493,0.06859999895095825,0.007000000079177565,-0.0429999995335041,0.029999998433587676
0.005046977195888758,-0.006933608092367649,9.886453628540039,0.00019999999494757503,-0.00029999998514540493,0.06859999895095825,0.012000000373951061,-0.0019999999928448997,-0.008999999863581633
0.01517923828214407,0.007785943802446127,9.890235900878906,0.00019999999494757503,-0.00029999998514540493,0.06859999895095825,-0.004999999877891834,0.014999999216793838,-0.0019999999928448997
-0.009069235995411873,0.005430049262940884,9.901747703552246,0.00029999998514540493,-0.00029999998514540493,0.07840000092983246,0.009999999755783667,0.0009999999964224499,0.006000000186975531
-0.007575253956019878,-0.00036391866160556674,9.891826629638672,0.00029999998514540493,-0.00029999998514540493,0.06859999895095825,0.012000000373951061,-0.0019999999928448997,0.017999999727163266
-0.00038307227077893913,0.0015418659895658493,9.88170337677002,0.00029999998514540493,-0.00039999998989515007,0.058799996972084045,-0.08799999718388561,-0.0019999999928448997,-0.04600000004387353
-0.006253655068576336,-0.007307103835046291,9.892784118652344,0.00029999998514540493,-0.00009999999747378752,0.06859999895095825,-0.0019999999928448997,0.014999999216793838,-0.023000000021936765
-0.006253655068576336,-0.007307103835046291,9.892784118652344,0.00029999998514540493,-0.00009999999747378752,0.06859999895095825,-0.0019999999928448997,0.014999999216793838,-0.023000000021936765
0.0018866308964788914,-0.0071059903129935265,9.879013061523438,0.00029999998514540493,-0.00009999999747378752,0.07840000092983246,0.008999999863581633,-0.03100000082707969,0.004999999877891834
-0.007201758679002523,0.006627150345593691,9.884634017944336,0.00019999999494757503,-0.00019999999494757503,0.06859999895095825,-0.0009999999964224499,0.0030000000934877653,0.0030000000934877653
0.0038115691859275103,0.0003543418715707958,9.877058982849121,0.00019999999494757503,-0.00019999999494757503,0.058799996972084045,0.0019999999928448997,-0.0269999995907449,0.0030000000934877653
-0.009672574698925018,-0.006483498029410839,9.880736351013184,0.00009999999747378752,-0.00019999999494757503,0.058799996972084045,0.010999999647985701,0.041000001416626686,0.0030000000934877653
-0.004817133769392967,0.00619619432836771,9.87504768371582,0.00029999998514540493,-0.00019999999494757503,0.058799996972084045,-0.015999999942759198,-0.0039999999856897995,-0.021999999295971403
0.004884171299636364,-0.009251195006072521,9.881885528564453,0.00019999999494757503,-0.00019999999494757503,0.058799996972084045,0.031999999885518396,0.021999999295971403,0.0030000000934877653
-0.006339846178889275,0.002911349292844534,9.882795333862305,0.00029999998514540493,-0.00029999998514540493,0.058799996972084045,0.012000000373951061,-0.02800000031671026,0.0039999999856897995
-0.004912901669740677,-0.0007374141132459044,9.897073745727539,0.00019999999494757503,-0.00029999998514540493,0.07840000092983246,-0.031999999885518396,-0.004999999877891834,0.019000000453128628
-0.011607090011239052,0.0025378537829965353,9.891606330871582,0.00019999999494757503,-0.00019999999494757503,0.06859999895095825,0.0039999999856897995,-0.021000000237532696,0.0019999999928448997
-0.0055353944189846516,-0.005152322351932526,9.893559455871582,0.00009999999747378752,-0.00019999999494757503,0.07840000092983246,0.010999999647985701,-0.0019999999928448997,0.03599999945432653
-0.011913547292351723,-0.009749189019203186,9.886894226074219,0.00009999999747378752,-0.00019999999494757503,0.06859999895095825,0.03599999945432653,-0.031999999885518396,0.0030000000934877653
-0.01658702827990055,-0.012631808407604694,9.893301010131836,0,-0.00029999998514540493,0.07840000092983246,0.013000000266153095,-0.0019999999928448997,0
0.008312667720019817,-0.004807556979358196,9.889623641967773,0,-0.00039999998989515007,0.06859999895095825,0.03899999996469596,-0.0019999999928448997,0.0539999991814898
-0.016060303896665573,0.003983951639384031,9.891375541687012,0,-0.0004999999655410647,0.06859999895095825,0.007999999971379599,0.012000000373951061,0.0659999978879142
0.003715801052749157,-0.0016759412828832865,9.891501426696777,0.00009999999747378752,-0.0004999999655410647,0.06859999895095825,-0.007000000079177565,-0.006000000186975531,-0.03999999902313467
0.0127946138381958,0.004999093245714903,9.886165618896484,0,-0.00039999998989515007,0.06859999895095825,-0.008999999863581633,-0.0019999999928448997,0.0039999999856897995
0.0007757213898003101,-0.002853888552635908,9.880831718444824,0,-0.00039999998989515007,0.058799996972084045,0.009999999755783667,-0.006000000186975531,0.0030000000934877653
0.006636727135628462,-0.007067683152854443,9.873993873596191,0,-0.00039999998989515007,0.058799996972084045,0.0019999999928448997,0.021999999295971403,0.01400000015835513
-0.003572148969396949,0.006665457505732775,9.888790130615234,0.00009999999747378752,-0.00039999998989515007,0.06859999895095825,0.017999999727163266,0.0030000000934877653,0.006000000186975531
0.007881712168455124,-0.011156979948282242,9.875344276428223,0.00009999999747378752,-0.0004999999655410647,0.058799996972084045,-0.007999999971379599,-0.038000000906257256,-0.029999998433587676
-0.006655880715698004,0.014288595877587795,9.89175033569336,0,-0.0004999999655410647,0.06859999895095825,0.009999999755783667,-0.0019999999928448997,0.0030000000934877653
-0.006205771118402481,-0.004778826609253883,9.888675689697266,0,-0.0004999999655410647,0.06859999895095825,-0.013000000266153095,0.009999999755783667,-0.01400000015835513
0.009730035439133644,0.0017429788131266832,9.897237777709961,0,-0.00039999998989515007,0.07840000092983246,0.012000000373951061,-0.0019999999928448997,-0.01400000015835513
0.006579265929758549,0.005995080806314945,9.900790214538574,0,-0.0004999999655410647,0.07840000092983246,0,0.010999999647985701,-0.007999999971379599
0.010256759822368622,0.007795520592480898,9.883906364440918,0,-0.0004999999655410647,0.07840000092983246,-0.029999998433587676,-0.0019999999928448997,0.0019999999928448997
0.010256759822368622,0.007795520592480898,9.883906364440918,0.00009999999747378752,-0.0004999999655410647,0.06859999895095825,-0.029999998433587676,-0.0019999999928448997,0.0019999999928448997
0.011971008032560349,-0.004702212288975716,9.888588905334473,0.00009999999747378752,-0.00039999998989515007,0.07840000092983246,0.012000000373951061,0.03100000082707969,-0.0019999999928448997
0.01003649365156889,-0.0025282769929617643,9.88633918762207,0.00009999999747378752,-0.00039999998989515007,0.06859999895095825,0.007999999971379599,0.05099999867112037,0.0030000000934877653
-0.012574347667396069,-0.003955221269279718,9.88086986541748,0.00029999998514540493,-0.00039999998989515007,0.058799996972084045,-0.0269999995907449,0.049999999612681666,0.0039999999856897995
0.00023942017287481576,-0.009873687289655209,9.88349437713623,0.00039999998989515007,-0.00029999998514540493,0.06859999895095825,-0.012000000373951061,0.015999999942759198,0.024000000747902123
-0.0010055646998807788,-0.007441178895533085,9.885629653930664,0.00039999998989515007,-0.00029999998514540493,0.06859999895095825,0.012000000373951061,0.06899999839828364,0
-0.0055449712090194225,-0.0010534487664699554,9.880602836608887,0.0005999999702908099,-0.00029999998514540493,0.058799996972084045,0.015999999942759198,0.0030000000934877653,-0.007000000079177565
0.009643844328820705,0.001944091753102839,9.883465766906738,0.0005999999702908099,-0.00039999998989515007,0.06859999895095825,0.012000000373951061,-0.0039999999856897995,0.03899999996469596
-0.002135627903044224,0.012430695816874504,9.886606216430664,0.0005999999702908099,-0.00039999998989515007,0.06859999895095825,0.012000000373951061,-0.0019999999928448997,0.02800000031671026
-0.0013311761431396008,0.017046716064214706,9.875938415527344,0.0005999999702908099,-0.00039999998989515007,0.058799996972084045,0.0019999999928448997,0.014999999216793838,0.0019999999928448997
0.008791509084403515,0.006531381979584694,9.886041641235352,0.0005999999702908099,-0.00039999998989515007,0.06859999895095825,0.03699999851276524,-0.0009999999964224499,0.012000000373951061
-0.00938527099788189,-0.0034668040461838245,9.890313148498535,0.0005999999702908099,-0.0004999999655410647,0.06859999895095825,0.0039999999856897995,-0.0019999999928448997,0.0030000000934877653
0.013426683843135834,0.004797980189323425,9.897457122802734,0.0005999999702908099,-0.0004999999655410647,0.07840000092983246,0.007000000079177565,-0.0009999999964224499,0
-0.011013327166438103,0.013848062604665756,9.893109321594238,0.0005999999702908099,-0.0004999999655410647,0.07840000092983246,0.02600000053230619,-0.0039999999856897995,0.031999999885518396
0.002930502872914076,-0.010821791365742683,9.887038230895996,0.0005999999702908099,-0.0005999999702908099,0.06859999895095825,0.010999999647985701,-0.02800000031671026,0.007000000079177565
-0.009998186491429806,0.00374453142285347,9.884614944458008,0.0004999999655410647,-0.0005999999702908099,0.06859999895095825,-0.010999999647985701,0.031999999885518396,0.0030000000934877653
0.012727576307952404,-0.0021643582731485367,9.878533363342285,0.0005999999702908099,-0.0005999999702908099,0.058799996972084045,-0.04200000047506539,-0.031999999885518396,0.007000000079177565
-0.004328716546297073,-0.006607996299862862,9.88856029510498,0.0004999999655410647,-0.0004999999655410647,0.06859999895095825,0.012000000373951061,0.019000000453128628,0.0009999999964224499
-0.0008427590364590287,-0.0018866308964788914,9.873581886291504,0.0004999999655410647,-0.0004999999655410647,0.04899999871850014,-0.01400000015835513,-0.013000000266153095,-0.004999999877891834
0.012277467176318169,0.004146757069975138,9.876283645629883,0.0004999999655410647,-0.00039999998989515007,0.058799996972084045,-0.04900000055424296,-0.024999999806340833,0.017999999727163266
-0.005343858152627945,-0.005995080806314945,9.882545471191406,0.00039999998989515007,-0.00029999998514540493,0.058799996972084045,0.021999999295971403,-0.0019999999928448997,-0.019000000453128628
0.016998833045363426,-0.011913547292351723,9.885065078735352,0.00039999998989515007,-0.00029999998514540493,0.06859999895095825,0.012000000373951061,0.021999999295971403,0.0030000000934877653
-0.0031028855592012405,0.012047622352838516,9.882240295410156,0.00039999998989515007,-0.00039999998989515007,0.058799996972084045,0.010999999647985701,0.008999999863581633,0.02600000053230619
-0.004692635498940945,0.001426944276317954,9.900752067565918,0.0004999999655410647,-0.00039999998989515007,0.07840000092983246,-0.021999999295971403,0.019000000453128628,0.0030000000934877653
0.0021547814831137657,-0.00009576806769473478,9.903451919555664,0.0004999999655410647,-0.00029999998514540493,0.08819999545812607,-0.03100000082707969,0.019000000453128628,0.02899999937514897
0.0005075707449577749,0.009097966365516186,9.90215015411377,0.0004999999655410647,-0.00029999998514540493,0.07840000092983246,0.012000000373951061,-0.0019999999928448997,0.007000000079177565
0.005085284356027842,0.013656526803970337,9.899171829223633,0.0004999999655410647,-0.00029999998514540493,0.07840000092983246,-0.01700000066872456,-0.02800000031671026,0.0039999999856897995
0.005123591516166925,-0.01058237161487341,9.89828109741211,0.0004999999655410647,-0.00019999999494757503,0.07840000092983246,0.012000000373951061,0.021999999295971403,0.007000000079177565
0.011166556738317013,-0.00012449848873075098,9.884854316711426,0.0004999999655410647,-0.00029999998514540493,0.06859999895095825,0,0.02600000053230619,-0.007000000079177565
0.013857639394700527,-0.004271255806088448,9.889939308166504,0.0005999999702908099,-0.00029999998514540493,0.058799996972084045,0.010999999647985701,-0.004999999877891834,-0.02600000053230619
0.0004501099174376577,0.01674983650445938,9.867328643798828,0.0004999999655410647,-0.00029999998514540493,0.04899999871850014,-0.013000000266153095,0.014999999216793838,0.007000000079177565
0.028988994657993317,-0.017027562484145164,9.879070281982422,0.019899999722838402,-0.00029999998514540493,0.058799996972084045,0.01400000015835513,0.010999999647985701,-0.0429999995335041
-0.003907337319105864,-0.014106635935604572,9.883149147033691,0.00029999998514540493,-0.00029999998514540493,0.058799996972084045,-0.04200000047506539,0.021000000237532696,0.024999999806340833
0.0018100164597854018,0.00364876352250576,9.887191772460938,0.00029999998514540493,-0.00019999999494757503,0.06859999895095825,-0.035000000395887826,-0.019999999511567335,-0.008999999863581633
0.018847156316041946,-0.0031220391392707825,9.878801345825195,0.00029999998514540493,-0.00009999999747378752,0.058799996972084045,0.015999999942759198,-0.0039999999856897995,-0.008999999863581633
0.006339846178889275,0.0012545617064461112,9.879289627075195,0.00029999998514540493,-0.00009999999747378752,0.058799996972084045,0.010999999647985701,-0.0039999999856897995,-0.0269999995907449
0.013072340749204159,-0.004922478459775448,9.879013061523438,0.00019999999494757503,-0.00019999999494757503,0.058799996972084045,0.010999999647985701,-0.021999999295971403,-0.021000000237532696
-0.003849876346066594,-0.002269703196361661,9.885371208190918,0.00019999999494757503,-0.00019999999494757503,0.06859999895095825,-0.038000000906257256,-0.0039999999856897995,0.043999998591942806
0.0056407395750284195,-0.007910442538559437,9.883915901184082,0.00019999999494757503,-0.00009999999747378752,0.06859999895095825,-0.04900000055424296,-0.0019999999928448997,0.004999999877891834
-0.004673481918871403,-0.018071433529257774,9.899621963500977,0.00019999999494757503,0,0.07840000092983246,0.015999999942759198,-0.023000000021936765,-0.043999998591942806
0.005410895682871342,-0.003265690989792347,9.891212463378906,0.00009999999747378752,0,0.06859999895095825,-0.0329999989439571,0.006000000186975531,-0.04900000055424296
-0.01229662075638771,-0.006780379451811314,9.906832695007324,0.00009999999747378752,0,0.08819999545812607,0.010999999647985701,0,0.0269999995907449
-0.004357446916401386,-0.005056553985923529,9.886606216430664,0.00009999999747378752,0,0.06859999895095825,0.007000000079177565,-0.007999999971379599,-0.023000000021936765
-0.009078812785446644,0.0063781533390283585,9.877509117126465,0.00009999999747378752,0,0.058799996972084045,0.010999999647985701,-0.0039999999856897995,-0.07000000079177565
0.010266336612403393,0.004979939665645361,9.885581970214844,0.00009999999747378752,0,0.06859999895095825,-0.013000000266153095,0.007000000079177565,0.0009999999964224499
-0.005027823615819216,-0.004836287349462509,9.891969680786133,0.00009999999747378752,0,0.06859999895095825,0.03599999945432653,-0.006000000186975531,0.019000000453128628
0.006473921239376068,-0.002298433566465974,9.882316589355469,0.00009999999747378752,0,0.058799996972084045,0.012000000373951061,-0.02899999937514897,-0.0039999999856897995
0.006205771118402481,0.001120486413128674,9.881330490112305,0,-0.00009999999747378752,0.058799996972084045,0.012000000373951061,0.015999999942759198,-0.007999999971379599
0.00629196222871542,-0.0043861777521669865,9.881243705749512,0,-0.00009999999747378752,0.058799996972084045,0.009999999755783667,-0.0039999999856897995,-0.02800000031671026
-0.009212887845933437,0.0010055646998807788,9.88623332977295,0,-0.00009999999747378752,0.06859999895095825,0,-0.0039999999856897995,0.024999999806340833
-0.0027964275795966387,0.010821791365742683,9.888206481933594,0,-0.00009999999747378752,0.06859999895095825,0.004999999877891834,0,0.02600000053230619
0.002844311762601137,0.008111555129289627,9.883359909057617,0,-0.00009999999747378752,0.06859999895095825,0.004999999877891834,-0.007000000079177565,-0.021000000237532696
-0.0031890766695141792,0.010438719764351845,9.884787559509277,0,-0.00009999999747378752,0.06859999895095825,-0.010999999647985701,-0.0039999999856897995,0.009999999755783667
0.0014844050165265799,-0.005631162319332361,9.900837898254395,0,-0.00009999999747378752,0.07840000092983246,-0.024999999806340833,0.029999998433587676,-0.024000000747902123
0.006100425496697426,-0.010505757294595242,9.893952369689941,0.00009999999747378752,0,0.07840000092983246,-0.024000000747902123,0,-0.019999999511567335
0.007891288958489895,-0.004261679016053677,9.883685111999512,0.00009999999747378752,0,0.06859999895095825,-0.008999999863581633,0.031999999885518396,-0.01700000066872456
0.003964798059314489,-0.006646303925663233,9.880899429321289,0.00009999999747378752,0,0.058799996972084045,-0.0039999999856897995,-0.024999999806340833,0
0.009921572171151638,0.00784340500831604,9.886377334594727,0.00009999999747378752,0,0.06859999895095825,-0.09600000299160849,-0.01400000015835513,0.0039999999856897995
0.000823605339974165,-0.01904826983809471,9.880353927612305,0,0.00019999999494757503,0.058799996972084045,0.014999999216793838,-0.0039999999856897995,0.0009999999964224499
0.013915100134909153,0.001915361382998526,9.879251480102539,0,0.00019999999494757503,0.058799996972084045,-0.0039999999856897995,-0.03699999851276524,0.0009999999964224499
-0.00003830722562270239,-0.008101978339254856,9.879528999328613,0,0.00019999999494757503,0.058799996972084045,-0.03100000082707969,-0.01400000015835513,0.007000000079177565
0.005995080806314945,0.0023367409594357014,9.888636589050293,0,0.00029999998514540493,0.06859999895095825,-0.009999999755783667,-0.0329999989439571,0.0009999999964224499
-0.00005746084207203239,0.011109095998108387,9.886079788208008,-0.00009999999747378752,0.00029999998514540493,0.06859999895095825,0.0429999995335041,0.017999999727163266,-0.008999999863581633
-0.005592855159193277,0.0013982137897983193,9.893712997436523,-0.00009999999747378752,0.00019999999494757503,0.07840000092983246,0.004999999877891834,0.007000000079177565,-0.04600000004387353
-0.006694188341498375,0.0025474305730313063,9.88259506225586,0,0.00019999999494757503,0.058799996972084045,0.0009999999964224499,0.019999999511567335,0.0009999999964224499
-0.01378102507442236,0.01632845588028431,9.884537696838379,0,0.00019999999494757503,0.06859999895095825,0.03100000082707969,-0.0269999995907449,0
0.0051714759320020676,0.008025364018976688,9.888742446899414,-0.00009999999747378752,0.00009999999747378752,0.06859999895095825,0.007000000079177565,-0.0039999999856897995,0.0009999999964224499
-0.00029688101494684815,-0.00018195933080278337,9.895130157470703,-0.00009999999747378752,0.00009999999747378752,0.07840000092983246,0.010999999647985701,-0.05099999867112037,-0.014999999216793838
0.0038019923958927393,0.00013407529331743717,9.893856048583984,-0.00019999999494757503,0,0.07840000092983246,0.012000000373951061,0.008999999863581633,0.04200000047506539
-0.00759440753608942,-0.003371036145836115,9.879510879516602,-0.00019999999494757503,0,0.058799996972084045,0.029999998433587676,-0.0039999999856897995,-0.007000000079177565
0.010534487664699554,0.00549708679318428,9.88895320892334,-0.00019999999494757503,0,0.06859999895095825,-0.013000000266153095,0,0.0009999999964224499
0.005516240373253822,-0.01069729309529066,9.887468338012695,-0.00019999999494757503,0,0.06859999895095825,0.009999999755783667,-0.0039999999856897995,-0.012000000373951061
-0.006732495501637459,-0.011166556738317013,9.888282775878906,-0.00019999999494757503,0,0.06859999895095825,0.015999999942759198,0.04600000004387353,0.007999999971379599
0.010477026924490929,0.0012737152865156531,9.888062477111816,-0.00009999999747378752,0,0.06859999895095825,-0.03100000082707969,-0.0030000000934877653,0.03999999902313467
0.013034033589065075,-0.006895300932228565,9.89407730102539,-0.00009999999747378752,0,0.07840000092983246,-0.0009999999964224499,-0.01400000015835513,0.0009999999964224499
-0.011042057536542416,-0.008657433092594147,9.892085075378418,-0.00009999999747378752,0,0.06859999895095825,0.010999999647985701,0.03899999996469596,0.0009999999964224499
-0.004903324879705906,-0.004213795065879822,9.882766723632812,0,0,0.058799996972084045,0.012000000373951061,-0.0039999999856897995,0.019000000453128628
0.0013120225630700588,-0.0018770541064441204,9.889738082885742,0,0,0.06859999895095825,0.012000000373951061,0.004999999877891834,-0.04500000098543482
0.01129105594009161,0.0026623522862792015,9.895312309265137,0,0,0.06859999895095825,0,0.021000000237532696,0.009999999755783667
-0.004702212288975716,-0.014757859520614147,9.88953685760498,0,0,0.06859999895095825,-0.019999999511567335,-0.0019999999928448997,0.0009999999964224499
-0.004702212288975716,-0.014757859520614147,9.88953685760498,0,0,0.06859999895095825,-0.019999999511567335,-0.0019999999928448997,0.0009999999964224499
-0.006272808648645878,-0.008427590131759644,9.887133598327637,0,0,0.06859999895095825,0.015999999942759198,-0.0039999999856897995,-0.021000000237532696
-0.003562572179362178,-0.001465251436457038,9.890993118286133,0,0,0.06859999895095825,0.007000000079177565,-0.0030000000934877653,-0.024000000747902123
0.006454767659306526,-0.00014365209790412337,9.891576766967773,0,0,0.06859999895095825,-0.057000003026912535,-0.02899999937514897,0.0009999999964224499
-0.007058106362819672,0.0005075707449577749,9.884681701660156,-0.00009999999747378752,0,0.06859999895095825,0.010999999647985701,0.019999999511567335,-0.0009999999964224499
0.00009576806769473478,0.004022258799523115,9.889355659484863,-0.00009999999747378752,0,0.06859999895095825,0.0009999999964224499,-0.010999999647985701,-0.015999999942759198
-0.01068771630525589,-0.0075465235859155655,9.887669563293457,-0.00009999999747378752,0,0.06859999895095825,-0.0039999999856897995,-0.0039999999856897995,0.03699999851276524
-0.0013886369997635484,0.009337387047708035,9.88833999633789,-0.00009999999747378752,0,0.06859999895095825,0.010999999647985701,-0.0039999999856897995,-0.023000000021936765
0.0013215993531048298,-0.002403778489679098,9.888819694519043,-0.00009999999747378752,0,0.06859999895095825,-0.01700000066872456,-0.006000000186975531,0.0009999999964224499
0.005267243832349777,-0.017171215265989304,9.887861251831055,-0.00009999999747378752,0,0.06859999895095825,-0.006000000186975531,0.010999999647985701,0
0.010314221493899822,0.01308191753923893,9.883235931396484,-0.00009999999747378752,0,0.058799996972084045,0.0019999999928448997,-0.0039999999856897995,0.008999999863581633
-0.00549708679318428,-0.012708422727882862,9.898664474487305,-0.00009999999747378752,0,0.07840000092983246,0.021999999295971403,0.024999999806340833,-0.06700000028140622
-0.0054587796330451965,-0.00319865345954895,9.884069442749023,0,0,0.06859999895095825,0.013000000266153095,-0.0039999999856897995,0.0009999999964224499
0.010544064454734325,-0.009346963837742805,9.885869026184082,0,0,0.06859999895095825,0.007000000079177565,0.004999999877891834,0.0009999999964224499
0.00018195933080278337,-0.0030262707732617855,9.894201278686523,0,0,0.07840000092983246,-0.05900000114378995,-0.0030000000934877653,0
-0.005343858152627945,0.005267243832349777,9.896777153015137,0,0.00009999999747378752,0.07840000092983246,-0.02899999937514897,-0.007999999971379599,0.0009999999964224499
0.013934253714978695,-0.02147120051085949,9.899094581604004,-0.00009999999747378752,-0.009399999864399433,0.07840000092983246,0.007000000079177565,0.021000000237532696,-0.06099999926066736
0.0013503297232091427,-0.013800178654491901,9.885055541992188,0,0.00019999999494757503,0.06859999895095825,0.0009999999964224499,0.006000000186975531,0.017999999727163266
0.0075273700058460236,0.004050989169627428,9.8841552734375,0,0.00019999999494757503,0.06859999895095825,0.0030000000934877653,0.01400000015835513,-0.021999999295971403
0.0004405330982990563,-0.001426944276317954,9.876350402832031,0,0.00019999999494757503,0.058799996972084045,-0.021999999295971403,0.0009999999964224499,0.010999999647985701
0.0020302829798310995,-0.013110647909343243,9.871015548706055,0,0.00029999998514540493,0.06859999895095825,-0.014999999216793838,-0.006000000186975531,-0.015999999942759198
0.009653421118855476,-0.02308010496199131,9.8722505569458,0,-0.009200000204145908,0.04899999871850014,0.0039999999856897995,0.07300000130214508,0.046999999102312236
0.009653421118855476,-0.02308010496199131,9.8722505569458,0,-0.009200000204145908,0.04899999871850014,0.0039999999856897995,0.07300000130214508,0.046999999102312236
0.00005746084207203239,0.002892195712774992,9.881617546081543,0.00009999999747378752,0.00039999998989515007,0.058799996972084045,0,0.03400000133744912,0.02600000053230619
0.010065224021673203,0.0013120225630700588,9.882939338684082,0.00019999999494757503,0.00039999998989515007,0.058799996972084045,0.008999999863581633,0.007000000079177565,0.017999999727163266
0.004118026699870825,-0.005324704572558403,9.887956619262695,0.00019999999494757503,0.00039999998989515007,0.06859999895095825,0.010999999647985701,0.004999999877891834,0.02899999937514897
-0.001436521066352725,0.009988609701395035,9.89010238647461,0.00019999999494757503,0.00029999998514540493,0.06859999895095825,0.008999999863581633,-0.0039999999856897995,0
0.0019919758196920156,0.002269703196361661,9.89789867401123,0.00019999999494757503,0.00029999998514540493,0.07840000092983246,0.0009999999964224499,0.024999999806340833,0.004999999877891834
0.0071921818889677525,0.006234501488506794,9.878791809082031,0.00029999998514540493,0.00029999998514540493,0.058799996972084045,0.013000000266153095,0.021999999295971403,-0.01700000066872456
-0.005717353895306587,0.0009385270532220602,9.884183883666992,0.00029999998514540493,0.00029999998514540493,0.06859999895095825,-0.010999999647985701,-0.0030000000934877653,-0.0039999999856897995
-0.007383718155324459,0.009768342599272728,9.90356731414795,0.00029999998514540493,0.00029999998514540493,0.08819999545812607,-0.03100000082707969,0.013000000266153095,0
-0.00022026654914952815,-0.00023942017287481576,9.899497032165527,0.00029999998514540493,0.00039999998989515007,0.07840000092983246,-0.006000000186975531,0.03999999902313467,0.0009999999964224499
0.017171215265989304,-0.01829170063138008,9.882929801940918,0.00039999998989515007,0.00039999998989515007,0.058799996972084045,-0.014999999216793838,0.014999999216793838,0.03999999902313467
0.011846509762108326,-0.016596606001257896,9.88961410522461,0.0004999999655410647,0.00039999998989515007,0.06859999895095825,-0.014999999216793838,0.04600000004387353,-0.0429999995335041
0.004414908122271299,-0.009193734265863895,9.87912654876709,0.0005999999702908099,0.00039999998989515007,0.058799996972084045,-0.05200000106461238,0.023000000021936765,0.0009999999964224499
0.006856993772089481,-0.000967257481534034,9.874472618103027,0.0005999999702908099,0.0005999999702908099,0.058799996972084045,-0.007999999971379599,0.0269999995907449,0.0009999999964224499
0.014106635935604572,0.00029688101494684815,9.884969711303711,0.000699999975040555,0.0005999999702908099,0.06859999895095825,-0.014999999216793838,-0.009999999755783667,0.0009999999964224499
-0.00028730419580824673,-0.012938265688717365,9.885017395019531,0.000699999975040555,0.0005999999702908099,0.06859999895095825,-0.008999999863581633,0.008999999863581633,0.023000000021936765
-0.0031316159293055534,0.014767436310648918,9.88508415222168,0.000699999975040555,0.0005999999702908099,0.06859999895095825,0.004999999877891834,-0.04900000055424296,0.024999999806340833
-0.0027868507895618677,0.001934514963068068,9.873668670654297,0.0004999999655410647,0.0005999999702908099,0.04899999871850014,0,-0.0030000000934877653,-0.06700000028140622
0.001426944276317954,0.007201758679002523,9.888991355895996,0.0004999999655410647,0.0005999999702908099,0.06859999895095825,0.024999999806340833,-0.02899999937514897,0.0009999999964224499
-0.004903324879705906,0.004175487905740738,9.893052101135254,0.00039999998989515007,0.0004999999655410647,0.07840000092983246,0.019000000453128628,0.0019999999928448997,-0.021999999295971403
-0.009576806798577309,0.008561665192246437,9.894230842590332,0.00039999998989515007,0.0004999999655410647,0.07840000092983246,-0.013000000266153095,0.008999999863581633,0.0009999999964224499
-0.00649307481944561,-0.0047405194491147995,9.890667915344238,0.0004999999655410647,0.0004999999655410647,0.06859999895095825,-0.013000000266153095,-0.021000000237532696,-0.04200000047506539
0.016357185319066048,0.0033135751727968454,9.894613265991211,0.00039999998989515007,0.0004999999655410647,0.07840000092983246,-0.023000000021936765,-0.021999999295971403,0.029999998433587676
0.006579265929758549,0.01542823575437069,9.881416320800781,0.00029999998514540493,0.0005999999702908099,0.06859999895095825,0.0009999999964224499,0.010999999647985701,0
-0.012334927916526794,0.000009576806405675597,9.888876914978027,0.00029999998514540493,0.000699999975040555,0.058799996972084045,0.019000000453128628,0.014999999216793838,0
-0.0008427590364590287,-0.00594719685614109,9.893692970275879,0.00039999998989515007,0.0005999999702908099,0.07840000092983246,0.010999999647985701,-0.021999999295971403,-0.014999999216793838
-0.014154519885778427,-0.013828909024596214,9.89025592803955,0.00029999998514540493,0.0005999999702908099,0.06859999895095825,-0.01400000015835513,-0.007999999971379599,0.007000000079177565
0.014365210197865963,0.00319865345954895,9.881378173828125,0.00029999998514540493,0.0005999999702908099,0.058799996972084045,-0.006000000186975531,-0.024000000747902123,0.0019999999928448997
0.009777919389307499,-0.007565677165985107,9.88601303100586,0.00019999999494757503,0.0005999999702908099,0.06859999895095825,-0.05499999823992851,0.004999999877891834,0.0019999999928448997
0.0006033388199284673,-0.004501099232584238,9.885093688964844,0.00019999999494757503,0.000699999975040555,0.06859999895095825,0.0039999999856897995,-0.012000000373951061,0.0039999999856897995
-0.003390189725905657,0.00013407529331743717,9.879088401794434,0.00019999999494757503,0.000699999975040555,0.058799996972084045,-0.031999999885518396,0.021000000237532696,0.0009999999964224499
0.009165003895759583,0.026460716500878334,9.891777992248535,0.00029999998514540493,0.010499999858438969,0.06859999895095825,0.041000001416626686,-0.008999999863581633,0.0019999999928448997
-0.00031603462412022054,-0.01727655902504921,9.88579273223877,0.00019999999494757503,0.0005999999702908099,0.06859999895095825,0.009999999755783667,0,0.019000000453128628
0.0004405330982990563,0.0008906430448405445,9.890542984008789,0.00019999999494757503,0.0004999999655410647,0.06859999895095825,0.017999999727163266,-0.012000000373951061,0.0009999999964224499
0.0021643582731485367,-0.019728220999240875,9.895752906799316,0.00019999999494757503,-0.009099999442696571,0.07840000092983246,-0.008999999863581633,0.021999999295971403,0.007999999971379599
-0.0004692635266110301,0.004089296329766512,9.893320083618164,0.00019999999494757503,0.0005999999702908099,0.07840000092983246,-0.04900000055424296,0.023000000021936765,0.010999999647985701
0.0034572272561490536,0.001426944276317954,9.89123249053955,0.00029999998514540493,0.000699999975040555,0.06859999895095825,-0.0039999999856897995,0.01400000015835513,-0.007999999971379599
0.005008670035749674,-0.0017717091832309961,9.8975248336792,0.00029999998514540493,0.000699999975040555,0.07840000092983246,0.009999999755783667,0.007000000079177565,-0.009999999755783667
-0.009021352045238018,0.001101332833059132,9.888895034790039,0.00039999998989515007,0.000699999975040555,0.06859999895095825,-0.015999999942759198,-0.0039999999856897995,0.0009999999964224499
-0.008963891305029392,-0.014001291245222092,9.887602806091309,0.00029999998514540493,0.000699999975040555,0.06859999895095825,-0.013000000266153095,-0.007999999971379599,0.0009999999964224499
-0.0023558945395052433,-0.019891027361154556,9.895838737487793,0.00029999998514540493,-0.008899999782443047,0.07840000092983246,0,0.019000000453128628,0.017999999727163266
0.008954314514994621,-0.015026009641587734,9.882192611694336,0.00039999998989515007,0.0007999999797903001,0.058799996972084045,0.010999999647985701,0.014999999216793838,0.017999999727163266
0.0058993129059672356,-0.006694188341498375,9.876953125,0.00039999998989515007,0.0007999999797903001,0.058799996972084045,0.019000000453128628,0.004999999877891834,0.03699999851276524
-0.012248735874891281,-0.0018674773164093494,9.876177787780762,0.00039999998989515007,0.000699999975040555,0.058799996972084045,0.007000000079177565,0.006000000186975531,0.0009999999964224499
-0.0005171475349925458,-0.002470816019922495,9.869722366333008,0.00039999998989515007,0.000699999975040555,0.04899999871850014,-0.03599999945432653,-0.0030000000934877653,0.0009999999964224499
-0.0033327287528663874,0.00694318488240242,9.887008666992188,0.00039999998989515007,0.0007999999797903001,0.06859999895095825,0.009999999755783667,0,0.02600000053230619
-0.005880159325897694,0.0018579005263745785,9.8846435546875,0.00039999998989515007,0.0007999999797903001,0.06859999895095825,-0.013000000266153095,-0.021999999295971403,-0.019999999511567335
-0.006014234386384487,-0.003667917102575302,9.901220321655273,0.00029999998514540493,0.0007999999797903001,0.07840000092983246,-0.023000000021936765,-0.02899999937514897,-0.03400000133744912
0.0037828385829925537,-0.015093047171831131,9.887899398803711,0.00019999999494757503,0.0007999999797903001,0.07840000092983246,-0.013000000266153095,-0.004999999877891834,0.02800000031671026
0.003562572179362178,-0.01682645082473755,9.89130973815918,0.00029999998514540493,0.0007999999797903001,0.06859999895095825,0.009999999755783667,-0.049999999612681666,-0.024000000747902123
-0.00022984336828812957,0.00242293206974864,9.891682624816895,0.00019999999494757503,0.0007999999797903001,0.06859999895095825,0.009999999755783667,-0.0039999999856897995,0.0009999999964224499
-0.0076422919519245625,-0.005966350436210632,9.893521308898926,0.00019999999494757503,0.000699999975040555,0.07840000092983246,-0.02800000031671026,-0.019000000453128628,-0.05200000106461238
-0.011798625811934471,0.011846509762108326,9.883944511413574,0.00009999999747378752,0.0007999999797903001,0.06859999895095825,-0.06700000028140622,0.0019999999928448997,-0.017999999727163266
0.007354987785220146,-0.009126696735620499,9.887602806091309,0.00009999999747378752,0.0009999999310821295,0.06859999895095825,-0.0329999989439571,0.01700000066872456,-0.038000000906257256
-0.009251195006072521,-0.007872135378420353,9.88082218170166,0.00019999999494757503,0.0009999999310821295,0.058799996972084045,-0.02800000031671026,-0.03999999902313467,-0.01700000066872456
0.008446743711829185,-0.008092401549220085,9.87669563293457,0.00009999999747378752,0.0010999999940395355,0.058799996972084045,-0.006000000186975531,-0.017999999727163266,0
0.009107543155550957,0.001139639993198216,9.877423286437988,0,0.0010999999940395355,0.058799996972084045,-0.017999999727163266,0.03999999902313467,0.0009999999964224499
0.0037924153730273247,-0.007048529572784901,9.881281852722168,0.00009999999747378752,0.0010999999940395355,0.058799996972084045,0.009999999755783667,0.010999999647985701,0.0009999999964224499
0.002298433566465974,-0.006885724142193794,9.890763282775879,0.00019999999494757503,0.0010999999940395355,0.06859999895095825,-0.0030000000934877653,0.03100000082707969,-0.04200000047506539
-0.0063589997589588165,0.00009576806769473478,9.884001731872559,0.00019999999494757503,0.0010999999940395355,0.06859999895095825,0.014999999216793838,0.0329999989439571,0.02600000053230619
0.007450755685567856,0.013713987544178963,9.882967948913574,0.00029999998514540493,0.0009999999310821295,0.058799996972084045,-0.013000000266153095,0.021000000237532696,0.024999999806340833
0.004721365869045258,0.0063589997589588165,9.888628005981445,0.00039999998989515007,0.0010999999940395355,0.06859999895095825,-0.07900000232288394,-0.0039999999856897995,0
0.013637373223900795,0.0051906295120716095,9.88829231262207,0.00039999998989515007,0.0013000000035390258,0.06859999895095825,0.006000000186975531,0.006000000186975531,-0.019000000453128628
0.013637373223900795,0.0051906295120716095,9.88829231262207,0.00039999998989515007,0.0013000000035390258,0.06859999895095825,0.006000000186975531,0.006000000186975531,-0.019000000453128628
0.004932055249810219,0.0037732617929577827,9.902341842651367,0.00039999998989515007,0.0013000000035390258,0.07840000092983246,0,0.010999999647985701,0.019000000453128628
0.003869029926136136,0.001130063203163445,9.889785766601562,0.00039999998989515007,0.0011999999405816197,0.06859999895095825,0.010999999647985701,0.0030000000934877653,0.019000000453128628
0.005133168306201696,-0.01497812569141388,9.891413688659668,0.00039999998989515007,0.0010999999940395355,0.06859999895095825,-0.021000000237532696,0.0329999989439571,0.0009999999964224499
-0.011434707790613174,-0.005133168306201696,9.895111083984375,0.0004999999655410647,0.0011999999405816197,0.07840000092983246,0.010999999647985701,-0.0039999999856897995,0.004999999877891834
-0.003878606716170907,-0.010534487664699554,9.878170013427734,0.0004999999655410647,0.0010999999940395355,0.058799996972084045,0.014999999216793838,-0.0039999999856897995,0.048000001495804245
-0.003878606716170907,-0.010534487664699554,9.878170013427734,0.0004999999655410647,0.0010999999940395355,0.058799996972084045,0.014999999216793838,-0.0039999999856897995,0.048000001495804245
0.0003543418715707958,0.008724471554160118,9.872901916503906,0.0004999999655410647,0.0010999999940395355,0.04899999871850014,-0.0329999989439571,0.03899999996469596,-0.024000000747902123
0.007699752692133188,-0.0029879636131227016,9.88508415222168,0.000699999975040555,0.0011999999405816197,0.06859999895095825,-0.043999998591942806,-0.0019999999928448997,-0.031999999885518396
0.012258312664926052,0.004510676022619009,9.889824867248535,0.000699999975040555,0.0013000000035390258,0.06859999895095825,-0.015999999942759198,0.0030000000934877653,-0.024999999806340833
0.012938265688717365,-0.007603984791785479,9.896279335021973,0.000699999975040555,0.00139999995008111,0.07840000092983246,-0.035000000395887826,0.019999999511567335,0.03699999851276524
-0.006569689139723778,-0.009519346058368683,9.885946273803711,0.000699999975040555,0.00139999995008111,0.06859999895095825,-0.013000000266153095,0.006000000186975531,0.0019999999928448997
-0.014642938040196896,-0.000957680691499263,9.885974884033203,0.000699999975040555,0.001500000013038516,0.06859999895095825,0.024999999806340833,-0.0030000000934877653,0.010999999647985701
-0.0010917560430243611,0.008054094389081001,9.881243705749512,0.000699999975040555,0.00139999995008111,0.058799996972084045,0.05600000063342052,-0.007999999971379599,0.004999999877891834
-0.008992621675133705,0.002250549616292119,9.897371292114258,0.000699999975040555,0.0011999999405816197,0.07840000092983246,0.010999999647985701,0.0019999999928448997,0.010999999647985701
-0.004951209295541048,0.005736507475376129,9.888092041015625,0.000699999975040555,0.0011999999405816197,0.06859999895095825,0.012000000373951061,-0.0329999989439571,-0.014999999216793838
-0.0030071171931922436,-0.006569689139723778,9.88769817352295,0.0005999999702908099,0.0010999999940395355,0.06859999895095825,0.03400000133744912,-0.0030000000934877653,-0.019999999511567335
-0.004778826609253883,0.0029592332430183887,9.886099815368652,0.0004999999655410647,0.0009999999310821295,0.06859999895095825,0.012000000373951061,-0.0030000000934877653,-0.013000000266153095
-0.0107834842056036,-0.002882618922740221,9.879098892211914,0.0004999999655410647,0.0009999999310821295,0.058799996972084045,-0.012000000373951061,-0.01400000015835513,0.006000000186975531
0.009548076428472996,-0.00045968673657625914,9.883427619934082,0.0004999999655410647,0.0009999999310821295,0.06859999895095825,-0.03100000082707969,0.0019999999928448997,0.0009999999964224499
0.0063781533390283585,-0.0117890490218997,9.881206512451172,0.0004999999655410647,0.0010999999940395355,0.058799996972084045,-0.004999999877891834,-0.0039999999856897995,-0.05999999686717535
-0.0011683704797178507,0.009634267538785934,9.88294792175293,0.0004999999655410647,0.0010999999940395355,0.058799996972084045,0.010999999647985701,-0.021999999295971403,-0.031999999885518396
0.0067995330318808556,-0.012057199142873287,9.883264541625977,0.00039999998989515007,0.0009999999310821295,0.058799996972084045,-0.006000000186975531,0.019000000453128628,0
0.001608903519809246,-0.005420472472906113,9.883072853088379,0.0005999999702908099,0.0008999999845400453,0.058799996972084045,0.0009999999964224499,0.01400000015835513,-0.01700000066872456
0.001608903519809246,-0.005420472472906113,9.883072853088379,0.0005999999702908099,0.0008999999845400453,0.058799996972084045,0.0009999999964224499,0.01400000015835513,-0.01700000066872456
0.002212242456153035,-0.00793917290866375,9.890379905700684,0.0005999999702908099,0.0007999999797903001,0.06859999895095825,-0.013000000266153095,0.041000001416626686,0.031999999885518396
0.005315127782523632,-0.005602431949228048,9.885161399841309,0.000699999975040555,0.0007999999797903001,0.06859999895095825,-0.006000000186975531,-0.012000000373951061,0.012000000373951061
-0.006646303925663233,-0.004232948645949364,9.884261131286621,0.0005999999702908099,0.0007999999797903001,0.06859999895095825,0.0019999999928448997,-0.004999999877891834,-0.008999999863581633
-0.00009576806769473478,-0.008475474081933498,9.895608901977539,0.0005999999702908099,0.0007999999797903001,0.07840000092983246,-0.04900000055424296,-0.0039999999856897995,0.007000000079177565
-0.0035051112063229084,0.01988145150244236,9.887737274169922,0.0005999999702908099,0.010599999688565731,0.06859999895095825,0.01700000066872456,0.004999999877891834,0.0009999999964224499
-0.011741165071725845,-0.002116474322974682,9.889460563659668,0.0005999999702908099,0.0007999999797903001,0.06859999895095825,0.03699999851276524,-0.0030000000934877653,-0.009999999755783667
-0.005851428955793381,-0.0023367409594357014,9.881636619567871,0.0005999999702908099,0.000699999975040555,0.058799996972084045,0.012000000373951061,-0.004999999877891834,-0.024000000747902123
-0.00242293206974864,0.011540052480995655,9.882183074951172,0.0005999999702908099,0.0005999999702908099,0.058799996972084045,0.019000000453128628,0.019000000453128628,-0.024000000747902123
0.005085284356027842,0.00028730419580824673,9.875123977661133,0.0005999999702908099,0.0005999999702908099,0.058799996972084045,0.012000000373951061,0.010999999647985701,0.0009999999964224499
0.014346056617796421,-0.01124317105859518,9.902007102966309,0.0005999999702908099,0.0004999999655410647,0.07840000092983246,-0.03100000082707969,0.03899999996469596,0.0009999999964224499
0.012057199142873287,-0.024191012606024742,9.88525676727295,0.000699999975040555,-0.008999999612569809,0.06859999895095825,0.019999999511567335,-0.05200000106461238,-0.029999998433587676
0.01368525717407465,0.0021643582731485367,9.867176055908203,0.0005999999702908099,0.000699999975040555,0.04899999871850014,0.010999999647985701,-0.007000000079177565,0.0009999999964224499
-0.0034380736760795116,0.012737153097987175,9.878246307373047,0.0005999999702908099,0.0005999999702908099,0.058799996972084045,0.048000001495804245,0.006000000186975531,-0.010999999647985701
-0.0030358475632965565,0.0010726023465394974,9.881368637084961,0.0005999999702908099,0.0004999999655410647,0.058799996972084045,0.010999999647985701,0.013000000266153095,0.0009999999964224499
0.009538499638438225,-0.006014234386384487,9.886032104492188,0.0005999999702908099,0.00039999998989515007,0.06859999895095825,0.019999999511567335,0.010999999647985701,0.017999999727163266
-0.010467450134456158,0.005353434942662716,9.872442245483398,0.0005999999702908099,0.00039999998989515007,0.04899999871850014,-0.006000000186975531,0.0030000000934877653,0.0030000000934877653
0.00594719685614109,0.00013407529331743717,9.891883850097656,0.0005999999702908099,0.00039999998989515007,0.06859999895095825,0.008999999863581633,-0.0039999999856897995,-0.024000000747902123
0.0037732617929577827,0.00014365209790412337,9.885486602783203,0.0005999999702908099,0.00039999998989515007,0.06859999895095825,-0.006000000186975531,-0.0039999999856897995,-0.013000000266153095
0.006435614079236984,0.018349161371588707,9.895561218261719,0.0005999999702908099,0.00039999998989515007,0.07840000092983246,0.012000000373951061,-0.0539999991814898,0.010999999647985701
-0.010400412604212761,0.00784340500831604,9.893549919128418,0.00039999998989515007,0.00029999998514540493,0.07840000092983246,0.007000000079177565,-0.0039999999856897995,0.0009999999964224499
-0.011999738402664661,0.007345410995185375,9.88758373260498,0.00039999998989515007,0.00029999998514540493,0.06859999895095825,-0.006000000186975531,-0.0030000000934877653,-0.03599999945432653
-0.005995080806314945,-0.0012162544298917055,9.887574195861816,0.00039999998989515007,0.00029999998514540493,0.06859999895095825,0.004999999877891834,0.03899999996469596,0.0009999999964224499
0.001110909623093903,-0.015476119704544544,9.894201278686523,0.0004999999655410647,0.00029999998514540493,0.07840000092983246,0.0009999999964224499,0.013000000266153095,0.014999999216793838
0.0028251581825315952,-0.01912488415837288,9.877681732177734,0.0004999999655410647,0.00029999998514540493,0.058799996972084045,0.013000000266153095,0.019000000453128628,0.0019999999928448997
0.009423578158020973,-0.012038045562803745,9.88148307800293,0.0004999999655410647,0.00029999998514540493,0.058799996972084045,0.0030000000934877653,-0.004999999877891834,0.012000000373951061
-0.007134721148759127,-0.00938527099788189,9.87814998626709,0.0004999999655410647,0.00029999998514540493,0.058799996972084045,-0.023000000021936765,-0.057000003026912535,0.0019999999928448997
0.011022903956472874,-0.00619619432836771,9.876886367797852,0.00039999998989515007,0.00029999998514540493,0.058799996972084045,-0.0009999999964224499,-0.0039999999856897995,-0.03400000133744912
0.003897760296240449,-0.000028730421036016196,9.88425064086914,0.00029999998514540493,0.00029999998514540493,0.06859999895095825,0.012000000373951061,-0.006000000186975531,0.0030000000934877653
0.0019728222396224737,-0.007010222412645817,9.883101463317871,0.00029999998514540493,0.00029999998514540493,0.058799996972084045,0.0019999999928448997,-0.03100000082707969,0.0019999999928448997
-0.009701305069029331,-0.007671022322028875,9.882268905639648,0.00019999999494757503,0.00029999998514540493,0.058799996972084045,0.012000000373951061,-0.004999999877891834,0
0.01068771630525589,-0.006205771118402481,9.89096450805664,0.00019999999494757503,0.00029999998514540493,0.06859999895095825,0.012000000373951061,0.041000001416626686,0.024000000747902123
0.006694188341498375,-0.01159751322120428,9.879836082458496,0.00029999998514540493,0.00019999999494757503,0.058799996972084045,0.021999999295971403,-0.029999998433587676,0.0019999999928448997
-0.00494163203984499,-0.0014077905798330903,9.894134521484375,0.00019999999494757503,0.00019999999494757503,0.07840000092983246,0.010999999647985701,0.008999999863581633,0.013000000266153095
-0.0026048915460705757,0.002231396036222577,9.885113716125488,0.00029999998514540493,0.00009999999747378752,0.06859999895095825,-0.015999999942759198,-0.021999999295971403,0.004999999877891834
-0.003907337319105864,0.005774814635515213,9.88966178894043,0.00019999999494757503,0.00019999999494757503,0.06859999895095825,0.010999999647985701,0.048000001495804245,0.0030000000934877653
0.008092401549220085,0.004635174293071032,9.8856201171875,0.00029999998514540493,0.00009999999747378752,0.06859999895095825,-0.03999999902313467,0.012000000373951061,0.0269999995907449
-0.009299078956246376,-0.012373235076665878,9.879223823547363,0.00029999998514540493,0.00019999999494757503,0.058799996972084045,-0.012000000373951061,-0.004999999877891834,-0.015999999942759198
0.0042999861761927605,-0.0072783734649419785,9.886472702026367,0.00029999998514540493,0.00029999998514540493,0.06859999895095825,-0.017999999727163266,-0.015999999942759198,-0.0329999989439571
0.0013120225630700588,-0.009375694207847118,9.87553596496582,0.00029999998514540493,0.00029999998514540493,0.058799996972084045,-0.014999999216793838,-0.012000000373951061,-0.024999999806340833
-0.0036104561295360327,-0.002087743952870369,9.88585090637207,0.00019999999494757503,0.00039999998989515007,0.06859999895095825,-0.014999999216793838,-0.004999999877891834,0.0269999995907449
0.0035913025494664907,0.0018100164597854018,9.869195938110352,0.00019999999494757503,0.00039999998989515007,0.04899999871850014,0.013000000266153095,-0.0039999999856897995,-0.0039999999856897995
0.012737153097987175,0.008341399021446705,9.88294792175293,0.00019999999494757503,0.00029999998514540493,0.058799996972084045,0.013000000266153095,0.07999999804626934,0.0039999999856897995
-0.001139639993198216,0.004185064695775509,9.883485794067383,0.00039999998989515007,0.00029999998514540493,0.06859999895095825,0.023000000021936765,-0.007000000079177565,0.0019999999928448997
0.0027293898165225983,0.0029496564529836178,9.866849899291992,0.00039999998989515007,0.00019999999494757503,0.04899999871850014,-0.0009999999964224499,0.048000001495804245,-0.014999999216793838
-0.006129156332463026,0.00619619432836771,9.876187324523926,0.0004999999655410647,0.00019999999494757503,0.058799996972084045,0.007000000079177565,0.009999999755783667,0.0019999999928448997
0.01597411371767521,-0.002126051113009453,9.885869026184082,0.0004999999655410647,0.00019999999494757503,0.06859999895095825,-0.024000000747902123,-0.004999999877891834,-0.015999999942759198
-0.0006895300466567278,-0.013129801489412785,9.890016555786133,0.0004999999655410647,0.00029999998514540493,0.06859999895095825,0.038000000906257256,-0.004999999877891834,0.007000000079177565
0.006694188341498375,-0.007891288958489895,9.886741638183594,0.0004999999655410647,0.00019999999494757503,0.06859999895095825,0.023000000021936765,0.057000003026912535,-0.02899999937514897
-0.009548076428472996,0.01114740315824747,9.890398979187012,0.000699999975040555,0.00009999999747378752,0.06859999895095825,0.013000000266153095,-0.007000000079177565,0.03699999851276524
0.013905523344874382,-0.004548983182758093,9.88997745513916,0.0005999999702908099,0.00009999999747378752,0.06859999895095825,0.03100000082707969,0,0.0009999999964224499
0.015667656436562538,-0.0007948749698698521,9.87962532043457,0.0005999999702908099,0,0.058799996972084045,0.009999999755783667,0.029999998433587676,-0.02600000053230619
0.009279925376176834,-0.00021068975911475718,9.885218620300293,0.0005999999702908099,0,0.058799996972084045,-0.021000000237532696,-0.0039999999856897995,0.0269999995907449
-0.002269703196361661,-0.009069235995411873,9.881712913513184,0.000699999975040555,0,0.058799996972084045,0.02600000053230619,-0.006000000186975531,-0.019000000453128628
0.0029688100330531597,0.003687070682644844,9.879501342773438,0.0005999999702908099,0,0.058799996972084045,0.0019999999928448997,-0.004999999877891834,0.019999999511567335
0.0007374141132459044,0.0020015526097267866,9.875574111938477,0.0005999999702908099,0,0.058799996972084045,0.014999999216793838,-0.006000000186975531,-0.004999999877891834
0.006521805189549923,0.008714893832802773,9.882172584533691,0.0005999999702908099,0,0.058799996972084045,-0.012000000373951061,-0.0269999995907449,-0.010999999647985701
-0.01004607044160366,-0.01317768543958664,9.8792142868042,0.0004999999655410647,0,0.058799996972084045,0.007999999971379599,-0.004999999877891834,0.0019999999928448997
0.013713987544178963,-0.007958326488733292,9.888349533081055,0.0004999999655410647,0,0.06859999895095825,0.008999999863581633,-0.004999999877891834,0.0009999999964224499
0.009222464635968208,-0.0076135615818202496,9.89242935180664,0.0004999999655410647,0,0.06859999895095825,0.0030000000934877653,0.0030000000934877653,0.012000000373951061
-0.00494163203984499,-0.0028251581825315952,9.889633178710938,0.0004999999655410647,-0.00009999999747378752,0.06859999895095825,0.013000000266153095,0.0009999999964224499,-0.015999999942759198
-0.005123591516166925,-0.003734954632818699,9.893712997436523,0.0004999999655410647,-0.00009999999747378752,0.07840000092983246,0.007999999971379599,0.010999999647985701,0.009999999755783667
-0.009337387047708035,-0.006761225871741772,9.8876314163208,0.0004999999655410647,-0.00009999999747378752,0.06859999895095825,-0.02899999937514897,0.02899999937514897,-0.01400000015835513
0.0010055646998807788,0.009979032911360264,9.876982688903809,0.0005999999702908099,0,0.058799996972084045,0.013000000266153095,0.021999999295971403,0.023000000021936765
-0.0018195933662354946,-0.0021835120860487223,9.884998321533203,0.0005999999702908099,-0.00009999999747378752,0.06859999895095825,0.013000000266153095,-0.004999999877891834,-0.0039999999856897995
0.010544064454734325,-0.014853627420961857,9.882220268249512,0.0005999999702908099,-0.00009999999747378752,0.058799996972084045,-0.013000000266153095,-0.043999998591942806,-0.03999999902313467
-0.0007948749698698521,-0.011099519208073616,9.890045166015625,0.0004999999655410647,-0.00009999999747378752,0.06859999895095825,-0.0030000000934877653,-0.015999999942759198,0.007999999971379599
-0.0015418659895658493,-0.019967641681432724,9.884261131286621,0.00039999998989515007,-0.00969999935477972,0.06859999895095825,0.007000000079177565,0.012000000373951061,-0.007000000079177565
0.0034955344162881374,0.0012449849164113402,9.877594947814941,0.00039999998989515007,0,0.058799996972084045,-0.010999999647985701,-0.01400000015835513,-0.004999999877891834
0.01169328112155199,0.010745177045464516,9.87438678741455,0.00039999998989515007,0,0.058799996972084045,0.0019999999928448997,0.024000000747902123,-0.012000000373951061
-0.010515334084630013,-0.008274360559880733,9.87907886505127,0.0004999999655410647,0,0.058799996972084045,0.0019999999928448997,-0.006000000186975531,0.008999999863581633
0.002212242456153035,0.009835380129516125,9.872241973876953,0.00039999998989515007,0,0.04899999871850014,0.010999999647985701,-0.0329999989439571,0.0009999999964224499
0.0038019923958927393,-0.004434061702340841,9.866811752319336,0.00029999998514540493,0,0.04899999871850014,-0.014999999216793838,-0.006000000186975531,-0.017999999727163266
-0.0046543278731405735,-0.012430695816874504,9.889623641967773,0.00029999998514540493,0,0.06859999895095825,0.019000000453128628,-0.009999999755783667,0.0009999999964224499
0.0035338415764272213,0.0015418659895658493,9.8903226852417,0.00029999998514540493,0,0.06859999895095825,0.019999999511567335,-0.009999999755783667,0
0.0038211459759622812,0.010218452662229538,9.888216018676758,0.00029999998514540493,0,0.06859999895095825,-0.057000003026912535,-0.004999999877891834,-0.007999999971379599
0.009050082415342331,-0.006100425496697426,9.888225555419922,0.00019999999494757503,0,0.06859999895095825,-0.012000000373951061,0.004999999877891834,-0.014999999216793838
-0.004204218275845051,-0.013857639394700527,9.895800590515137,0.00019999999494757503,0,0.06859999895095825,-0.02800000031671026,-0.024999999806340833,0.02899999937514897
-0.0029879636131227016,0.015447389334440231,9.88256549835205,0.00009999999747378752,0.00019999999494757503,0.058799996972084045,0.05099999867112037,-0.0039999999856897995,0.010999999647985701
-0.0042808325961232185,-0.006789956241846085,9.89859676361084,0.00009999999747378752,0,0.07840000092983246,-0.004999999877891834,0.0019999999928448997,-0.03999999902313467
-0.0034859576262533665,-0.004146757069975138,9.881598472595215,0.00009999999747378752,0.00009999999747378752,0.058799996972084045,0.013000000266153095,0.0030000000934877653,0.012000000373951061
-0.004041412379592657,-0.008360552601516247,9.892497062683105,0.00009999999747378752,0,0.06859999895095825,-0.0039999999856897995,-0.004999999877891834,0.05799999875029794
0.0034476504661142826,-0.0107834842056036,9.8784761428833,0.00009999999747378752,0,0.058799996972084045,0.0019999999928448997,-0.0039999999856897995,-0.009999999755783667
-0.0028251581825315952,0.0036391867324709892,9.875507354736328,0.00009999999747378752,0,0.058799996972084045,-0.029999998433587676,-0.0030000000934877653,-0.0030000000934877653
0.00484586413949728,-0.008427590131759644,9.881378173828125,0.00009999999747378752,0.00009999999747378752,0.058799996972084045,-0.012000000373951061,-0.004999999877891834,-0.012000000373951061
-0.004472368862479925,-0.0025091234128922224,9.874731063842773,0.00009999999747378752,0.00009999999747378752,0.058799996972084045,-0.04200000047506539,-0.004999999877891834,0.0019999999928448997
0.005765237845480442,-0.013915100134909153,9.880114555358887,0,0.00019999999494757503,0.058799996972084045,0.012000000373951061,0.0039999999856897995,0.0019999999928448997
-0.0063589997589588165,-0.0005650316015817225,9.87441635131836,0,0.00019999999494757503,0.058799996972084045,0.007000000079177565,0.017999999727163266,-0.014999999216793838
0.008303090929985046,0.009270348586142063,9.881349563598633,0.00009999999747378752,0.00019999999494757503,0.058799996972084045,0.007000000079177565,0,0.0019999999928448997
0.0018291701562702656,0.002269703196361661,9.889144897460938,0.00009999999747378752,0.00019999999494757503,0.06859999895095825,0.012000000373951061,-0.009999999755783667,-0.0030000000934877653
-0.00274854339659214,-0.013417107053101063,9.890839576721191,0.00009999999747378752,0.00009999999747378752,0.06859999895095825,0.01400000015835513,-0.007999999971379599,-0.006000000186975531
-0.001944091753102839,-0.013512874953448772,9.89069652557373,0,0.00009999999747378752,0.06859999895095825,-0.017999999727163266,0.0030000000934877653,0.0019999999928448997
-0.0025378537829965353,0.0027676972094923258,9.892266273498535,0.00009999999747378752,0.00009999999747378752,0.06859999895095825,0.008999999863581633,-0.007999999971379599,-0.014999999216793838
0.00794874969869852,0.003265690989792347,9.888130187988281,0,0.00009999999747378752,0.06859999895095825,0.015999999942759198,-0.004999999877891834,0.0019999999928448997
0.004319139756262302,-0.005870582535862923,9.890140533447266,0,0.00009999999747378752,0.06859999895095825,-0.048000001495804245,0.019999999511567335,0.0019999999928448997
-0.0026336219161748886,-0.008647856302559376,9.887449264526367,0.00009999999747378752,0.00019999999494757503,0.06859999895095825,0.013000000266153095,0.019000000453128628,0.038000000906257256
-0.012564770877361298,-0.01836831495165825,9.87455940246582,0.00009999999747378752,0.00019999999494757503,0.058799996972084045,-0.01700000066872456,-0.004999999877891834,0.0030000000934877653
0.0055641247890889645,0.0006320692482404411,9.895302772521973,0.00009999999747378752,0.00019999999494757503,0.07840000092983246,-0.012000000373951061,0.03100000082707969,0.02800000031671026
0.010352528654038906,-0.014949395321309566,9.87281608581543,0.00019999999494757503,0.00019999999494757503,0.04899999871850014,0.008999999863581633,0.03699999851276524,-0.015999999942759198
0.01278503704816103,0.007153874728828669,9.863497734069824,0.00029999998514540493,0.00019999999494757503,0.03920000046491623,-0.0039999999856897995,-0.0329999989439571,0.009999999755783667
-0.0035913025494664907,0.010113107971847057,9.880170822143555,0.00019999999494757503,0.00019999999494757503,0.058799996972084045,-0.0039999999856897995,0.029999998433587676,0.0019999999928448997
0.008370129391551018,0.005315127782523632,9.88797664642334,0.00029999998514540493,0.00019999999494757503,0.06859999895095825,0.007999999971379599,0.012000000373951061,-0.007000000079177565
0.010228029452264309,-0.001158793573267758,9.889901161193848,0.00029999998514540493,0.00019999999494757503,0.06859999895095825,-0.015999999942759198,-0.004999999877891834,0.007000000079177565
0.006426037289202213,-0.0028060043696314096,9.897830963134766,0.00029999998514540493,0.00019999999494757503,0.07840000092983246,-0.008999999863581633,-0.004999999877891834,0.05600000063342052
-0.014930241741240025,-0.013512874953448772,9.88623332977295,0.00029999998514540493,0.00039999998989515007,0.06859999895095825,-0.03100000082707969,-0.004999999877891834,-0.024999999806340833
-0.009873687289655209,0.010007763281464577,9.889863014221191,0.00029999998514540493,0.00039999998989515007,0.06859999895095825,-0.021999999295971403,-0.02899999937514897,-0.01400000015835513
0.010620678775012493,-0.008561665192246437,9.888550758361816,0.00019999999494757503,0.0004999999655410647,0.06859999895095825,0.013000000266153095,-0.014999999216793838,0.010999999647985701
0.0015610195696353912,0.00032561144325882196,9.88082218170166,0.00019999999494757503,0.0004999999655410647,0.058799996972084045,0.0019999999928448997,-0.006000000186975531,0
0.010678139515221119,0.0036296097096055746,9.879425048828125,0.00009999999747378752,0.00039999998989515007,0.058799996972084045,0.024999999806340833,0.019000000453128628,0.03699999851276524
-0.0033997665159404278,0.024133551865816116,9.88354206085205,0.00019999999494757503,0.010099999606609344,0.06859999895095825,0.038000000906257256,-0.004999999877891834,0.0019999999928448997
0.005659893155097961,0.000823605339974165,9.892439842224121,0.00019999999494757503,0.00019999999494757503,0.06859999895095825,0.0019999999928448997,-0.004999999877891834,0.023000000021936765
-0.006675034295767546,0.0016855180729180574,9.879098892211914,0.00019999999494757503,0.00009999999747378752,0.058799996972084045,-0.0039999999856897995,0.012000000373951061,0.009999999755783667
0.0010247182799503207,-0.014652514830231667,9.872289657592773,0.00019999999494757503,0.00019999999494757503,0.04899999871850014,0.010999999647985701,-0.006000000186975531,0.0030000000934877653
0.0007948749698698521,-0.0027676972094923258,9.880094528198242,0.00019999999494757503,0.00009999999747378752,0.058799996972084045,0.007999999971379599,-0.009999999755783667,-0.007000000079177565
0.010448296554386616,0.007795520592480898,9.88278579711914,0.00009999999747378752,0.00009999999747378752,0.058799996972084045,-0.0269999995907449,-0.0030000000934877653,0.0019999999928448997
0.004960786085575819,-0.0015897499397397041,9.879855155944824,0.00009999999747378752,0.00019999999494757503,0.058799996972084045,0.015999999942759198,-0.0039999999856897995,-0.041000001416626686
-0.006110002286732197,-0.0023271639365702868,9.882757186889648,0.00009999999747378752,0.00009999999747378752,0.058799996972084045,0.013000000266153095,0.013000000266153095,-0.007000000079177565
0.00549708679318428,-0.002940079662948847,9.874818801879883,0.00009999999747378752,0.00009999999747378752,0.058799996972084045,0.021999999295971403,-0.02800000031671026,0.006000000186975531
-0.00011492168414406478,-0.00032561144325882196,9.893837928771973,0.00009999999747378752,0,0.07840000092983246,0.021000000237532696,-0.0039999999856897995,0.0039999999856897995
0.0033997665159404278,-0.004884171299636364,9.897438049316406,0.00009999999747378752,0,0.07840000092983246,0.009999999755783667,0.046999999102312236,0.043999998591942806
-0.0008714894065633416,0.0024899698328226805,9.899209976196289,0.00019999999494757503,0,0.07840000092983246,0.03100000082707969,-0.0039999999856897995,-0.024999999806340833
0.009069235995411873,0.01423113513737917,9.887430191040039,0.00019999999494757503,0,0.06859999895095825,0.013000000266153095,-0.03100000082707969,0.004999999877891834
0.011731588281691074,-0.002940079662948847,9.891386032104492,0.00009999999747378752,-0.00009999999747378752,0.06859999895095825,0.013000000266153095,0.04500000098543482,-0.0329999989439571
-0.0006033388199284673,0.0010342950699850917,9.899133682250977,0.00019999999494757503,-0.00009999999747378752,0.07840000092983246,0.006000000186975531,-0.004999999877891834,0.0039999999856897995
-0.0020207061897963285,-0.015370775014162064,9.893177032470703,0.00019999999494757503,-0.00009999999747378752,0.07840000092983246,0.012000000373951061,-0.004999999877891834,0.0019999999928448997
0.008303090929985046,-0.005046977195888758,9.886358261108398,0.00019999999494757503,-0.00019999999494757503,0.06859999895095825,-0.019000000453128628,-0.009999999755783667,0.0019999999928448997
-0.0052002063021063805,-0.009892841801047325,9.872701644897461,0.00009999999747378752,-0.00009999999747378752,0.04899999871850014,-0.004999999877891834,-0.004999999877891834,-0.06800000267489824
-0.002901772502809763,0.002892195712774992,9.880295753479004,0.00009999999747378752,-0.00009999999747378752,0.058799996972084045,0.013000000266153095,-0.0009999999964224499,-0.03699999851276524
0.007575253956019878,-0.011358093470335007,9.875219345092773,0.00009999999747378752,-0.00009999999747378752,0.058799996972084045,0.0019999999928448997,-0.0019999999928448997,0
0.009011775255203247,-0.006004657596349716,9.88585090637207,0.00009999999747378752,-0.00009999999747378752,0.058799996972084045,0.013000000266153095,0.04500000098543482,-0.021999999295971403
-0.0056407395750284195,-0.0019728222396224737,9.88322639465332,0.00029999998514540493,-0.00019999999494757503,0.058799996972084045,0.010999999647985701,-0.03100000082707969,-0.02600000053230619
0.005305550992488861,-0.010764330625534058,9.884356498718262,0.00019999999494757503,-0.00019999999494757503,0.06859999895095825,0,-0.021999999295971403,-0.0009999999964224499
0.0037828385829925537,0.018052279949188232,9.897878646850586,0.00009999999747378752,-0.00019999999494757503,0.07840000092983246,-0.01400000015835513,-0.004999999877891834,0.010999999647985701
0.013924676924943924,-0.0030262707732617855,9.889307975769043,0.00009999999747378752,-0.00019999999494757503,0.06859999895095825,0.012000000373951061,-0.0009999999964224499,0.05600000063342052
-0.009069235995411873,-0.0018195933662354946,9.897697448730469,0.00009999999747378752,-0.00019999999494757503,0.07840000092983246,0.013000000266153095,0.03100000082707969,0.03599999945432653
0.007374141365289688,-0.0038115691859275103,9.896873474121094,0.00019999999494757503,-0.00019999999494757503,0.07840000092983246,-0.012000000373951061,-0.004999999877891834,0.019999999511567335
0.009739612229168415,0.0007757213898003101,9.889690399169922,0.00019999999494757503,-0.00019999999494757503,0.06859999895095825,0.009999999755783667,0.03899999996469596,-0.03100000082707969
0.004510676022619009,-0.004625597503036261,9.895169258117676,0.00029999998514540493,-0.00019999999494757503,0.07840000092983246,-0.0039999999856897995,-0.041000001416626686,-0.007000000079177565
-0.0071921818889677525,0.0021930888760834932,9.889134407043457,0.00009999999747378752,-0.00019999999494757503,0.06859999895095825,-0.06500000216452881,0.07000000079177565,0.019999999511567335
-0.004999093245714903,0.012995726428925991,9.876944541931152,0.00029999998514540493,0,0.058799996972084045,0.010999999647985701,0.0039999999856897995,0.0019999999928448997
0.0020590133499354124,0.0025187002029269934,9.889307975769043,0.00029999998514540493,-0.00009999999747378752,0.06859999895095825,-0.021000000237532696,0.021999999295971403,-0.014999999216793838
0.02063801884651184,-0.009126696735620499,9.876713752746582,0.010099999606609344,0,0.058799996972084045,0.012000000373951061,-0.007000000079177565,-0.021999999295971403
-0.00011492168414406478,0.003725377842783928,9.885218620300293,0.00019999999494757503,0,0.06859999895095825,-0.012000000373951061,-0.008999999863581633,0.03400000133744912
0.0007374141132459044,0.00869574025273323,9.8725004196167,0.00019999999494757503,0,0.04899999871850014,-0.0009999999964224499,0.05799999875029794,0.0039999999856897995
0.004903324879705906,-0.006627150345593691,9.887545585632324,0.00039999998989515007,0,0.06859999895095825,-0.004999999877891834,-0.023000000021936765,-0.012000000373951061
0.004865017719566822,-0.009902418591082096,9.884537696838379,0.00029999998514540493,0,0.06859999895095825,0.010999999647985701,-0.023000000021936765,0.019999999511567335
-0.0033135751727968454,0.007144297938793898,9.87690544128418,0.00019999999494757503,0,0.058799996972084045,0.010999999647985701,-0.0039999999856897995,0.012000000373951061
-0.012966996058821678,0.006856993772089481,9.887794494628906,0.00019999999494757503,0,0.06859999895095825,-0.010999999647985701,0.021999999295971403,0.007000000079177565
-0.0007278373232111335,0.0007757213898003101,9.881349563598633,0.00029999998514540493,0,0.058799996972084045,0.013000000266153095,-0.01400000015835513,0.019999999511567335
0.008628702722489834,0.0033997665159404278,9.891644477844238,0.00019999999494757503,0,0.06859999895095825,0.012000000373951061,-0.006000000186975531,0.024000000747902123
0.01198058482259512,-0.029544448480010033,9.88585090637207,0.00019999999494757503,-0.019500000402331352,0.06859999895095825,-0.010999999647985701,0.029999998433587676,-0.013000000266153095
0.018990809097886086,-0.014853627420961857,9.889422416687012,0.00029999998514540493,0.00009999999747378752,0.06859999895095825,0.008999999863581633,0.029999998433587676,0.010999999647985701
-0.01378102507442236,-0.0012066776398569345,9.889863014221191,0.00039999998989515007,0,0.07840000092983246,-0.041000001416626686,-0.0039999999856897995,0.0019999999928448997
0.0034380736760795116,-0.0009864111198112369,9.885209083557129,0.00039999998989515007,0.00009999999747378752,0.06859999895095825,-0.03100000082707969,-0.014999999216793838,0.006000000186975531
0.006550535559654236,-0.00038307227077893913,9.872854232788086,0.00029999998514540493,0.00019999999494757503,0.04899999871850014,-0.004999999877891834,-0.03100000082707969,0.007999999971379599
-0.0027389666065573692,-0.012899958528578281,9.877786636352539,0.00019999999494757503,0.00029999998514540493,0.058799996972084045,0.0019999999928448997,-0.006000000186975531,-0.006000000186975531
-0.004884171299636364,-0.008647856302559376,9.87179183959961,0.00019999999494757503,0.00019999999494757503,0.04899999871850014,0.008999999863581633,-0.015999999942759198,0.024000000747902123
0.012765883468091488,0.005573701579123735,9.869895935058594,0.00019999999494757503,0.00019999999494757503,0.04899999871850014,0.01700000066872456,-0.0009999999964224499,0.04900000055424296
0.0027676972094923258,-0.011654973961412907,9.87610149383545,0.00019999999494757503,0.00019999999494757503,0.058799996972084045,0.008999999863581633,0.0329999989439571,0.021999999295971403
-0.010007763281464577,-0.009528922848403454,9.886568069458008,0.00019999999494757503,0.00009999999747378752,0.06859999895095825,-0.012000000373951061,-0.023000000021936765,-0.03699999851276524
-0.009337387047708035,0.00452025281265378,9.889595031738281,0.00019999999494757503,0.00019999999494757503,0.06859999895095825,0.013000000266153095,-0.004999999877891834,-0.012000000373951061
-0.0009002198348753154,-0.003275267779827118,9.8856201171875,0.00019999999494757503,0.00009999999747378752,0.06859999895095825,-0.01700000066872456,-0.08400000095013078,0.0019999999928448997
0.00242293206974864,0.006435614079236984,9.886558532714844,0,0.00019999999494757503,0.06859999895095825,-0.029999998433587676,0,-0.007999999971379599
0.006071695126593113,-0.01004607044160366,9.88944149017334,0,0.00029999998514540493,0.06859999895095825,0.010999999647985701,0.019000000453128628,0.015999999942759198
-0.007316680625081062,0.011032480746507645,9.890945434570312,0,0.00019999999494757503,0.06859999895095825,-0.02899999937514897,0.012000000373951061,0.02899999937514897
0.000976834329776466,0.0012162544298917055,9.891730308532715,0,0.00029999998514540493,0.06859999895095825,0.023000000021936765,-0.0009999999964224499,0.02800000031671026
-0.014097059145569801,0.004606443922966719,9.889365196228027,0,0.00019999999494757503,0.06859999895095825,0.0039999999856897995,0.019000000453128628,0.0019999999928448997
0.0008331821882165968,0.000019153612811351195,9.897830963134766,0.00009999999747378752,0.00019999999494757503,0.07840000092983246,-0.014999999216793838,0,0.007999999971379599
-0.005659893155097961,-0.006876147352159023,9.893242835998535,0.00009999999747378752,0.00029999998514540493,0.07840000092983246,-0.03100000082707969,0.021000000237532696,-0.0009999999964224499
0.007029375992715359,0.0004118026699870825,9.875795364379883,0.00009999999747378752,0.00029999998514540493,0.058799996972084045,-0.029999998433587676,-0.0039999999856897995,-0.031999999885518396
-0.0037636850029230118,-0.0019057845929637551,9.891289710998535,0.00009999999747378752,0.00039999998989515007,0.06859999895095825,0.012000000373951061,0.012000000373951061,0.03699999851276524
0.01424071192741394,-0.023970747366547585,9.88687515258789,0.00009999999747378752,-0.009200000204145908,0.06859999895095825,0.013000000266153095,-0.007000000079177565,0.023000000021936765
0,0.008724471554160118,9.884394645690918,0.00009999999747378752,0.00039999998989515007,0.06859999895095825,0.013000000266153095,-0.0009999999964224499,0.007999999971379599
0.002834734972566366,-0.010093954391777515,9.88868522644043,0.00009999999747378752,0.00039999998989515007,0.06859999895095825,0.0019999999928448997,-0.015999999942759198,-0.0030000000934877653
0.014719552360475063,-0.009433154948055744,9.868401527404785,0.00009999999747378752,0.00039999998989515007,0.04899999871850014,0.013000000266153095,0.023000000021936765,0.012000000373951061
0.00859039556235075,-0.002135627903044224,9.88148307800293,0.00009999999747378752,0.00039999998989515007,0.058799996972084045,-0.010999999647985701,-0.009999999755783667,0.029999998433587676
-0.016050728037953377,-0.007450755685567856,9.884625434875488,0.00009999999747378752,0.00039999998989515007,0.058799996972084045,0.012000000373951061,-0.004999999877891834,0.02800000031671026
0.001608903519809246,-0.013369223102927208,9.89260196685791,0,0.00039999998989515007,0.06859999895095825,0.013000000266153095,0.01400000015835513,-0.0009999999964224499
-0.0009097966831177473,-0.01123359426856041,9.881043434143066,0.00009999999747378752,0.00029999998514540493,0.058799996972084045,-0.024000000747902123,-0.029999998433587676,-0.007999999971379599
0.0008331821882165968,-0.007383718155324459,9.882086753845215,0.00009999999747378752,0.00029999998514540493,0.058799996972084045,-0.041000001416626686,0.029999998433587676,0.0019999999928448997
0.00004788403384736739,0.012009315192699432,9.8856201171875,0.00009999999747378752,0.0004999999655410647,0.06859999895095825,0.03599999945432653,-0.024000000747902123,0.0019999999928448997
0.00242293206974864,-0.005889736115932465,9.8886079788208,0,0.00039999998989515007,0.06859999895095825,-0.013000000266153095,0.0009999999964224499,0.0009999999964224499
-0.006339846178889275,0.004548983182758093,9.89664363861084,0,0.00039999998989515007,0.07840000092983246,0.0019999999928448997,0.021000000237532696,-0.004999999877891834
0.0005650316015817225,-0.013072340749204159,9.88731575012207,0,0.00039999998989515007,0.06859999895095825,-0.006000000186975531,-0.02899999937514897,0
0.001599326729774475,-0.009356540627777576,9.885093688964844,0,0.00039999998989515007,0.06859999895095825,-0.0009999999964224499,-0.006000000186975531,0.009999999755783667
0.0010342950699850917,-0.00824563018977642,9.874836921691895,0,0.00039999998989515007,0.058799996972084045,-0.006000000186975531,0.006000000186975531,-0.0030000000934877653
0.00914585031569004,0.0013599065132439137,9.866189002990723,0,0.00039999998989515007,0.04899999871850014,-0.013000000266153095,-0.015999999942759198,-0.024999999806340833
-0.002576161175966263,-0.000976834329776466,9.881071090698242,0,0.00039999998989515007,0.058799996972084045,-0.0039999999856897995,0.02899999937514897,0.03100000082707969
0.005123591516166925,-0.007125144358724356,9.872634887695312,0,0.0004999999655410647,0.04899999871850014,-0.006000000186975531,0.017999999727163266,0.0009999999964224499
0.00894473772495985,0.006521805189549923,9.875641822814941,0,0.0004999999655410647,0.058799996972084045,0.010999999647985701,0.007999999971379599,0.0019999999928448997
0.010965443216264248,0.009433154948055744,9.881473541259766,0.00009999999747378752,0.00039999998989515007,0.058799996972084045,-0.02800000031671026,0.019000000453128628,-0.0009999999964224499
0.0006224924582056701,0.0010630255565047264,9.89112663269043,0.00009999999747378752,0.0004999999655410647,0.06859999895095825,0.0019999999928448997,-0.006000000186975531,0.0019999999928448997
0.0005458780215121806,0.008322244510054588,9.893856048583984,0.00009999999747378752,0.0004999999655410647,0.07840000092983246,-0.006000000186975531,0,0.0019999999928448997
0.009270348586142063,-0.0028251581825315952,9.88170337677002,0.00009999999747378752,0.0004999999655410647,0.058799996972084045,0.0019999999928448997,0.0039999999856897995,0.029999998433587676
0.004702212288975716,-0.004118026699870825,9.894220352172852,0.00009999999747378752,0.0004999999655410647,0.07840000092983246,-0.0030000000934877653,0.0039999999856897995,0.029999998433587676
