Accelerometer_Gx,Accelerometer_Gy,Accelerometer_Gz,Accelerometer_X,Accelerometer_Y,Accelerometer_Z,Gyroscope_Z,Gyroscope_X,Gyroscope_Y
-0.004702212288975716,-0.004031835589557886,9.952399253845215,0.0071000000461936,0,0.1371999979019165,-0.07099999651516105,-0.09200000008774706,0.0039999999856897995
-0.008149862289428711,0.00374453142285347,9.944700241088867,0.00559999980032444,0.00019999999494757503,0.1273999959230423,-0.1319999957758284,0.02899999937514897,-0.05600000063342052
-0.011051634326577187,-0.008006210438907146,9.941194534301758,0.004600000102072954,0.00039999998989515007,0.1273999959230423,0.049999999612681666,-0.03100000082707969,-0.05600000063342052
-0.014709975570440292,-0.0009959879098460078,9.941357612609863,0.003700000001117587,0.00019999999494757503,0.1273999959230423,-0.07099999651516105,-0.03100000082707969,0.0039999999856897995
-0.014499285258352757,0.006004657596349716,9.943857192993164,0.003000000026077032,0.00029999998514540493,0.1273999959230423,-0.021000000237532696,-0.01700000066872456,0.0269999995907449
-0.005956773646175861,-0.023750480264425278,9.945158958435059,0.0023999998811632395,-0.007599999662488699,0.1273999959230423,-0.03599999945432653,-0.0009999999964224499,-0.007000000079177565
-0.0076231383718550205,0.000967257481534034,9.929826736450195,0.0018999999156221747,0.0016999999061226845,0.10779999941587448,0.007999999971379599,0.009999999755783667,-0.012000000373951061
0.0005841852398589253,-0.003840299556031823,9.938962936401367,0.001500000013038516,0.00139999995008111,0.11759999394416809,0.02899999937514897,-0.0009999999964224499,0.03100000082707969
-0.0020590133499354124,0.012114659883081913,9.942400932312012,0.0013000000035390258,0.0009999999310821295,0.1273999959230423,-0.01400000015835513,0.031999999885518396,0.017999999727163266
-0.010256759822368622,-0.0013599065132439137,9.92308521270752,0.0013000000035390258,0.0010999999940395355,0.10779999941587448,-0.043999998591942806,0.024999999806340833,-0.006000000186975531
0.014844050630927086,0.00039264908991754055,9.94176959991455,0.00139999995008111,0.0011999999405816197,0.1273999959230423,-0.014999999216793838,0.007999999971379599,-0.007999999971379599
-0.0030358475632965565,0.00209732074290514,9.928888320922852,0.00139999995008111,0.0011999999405816197,0.10779999941587448,0.008999999863581633,-0.004999999877891834,0.0019999999928448997
0.0030071171931922436,-0.0029496564529836178,9.91588306427002,0.00139999995008111,0.0011999999405816197,0.09799999743700027,-0.05499999823992851,-0.02899999937514897,-0.0019999999928448997
-0.011156979948282242,-0.00015322890249080956,9.906536102294922,0.0013000000035390258,0.00139999995008111,0.08819999545812607,-0.021999999295971403,0.03999999902313467,0.0019999999928448997
0.00833182130008936,-0.00804451759904623,9.923535346984863,0.00139999995008111,0.00139999995008111,0.08819999545812607,0.007999999971379599,-0.008999999863581633,0.05999999686717535
0.0004692635266110301,-0.011923124082386494,9.924090385437012,0.00139999995008111,0.00139999995008111,0.10779999941587448,0.006000000186975531,0.041000001416626686,0.038000000906257256
-0.013321338221430779,-0.002576161175966263,9.915499687194824,0.001500000013038516,0.00139999995008111,0.09799999743700027,0.0039999999856897995,-0.008999999863581633,0
0.001158793573267758,-0.016548721119761467,9.923515319824219,0.001500000013038516,0.0013000000035390258,0.10779999941587448,-0.02600000053230619,0.03100000082707969,0.02800000031671026
0.01999637298285961,0.012660538777709007,9.926580429077148,0.011399999260902405,0.00139999995008111,0.10779999941587448,0.009999999755783667,0.013000000266153095,-0.007000000079177565
-0.0068186866119503975,0.0011683704797178507,9.925957679748535,0.0015999999595806003,0.00139999995008111,0.10779999941587448,0.007999999971379599,0.008999999863581633,0.05499999823992851
0.011530475690960884,-0.0016855180729180574,9.93277645111084,0.0015999999595806003,0.00139999995008111,0.11759999394416809,0.008999999863581633,0.04900000055424296,-0.0030000000934877653
-0.005430049262940884,0.003284844569861889,9.909562110900879,0.0017999999690800905,0.0013000000035390258,0.08819999545812607,0.008999999863581633,0.015999999942759198,-0.007999999971379599
-0.004491522442549467,0.0025570073630660772,9.921744346618652,0.0017999999690800905,0.0013000000035390258,0.10779999941587448,-0.021999999295971403,0.02600000053230619,-0.014999999216793838
0.003993528429418802,-0.013742717914283276,9.923334121704102,0.0018999999156221747,0.00139999995008111,0.10779999941587448,-0.02600000053230619,-0.0009999999964224499,-0.007000000079177565
-0.004826710559427738,-0.025560496374964714,9.913996696472168,0.0018999999156221747,-0.008299999870359898,0.09799999743700027,0.007000000079177565,0.014999999216793838,-0.007999999971379599
0.013445837423205376,-0.015361198224127293,9.90803050994873,0.0018999999156221747,0.00139999995008111,0.08819999545812607,-0.07000000079177565,-0.008999999863581633,-0.007000000079177565
0.0114921685308218,-0.0017429788131266832,9.911592483520508,0.0018999999156221747,0.0015999999595806003,0.08819999545812607,0.008999999863581633,-0.008999999863581633,-0.02800000031671026
-0.003351882565766573,-0.006636727135628462,9.908672332763672,0.0018999999156221747,0.0015999999595806003,0.08819999545812607,0,-0.009999999755783667,-0.012000000373951061
-0.0021547814831137657,-0.007910442538559437,9.914196968078613,0.001999999862164259,0.0015999999595806003,0.09799999743700027,-0.014999999216793838,0.0009999999964224499,-0.007000000079177565
-0.0021547814831137657,-0.007910442538559437,9.914196968078613,0.001999999862164259,0.0015999999595806003,0.09799999743700027,-0.014999999216793838,0.0009999999964224499,-0.007000000079177565
-0.015198391862213612,0.0033327287528663874,9.89936351776123,0.001999999862164259,0.0015999999595806003,0.07840000092983246,-0.048000001495804245,0,-0.008999999863581633
0.006167463958263397,0.001417367486283183,9.919560432434082,0.0017999999690800905,0.0016999999061226845,0.09799999743700027,-0.009999999755783667,-0.008999999863581633,-0.007000000079177565
-0.004932055249810219,-0.0035242647863924503,9.925039291381836,0.0017999999690800905,0.0016999999061226845,0.10779999941587448,-0.029999998433587676,-0.0269999995907449,-0.0039999999856897995
0.002384624909609556,0.007690175902098417,9.910088539123535,0.0016999999061226845,0.0017999999690800905,0.08819999545812607,-0.007999999971379599,0.03899999996469596,-0.019000000453128628
-0.0010534487664699554,-0.012469002977013588,9.914226531982422,0.0017999999690800905,0.0017999999690800905,0.09799999743700027,0,-0.008999999863581633,-0.02600000053230619
0.008734048344194889,0.0010630255565047264,9.907014846801758,0.0017999999690800905,0.0017999999690800905,0.08819999545812607,-0.04600000004387353,0.01400000015835513,0.008999999863581633
-0.0169413723051548,-0.0017621323931962252,9.918938636779785,0.0017999999690800905,0.0018999999156221747,0.09799999743700027,0,-0.009999999755783667,-0.007000000079177565
0.0012545617064461112,0.002940079662948847,9.909638404846191,0.0017999999690800905,0.0018999999156221747,0.08819999545812607,0.008999999863581633,0.0269999995907449,0.01700000066872456
-0.009366117417812347,-0.010553641244769096,9.909590721130371,0.0018999999156221747,0.0018999999156221747,0.08819999545812607,-0.04600000004387353,0.012000000373951061,0.0269999995907449
0.005861005745828152,-0.008667009882628918,9.905464172363281,0.0018999999156221747,0.001999999862164259,0.08819999545812607,0,0.03599999945432653,-0.017999999727163266
0.0008714894065633416,-0.0015610195696353912,9.900273323059082,0.001999999862164259,0.001999999862164259,0.07840000092983246,-0.04200000047506539,-0.010999999647985701,-0.007999999971379599
-0.008667009882628918,-0.004185064695775509,9.906651496887207,0.0018999999156221747,0.002099999925121665,0.08819999545812607,-0.03999999902313467,-0.0269999995907449,-0.007000000079177565
0.00038307227077893913,0.003993528429418802,9.899373054504395,0.0018999999156221747,0.002199999988079071,0.07840000092983246,-0.012000000373951061,0.02600000053230619,-0.007999999971379599
-0.006684611551463604,0.006186617538332939,9.89762020111084,0.0018999999156221747,0.002199999988079071,0.07840000092983246,-0.014999999216793838,0.0009999999964224499,0.0329999989439571
0.002308010356500745,-0.004271255806088448,9.887813568115234,0.0018999999156221747,0.002199999988079071,0.06859999895095825,-0.004999999877891834,0.048000001495804245,-0.0019999999928448997
-0.010840944945812225,0.005583278369158506,9.899937629699707,0.001999999862164259,0.002199999988079071,0.07840000092983246,-0.0019999999928448997,0.014999999216793838,0
-0.003706224262714386,-0.005161899141967297,9.88473892211914,0.002099999925121665,0.002199999988079071,0.06859999895095825,-0.048000001495804245,-0.04900000055424296,0.01700000066872456
-0.0017717091832309961,0.004041412379592657,9.89815616607666,0.0018999999156221747,0.0023999998811632395,0.07840000092983246,0.007000000079177565,0.0019999999928448997,0.008999999863581633
-0.014997279271483421,0.006789956241846085,9.899162292480469,0.0018999999156221747,0.002300000051036477,0.07840000092983246,0.008999999863581633,0.029999998433587676,0.007000000079177565
-0.006521805189549923,-0.014719552360475063,9.906497955322266,0.001999999862164259,0.002300000051036477,0.08819999545812607,0.007000000079177565,0.007000000079177565,-0.031999999885518396
-0.007757213432341814,-0.014116212725639343,9.909197807312012,0.001999999862164259,0.002300000051036477,0.07840000092983246,-0.043999998591942806,0,-0.0269999995907449
-0.004118026699870825,0.007230489049106836,9.901622772216797,0.001999999862164259,0.0023999998811632395,0.08819999545812607,-0.0329999989439571,-0.0030000000934877653,-0.007000000079177565
0.007249642629176378,-0.02331952564418316,9.901460647583008,0.002099999925121665,0.0023999998811632395,0.07840000092983246,0.004999999877891834,-0.01700000066872456,-0.007999999971379599
0.003380612935870886,-0.01452801562845707,9.905722618103027,0.002099999925121665,0.0024999999441206455,0.08819999545812607,0.0019999999928448997,0.024000000747902123,-0.006000000186975531
-0.004635174293071032,-0.0020398597698658705,9.895235061645508,0.002099999925121665,0.0024999999441206455,0.07840000092983246,0.009999999755783667,-0.008999999863581633,0
-0.00923204142600298,-0.006282385438680649,9.896317481994629,0.002099999925121665,0.0023999998811632395,0.07840000092983246,-0.0329999989439571,-0.007999999971379599,0.017999999727163266
-0.0033231519628316164,0.010189722292125225,9.901172637939453,0.001999999862164259,0.0024999999441206455,0.07840000092983246,-0.017999999727163266,-0.015999999942759198,-0.007999999971379599
-0.009615113958716393,0.013369223102927208,9.885428428649902,0.001999999862164259,0.0026000000070780516,0.06859999895095825,-0.021999999295971403,0.014999999216793838,0.023000000021936765
-0.018914194777607918,-0.008418013341724873,9.886052131652832,0.001999999862164259,0.0026000000070780516,0.06859999895095825,-0.007999999971379599,0.007999999971379599,-0.007000000079177565
-0.013005303218960762,0.009500192478299141,9.88077449798584,0.001999999862164259,0.0026000000070780516,0.058799996972084045,-0.07300000130214508,0.019000000453128628,-0.02899999937514897
-0.006311115808784962,-0.006435614079236984,9.905128479003906,0.002099999925121665,0.00279999990016222,0.08819999545812607,-0.009999999755783667,-0.0030000000934877653,-0.0030000000934877653
-0.015026009641587734,-0.0035146879963576794,9.889154434204102,0.001999999862164259,0.00279999990016222,0.06859999895095825,0,0.019000000453128628,-0.031999999885518396
0.008063671179115772,-0.002231396036222577,9.9014892578125,0.002099999925121665,0.00279999990016222,0.07840000092983246,0.0009999999964224499,-0.035000000395887826,0.01700000066872456
0.00009576806769473478,-0.0027102362364530563,9.907474517822266,0.001999999862164259,0.00279999990016222,0.08819999545812607,-0.02600000053230619,-0.004999999877891834,-0.004999999877891834
-0.005420472472906113,-0.007575253956019878,9.895207405090332,0.001999999862164259,0.00279999990016222,0.07840000092983246,-0.007999999971379599,0.007999999971379599,0.035000000395887826
-0.009442731738090515,-0.005516240373253822,9.903902053833008,0.001999999862164259,0.00279999990016222,0.08819999545812607,0.0039999999856897995,0.010999999647985701,-0.012000000373951061
-0.014221558347344398,0.0054587796330451965,9.895992279052734,0.001999999862164259,0.00279999990016222,0.07840000092983246,-0.048000001495804245,0.0039999999856897995,-0.006000000186975531
-0.013436260633170605,0.002920926082879305,9.897869110107422,0.001999999862164259,0.002899999963119626,0.07840000092983246,-0.007999999971379599,-0.05300000012305109,0.012000000373951061
0.0015322890831157565,-0.0054779332131147385,9.891462326049805,0.0017999999690800905,0.002899999963119626,0.06859999895095825,-0.05499999823992851,-0.06500000216452881,-0.007999999971379599
0.006962338462471962,-0.0015035585965961218,9.885563850402832,0.0015999999595806003,0.003000000026077032,0.06859999895095825,0.0039999999856897995,-0.007999999971379599,0.013000000266153095
-0.015753846615552902,0.01760217174887657,9.886712074279785,0.0015999999595806003,0.003000000026077032,0.06859999895095825,0.007000000079177565,-0.013000000266153095,0.08899999957737763
-0.013503298163414001,0.009634267538785934,9.887890815734863,0.001500000013038516,0.003000000026077032,0.06859999895095825,0.008999999863581633,-0.0030000000934877653,0.02600000053230619
-0.0013599065132439137,-0.001924938173033297,9.900148391723633,0.001500000013038516,0.002899999963119626,0.07840000092983246,-0.007999999971379599,0.0329999989439571,0.019000000453128628
0.008159439079463482,0.00319865345954895,9.894296646118164,0.0015999999595806003,0.002899999963119626,0.07840000092983246,0.008999999863581633,0.007999999971379599,0.0329999989439571
-0.002844311762601137,-0.0029688100330531597,9.885007858276367,0.0015999999595806003,0.002899999963119626,0.06859999895095825,0.0019999999928448997,-0.012000000373951061,0.0009999999964224499
-0.004989516455680132,-0.007747636642307043,9.885802268981934,0.0015999999595806003,0.00279999990016222,0.06859999895095825,-0.01400000015835513,-0.008999999863581633,-0.007999999971379599
0.007603984791785479,-0.009519346058368683,9.893980979919434,0.001500000013038516,0.002899999963119626,0.07840000092983246,0.006000000186975531,0,-0.007000000079177565
-0.01708502322435379,-0.0010821791365742683,9.904352188110352,0.001500000013038516,0.00279999990016222,0.08819999545812607,0.008999999863581633,0.006000000186975531,-0.008999999863581633
0.008791509084403515,-0.011530475690960884,9.894296646118164,0.001500000013038516,0.00279999990016222,0.06859999895095825,-0.07999999804626934,-0.008999999863581633,-0.007000000079177565
-0.002863465342670679,0.0020685901399701834,9.90410327911377,0.001500000013038516,0.002899999963119626,0.07840000092983246,0.029999998433587676,-0.014999999216793838,-0.0269999995907449
-0.002863465342670679,0.0020685901399701834,9.90410327911377,0.001500000013038516,0.0030999998562037945,0.08819999545812607,0.029999998433587676,-0.014999999216793838,-0.0269999995907449
-0.0055353944189846516,0.011204863898456097,9.895426750183105,0.00139999995008111,0.003000000026077032,0.07840000092983246,-0.006000000186975531,-0.008999999863581633,-0.03899999996469596
0.010821791365742683,-0.0018674773164093494,9.888876914978027,0.00139999995008111,0.003000000026077032,0.06859999895095825,-0.043999998591942806,-0.0269999995907449,-0.02600000053230619
0.011913547292351723,-0.00794874969869852,9.884078979492188,0.0013000000035390258,0.0030999998562037945,0.06859999895095825,-0.014999999216793838,-0.015999999942759198,-0.007999999971379599
-0.0107834842056036,0.012373235076665878,9.887718200683594,0.0011999999405816197,0.0030999998562037945,0.06859999895095825,-0.029999998433587676,-0.008999999863581633,-0.0019999999928448997
-0.009174580685794353,0.0030071171931922436,9.884711265563965,0.0011999999405816197,0.0031999999191612005,0.06859999895095825,-0.012000000373951061,-0.008999999863581633,-0.007000000079177565
0.017238251864910126,-0.02423889748752117,9.885908126831055,0.0011999999405816197,0.0031999999191612005,0.07840000092983246,-0.014999999216793838,-0.008999999863581633,0.02899999937514897
-0.0019057845929637551,-0.00694318488240242,9.875813484191895,0.0010999999940395355,0.0032999999821186066,0.058799996972084045,-0.06500000216452881,0.023000000021936765,0
-0.0006799532566219568,0.0030262707732617855,9.89016056060791,0.0010999999940395355,0.003499999875202775,0.06859999895095825,0.03400000133744912,0.02600000053230619,0.04500000098543482
-0.006684611551463604,0.0012258312199264765,9.907743453979492,0.0011999999405816197,0.003399999812245369,0.08819999545812607,-0.007999999971379599,0.02899999937514897,-0.007999999971379599
0.011032480746507645,0.0029879636131227016,9.890226364135742,0.0011999999405816197,0.0032999999821186066,0.06859999895095825,-0.07999999804626934,-0.004999999877891834,0.006000000186975531
-0.021883003413677216,0.005803545005619526,9.894660949707031,-0.00839999970048666,0.003499999875202775,0.07840000092983246,-0.0009999999964224499,-0.008999999863581633,0.009999999755783667
-0.005956773646175861,0.006100425496697426,9.900666236877441,0.0013000000035390258,0.003499999875202775,0.07840000092983246,0.004999999877891834,-0.004999999877891834,-0.0269999995907449
-0.0006895300466567278,-0.0010342950699850917,9.902351379394531,0.0011999999405816197,0.003499999875202775,0.07840000092983246,-0.015999999942759198,-0.008999999863581633,-0.007000000079177565
0.005851428955793381,0.00374453142285347,9.902475357055664,0.0011999999405816197,0.003499999875202775,0.08819999545812607,-0.04500000098543482,-0.008999999863581633,-0.010999999647985701
-0.004922478459775448,-0.0051140147261321545,9.8886079788208,0.0011999999405816197,0.003599999938160181,0.06859999895095825,0,0.024000000747902123,0.008999999863581633
0.0017046716529875994,0.0055545479990541935,9.88170337677002,0.0011999999405816197,0.003499999875202775,0.058799996972084045,0.02899999937514897,-0.008999999863581633,0.019000000453128628
0.010113107971847057,-0.0010342950699850917,9.89407730102539,0.0011999999405816197,0.003399999812245369,0.07840000092983246,-0.0269999995907449,-0.007000000079177565,0.014999999216793838
-0.005880159325897694,-0.003562572179362178,9.881091117858887,0.0011999999405816197,0.003499999875202775,0.058799996972084045,-0.02600000053230619,0.015999999942759198,-0.012000000373951061
-0.010802637785673141,-0.012449849396944046,9.883072853088379,0.0011999999405816197,0.003499999875202775,0.058799996972084045,0.031999999885518396,-0.0030000000934877653,-0.007999999971379599
-0.0037732617929577827,0.01580173149704933,9.88308334350586,0.0011999999405816197,0.003399999812245369,0.058799996972084045,-0.007999999971379599,0.014999999216793838,0.049999999612681666
-0.0055641247890889645,0.001599326729774475,9.879913330078125,0.0011999999405816197,0.003399999812245369,0.058799996972084045,-0.0039999999856897995,-0.004999999877891834,-0.007999999971379599
0.013819332234561443,-0.00869574025273323,9.884279251098633,0.0011999999405816197,0.0032999999821186066,0.06859999895095825,0,-0.0009999999964224499,-0.0009999999964224499
0.001110909623093903,-0.009605537168681622,9.89107894897461,0.0010999999940395355,0.0032999999821186066,0.06859999895095825,-0.012000000373951061,0.023000000021936765,-0.007999999971379599
0.006186617538332939,0.0043670241720974445,9.884404182434082,0.0011999999405816197,0.0032999999821186066,0.06859999895095825,0.007000000079177565,-0.019999999511567335,0.01700000066872456
-0.017161637544631958,0.0014939818065613508,9.903529167175293,0.0010999999940395355,0.0032999999821186066,0.08819999545812607,-0.007999999971379599,-0.008999999863581633,-0.009999999755783667
0.005324704572558403,-0.0060429647564888,9.894824028015137,0.0010999999940395355,0.0032999999821186066,0.07840000092983246,-0.043999998591942806,0.03400000133744912,-0.017999999727163266
-0.004357446916401386,-0.010304644703865051,9.896011352539062,0.0011999999405816197,0.0032999999821186066,0.07840000092983246,0.004999999877891834,0.01700000066872456,0.01400000015835513
-0.00274854339659214,0.00039264908991754055,9.879300117492676,0.0011999999405816197,0.0032999999821186066,0.058799996972084045,0.008999999863581633,0.008999999863581633,0.02600000053230619
-0.007153874728828669,-0.005133168306201696,9.88437557220459,0.0011999999405816197,0.0031999999191612005,0.06859999895095825,0.004999999877891834,0.03899999996469596,0.017999999727163266
-0.003667917102575302,0.003667917102575302,9.890993118286133,0.001500000013038516,0.0031999999191612005,0.06859999895095825,0.012000000373951061,-0.008999999863581633,-0.007999999971379599
0.006598419509828091,-0.002940079662948847,9.886615753173828,0.00139999995008111,0.0030999998562037945,0.06859999895095825,0.008999999863581633,0.007999999971379599,-0.007000000079177565
-0.012133813463151455,-0.00803494080901146,9.894871711730957,0.00139999995008111,0.0030999998562037945,0.07840000092983246,0.010999999647985701,-0.05999999686717535,0.019000000453128628
0.003572148969396949,0.0017142484430223703,9.881464004516602,0.0013000000035390258,0.003000000026077032,0.058799996972084045,-0.0039999999856897995,0.019000000453128628,0.009999999755783667
-0.0006320692482404411,-0.00771890627220273,9.88202953338623,0.0013000000035390258,0.003000000026077032,0.058799996972084045,0.0030000000934877653,0.01700000066872456,0.029999998433587676
0.0059088896960020065,0.011923124082386494,9.874348640441895,0.0013000000035390258,0.003000000026077032,0.058799996972084045,-0.021999999295971403,0.008999999863581633,-0.029999998433587676
-0.00949061568826437,-0.0015418659895658493,9.900254249572754,0.0013000000035390258,0.003000000026077032,0.07840000092983246,0.02600000053230619,-0.008999999863581633,-0.007999999971379599
0.004328716546297073,-0.005353434942662716,9.899918556213379,0.0013000000035390258,0.002899999963119626,0.07840000092983246,0.004999999877891834,-0.06200000165415938,0.010999999647985701
0.0003064578049816191,-0.0007469909032806754,9.888943672180176,0.0010999999940395355,0.00279999990016222,0.06859999895095825,-0.0039999999856897995,-0.02800000031671026,-0.02899999937514897
-0.0029688100330531597,0.0054779332131147385,9.895848274230957,0.0009999999310821295,0.00279999990016222,0.07840000092983246,-0.02600000053230619,-0.008999999863581633,-0.0329999989439571
-0.014058751985430717,-0.01198058482259512,9.891490936279297,0.0009999999310821295,0.002899999963119626,0.06859999895095825,0.024999999806340833,-0.008999999863581633,-0.024999999806340833
-0.011214440688490868,-0.01407790556550026,9.894402503967285,0.0009999999310821295,0.00279999990016222,0.07840000092983246,0.0429999995335041,0.0539999991814898,-0.007999999971379599
-0.00013407529331743717,0.0015035585965961218,9.8903226852417,0.0010999999940395355,0.0026000000070780516,0.06859999895095825,-0.007000000079177565,-0.006000000186975531,0.035000000395887826
0.008006210438907146,0.0012258312199264765,9.893627166748047,0.0010999999940395355,0.00279999990016222,0.07840000092983246,-0.049999999612681666,0.06399999977103679,-0.008999999863581633
-0.00027772740577347577,-0.008963891305029392,9.893378257751465,0.0013000000035390258,0.002899999963119626,0.07840000092983246,-0.04200000047506539,0.0269999995907449,-0.007000000079177565
-0.0007469909032806754,-0.007776367012411356,9.877470970153809,0.00139999995008111,0.003000000026077032,0.058799996972084045,0.019000000453128628,-0.01400000015835513,-0.007999999971379599
0.011013327166438103,-0.003945644479244947,9.869674682617188,0.0013000000035390258,0.002899999963119626,0.04899999871850014,0.015999999942759198,-0.012000000373951061,-0.04600000004387353
-0.0007086837431415915,-0.0013790600933134556,9.88517951965332,0.0013000000035390258,0.00279999990016222,0.06859999895095825,0.06299999737754478,-0.007000000079177565,0.004999999877891834
0.004778826609253883,0.002106897532939911,9.869349479675293,0.0011999999405816197,0.0026000000070780516,0.04899999871850014,0.007999999971379599,0.010999999647985701,0.035000000395887826
-0.003236960619688034,-0.004405331332236528,9.894613265991211,0.0011999999405816197,0.0024999999441206455,0.07840000092983246,-0.004999999877891834,-0.02899999937514897,-0.008999999863581633
-0.0023463177494704723,0.011271901428699493,9.889738082885742,0.0010999999940395355,0.0024999999441206455,0.06859999895095825,0.019000000453128628,-0.004999999877891834,-0.004999999877891834
0.0009097966831177473,0.0025187002029269934,9.886472702026367,0.0010999999940395355,0.0023999998811632395,0.06859999895095825,0.023000000021936765,-0.0019999999928448997,0.015999999942759198
0.009097966365516186,0.013962984085083008,9.89651870727539,0.0010999999940395355,0.0023999998811632395,0.07840000092983246,0.01700000066872456,-0.024999999806340833,0
-0.0037924153730273247,-0.004999093245714903,9.888713836669922,0.0009999999310821295,0.002300000051036477,0.06859999895095825,-0.014999999216793838,-0.02899999937514897,-0.007999999971379599
-0.004951209295541048,0.0014939818065613508,9.8980131149292,0.0008999999845400453,0.002300000051036477,0.07840000092983246,0.019000000453128628,0.035000000395887826,0
-0.00013407529331743717,0.011358093470335007,9.898032188415527,0.0009999999310821295,0.002199999988079071,0.07840000092983246,0.014999999216793838,0.021999999295971403,-0.008999999863581633
-0.0007374141132459044,0.007900865748524666,9.908576011657715,0.0010999999940395355,0.002199999988079071,0.08819999545812607,0.02600000053230619,-0.007999999971379599,-0.0019999999928448997
-0.007422025315463543,-0.0035338415764272213,9.89779281616211,0.0009999999310821295,0.002099999925121665,0.07840000092983246,0.01400000015835513,-0.010999999647985701,0.006000000186975531
-0.004788403399288654,0.0029496564529836178,9.895235061645508,0.0009999999310821295,0.001999999862164259,0.07840000092983246,0.03599999945432653,-0.01700000066872456,-0.03400000133744912
-0.0027964275795966387,0.008772355504333973,9.885639190673828,0.0008999999845400453,0.0018999999156221747,0.06859999895095825,-0.024000000747902123,0.01400000015835513,-0.008999999863581633
-0.01268926914781332,-0.007259219419211149,9.899736404418945,0.0009999999310821295,0.001999999862164259,0.07840000092983246,-0.031999999885518396,-0.009999999755783667,-0.0269999995907449
-0.011118672788143158,-0.0005458780215121806,9.894450187683105,0.0008999999845400453,0.001999999862164259,0.07840000092983246,0.03899999996469596,-0.007999999971379599,0.0269999995907449
-0.011281479150056839,-0.002940079662948847,9.878945350646973,0.0008999999845400453,0.0018999999156221747,0.058799996972084045,0.014999999216793838,-0.02600000053230619,-0.004999999877891834
0.006981492042541504,0.004462792072445154,9.88207721710205,0.0007999999797903001,0.0017999999690800905,0.058799996972084045,0.0039999999856897995,-0.02800000031671026,-0.007999999971379599
-0.013129801489412785,-0.015677232295274734,9.885802268981934,0.000699999975040555,0.0017999999690800905,0.06859999895095825,0.0269999995907449,0.038000000906257256,0
0.0017238252330571413,-0.0034476504661142826,9.875507354736328,0.0007999999797903001,0.0016999999061226845,0.058799996972084045,0.021000000237532696,-0.0039999999856897995,0.007000000079177565
0.010860098525881767,0.002394201699644327,9.885007858276367,0.0007999999797903001,0.0015999999595806003,0.06859999895095825,0.0009999999964224499,-0.007999999971379599,0.019999999511567335
-0.0013599065132439137,0.0021643582731485367,9.888962745666504,0.0007999999797903001,0.0015999999595806003,0.06859999895095825,-0.03400000133744912,-0.043999998591942806,-0.008999999863581633
-0.0013599065132439137,0.0021643582731485367,9.888962745666504,0.0005999999702908099,0.0016999999061226845,0.06859999895095825,0.019000000453128628,-0.006000000186975531,-0.007999999971379599
0.0008331821882165968,-0.015552734024822712,9.899028778076172,0.0005999999702908099,0.0015999999595806003,0.07840000092983246,0.0009999999964224499,-0.017999999727163266,-0.007000000079177565
-0.007987056858837605,0.00461602071300149,9.877498626708984,0.0005999999702908099,0.0015999999595806003,0.06859999895095825,-0.05099999867112037,-0.0039999999856897995,-0.009999999755783667
0.006512228399515152,-0.004778826609253883,9.88633918762207,0.0005999999702908099,0.0015999999595806003,0.06859999895095825,0.007000000079177565,-0.019999999511567335,0.004999999877891834
-0.0023654713295400143,-0.015227123163640499,9.89838695526123,0.0005999999702908099,0.0015999999595806003,0.07840000092983246,-0.010999999647985701,-0.019999999511567335,-0.02800000031671026
0.007680599112063646,0.001436521066352725,9.890111923217773,0.0004999999655410647,0.0015999999595806003,0.06859999895095825,0.0030000000934877653,-0.023000000021936765,0.019000000453128628
-0.009471462108194828,0.011463438160717487,9.889747619628906,0.00039999998989515007,0.0015999999595806003,0.06859999895095825,0.014999999216793838,-0.006000000186975531,-0.008999999863581633
-0.004529829602688551,0.0030550011433660984,9.892505645751953,0.00039999998989515007,0.001500000013038516,0.06859999895095825,-0.013000000266153095,0.01700000066872456,-0.01700000066872456
0.007048529572784901,0.011166556738317013,9.897466659545898,0.00039999998989515007,0.001500000013038516,0.07840000092983246,0.023000000021936765,-0.029999998433587676,0.015999999942759198
-0.001283292076550424,-0.007766790222376585,9.888895034790039,0.00039999998989515007,0.001500000013038516,0.06859999895095825,0.01700000066872456,0.0009999999964224499,-0.0269999995907449
0.00226012640632689,0.010295066982507706,9.89242935180664,0.00039999998989515007,0.00139999995008111,0.06859999895095825,-0.031999999885518396,0.06099999926066736,-0.007000000079177565
0.004692635498940945,0.00226012640632689,9.871485710144043,0.0004999999655410647,0.001500000013038516,0.04899999871850014,0.029999998433587676,-0.01400000015835513,-0.010999999647985701
0.0046543278731405735,-0.0023750481195747852,9.889575958251953,0.0004999999655410647,0.00139999995008111,0.06859999895095825,-0.004999999877891834,-0.007000000079177565,0.03100000082707969
-0.0011779472697526217,0.004912901669740677,9.882067680358887,0.00039999998989515007,0.00139999995008111,0.058799996972084045,0.017999999727163266,-0.024000000747902123,0.0009999999964224499
-0.003227383829653263,0.00287304213270545,9.897677421569824,0.00039999998989515007,0.0013000000035390258,0.07840000092983246,0.02899999937514897,-0.03699999851276524,-0.0269999995907449
-0.0054587796330451965,0.002135627903044224,9.897543907165527,0.00029999998514540493,0.0011999999405816197,0.07840000092983246,-0.006000000186975531,0.0009999999964224499,0.019999999511567335
-0.00883939303457737,-0.010180145502090454,9.902667045593262,0.00029999998514540493,0.0011999999405816197,0.08819999545812607,0,0.008999999863581633,0.015999999942759198
-0.010946289636194706,-0.004118026699870825,9.889403343200684,0.00029999998514540493,0.0011999999405816197,0.06859999895095825,-0.05300000012305109,0.0009999999964224499,0.014999999216793838
-0.0027772739995270967,-0.004912901669740677,9.886626243591309,0.00029999998514540493,0.0013000000035390258,0.06859999895095825,-0.0009999999964224499,-0.007000000079177565,0.006000000186975531
-0.011156979948282242,0.011923124082386494,9.89145278930664,0.00029999998514540493,0.0013000000035390258,0.06859999895095825,0.024999999806340833,-0.0030000000934877653,-0.009999999755783667
-0.005679046735167503,-0.00008619125583209097,9.898951530456543,0.00029999998514540493,0.0011999999405816197,0.07840000092983246,0.006000000186975531,-0.031999999885518396,-0.023000000021936765
-0.011712434701621532,0.0018483237363398075,9.889374732971191,0.00019999999494757503,0.0011999999405816197,0.06859999895095825,0,0,0.043999998591942806
0.0071826050989329815,-0.005276820622384548,9.879836082458496,0.00019999999494757503,0.0011999999405816197,0.058799996972084045,0,0.012000000373951061,0.015999999942759198
0.007766790222376585,-0.010563218034803867,9.87205982208252,0.00019999999494757503,0.0011999999405816197,0.04899999871850014,0.014999999216793838,-0.012000000373951061,-0.0269999995907449
-0.000823605339974165,0.0037828385829925537,9.89326286315918,0.00019999999494757503,0.0010999999940395355,0.07840000092983246,-0.041000001416626686,0.048000001495804245,-0.004999999877891834
-0.004213795065879822,0.00005746084207203239,9.882967948913574,0.00029999998514540493,0.0011999999405816197,0.058799996972084045,0.0039999999856897995,-0.0019999999928448997,0.007999999971379599
-0.0026623522862792015,0.0007661445415578783,9.880363464355469,0.00029999998514540493,0.0011999999405816197,0.058799996972084045,-0.008999999863581633,0.009999999755783667,-0.008999999863581633
0.0013024457730352879,0.0063973069190979,9.896537780761719,0.00029999998514540493,0.0011999999405816197,0.07840000092983246,0.008999999863581633,0.007000000079177565,-0.019000000453128628
0.005228936672210693,0.013637373223900795,9.902714729309082,0.00029999998514540493,0.0011999999405816197,0.08819999545812607,0.010999999647985701,0.03699999851276524,-0.008999999863581633
-0.011645397171378136,0.0027198130264878273,9.8893461227417,0.00039999998989515007,0.0010999999940395355,0.06859999895095825,0.019000000453128628,0.038000000906257256,0.02800000031671026
-0.005037400405853987,0.00849462766200304,9.89220905303955,0.0004999999655410647,0.0010999999940395355,0.06859999895095825,-0.0030000000934877653,0.01400000015835513,-0.007999999971379599
-0.015811307355761528,0.0005937620298936963,9.885936737060547,0.0004999999655410647,0.0009999999310821295,0.06859999895095825,-0.006000000186975531,-0.0269999995907449,0.008999999863581633
-0.01578257791697979,0.0035242647863924503,9.883465766906738,0.00039999998989515007,0.0009999999310821295,0.06859999895095825,0.0030000000934877653,0.010999999647985701,0.019000000453128628
0.0036296097096055746,0.008887276984751225,9.89859676361084,0.0004999999655410647,0.0009999999310821295,0.07840000092983246,0.014999999216793838,0.008999999863581633,-0.048000001495804245
0.013532028533518314,-0.0005937620298936963,9.875621795654297,0.0004999999655410647,0.0008999999845400453,0.058799996972084045,0.013000000266153095,0.07900000232288394,0.024999999806340833
0.011616666801273823,-0.015207969583570957,9.892822265625,0.000699999975040555,0.0008999999845400453,0.06859999895095825,0.0009999999964224499,0.01700000066872456,0.01400000015835513
-0.00319865345954895,-0.0015035585965961218,9.892132759094238,0.000699999975040555,0.0008999999845400453,0.06859999895095825,0.004999999877891834,0.01700000066872456,-0.007999999971379599
-0.0019057845929637551,-0.00036391866160556674,9.886789321899414,0.0007999999797903001,0.0007999999797903001,0.06859999895095825,0.019000000453128628,-0.007999999971379599,0.02600000053230619
-0.0076231383718550205,-0.004319139756262302,9.876656532287598,0.000699999975040555,0.0007999999797903001,0.058799996972084045,0.017999999727163266,0.019000000453128628,0.014999999216793838
0.007259219419211149,-0.0026048915460705757,9.88476848602295,0.0007999999797903001,0.000699999975040555,0.06859999895095825,-0.015999999942759198,-0.007000000079177565,-0.008999999863581633
0.0035051112063229084,0.005142745096236467,9.880660057067871,0.000699999975040555,0.0007999999797903001,0.058799996972084045,-0.041000001416626686,0.0009999999964224499,0.021000000237532696
0.003275267779827118,0.003246537409722805,9.875641822814941,0.000699999975040555,0.0008999999845400453,0.058799996972084045,0.019000000453128628,-0.007999999971379599,0.013000000266153095
-0.0030262707732617855,0.02106897532939911,9.880056381225586,0.000699999975040555,0.010499999858438969,0.058799996972084045,-0.03100000082707969,-0.007000000079177565,-0.008999999863581633
0.00824563018977642,-0.0020590133499354124,9.880027770996094,0.000699999975040555,0.000699999975040555,0.058799996972084045,0.013000000266153095,0.008999999863581633,0.007999999971379599
-0.0031794998794794083,-0.009730035439133644,9.893177032470703,0.000699999975040555,0.000699999975040555,0.07840000092983246,0.019000000453128628,-0.008999999863581633,0.007999999971379599
0.0021547814831137657,-0.000641646038275212,9.89664363861084,0.000699999975040555,0.0005999999702908099,0.07840000092983246,-0.05200000106461238,-0.05200000106461238,0.01700000066872456
-0.01784159056842327,0.0002585737674962729,9.895695686340332,0.0004999999655410647,0.0007999999797903001,0.07840000092983246,0.05499999823992851,-0.01700000066872456,-0.007000000079177565
-0.0056407395750284195,-0.011128249578177929,9.889222145080566,0.0004999999655410647,0.0005999999702908099,0.06859999895095825,0.014999999216793838,-0.007999999971379599,-0.013000000266153095
0.02220861427485943,-0.010333375073969364,9.887775421142578,0.010099999606609344,0.0005999999702908099,0.06859999895095825,0.019000000453128628,0.03400000133744912,-0.008999999863581633
0.0016855180729180574,0.0034668040461838245,9.883235931396484,0.00039999998989515007,0.0004999999655410647,0.058799996972084045,-0.013000000266153095,-0.007999999971379599,-0.029999998433587676
0.0012066776398569345,0.0020781669300049543,9.874932289123535,0.00039999998989515007,0.0004999999655410647,0.058799996972084045,-0.04200000047506539,-0.009999999755783667,-0.008999999863581633
0.007498639635741711,-0.008532934822142124,9.886683464050293,0.00039999998989515007,0.0005999999702908099,0.06859999895095825,0.017999999727163266,0.035000000395887826,-0.019000000453128628
0.0034859576262533665,0.0034380736760795116,9.897103309631348,0.00039999998989515007,0.0005999999702908099,0.07840000092983246,0.04500000098543482,0.023000000021936765,-0.014999999216793838
0.0063973069190979,-0.0027772739995270967,9.877699851989746,0.0004999999655410647,0.0004999999655410647,0.058799996972084045,0.007999999971379599,0.017999999727163266,0.007999999971379599
-0.008504204452037811,0.00374453142285347,9.87385082244873,0.0004999999655410647,0.00039999998989515007,0.058799996972084045,0.017999999727163266,-0.021999999295971403,0.06200000165415938
-0.006215347908437252,-0.014614207670092583,9.898577690124512,0.0004999999655410647,0.00039999998989515007,0.07840000092983246,-0.06700000028140622,-0.0269999995907449,-0.03400000133744912
-0.006502651609480381,-0.01851196587085724,9.890495300292969,0.00039999998989515007,0.0004999999655410647,0.06859999895095825,0.0039999999856897995,0.01700000066872456,-0.008999999863581633
-0.0034093433059751987,-0.007249642629176378,9.888618469238281,0.00039999998989515007,0.0004999999655410647,0.06859999895095825,0.009999999755783667,-0.04500000098543482,0.01700000066872456
-0.015303737483918667,-0.008858546614646912,9.887986183166504,0.00029999998514540493,0.0004999999655410647,0.07840000092983246,-0.008999999863581633,0.03400000133744912,-0.0030000000934877653
-0.017219098284840584,0.006100425496697426,9.901134490966797,0.00039999998989515007,0.00039999998989515007,0.07840000092983246,0.014999999216793838,0.008999999863581633,0.010999999647985701
-0.008734048344194889,0.0008714894065633416,9.892266273498535,0.00039999998989515007,0.00039999998989515007,0.06859999895095825,0.013000000266153095,-0.007999999971379599,0.007999999971379599
-0.0008331821882165968,0.00024899697746150196,9.90540599822998,0.00039999998989515007,0.00039999998989515007,0.08819999545812607,-0.024999999806340833,0.021000000237532696,0.012000000373951061
-0.008791509084403515,-0.00649307481944561,9.895092010498047,0.00039999998989515007,0.00039999998989515007,0.07840000092983246,0.019000000453128628,0.006000000186975531,0.007000000079177565
0.007891288958489895,-0.008274360559880733,9.884987831115723,0.00039999998989515007,0.00039999998989515007,0.06859999895095825,-0.01700000066872456,0.0329999989439571,-0.008999999863581633
-0.001637633889913559,0.0009097966831177473,9.888282775878906,0.0004999999655410647,0.00039999998989515007,0.06859999895095825,0.019000000453128628,-0.008999999863581633,-0.019999999511567335
-0.0035146879963576794,-0.000823605339974165,9.886884689331055,0.0004999999655410647,0.00029999998514540493,0.06859999895095825,-0.0019999999928448997,0.017999999727163266,-0.008999999863581633
0.01964203082025051,-0.005516240373253822,9.886032104492188,0.010199999436736107,0.00029999998514540493,0.06859999895095825,0.02600000053230619,-0.007000000079177565,-0.007999999971379599
-0.0120859295129776,-0.0004022258799523115,9.880563735961914,0.00039999998989515007,0.00029999998514540493,0.058799996972084045,-0.043999998591942806,0.0039999999856897995,-0.008999999863581633
-0.004050989169627428,0.0076231383718550205,9.87558364868164,0.00039999998989515007,0.00039999998989515007,0.058799996972084045,0.008999999863581633,0.024000000747902123,-0.019000000453128628
0.0021643582731485367,0.007852981798350811,9.870307922363281,0.0004999999655410647,0.00039999998989515007,0.04899999871850014,0.03899999996469596,-0.012000000373951061,0.035000000395887826
0.00020111293997615576,0.001618480309844017,9.87926197052002,0.00039999998989515007,0.00019999999494757503,0.058799996972084045,-0.03400000133744912,0.08100000043976135,0.015999999942759198
-0.007125144358724356,-0.006560112349689007,9.885266304016113,0.0005999999702908099,0.00029999998514540493,0.06859999895095825,0.019000000453128628,0.004999999877891834,0.012000000373951061
-0.001139639993198216,0.00039264908991754055,9.90285873413086,0.000699999975040555,0.00029999998514540493,0.08819999545812607,-0.014999999216793838,-0.03100000082707969,-0.008999999863581633
-0.005707777105271816,-0.002461239229887724,9.895934104919434,0.0005999999702908099,0.00029999998514540493,0.07840000092983246,-0.013000000266153095,0.007000000079177565,0.01400000015835513
0.0005171475349925458,-0.006215347908437252,9.888282775878906,0.0005999999702908099,0.00029999998514540493,0.06859999895095825,-0.021000000237532696,-0.006000000186975531,-0.03100000082707969
-0.01068771630525589,0.006081271916627884,9.896510124206543,0.0005999999702908099,0.00039999998989515007,0.07840000092983246,-0.015999999942759198,-0.021999999295971403,-0.008999999863581633
0.0031699230894446373,0.010965443216264248,9.88601303100586,0.0004999999655410647,0.00039999998989515007,0.06859999895095825,0.023000000021936765,0.008999999863581633,-0.007999999971379599
-0.001436521066352725,-0.009931148961186409,9.891031265258789,0.0004999999655410647,0.00039999998989515007,0.06859999895095825,0.017999999727163266,-0.007000000079177565,0.015999999942759198
-0.0005937620298936963,-0.0008427590364590287,9.893491744995117,0.0004999999655410647,0.00029999998514540493,0.07840000092983246,0.017999999727163266,0.0269999995907449,-0.006000000186975531
0.007671022322028875,-0.010065224021673203,9.887784957885742,0.0004999999655410647,0.00029999998514540493,0.06859999895095825,-0.01700000066872456,-0.015999999942759198,-0.035000000395887826
-0.012650961987674236,-0.011377247050404549,9.89445972442627,0.0004999999655410647,0.00029999998514540493,0.07840000092983246,-0.017999999727163266,0.010999999647985701,0
-0.0018579005263745785,-0.0037636850029230118,9.881091117858887,0.0004999999655410647,0.00039999998989515007,0.058799996972084045,0.007999999971379599,0.0019999999928448997,-0.01700000066872456
-0.014221558347344398,-0.009749189019203186,9.889997482299805,0.0004999999655410647,0.00029999998514540493,0.06859999895095825,0.0659999978879142,0.021999999295971403,0.007999999971379599
0.006981492042541504,0.007929596118628979,9.882144927978516,0.0004999999655410647,0.00029999998514540493,0.06859999895095825,0.019000000453128628,0.0009999999964224499,0.024999999806340833
-0.0009481038432568312,0.008628702722489834,9.873966217041016,0.0004999999655410647,0.00009999999747378752,0.058799996972084045,-0.019000000453128628,0.007000000079177565,-0.009999999755783667
-0.012957419268786907,-0.0025474305730313063,9.891021728515625,0.0004999999655410647,0.00009999999747378752,0.06859999895095825,0.019999999511567335,-0.02800000031671026,0.01700000066872456
0.00016280572162941098,-0.011453861370682716,9.880592346191406,0.0004999999655410647,0.00009999999747378752,0.058799996972084045,0.017999999727163266,-0.05099999867112037,-0.07099999651516105
-0.0013886369997635484,0.002250549616292119,9.892803192138672,0.00029999998514540493,0,0.06859999895095825,-0.019000000453128628,-0.008999999863581633,-0.008999999863581633
0.000028730421036016196,-0.016759412363171577,9.89118480682373,0.00029999998514540493,0.00009999999747378752,0.06859999895095825,0.017999999727163266,-0.007999999971379599,-0.004999999877891834
-0.005046977195888758,-0.008475474081933498,9.901508331298828,0.00029999998514540493,0,0.07840000092983246,-0.01700000066872456,0.009999999755783667,0.01700000066872456
-0.00407014274969697,-0.00022026654914952815,9.900053024291992,0.00029999998514540493,0.00009999999747378752,0.07840000092983246,-0.03899999996469596,-0.006000000186975531,-0.024999999806340833
-0.0031890766695141792,0.00729752704501152,9.877767562866211,0.00029999998514540493,0.00019999999494757503,0.058799996972084045,-0.007999999971379599,-0.007999999971379599,0.03400000133744912
0.01408748235553503,-0.009969456121325493,9.902484893798828,0.00019999999494757503,0.00019999999494757503,0.08819999545812607,0.04900000055424296,0.03599999945432653,0.008999999863581633
-0.0043670241720974445,0.004912901669740677,9.881091117858887,0.00029999998514540493,0.00009999999747378752,0.058799996972084045,-0.010999999647985701,-0.0019999999928448997,-0.007000000079177565
-0.013024456799030304,0.0010247182799503207,9.886510848999023,0.00029999998514540493,0.00009999999747378752,0.06859999895095825,0.017999999727163266,-0.009999999755783667,-0.007999999971379599
-0.0013503297232091427,-0.012028468772768974,9.880142211914062,0.00029999998514540493,0.00009999999747378752,0.058799996972084045,0,-0.007999999971379599,0.013000000266153095
0.0012162544298917055,-0.014863204210996628,9.885074615478516,0.00029999998514540493,0.00009999999747378752,0.06859999895095825,0,-0.007999999971379599,-0.03400000133744912
-0.00893516093492508,-0.014058751985430717,9.888406753540039,0.00019999999494757503,0.00009999999747378752,0.06859999895095825,-0.006000000186975531,-0.007999999971379599,0.004999999877891834
0.005851428955793381,-0.003830722765997052,9.882230758666992,0.00019999999494757503,0.00009999999747378752,0.058799996972084045,0.015999999942759198,-0.007000000079177565,-0.006000000186975531
-0.010821791365742683,0.01124317105859518,9.884098052978516,0.00019999999494757503,0,0.06859999895095825,0.019000000453128628,-0.007999999971379599,0.041000001416626686
0.005793968215584755,-0.00739329494535923,9.897591590881348,0.00019999999494757503,0,0.07840000092983246,0.017999999727163266,0.03899999996469596,-0.0019999999928448997
-0.013656526803970337,0.006617573089897633,9.893416404724121,0.00029999998514540493,0,0.07840000092983246,0.0009999999964224499,-0.006000000186975531,-0.007000000079177565
-0.01673068292438984,-0.005612008739262819,9.877249717712402,0.00029999998514540493,0,0.058799996972084045,0.021000000237532696,-0.015999999942759198,-0.029999998433587676
0.0010342950699850917,-0.004606443922966719,9.8841552734375,0.00019999999494757503,0,0.06859999895095825,0.029999998433587676,0.0269999995907449,0.009999999755783667
-0.004127603489905596,-0.009414001367986202,9.894536018371582,0.00029999998514540493,-0.00009999999747378752,0.07840000092983246,0.014999999216793838,-0.006000000186975531,0.007999999971379599
-0.011971008032560349,0.006023811176419258,9.889202117919922,0.00029999998514540493,-0.00019999999494757503,0.06859999895095825,0.007999999971379599,-0.04200000047506539,-0.010999999647985701
-0.01159751322120428,-0.006531381979584694,9.8881196975708,0.00009999999747378752,-0.00019999999494757503,0.06859999895095825,-0.031999999885518396,-0.035000000395887826,-0.012000000373951061
-0.0025570073630660772,0.001934514963068068,9.89321517944336,0,-0.00009999999747378752,0.07840000092983246,-0.04200000047506539,-0.007000000079177565,-0.0019999999928448997
-0.003725377842783928,0.009059659205377102,9.890772819519043,0,0,0.06859999895095825,0.019000000453128628,-0.007999999971379599,-0.009999999755783667
0.011702857911586761,-0.0018962076865136623,9.87756633758545,0,0,0.058799996972084045,-0.004999999877891834,0.0009999999964224499,-0.03100000082707969
-0.007431602105498314,-0.014815320260822773,9.881780624389648,0,0,0.058799996972084045,0.017999999727163266,0,-0.008999999863581633
0.005707777105271816,-0.009768342599272728,9.882882118225098,0,-0.00009999999747378752,0.058799996972084045,0.019000000453128628,-0.04200000047506539,-0.0329999989439571
0.003830722765997052,0.011358093470335007,9.880660057067871,0,-0.00009999999747378752,0.058799996972084045,0.01700000066872456,-0.007999999971379599,-0.0009999999964224499
-0.006684611551463604,0.009174580685794353,9.896711349487305,-0.00009999999747378752,-0.00019999999494757503,0.07840000092983246,0.019000000453128628,-0.014999999216793838,-0.007999999971379599
-0.005037400405853987,0.009777919389307499,9.886741638183594,-0.00009999999747378752,-0.00019999999494757503,0.06859999895095825,0.019999999511567335,0.021000000237532696,-0.008999999863581633
-0.008379706181585789,0.0006895300466567278,9.89833927154541,0,-0.00029999998514540493,0.07840000092983246,0.019000000453128628,-0.007999999971379599,0.03400000133744912
0.002576161175966263,-0.00452025281265378,9.884902000427246,-0.00009999999747378752,-0.00029999998514540493,0.06859999895095825,0.03699999851276524,0.017999999727163266,-0.0030000000934877653
0.004606443922966719,-0.007249642629176378,9.895685195922852,0,-0.00039999998989515007,0.07840000092983246,0.013000000266153095,-0.0039999999856897995,0.007999999971379599
-0.011176133528351784,0.0052002063021063805,9.898980140686035,0,-0.00039999998989515007,0.07840000092983246,0.0429999995335041,0,-0.008999999863581633
-0.00226012640632689,0.0010630255565047264,9.885984420776367,0,-0.0004999999655410647,0.06859999895095825,0.01700000066872456,-0.009999999755783667,0.004999999877891834
0.0034284968860447407,0.013158531859517097,9.89010238647461,0,-0.0005999999702908099,0.06859999895095825,0.019000000453128628,-0.010999999647985701,-0.007000000079177565
-0.0018291701562702656,-0.009260771796107292,9.894268989562988,-0.00009999999747378752,-0.0005999999702908099,0.07840000092983246,0.0039999999856897995,0.08100000043976135,-0.008999999863581633
0.015792153775691986,0.0007086837431415915,9.89445972442627,0,-0.0005999999702908099,0.07840000092983246,0.03899999996469596,0.015999999942759198,0.014999999216793838
0.00629196222871542,0.008121131919324398,9.888406753540039,0.00009999999747378752,-0.000699999975040555,0.06859999895095825,-0.0009999999964224499,-0.0329999989439571,0.019000000453128628
0.003390189725905657,-0.00684741698205471,9.871150016784668,0,-0.000699999975040555,0.04899999871850014,-0.014999999216793838,0.004999999877891834,0.03400000133744912
-0.004031835589557886,-0.01228704396635294,9.880812644958496,0,-0.000699999975040555,0.058799996972084045,0.03400000133744912,-0.007999999971379599,0.0009999999964224499
0.01368525717407465,-0.0018962076865136623,9.882929801940918,0,-0.000699999975040555,0.058799996972084045,-0.015999999942759198,0.03599999945432653,0.023000000021936765
0.002461239229887724,-0.0015705963596701622,9.883245468139648,0.00009999999747378752,-0.000699999975040555,0.058799996972084045,-0.0039999999856897995,-0.007999999971379599,-0.008999999863581633
-0.00038307227077893913,-0.0006512228865176439,9.881080627441406,0.00009999999747378752,-0.000699999975040555,0.058799996972084045,0.019000000453128628,-0.015999999942759198,-0.03400000133744912
0.002384624909609556,-0.0027006594464182854,9.884270668029785,0,-0.000699999975040555,0.06859999895095825,0.019000000453128628,0.0429999995335041,0.01700000066872456
-0.00031603462412022054,-0.004663905128836632,9.890600204467773,0.00009999999747378752,-0.0007999999797903001,0.06859999895095825,-0.004999999877891834,-0.006000000186975531,-0.008999999863581633
-0.01418325025588274,0.004501099232584238,9.890628814697266,0.00009999999747378752,-0.0007999999797903001,0.06859999895095825,0.03999999902313467,0.038000000906257256,-0.007000000079177565
0.006952761672437191,-0.005659893155097961,9.876704216003418,0.00019999999494757503,-0.0008999999845400453,0.058799996972084045,-0.024000000747902123,-0.008999999863581633,-0.03599999945432653
-0.0039264908991754055,0.00032561144325882196,9.881694793701172,0.00019999999494757503,-0.0007999999797903001,0.058799996972084045,-0.008999999863581633,0.019999999511567335,0.015999999942759198
-0.006962338462471962,0.018004396930336952,9.890504837036133,0.00019999999494757503,-0.0007999999797903001,0.06859999895095825,0.021000000237532696,-0.07600000181251451,-0.007000000079177565
0.008906430564820766,-0.0006895300466567278,9.89548397064209,0,-0.0007999999797903001,0.07840000092983246,0.014999999216793838,-0.021999999295971403,-0.0039999999856897995
0.004453215282410383,-0.004558559972792864,9.884001731872559,0,-0.0007999999797903001,0.06859999895095825,-0.004999999877891834,0,0.010999999647985701
0.001953668659552932,-0.0033327287528663874,9.890658378601074,0,-0.0007999999797903001,0.06859999895095825,0.017999999727163266,-0.0329999989439571,0.03400000133744912
-0.00497036287561059,-0.011185710318386555,9.882862091064453,0,-0.0007999999797903001,0.058799996972084045,-0.05300000012305109,0.024000000747902123,-0.021000000237532696
0.006148310378193855,0.001446097856387496,9.873342514038086,0,-0.000699999975040555,0.04899999871850014,0,0.009999999755783667,0.06099999926066736
0.002566584153100848,-0.0075369467958807945,9.873830795288086,0,-0.000699999975040555,0.058799996972084045,0.0269999995907449,-0.007999999971379599,-0.0019999999928448997
-0.003869029926136136,0.007881712168455124,9.895120620727539,0,-0.000699999975040555,0.07840000092983246,-0.007999999971379599,-0.007999999971379599,-0.02600000053230619
-0.00833182130008936,0.0035242647863924503,9.883063316345215,0,-0.000699999975040555,0.058799996972084045,0.013000000266153095,-0.02600000053230619,0.006000000186975531
-0.011425131000578403,0.003754108212888241,9.89223861694336,-0.00009999999747378752,-0.000699999975040555,0.06859999895095825,0.010999999647985701,-0.007999999971379599,-0.008999999863581633
-0.0063781533390283585,-0.01424071192741394,9.901134490966797,-0.00009999999747378752,-0.0007999999797903001,0.07840000092983246,0.01700000066872456,0.017999999727163266,-0.031999999885518396
-0.011875240132212639,0.004788403399288654,9.892228126525879,0,-0.0007999999797903001,0.06859999895095825,-0.04200000047506539,-0.007999999971379599,-0.007999999971379599
0.010563218034803867,0.013062763959169388,9.889891624450684,-0.00009999999747378752,-0.000699999975040555,0.06859999895095825,0.019000000453128628,0.013000000266153095,0.019999999511567335
0.005956773646175861,-0.005583278369158506,9.89554214477539,0,-0.000699999975040555,0.07840000092983246,0.041000001416626686,0.007000000079177565,0
-0.010295066982507706,-0.0023271639365702868,9.896978378295898,0,-0.0007999999797903001,0.07840000092983246,0.007999999971379599,-0.021000000237532696,-0.008999999863581633
-0.008054094389081001,-0.007345410995185375,9.885046005249023,-0.00009999999747378752,-0.0007999999797903001,0.06859999895095825,0.017999999727163266,-0.007999999971379599,-0.015999999942759198
-0.010208875872194767,0.009816226549446583,9.877307891845703,-0.00009999999747378752,-0.0008999999845400453,0.058799996972084045,-0.01700000066872456,-0.007999999971379599,0.014999999216793838
0.007240065839141607,-0.005793968215584755,9.880650520324707,-0.00009999999747378752,-0.0007999999797903001,0.058799996972084045,0.017999999727163266,0.012000000373951061,-0.008999999863581633
-0.008015787228941917,0.00958638358861208,9.88469123840332,-0.00009999999747378752,-0.0008999999845400453,0.06859999895095825,-0.01400000015835513,-0.007999999971379599,-0.009999999755783667
0.00027772740577347577,-0.0067995330318808556,9.880630493164062,-0.00009999999747378752,-0.0007999999797903001,0.058799996972084045,-0.006000000186975531,-0.010999999647985701,-0.006000000186975531
-0.008207323029637337,-0.013972560875117779,9.887602806091309,-0.00009999999747378752,-0.0007999999797903001,0.06859999895095825,0.012000000373951061,-0.007000000079177565,-0.004999999877891834
-0.015150507912039757,0.005851428955793381,9.880372047424316,-0.00019999999494757503,-0.0007999999797903001,0.058799996972084045,-0.031999999885518396,0.014999999216793838,0.0030000000934877653
-0.009011775255203247,0.0031316159293055534,9.88846492767334,-0.00019999999494757503,-0.000699999975040555,0.06859999895095825,0.008999999863581633,-0.024000000747902123,-0.0019999999928448997
0.006100425496697426,0.007144297938793898,9.870221138000488,-0.00019999999494757503,-0.000699999975040555,0.04899999871850014,0.013000000266153095,-0.01700000066872456,-0.05099999867112037
-0.011635820381343365,0.008753201924264431,9.884299278259277,-0.00029999998514540493,-0.0007999999797903001,0.06859999895095825,0.013000000266153095,0.017999999727163266,-0.0019999999928448997
-0.0010342950699850917,0.004434061702340841,9.89020824432373,-0.00019999999494757503,-0.0007999999797903001,0.06859999895095825,0.012000000373951061,0.0039999999856897995,-0.057000003026912535
0.005276820622384548,-0.000823605339974165,9.879865646362305,-0.00019999999494757503,-0.0007999999797903001,0.058799996972084045,0.013000000266153095,0.007999999971379599,0.008999999863581633
-0.010160991922020912,0.013953407295048237,9.884451866149902,-0.00019999999494757503,-0.0007999999797903001,0.06859999895095825,0.014999999216793838,-0.008999999863581633,0.08499999667351618
0.005133168306201696,-0.0029879636131227016,9.888130187988281,-0.00019999999494757503,-0.0008999999845400453,0.06859999895095825,-0.012000000373951061,0,-0.007999999971379599
-0.007153874728828669,0.0010055646998807788,9.887162208557129,-0.00019999999494757503,-0.0007999999797903001,0.06859999895095825,-0.006000000186975531,-0.008999999863581633,-0.008999999863581633
-0.006512228399515152,-0.008188169449567795,9.887832641601562,-0.00019999999494757503,-0.0007999999797903001,0.06859999895095825,0.010999999647985701,0,-0.008999999863581633
-0.007872135378420353,0.008178592659533024,9.890868186950684,-0.00019999999494757503,-0.0007999999797903001,0.06859999895095825,0.01400000015835513,-0.010999999647985701,-0.02600000053230619
-0.002308010356500745,-0.003696647472679615,9.882326126098633,-0.00019999999494757503,-0.0008999999845400453,0.058799996972084045,0.0030000000934877653,0,-0.012000000373951061
0.006885724142193794,-0.006502651609480381,9.87460708618164,-0.00019999999494757503,-0.0007999999797903001,0.058799996972084045,0.007000000079177565,-0.008999999863581633,0.02600000053230619
0.00019153613538946956,0.0027772739995270967,9.888082504272461,-0.00029999998514540493,-0.0008999999845400453,0.06859999895095825,-0.0039999999856897995,0.031999999885518396,-0.0009999999964224499
0.006272808648645878,0.0035051112063229084,9.875679969787598,-0.00019999999494757503,-0.0007999999797903001,0.058799996972084045,-0.013000000266153095,-0.008999999863581633,-0.02600000053230619
0.002863465342670679,-0.0010151414899155498,9.881617546081543,-0.00019999999494757503,-0.0007999999797903001,0.058799996972084045,0.03599999945432653,0.0009999999964224499,0.012000000373951061
-0.0031699230894446373,-0.008207323029637337,9.884442329406738,-0.00019999999494757503,-0.0008999999845400453,0.06859999895095825,-0.0019999999928448997,0.023000000021936765,-0.007999999971379599
-0.01592622883617878,-0.009825803339481354,9.885025978088379,-0.00009999999747378752,-0.0008999999845400453,0.06859999895095825,0.012000000373951061,-0.008999999863581633,-0.007999999971379599
0.007565677165985107,-0.006732495501637459,9.891951560974121,-0.00009999999747378752,-0.0008999999845400453,0.06859999895095825,0.010999999647985701,0.008999999863581633,0.009999999755783667
-0.0005458780215121806,-0.0025857379660010338,9.88148307800293,-0.00009999999747378752,-0.0008999999845400453,0.058799996972084045,0.007999999971379599,-0.007999999971379599,-0.043999998591942806
0.00629196222871542,0.003256114199757576,9.886855125427246,-0.00009999999747378752,-0.0008999999845400453,0.06859999895095825,0.013000000266153095,0.05200000106461238,0.038000000906257256
-0.012756306678056717,-0.006607996299862862,9.903711318969727,0,-0.0008999999845400453,0.08819999545812607,-0.010999999647985701,-0.008999999863581633,0.010999999647985701
-0.004242525435984135,-0.006445190869271755,9.890686988830566,0,-0.0008999999845400453,0.06859999895095825,-0.021999999295971403,-0.013000000266153095,0.007000000079177565
-0.0005171475349925458,-0.003725377842783928,9.889202117919922,-0.00009999999747378752,-0.0007999999797903001,0.08819999545812607,0.013000000266153095,-0.008999999863581633,-0.019000000453128628
0.0009097966831177473,-0.008619125932455063,9.883848190307617,-0.00029999998514540493,-0.0007999999797903001,0.06859999895095825,0.013000000266153095,0.0269999995907449,-0.007999999971379599
0.0039264908991754055,0.00029688101494684815,9.890954971313477,-0.00019999999494757503,-0.0008999999845400453,0.06859999895095825,0.0030000000934877653,0.007000000079177565,-0.007999999971379599
-0.001915361382998526,-0.007230489049106836,9.881118774414062,-0.00019999999494757503,-0.0007999999797903001,0.058799996972084045,-0.02899999937514897,0.019999999511567335,-0.019000000453128628
0.004759673029184341,-0.007354987785220146,9.886502265930176,-0.00009999999747378752,-0.0007999999797903001,0.06859999895095825,0.021000000237532696,-0.014999999216793838,-0.006000000186975531
0.005755661055445671,-0.0004022258799523115,9.889824867248535,-0.00019999999494757503,-0.0007999999797903001,0.06859999895095825,0.01700000066872456,0.05499999823992851,0.019000000453128628
0.0035051112063229084,0.0036104561295360327,9.874549865722656,0,-0.0007999999797903001,0.058799996972084045,0.012000000373951061,0.015999999942759198,0.012000000373951061
0.006540958769619465,-0.005123591516166925,9.870134353637695,0,-0.0008999999845400453,0.04899999871850014,0.013000000266153095,-0.05099999867112037,-0.007999999971379599
-0.0026527754962444305,-0.010601525194942951,9.891951560974121,-0.00009999999747378752,-0.0008999999845400453,0.06859999895095825,0.038000000906257256,0.035000000395887826,0.015999999942759198
-0.0004405330982990563,0.00017238251166418195,9.884835243225098,-0.00009999999747378752,-0.0009999999310821295,0.06859999895095825,0.0009999999964224499,0.004999999877891834,-0.019999999511567335
-0.0004405330982990563,0.00017238251166418195,9.884835243225098,-0.00009999999747378752,-0.0009999999310821295,0.06859999895095825,0.0009999999964224499,0.004999999877891834,-0.019999999511567335
0.015303737483918667,-0.005238513462245464,9.884193420410156,0,-0.0009999999310821295,0.06859999895095825,0.009999999755783667,-0.008999999863581633,0.0429999995335041
0.004778826609253883,-0.012210427783429623,9.885209083557129,-0.00009999999747378752,-0.0009999999310821295,0.06859999895095825,0.01400000015835513,-0.007000000079177565,0.07999999804626934
-0.005525817163288593,-0.002940079662948847,9.895791053771973,-0.00009999999747378752,-0.0009999999310821295,0.07840000092983246,-0.03699999851276524,0.043999998591942806,-0.007999999971379599
0.007134721148759127,-0.009806649759411812,9.890753746032715,0,-0.0008999999845400453,0.06859999895095825,0.046999999102312236,0.029999998433587676,-0.01700000066872456
0.004788403399288654,0.00868616346269846,9.888455390930176,0,-0.0009999999310821295,0.06859999895095825,0.012000000373951061,-0.008999999863581633,0.04500000098543482
0.0072783734649419785,0.012334927916526794,9.87863826751709,0,-0.0010999999940395355,0.058799996972084045,-0.007999999971379599,0.043999998591942806,0.006000000186975531
0.00005746084207203239,-0.013503298163414001,9.886865615844727,0.00009999999747378752,-0.0009999999310821295,0.06859999895095825,-0.004999999877891834,-0.007000000079177565,0.008999999863581633
0.003840299556031823,0.0005937620298936963,9.87472152709961,0.00009999999747378752,-0.0009999999310821295,0.058799996972084045,-0.009999999755783667,-0.02600000053230619,0.03400000133744912
-0.013915100134909153,-0.004874594509601593,9.882757186889648,0,-0.0009999999310821295,0.058799996972084045,-0.014999999216793838,0.007000000079177565,0.0039999999856897995
0.010601525194942951,0.0005171475349925458,9.87979793548584,0.00009999999747378752,-0.0008999999845400453,0.058799996972084045,-0.05499999823992851,-0.013000000266153095,-0.038000000906257256
0.00031603462412022054,-0.005803545005619526,9.883992195129395,0,-0.000699999975040555,0.06859999895095825,0.01400000015835513,0.007999999971379599,0.007999999971379599
0.007891288958489895,-0.003658340312540531,9.876944541931152,0,-0.0007999999797903001,0.058799996972084045,-0.0030000000934877653,-0.008999999863581633,-0.008999999863581633
-0.005267243832349777,0.010448296554386616,9.876924514770508,0,-0.0007999999797903001,0.058799996972084045,0.024000000747902123,0.007999999971379599,0.019999999511567335
-0.005889736115932465,-0.01642422378063202,9.87341022491455,0,-0.0007999999797903001,0.04899999871850014,-0.004999999877891834,-0.007999999971379599,-0.038000000906257256
-0.004501099232584238,-0.004309562966227531,9.885725975036621,0,-0.0007999999797903001,0.06859999895095825,0.012000000373951061,0.008999999863581633,0.017999999727163266
0.002221819246187806,-0.010275913402438164,9.894124984741211,0,-0.0007999999797903001,0.07840000092983246,-0.010999999647985701,-0.006000000186975531,-0.012000000373951061
0.0030166939832270145,-0.006837840192019939,9.884394645690918,0,-0.0007999999797903001,0.06859999895095825,0.0329999989439571,-0.021999999295971403,-0.019000000453128628
-0.004261679016053677,-0.0052002063021063805,9.89189338684082,0,-0.0007999999797903001,0.06859999895095825,0.04200000047506539,-0.013000000266153095,0
-0.011319786310195923,-0.0007757213898003101,9.89499568939209,0,-0.0009999999310821295,0.07840000092983246,-0.007999999971379599,0,0.008999999863581633
0.012650961987674236,-0.022572534158825874,9.887545585632324,0,-0.010599999688565731,0.06859999895095825,-0.007000000079177565,-0.035000000395887826,-0.0039999999856897995
-0.0003543418715707958,-0.010208875872194767,9.87926197052002,-0.00009999999747378752,-0.0007999999797903001,0.058799996972084045,0.013000000266153095,0.0009999999964224499,0.015999999942759198
0.005956773646175861,0.002432508859783411,9.893310546875,-0.00009999999747378752,-0.0007999999797903001,0.07840000092983246,0.013000000266153095,-0.015999999942759198,-0.0009999999964224499
-0.0028251581825315952,-0.012066775932908058,9.886510848999023,-0.00009999999747378752,-0.0007999999797903001,0.06859999895095825,-0.05900000114378995,0.029999998433587676,-0.03100000082707969
0.0014844050165265799,-0.011559206061065197,9.883465766906738,0,-0.000699999975040555,0.06859999895095825,0.007999999971379599,-0.004999999877891834,-0.007999999971379599
0.01689348742365837,-0.0007086837431415915,9.881254196166992,0,-0.000699999975040555,0.058799996972084045,0.013000000266153095,0.004999999877891834,0.009999999755783667
-0.009203311055898666,-0.00978749617934227,9.890246391296387,0,-0.000699999975040555,0.06859999895095825,0.03899999996469596,0.029999998433587676,0.015999999942759198
-0.004932055249810219,0.011808202601969242,9.878016471862793,0,-0.0007999999797903001,0.058799996972084045,0.03100000082707969,-0.007000000079177565,0.02800000031671026
-0.002403778489679098,0.00045968673657625914,9.896164894104004,0,-0.0008999999845400453,0.07840000092983246,-0.021999999295971403,0.04900000055424296,-0.008999999863581633
-0.0051810527220368385,0.02158612199127674,9.88086986541748,0.00009999999747378752,-0.0007999999797903001,0.058799996972084045,-0.0039999999856897995,0.0030000000934877653,0.0009999999964224499
-0.0016855180729180574,0.009097966365516186,9.88856029510498,0,0.008799999952316284,0.058799996972084045,-0.0039999999856897995,-0.014999999216793838,0.049999999612681666
-0.004319139756262302,0.009356540627777576,9.888628005981445,0,-0.0007999999797903001,0.06859999895095825,0.01700000066872456,-0.01700000066872456,0
0.0021835120860487223,-0.004319139756262302,9.891481399536133,0,-0.0007999999797903001,0.06859999895095825,0.013000000266153095,0,-0.0039999999856897995
0.007450755685567856,-0.005602431949228048,9.867146492004395,0,-0.0008999999845400453,0.04899999871850014,-0.0429999995335041,-0.012000000373951061,0.013000000266153095
0.0005458780215121806,-0.0026336219161748886,9.882067680358887,0,-0.0007999999797903001,0.058799996972084045,0.013000000266153095,0.049999999612681666,-0.007999999971379599
0.0029688100330531597,0.004817133769392967,9.881617546081543,0.00009999999747378752,-0.0007999999797903001,0.058799996972084045,-0.015999999942759198,0.007999999971379599,-0.007999999971379599
0.009730035439133644,0.00039264908991754055,9.88278579711914,0.00009999999747378752,-0.000699999975040555,0.058799996972084045,0.008999999863581633,-0.007999999971379599,-0.009999999755783667
-0.006569689139723778,0.0023654713295400143,9.878371238708496,0.00009999999747378752,-0.000699999975040555,0.058799996972084045,0.02899999937514897,-0.019999999511567335,-0.007000000079177565
-0.010007763281464577,-0.009308655746281147,9.880928039550781,0,-0.0007999999797903001,0.058799996972084045,0.03899999996469596,-0.019000000453128628,-0.029999998433587676
-0.0006703764665871859,-0.004357446916401386,9.892439842224121,0,-0.0008999999845400453,0.06859999895095825,-0.007000000079177565,0.006000000186975531,0.004999999877891834
-0.005583278369158506,0.008504204452037811,9.897333145141602,0,-0.0008999999845400453,0.07840000092983246,0,0.01700000066872456,0.05799999875029794
-0.014805743470788002,0.011338939890265465,9.878829956054688,0,-0.0008999999845400453,0.058799996972084045,0.013000000266153095,0.006000000186975531,0.006000000186975531
0.0071826050989329815,0.010323798283934593,9.879931449890137,0,-0.0008999999845400453,0.058799996972084045,0.024000000747902123,-0.008999999863581633,0.014999999216793838
-0.014374786987900734,0.008446743711829185,9.892333984375,0,-0.0008999999845400453,0.06859999895095825,0.0019999999928448997,0.008999999863581633,-0.0030000000934877653
-0.003754108212888241,-0.007469909265637398,9.88135814666748,0,-0.0008999999845400453,0.058799996972084045,0.02899999937514897,-0.008999999863581633,0.035000000395887826
-0.01407790556550026,-0.009854533709585667,9.876886367797852,0,-0.0009999999310821295,0.058799996972084045,0.013000000266153095,-0.024000000747902123,0.024999999806340833
-0.0008427590364590287,-0.0047309426590800285,9.871360778808594,0,-0.0009999999310821295,0.04899999871850014,-0.004999999877891834,0.03999999902313467,-0.02600000053230619
-0.0006607996765524149,0.011817779392004013,9.890485763549805,0,-0.0009999999310821295,0.06859999895095825,0,-0.008999999863581633,0.019999999511567335
-0.0034284968860447407,-0.003734954632818699,9.882441520690918,0,-0.0009999999310821295,0.058799996972084045,-0.007999999971379599,-0.006000000186975531,0.0039999999856897995
-0.014221558347344398,0.011836932972073555,9.896949768066406,0,-0.0009999999310821295,0.07840000092983246,0.024000000747902123,-0.0030000000934877653,0.05600000063342052
0.001139639993198216,-0.014346056617796421,9.882278442382812,0,-0.0009999999310821295,0.058799996972084045,0.03899999996469596,-0.004999999877891834,-0.007999999971379599
-0.006014234386384487,-0.0015801731497049332,9.8705472946167,0,-0.0010999999940395355,0.04899999871850014,-0.013000000266153095,0.007999999971379599,-0.008999999863581633
0.0075273700058460236,-0.009835380129516125,9.878582000732422,0,-0.0009999999310821295,0.058799996972084045,0.013000000266153095,-0.006000000186975531,0.008999999863581633
0.0007852981798350811,-0.003754108212888241,9.88923168182373,0,-0.0010999999940395355,0.06859999895095825,-0.009999999755783667,-0.006000000186975531,0.029999998433587676
-0.013139378279447556,-0.01751597970724106,9.881636619567871,0,-0.0009999999310821295,0.058799996972084045,0,0.0019999999928448997,-0.0039999999856897995
0.0023654713295400143,-0.005315127782523632,9.90290641784668,0,-0.0009999999310821295,0.08819999545812607,-0.0009999999964224499,-0.007999999971379599,-0.007999999971379599
0.008628702722489834,-0.009835380129516125,9.898482322692871,0,-0.0009999999310821295,0.07840000092983246,-0.014999999216793838,0.017999999727163266,-0.019000000453128628
0.010333375073969364,-0.0006320692482404411,9.89002513885498,0,-0.0008999999845400453,0.06859999895095825,0.024999999806340833,-0.008999999863581633,0.008999999863581633
0.004089296329766512,-0.008896853774785995,9.89074420928955,0,-0.0009999999310821295,0.06859999895095825,-0.01700000066872456,-0.012000000373951061,-0.0039999999856897995
0.006406883709132671,0.004012682009488344,9.878323554992676,0,-0.0008999999845400453,0.058799996972084045,0.013000000266153095,-0.007999999971379599,-0.019000000453128628
-0.012852074578404427,-0.0030358475632965565,9.877374649047852,0,-0.0008999999845400453,0.058799996972084045,0.013000000266153095,-0.006000000186975531,0.019999999511567335
-0.002901772502809763,-0.007699752692133188,9.883906364440918,0,-0.0009999999310821295,0.06859999895095825,0.0039999999856897995,0.08899999957737763,0.013000000266153095
-0.011971008032560349,0.015524003654718399,9.880880355834961,0.00019999999494757503,-0.0009999999310821295,0.058799996972084045,0.013000000266153095,0.015999999942759198,-0.02600000053230619
-0.00031603462412022054,0.004261679016053677,9.884241104125977,0.00019999999494757503,-0.0009999999310821295,0.06859999895095825,0.012000000373951061,-0.0039999999856897995,0.043999998591942806
-0.006205771118402481,-0.0057460842654109,9.879443168640137,0.00019999999494757503,-0.0009999999310821295,0.058799996972084045,0.013000000266153095,0.014999999216793838,-0.0019999999928448997
-0.013426683843135834,0.00729752704501152,9.87641716003418,0.00019999999494757503,-0.0009999999310821295,0.058799996972084045,-0.013000000266153095,-0.008999999863581633,-0.008999999863581633
0.00013407529331743717,-0.0031124623492360115,9.877623558044434,0.00019999999494757503,-0.0009999999310821295,0.058799996972084045,-0.02600000053230619,0.007999999971379599,0.07000000079177565
0.0005650316015817225,-0.001618480309844017,9.882354736328125,0.00019999999494757503,-0.0008999999845400453,0.058799996972084045,0.012000000373951061,-0.02600000053230619,-0.007999999971379599
-0.005870582535862923,-0.011760318651795387,9.89603042602539,0.00009999999747378752,-0.0008999999845400453,0.07840000092983246,0.021000000237532696,0.007999999971379599,-0.007999999971379599
0.010275913402438164,0.00016280572162941098,9.884537696838379,0.00019999999494757503,-0.0009999999310821295,0.06859999895095825,-0.008999999863581633,-0.0429999995335041,-0.02600000053230619
0.004817133769392967,0.00416591065004468,9.877116203308105,0,-0.0008999999845400453,0.058799996972084045,0.012000000373951061,-0.015999999942759198,-0.0039999999856897995
-0.002298433566465974,0.0051140147261321545,9.88469123840332,0,-0.0008999999845400453,0.06859999895095825,0.012000000373951061,0.007999999971379599,-0.02899999937514897
0.0005267243832349777,-0.005123591516166925,9.888235092163086,0,-0.0009999999310821295,0.06859999895095825,-0.007999999971379599,0.05200000106461238,-0.015999999942759198
-0.004558559972792864,-0.004673481918871403,9.888148307800293,0.00019999999494757503,-0.0008999999845400453,0.06859999895095825,0.023000000021936765,0.02600000053230619,-0.007999999971379599
-0.00036391866160556674,-0.004060565959662199,9.884787559509277,0.00019999999494757503,-0.0009999999310821295,0.06859999895095825,0.024000000747902123,0.0039999999856897995,0.024000000747902123
-0.0029592332430183887,-0.004146757069975138,9.900646209716797,0.00019999999494757503,-0.0009999999310821295,0.07840000092983246,0.04200000047506539,-0.0009999999964224499,-0.0269999995907449
0.0006224924582056701,-0.0036391867324709892,9.87303638458252,0.00019999999494757503,-0.0010999999940395355,0.04899999871850014,-0.04900000055424296,-0.007000000079177565,0.009999999755783667
-0.010160991922020912,-0.0053917421028018,9.888187408447266,0.00019999999494757503,-0.0009999999310821295,0.06859999895095825,-0.014999999216793838,0.014999999216793838,-0.0039999999856897995
-0.0005841852398589253,0.007680599112063646,9.881387710571289,0.00019999999494757503,-0.0008999999845400453,0.06859999895095825,0.0030000000934877653,-0.038000000906257256,-0.007999999971379599
-0.0005841852398589253,0.007680599112063646,9.881387710571289,0.00029999998514540493,-0.0009999999310821295,0.058799996972084045,0.0030000000934877653,-0.038000000906257256,-0.007999999971379599
0.003371036145836115,-0.0011971008498221636,9.87903118133545,0.00019999999494757503,-0.0009999999310821295,0.07840000092983246,-0.021000000237532696,-0.05999999686717535,0.015999999942759198
0.0013311761431396008,-0.00869574025273323,9.893195152282715,0.00009999999747378752,-0.0008999999845400453,0.058799996972084045,0.013000000266153095,-0.008999999863581633,0.0039999999856897995
-0.005889736115932465,-0.001455674646422267,9.894852638244629,0,-0.0007999999797903001,0.07840000092983246,0.021000000237532696,-0.009999999755783667,0.0269999995907449
-0.006540958769619465,0.022218191996216774,9.882996559143066,0,0.008700000122189522,0.058799996972084045,-0.019000000453128628,0.0009999999964224499,0.02600000053230619
-0.01198058482259512,0.0016950948629528284,9.901412963867188,0,-0.0008999999845400453,0.07840000092983246,-0.009999999755783667,-0.04500000098543482,-0.007999999971379599
-0.004050989169627428,-0.001618480309844017,9.882105827331543,-0.00009999999747378752,-0.0008999999845400453,0.058799996972084045,0.0030000000934877653,-0.024000000747902123,0.01700000066872456
0.013733141124248505,-0.003064578166231513,9.89238166809082,-0.00019999999494757503,-0.0008999999845400453,0.06859999895095825,0.008999999863581633,-0.029999998433587676,-0.0009999999964224499
-0.0025378537829965353,-0.012650961987674236,9.887641906738281,-0.00029999998514540493,-0.0008999999845400453,0.06859999895095825,-0.0039999999856897995,0.006000000186975531,0.008999999863581633
-0.009643844328820705,-0.016012420877814293,9.879817008972168,-0.00019999999494757503,-0.0008999999845400453,0.058799996972084045,0.012000000373951061,-0.023000000021936765,-0.0019999999928448997
-0.007891288958489895,-0.005161899141967297,9.886109352111816,-0.00029999998514540493,-0.0008999999845400453,0.06859999895095825,0.0030000000934877653,0.006000000186975531,0.0030000000934877653
0.009222464635968208,0.0027006594464182854,9.876474380493164,-0.00029999998514540493,-0.0008999999845400453,0.058799996972084045,0.013000000266153095,-0.0009999999964224499,-0.010999999647985701
0.009873687289655209,-0.008858546614646912,9.884480476379395,-0.00029999998514540493,-0.0008999999845400453,0.06859999895095825,0.019000000453128628,-0.008999999863581633,0.019999999511567335
0.004328716546297073,0.017094600945711136,9.880745887756348,-0.00029999998514540493,-0.0009999999310821295,0.058799996972084045,-0.046999999102312236,-0.013000000266153095,0.004999999877891834
0.018636466935276985,0.006416460499167442,9.895954132080078,-0.00029999998514540493,-0.0007999999797903001,0.07840000092983246,0.0030000000934877653,0.03899999996469596,-0.007000000079177565
0.00026815058663487434,0.0020781669300049543,9.883637428283691,-0.00019999999494757503,-0.0007999999797903001,0.06859999895095825,-0.03999999902313467,-0.014999999216793838,-0.007999999971379599
-0.012708422727882862,-0.009117119945585728,9.900243759155273,-0.00029999998514540493,-0.000699999975040555,0.07840000092983246,0.024000000747902123,-0.0269999995907449,-0.009999999755783667
-0.01523669995367527,0.0008523358264937997,9.888474464416504,-0.00029999998514540493,-0.0007999999797903001,0.06859999895095825,0.013000000266153095,0.014999999216793838,0.008999999863581633
-0.010160991922020912,-0.0006991068948991597,9.890122413635254,-0.00029999998514540493,-0.0007999999797903001,0.06859999895095825,0.013000000266153095,-0.021999999295971403,-0.007999999971379599
0.010630255565047264,0.002298433566465974,9.89118480682373,-0.00029999998514540493,-0.0007999999797903001,0.06859999895095825,-0.0039999999856897995,-0.007999999971379599,0.014999999216793838
-0.0014077905798330903,-0.011808202601969242,9.882163047790527,-0.00039999998989515007,-0.0007999999797903001,0.058799996972084045,0.013000000266153095,-0.0269999995907449,-0.05200000106461238
-0.018971655517816544,0.006971915252506733,9.882346153259277,-0.00039999998989515007,-0.0007999999797903001,0.058799996972084045,0.0019999999928448997,0.007999999971379599,-0.0269999995907449
0.00209732074290514,-0.0042904093861579895,9.89064884185791,-0.00039999998989515007,-0.0007999999797903001,0.06859999895095825,-0.0039999999856897995,-0.0009999999964224499,0.05999999686717535
0.014968548901379108,0.013053187169134617,9.893138885498047,-0.00039999998989515007,-0.0007999999797903001,0.07840000092983246,-0.02800000031671026,-0.004999999877891834,-0.007999999971379599
0.010917559266090393,-0.008820239454507828,9.875603675842285,-0.00039999998989515007,-0.000699999975040555,0.058799996972084045,0.007000000079177565,-0.008999999863581633,0.0009999999964224499
-0.005506663583219051,-0.015495273284614086,9.875641822814941,-0.00039999998989515007,-0.000699999975040555,0.058799996972084045,0.007999999971379599,0.019999999511567335,-0.007999999971379599
0.00442448491230607,-0.0013694833032786846,9.876982688903809,-0.00039999998989515007,-0.000699999975040555,0.058799996972084045,-0.010999999647985701,-0.017999999727163266,-0.019000000453128628
-0.00028730419580824673,-0.00883939303457737,9.881349563598633,-0.00039999998989515007,-0.000699999975040555,0.058799996972084045,0.013000000266153095,-0.0329999989439571,-0.0030000000934877653
-0.0025282769929617643,-0.01443224772810936,9.887967109680176,-0.0004999999655410647,-0.000699999975040555,0.058799996972084045,0,-0.008999999863581633,-0.007000000079177565
-0.0033327287528663874,-0.012277467176318169,9.89789867401123,-0.0004999999655410647,-0.000699999975040555,0.06859999895095825,0.009999999755783667,-0.007000000079177565,0.008999999863581633
-0.004060565959662199,0.0029592332430183887,9.879664421081543,-0.0004999999655410647,-0.000699999975040555,0.07840000092983246,-0.0030000000934877653,0.041000001416626686,-0.0030000000934877653
0.0023558945395052433,-0.003907337319105864,9.891318321228027,-0.00039999998989515007,-0.000699999975040555,0.06859999895095825,-0.05600000063342052,-0.008999999863581633,-0.043999998591942806
0.013110647909343243,0.01039083581417799,9.891999244689941,-0.00039999998989515007,-0.0005999999702908099,0.06859999895095825,0.0030000000934877653,0,-0.008999999863581633
-0.01523669995367527,0.004156333860009909,9.88585090637207,-0.00039999998989515007,-0.0005999999702908099,0.06859999895095825,0.0039999999856897995,0.017999999727163266,-0.021999999295971403
-0.0013120225630700588,-0.004989516455680132,9.88856029510498,-0.00039999998989515007,-0.0005999999702908099,0.06859999895095825,-0.029999998433587676,-0.03999999902313467,-0.0329999989439571
-0.001944091753102839,0.0020590133499354124,9.874492645263672,-0.0004999999655410647,-0.0004999999655410647,0.058799996972084045,-0.004999999877891834,-0.02800000031671026,-0.007999999971379599
-0.004865017719566822,0.00039264908991754055,9.88997745513916,-0.0004999999655410647,-0.0004999999655410647,0.06859999895095825,0.01700000066872456,-0.010999999647985701,0.019000000453128628
-0.0028251581825315952,-0.003390189725905657,9.880209922790527,-0.0005999999702908099,-0.0004999999655410647,0.058799996972084045,0.013000000266153095,-0.019000000453128628,-0.007000000079177565
0.006416460499167442,0.01902911625802517,9.888301849365234,-0.0005999999702908099,-0.0004999999655410647,0.06859999895095825,-0.05600000063342052,-0.004999999877891834,-0.015999999942759198
0.0052002063021063805,0.0005746083916164935,9.880928039550781,-0.0005999999702908099,-0.00039999998989515007,0.058799996972084045,0.013000000266153095,0.007999999971379599,-0.007000000079177565
0.01114740315824747,-0.006646303925663233,9.880266189575195,-0.0005999999702908099,-0.00039999998989515007,0.058799996972084045,-0.0039999999856897995,0.043999998591942806,-0.024000000747902123
-0.006895300932228565,0.0037924153730273247,9.888139724731445,-0.0004999999655410647,-0.00039999998989515007,0.06859999895095825,-0.019000000453128628,0.007000000079177565,0.021000000237532696
-0.005851428955793381,0.005525817163288593,9.885677337646484,-0.00039999998989515007,-0.00029999998514540493,0.06859999895095825,0.013000000266153095,0.015999999942759198,0.007000000079177565
-0.01228704396635294,0.00045968673657625914,9.894622802734375,-0.00039999998989515007,-0.00039999998989515007,0.07840000092983246,-0.05600000063342052,0.015999999942759198,-0.007999999971379599
-0.010342951864004135,0.004778826609253883,9.902897834777832,-0.00029999998514540493,-0.00019999999494757503,0.08819999545812607,0.01400000015835513,0.01700000066872456,-0.006000000186975531
0.008475474081933498,-0.011846509762108326,9.888206481933594,-0.00029999998514540493,-0.00019999999494757503,0.06859999895095825,0.010999999647985701,-0.015999999942759198,0.03400000133744912
-0.0029592332430183887,0.011712434701621532,9.900933265686035,-0.00029999998514540493,-0.00029999998514540493,0.07840000092983246,0.013000000266153095,0.0009999999964224499,-0.0329999989439571
-0.008197746239602566,-0.0031316159293055534,9.880114555358887,-0.00029999998514540493,-0.00029999998514540493,0.058799996972084045,0.010999999647985701,0.03699999851276524,0.0269999995907449
0.018138471990823746,-0.002240972826257348,9.88305377960205,-0.00019999999494757503,-0.00029999998514540493,0.058799996972084045,0.010999999647985701,0.008999999863581633,-0.004999999877891834
0.0030358475632965565,-0.0030358475632965565,9.886529922485352,-0.00019999999494757503,-0.00039999998989515007,0.06859999895095825,0.004999999877891834,-0.008999999863581633,-0.009999999755783667
0.00274854339659214,-0.008418013341724873,9.894719123840332,-0.00019999999494757503,-0.00039999998989515007,0.07840000092983246,0.007000000079177565,-0.010999999647985701,0.03100000082707969
-0.008667009882628918,-0.01959414593875408,9.888043403625488,-0.00019999999494757503,-0.010099999606609344,0.06859999895095825,-0.03699999851276524,0.024000000747902123,0.007000000079177565
0.0015705963596701622,-0.005133168306201696,9.8903226852417,-0.00019999999494757503,-0.00019999999494757503,0.06859999895095825,-0.010999999647985701,-0.008999999863581633,-0.007999999971379599
0.0018004396697506309,-0.0031316159293055534,9.887765884399414,-0.00019999999494757503,-0.00009999999747378752,0.06859999895095825,-0.021999999295971403,0.004999999877891834,-0.007999999971379599
-0.0034668040461838245,0.0007661445415578783,9.877423286437988,-0.00019999999494757503,-0.00009999999747378752,0.058799996972084045,0.0019999999928448997,-0.013000000266153095,0.019999999511567335
-0.016883911564946175,0.002576161175966263,9.882192611694336,-0.00019999999494757503,-0.00009999999747378752,0.06859999895095825,0.013000000266153095,0.006000000186975531,0.03400000133744912
-0.011061212047934532,-0.007776367012411356,9.886540412902832,-0.00019999999494757503,-0.00019999999494757503,0.06859999895095825,-0.006000000186975531,-0.008999999863581633,-0.014999999216793838
0.0043861777521669865,-0.0030166939832270145,9.88207721710205,-0.00019999999494757503,-0.00009999999747378752,0.058799996972084045,0.02600000053230619,0.02600000053230619,-0.007999999971379599
-0.006531381979584694,-0.004089296329766512,9.899382591247559,-0.00019999999494757503,-0.00019999999494757503,0.07840000092983246,0.01400000015835513,-0.03599999945432653,-0.007999999971379599
0.00018195933080278337,-0.011329363100230694,9.890925407409668,-0.00029999998514540493,-0.00019999999494757503,0.06859999895095825,0.013000000266153095,0.010999999647985701,0.009999999755783667
-0.012469002977013588,-0.005324704572558403,9.891108512878418,-0.00019999999494757503,-0.00029999998514540493,0.06859999895095825,0.013000000266153095,-0.007000000079177565,-0.0039999999856897995
0.0018770541064441204,0.014537593349814415,9.883063316345215,-0.00019999999494757503,-0.00029999998514540493,0.058799996972084045,0.004999999877891834,0.013000000266153095,0
-0.0072687966749072075,-0.006607996299862862,9.898309707641602,-0.00019999999494757503,-0.00029999998514540493,0.07840000092983246,0.013000000266153095,0.006000000186975531,-0.007000000079177565
0.010840944945812225,0.0033327287528663874,9.892228126525879,-0.00019999999494757503,-0.00029999998514540493,0.06859999895095825,0.007000000079177565,-0.008999999863581633,-0.0019999999928448997
-0.0034572272561490536,-0.010352528654038906,9.89494800567627,-0.00019999999494757503,-0.00039999998989515007,0.07840000092983246,0.0019999999928448997,-0.0039999999856897995,-0.03699999851276524
0.0021643582731485367,-0.005813121795654297,9.88290023803711,-0.00019999999494757503,-0.00039999998989515007,0.058799996972084045,-0.057000003026912535,-0.004999999877891834,-0.006000000186975531
-0.009337387047708035,-0.0006607996765524149,9.875171661376953,-0.00019999999494757503,-0.00019999999494757503,0.058799996972084045,0.006000000186975531,-0.017999999727163266,0
0.0076135615818202496,-0.001130063203163445,9.877260208129883,-0.00029999998514540493,-0.00019999999494757503,0.058799996972084045,0.009999999755783667,0.019999999511567335,0.024999999806340833
-0.01268926914781332,-0.009701305069029331,9.883637428283691,-0.00019999999494757503,-0.00019999999494757503,0.06859999895095825,0.0009999999964224499,0.0019999999928448997,0.019999999511567335
-0.00038307227077893913,-0.005793968215584755,9.880324363708496,-0.00019999999494757503,-0.00019999999494757503,0.058799996972084045,-0.021999999295971403,-0.023000000021936765,-0.009999999755783667
0.0037924153730273247,-0.0012737152865156531,9.89126205444336,-0.00029999998514540493,-0.00019999999494757503,0.06859999895095825,-0.0039999999856897995,-0.007999999971379599,-0.029999998433587676
-0.003342305775731802,0.0010821791365742683,9.882009506225586,-0.00029999998514540493,-0.00019999999494757503,0.058799996972084045,-0.019000000453128628,-0.06800000267489824,-0.0009999999964224499
-0.0023271639365702868,-0.000976834329776466,9.903050422668457,-0.0004999999655410647,-0.00009999999747378752,0.08819999545812607,0.012000000373951061,-0.006000000186975531,-0.009999999755783667
0.00329442135989666,0.004912901669740677,9.876646995544434,-0.0004999999655410647,-0.00009999999747378752,0.058799996972084045,0.0009999999964224499,-0.008999999863581633,-0.0269999995907449
-0.016060303896665573,0.00594719685614109,9.892457962036133,-0.0004999999655410647,-0.00009999999747378752,0.06859999895095825,-0.043999998591942806,0.03100000082707969,0.006000000186975531
0.007316680625081062,0.005631162319332361,9.904994010925293,-0.00039999998989515007,0,0.08819999545812607,0.012000000373951061,0.03599999945432653,-0.009999999755783667
-0.006110002286732197,0.007584830746054649,9.879653930664062,-0.00029999998514540493,0,0.058799996972084045,-0.017999999727163266,0.008999999863581633,-0.0019999999928448997
-0.013570335693657398,-0.0016663643764331937,9.89401912689209,-0.00029999998514540493,0,0.07840000092983246,-0.007000000079177565,-0.006000000186975531,-0.008999999863581633
-0.0009864111198112369,-0.0007948749698698521,9.876944541931152,-0.00029999998514540493,0,0.058799996972084045,0.03699999851276524,0.019999999511567335,-0.008999999863581633
-0.001446097856387496,-0.008341399021446705,9.883724212646484,-0.00019999999494757503,-0.00009999999747378752,0.058799996972084045,0.010999999647985701,-0.03400000133744912,0.0039999999856897995
-0.007824251428246498,0.013924676924943924,9.891098976135254,-0.00029999998514540493,-0.00009999999747378752,0.06859999895095825,0.004999999877891834,-0.0039999999856897995,0.0329999989439571
-0.009404424577951431,-0.012823344208300114,9.890447616577148,-0.00029999998514540493,-0.00009999999747378752,0.06859999895095825,-0.038000000906257256,0.0269999995907449,0.03699999851276524
-0.009548076428472996,0.01594538241624832,9.874846458435059,-0.00019999999494757503,0,0.058799996972084045,0.010999999647985701,-0.01700000066872456,0.03899999996469596
0.015696385875344276,0.001283292076550424,9.891395568847656,-0.00019999999494757503,0,0.06859999895095825,0.009999999755783667,0.0539999991814898,0.007000000079177565
0.010199299082159996,-0.0043861777521669865,9.884413719177246,-0.00009999999747378752,0,0.06859999895095825,-0.02600000053230619,-0.031999999885518396,0.041000001416626686
-0.001283292076550424,-0.0008331821882165968,9.8729887008667,-0.00019999999494757503,0,0.04899999871850014,0.01400000015835513,0.02899999937514897,-0.0019999999928448997
0.008350975811481476,-0.006282385438680649,9.881080627441406,-0.00009999999747378752,0,0.058799996972084045,0.009999999755783667,0.023000000021936765,-0.021000000237532696
0.004501099232584238,0.009605537168681622,9.889997482299805,0,0,0.06859999895095825,0.02899999937514897,0.029999998433587676,0.01700000066872456
-0.011875240132212639,0.0013599065132439137,9.880592346191406,0,-0.00009999999747378752,0.058799996972084045,0.024000000747902123,-0.02600000053230619,-0.019000000453128628
0.006110002286732197,-0.007661445531994104,9.895139694213867,0,-0.00019999999494757503,0.07840000092983246,0.0039999999856897995,-0.024999999806340833,0.03999999902313467
0.009174580685794353,0.0023558945395052433,9.89887523651123,-0.00009999999747378752,-0.00019999999494757503,0.07840000092983246,-0.009999999755783667,-0.017999999727163266,-0.02800000031671026
0.0021835120860487223,-0.003840299556031823,9.889211654663086,-0.00009999999747378752,-0.00009999999747378752,0.06859999895095825,0.010999999647985701,-0.007999999971379599,0.014999999216793838
-0.002087743952870369,0.005343858152627945,9.881464004516602,-0.00009999999747378752,-0.00019999999494757503,0.058799996972084045,0.012000000373951061,0.021000000237532696,-0.0039999999856897995
0.0021643582731485367,0.0021643582731485367,9.887775421142578,-0.00009999999747378752,-0.00019999999494757503,0.06859999895095825,0.0030000000934877653,-0.007999999971379599,-0.009999999755783667
-0.002834734972566366,-0.007000645622611046,9.887277603149414,-0.00009999999747378752,-0.00019999999494757503,0.06859999895095825,0.008999999863581633,-0.007999999971379599,0.010999999647985701
0.008619125932455063,-0.012459426186978817,9.889901161193848,-0.00009999999747378752,-0.00019999999494757503,0.06859999895095825,0.012000000373951061,0.017999999727163266,-0.009999999755783667
-0.0018004396697506309,-0.00419464148581028,9.898530006408691,-0.00009999999747378752,-0.00019999999494757503,0.07840000092983246,0.012000000373951061,0.015999999942759198,-0.010999999647985701
-0.01059194840490818,-0.01039083581417799,9.87907886505127,0,-0.00029999998514540493,0.058799996972084045,-0.04600000004387353,0.038000000906257256,-0.01400000015835513
-0.012852074578404427,0.005774814635515213,9.877163887023926,0,-0.00009999999747378752,0.058799996972084045,0.009999999755783667,-0.0030000000934877653,-0.007000000079177565
-0.0051140147261321545,-0.014346056617796421,9.88709545135498,0,-0.00019999999494757503,0.06859999895095825,-0.02800000031671026,-0.007999999971379599,0.017999999727163266
-0.005372588522732258,0.0026240451261401176,9.877777099609375,0,-0.00009999999747378752,0.058799996972084045,0.013000000266153095,0.015999999942759198,0.009999999755783667
-0.008418013341724873,-0.011607090011239052,9.89815616607666,0,-0.00009999999747378752,0.07840000092983246,-0.041000001416626686,0.0009999999964224499,-0.015999999942759198
0.016108188778162003,-0.0050948611460626125,9.884279251098633,0,0,0.06859999895095825,0.012000000373951061,0.008999999863581633,-0.0019999999928448997
-0.010074800811707973,-0.002576161175966263,9.877835273742676,0,0,0.07840000092983246,0.012000000373951061,-0.007000000079177565,-0.008999999863581633
0.004022258799523115,-0.011099519208073616,9.888474464416504,0.00019999999494757503,-0.00009999999747378752,0.06859999895095825,0.012000000373951061,0.012000000373951061,0.03899999996469596
0.004596867132931948,0.0016663643764331937,9.884480476379395,0.00019999999494757503,-0.00009999999747378752,0.06859999895095825,0.013000000266153095,-0.043999998591942806,-0.03100000082707969
0.00924161821603775,-0.001436521066352725,9.885150909423828,0.00009999999747378752,-0.00019999999494757503,0.06859999895095825,0.0039999999856897995,-0.03400000133744912,-0.019999999511567335
-0.0010151414899155498,0.005228936672210693,9.88508415222168,0,-0.00019999999494757503,0.06859999895095825,0.006000000186975531,-0.03400000133744912,0.007000000079177565
0.008303090929985046,-0.00023942017287481576,9.909945487976074,0,-0.00019999999494757503,0.08819999545812607,0.0030000000934877653,0.013000000266153095,0.05499999823992851
0.006789956241846085,0.012354081496596336,9.884653091430664,0,-0.00019999999494757503,0.06859999895095825,-0.013000000266153095,-0.007999999971379599,0.023000000021936765
-0.008580818772315979,-0.001465251436457038,9.88833999633789,0,-0.00009999999747378752,0.06859999895095825,-0.004999999877891834,0.0269999995907449,-0.009999999755783667
0.003849876346066594,-0.007958326488733292,9.879874229431152,0,-0.00009999999747378752,0.058799996972084045,0.017999999727163266,0.012000000373951061,0.0429999995335041
-0.0130914943292737,0.0035529951564967632,9.887066841125488,0,-0.00019999999494757503,0.06859999895095825,0.0269999995907449,-0.007999999971379599,-0.008999999863581633
0.0018291701562702656,0.0007852981798350811,9.877106666564941,0,-0.00019999999494757503,0.058799996972084045,-0.07000000079177565,0.0009999999964224499,-0.008999999863581633
-0.022649148479104042,0.0055449712090194225,9.873601913452148,-0.009599999524652958,0,0.04899999871850014,0.02899999937514897,-0.006000000186975531,-0.009999999755783667
0.008810662664473057,0.00988326407968998,9.876532554626465,0.00009999999747378752,-0.00009999999747378752,0.058799996972084045,0.0030000000934877653,-0.023000000021936765,-0.006000000186975531
0.00008619125583209097,-0.0008714894065633416,9.896998405456543,0,-0.00009999999747378752,0.07840000092983246,-0.007999999971379599,-0.007999999971379599,0.01700000066872456
0.005046977195888758,-0.01796608977019787,9.888349533081055,0,-0.00009999999747378752,0.06859999895095825,0.0329999989439571,-0.01700000066872456,-0.015999999942759198
0.0025953147560358047,0.001426944276317954,9.88344669342041,0,-0.00019999999494757503,0.06859999895095825,0.010999999647985701,0.008999999863581633,0.007000000079177565
-0.001110909623093903,-0.008082824759185314,9.88207721710205,0,-0.00019999999494757503,0.058799996972084045,0.0030000000934877653,-0.007999999971379599,0.035000000395887826
0.006895300932228565,0.0124977333471179,9.882172584533691,0,-0.00019999999494757503,0.058799996972084045,0,-0.007999999971379599,-0.015999999942759198
-0.006512228399515152,-0.0029879636131227016,9.886070251464844,0,-0.00019999999494757503,0.06859999895095825,0.009999999755783667,0.035000000395887826,-0.012000000373951061
0.005669469945132732,-0.008877700194716454,9.888187408447266,0.00009999999747378752,-0.00019999999494757503,0.06859999895095825,-0.009999999755783667,-0.013000000266153095,0.013000000266153095
0.009050082415342331,-0.004319139756262302,9.873390197753906,0,-0.00019999999494757503,0.04899999871850014,0.0009999999964224499,0.0269999995907449,-0.009999999755783667
-0.00010534487955737859,-0.00045968673657625914,9.891146659851074,0.00009999999747378752,-0.00019999999494757503,0.06859999895095825,0.012000000373951061,-0.007999999971379599,0.0039999999856897995
-0.0006224924582056701,0.005793968215584755,9.901116371154785,0.00009999999747378752,-0.00019999999494757503,0.07840000092983246,-0.01400000015835513,0.015999999942759198,-0.007999999971379599
0.0008810661965981126,-0.004453215282410383,9.888243675231934,0.00009999999747378752,-0.00019999999494757503,0.06859999895095825,0.010999999647985701,0.019000000453128628,-0.007000000079177565
0.006244078278541565,-0.0010151414899155498,9.878533363342285,0.00019999999494757503,-0.00019999999494757503,0.058799996972084045,0.0009999999964224499,0.024999999806340833,0.01700000066872456
-0.016146495938301086,0.0017908628797158599,9.887056350708008,0.00009999999747378752,-0.00029999998514540493,0.058799996972084045,-0.0039999999856897995,0.012000000373951061,-0.035000000395887826
0.0006320692482404411,-0.004759673029184341,9.891156196594238,0.00019999999494757503,-0.00019999999494757503,0.06859999895095825,-0.013000000266153095,-0.007000000079177565,-0.009999999755783667
0.004711789079010487,-0.011434707790613174,9.8851318359375,0.00019999999494757503,-0.00019999999494757503,0.06859999895095825,0.0009999999964224499,0.04200000047506539,0.01400000015835513
-0.002221819246187806,0.00397437484934926,9.893109321594238,0.00029999998514540493,-0.00019999999494757503,0.07840000092983246,0.012000000373951061,-0.0019999999928448997,0.0039999999856897995
0.0071634515188634396,0.010017340071499348,9.88939380645752,0.00029999998514540493,-0.00019999999494757503,0.06859999895095825,0.012000000373951061,-0.007000000079177565,-0.019999999511567335
-0.010113107971847057,-0.005363011732697487,9.880602836608887,0.00029999998514540493,-0.00029999998514540493,0.058799996972084045,0.007000000079177565,-0.007000000079177565,-0.007000000079177565
0.0057460842654109,-0.009366117417812347,9.883465766906738,0.00029999998514540493,-0.00029999998514540493,0.06859999895095825,-0.009999999755783667,-0.0019999999928448997,0.01700000066872456
-0.012220004573464394,-0.009212887845933437,9.886041641235352,0.00029999998514540493,-0.00029999998514540493,0.06859999895095825,-0.023000000021936765,-0.007999999971379599,0.024999999806340833
-0.0075369467958807945,0.001781286089681089,9.889824867248535,0.00019999999494757503,-0.00019999999494757503,0.06859999895095825,0.0019999999928448997,0.007999999971379599,-0.008999999863581633
0.0033135751727968454,0.002250549616292119,9.876733779907227,0.00029999998514540493,-0.00019999999494757503,0.058799996972084045,0.0009999999964224499,-0.007999999971379599,0.0039999999856897995
0.00008619125583209097,-0.0026336219161748886,9.889547348022461,0.00019999999494757503,-0.00019999999494757503,0.06859999895095825,0.035000000395887826,0.014999999216793838,0.008999999863581633
-0.011089942418038845,-0.011971008032560349,9.891902923583984,0.00029999998514540493,-0.00029999998514540493,0.06859999895095825,-0.008999999863581633,0.035000000395887826,0.05200000106461238
0.002432508859783411,-0.01846408285200596,9.891558647155762,0.00039999998989515007,-0.00029999998514540493,0.06859999895095825,0.010999999647985701,0.0269999995907449,0.03999999902313467
0.0063589997589588165,-0.0035529951564967632,9.877518653869629,0.00039999998989515007,-0.00029999998514540493,0.058799996972084045,-0.014999999216793838,-0.03999999902313467,-0.023000000021936765
0.012756306678056717,-0.0007948749698698521,9.879385948181152,0.00029999998514540493,-0.00019999999494757503,0.058799996972084045,0.0009999999964224499,-0.0019999999928448997,0.03599999945432653
-0.007058106362819672,0.0067995330318808556,9.888406753540039,0.00029999998514540493,-0.00019999999494757503,0.06859999895095825,0.0269999995907449,0.046999999102312236,-0.010999999647985701
0.0025282769929617643,0.0067995330318808556,9.892784118652344,0.00039999998989515007,-0.00029999998514540493,0.06859999895095825,0.0019999999928448997,-0.0039999999856897995,-0.01700000066872456
0.010103531181812286,-0.001781286089681089,9.874846458435059,0.00039999998989515007,-0.00029999998514540493,0.058799996972084045,-0.013000000266153095,-0.007000000079177565,-0.006000000186975531
-0.015964535996317863,-0.01498770248144865,9.89272689819336,0.00039999998989515007,-0.00029999998514540493,0.06859999895095825,0,-0.008999999863581633,0.031999999885518396
0.01168370433151722,-0.00759440753608942,9.872069358825684,0.00039999998989515007,-0.00029999998514540493,0.04899999871850014,0.007000000079177565,-0.007000000079177565,0.048000001495804245
0.002901772502809763,-0.002930502872914076,9.88197135925293,0.00029999998514540493,-0.00029999998514540493,0.058799996972084045,-0.009999999755783667,0.02600000053230619,-0.035000000395887826
-0.011836932972073555,-0.003303998149931431,9.880698204040527,0.00039999998989515007,-0.00019999999494757503,0.058799996972084045,-0.021000000237532696,0.03699999851276524,0.02899999937514897
-0.012315774336457253,-0.004108449909836054,9.8972749710083,0.0004999999655410647,-0.00019999999494757503,0.07840000092983246,0.0329999989439571,-0.0039999999856897995,-0.01700000066872456
0.006991068832576275,-0.005975927226245403,9.900042533874512,0.00039999998989515007,-0.00029999998514540493,0.07840000092983246,0.009999999755783667,-0.007999999971379599,0
-0.009414001367986202,0.0012258312199264765,9.890246391296387,0.00039999998989515007,-0.00029999998514540493,0.06859999895095825,-0.012000000373951061,0.009999999755783667,0.0039999999856897995
-0.008963891305029392,0.0033135751727968454,9.883312225341797,0.00039999998989515007,-0.00029999998514540493,0.06859999895095825,0.006000000186975531,-0.0039999999856897995,0.031999999885518396
-0.011760318651795387,0.005861005745828152,9.881856918334961,0.00039999998989515007,-0.00029999998514540493,0.06859999895095825,-0.0030000000934877653,-0.017999999727163266,0.023000000021936765
-0.018502390012145042,0.0015801731497049332,9.884510040283203,0.00039999998989515007,-0.00029999998514540493,0.06859999895095825,0.035000000395887826,0.0009999999964224499,-0.019000000453128628
-0.01670195162296295,0.0009193734731525183,9.884136199951172,0.00039999998989515007,-0.00039999998989515007,0.06859999895095825,0.008999999863581633,0.035000000395887826,-0.024000000747902123
-0.000814028549939394,-0.001149216783232987,9.883838653564453,0.0004999999655410647,-0.00039999998989515007,0.06859999895095825,-0.021000000237532696,-0.012000000373951061,0
0.008159439079463482,-0.014068328775465488,9.86971378326416,0.00039999998989515007,-0.00029999998514540493,0.04899999871850014,-0.013000000266153095,0.0429999995335041,-0.010999999647985701
0.004079719539731741,-0.008178592659533024,9.870680809020996,0.0004999999655410647,-0.00029999998514540493,0.04899999871850014,-0.02899999937514897,0.004999999877891834,0
-0.00894473772495985,-0.007345410995185375,9.873697280883789,0.0004999999655410647,-0.00019999999494757503,0.058799996972084045,0.010999999647985701,0.0269999995907449,0.0009999999964224499
0.00038307227077893913,-0.004836287349462509,9.881856918334961,0.0005999999702908099,-0.00019999999494757503,0.058799996972084045,0.02600000053230619,0.029999998433587676,-0.009999999755783667
-0.010735600255429745,-0.014049175195395947,9.882987022399902,0.0005999999702908099,-0.00029999998514540493,0.058799996972084045,0.015999999942759198,-0.008999999863581633,0.04900000055424296
-0.010735600255429745,-0.014049175195395947,9.882987022399902,0.0005999999702908099,-0.00029999998514540493,0.058799996972084045,0.015999999942759198,-0.008999999863581633,0.04900000055424296
-0.012516886927187443,-0.0007661445415578783,9.884614944458008,0.0005999999702908099,-0.00039999998989515007,0.06859999895095825,0.010999999647985701,0.0039999999856897995,-0.009999999755783667
0.0020302829798310995,0.005813121795654297,9.894009590148926,0.0004999999655410647,-0.0004999999655410647,0.07840000092983246,0,0.024000000747902123,-0.009999999755783667
-0.0067995330318808556,-0.01177947223186493,9.893684387207031,0.0004999999655410647,-0.0004999999655410647,0.07840000092983246,0.010999999647985701,0.0039999999856897995,-0.023000000021936765
-0.0008810661965981126,-0.0018004396697506309,9.889785766601562,0.0004999999655410647,-0.0004999999655410647,0.06859999895095825,0.009999999755783667,0.006000000186975531,0.010999999647985701
-0.0026240451261401176,-0.0009002198348753154,9.888005256652832,0.0004999999655410647,-0.0004999999655410647,0.06859999895095825,0.03699999851276524,0.02800000031671026,0.05999999686717535
-0.009222464635968208,0.0025953147560358047,9.887718200683594,0.0005999999702908099,-0.0005999999702908099,0.06859999895095825,0.010999999647985701,-0.007999999971379599,-0.008999999863581633
-0.0005650316015817225,-0.004146757069975138,9.88525676727295,0.0005999999702908099,-0.0005999999702908099,0.06859999895095825,0.012000000373951061,-0.0329999989439571,0.04200000047506539
-0.004568136762827635,-0.014403517358005047,9.882920265197754,0.0004999999655410647,-0.000699999975040555,0.058799996972084045,0.007000000079177565,0.0030000000934877653,0
0.009701305069029331,-0.010429142974317074,9.86589241027832,0.0004999999655410647,-0.000699999975040555,0.04899999871850014,0.007000000079177565,-0.007999999971379599,-0.0019999999928448997
-0.004405331332236528,-0.00019153613538946956,9.875813484191895,0.00039999998989515007,-0.000699999975040555,0.058799996972084045,-0.035000000395887826,-0.012000000373951061,0.06099999926066736
-0.01801397278904915,-0.01867477409541607,9.879989624023438,0.00039999998989515007,-0.0005999999702908099,0.058799996972084045,0.015999999942759198,-0.0009999999964224499,0.017999999727163266
-0.004587290342897177,-0.0050948611460626125,9.88121509552002,0.00039999998989515007,-0.0005999999702908099,0.058799996972084045,-0.023000000021936765,-0.006000000186975531,0.031999999885518396
-0.018301276490092278,0.0031507695093750954,9.883790969848633,0.00039999998989515007,-0.0004999999655410647,0.06859999895095825,0.05900000114378995,-0.007999999971379599,0.0039999999856897995
-0.008552088402211666,0.003715801052749157,9.882920265197754,0.00039999998989515007,-0.000699999975040555,0.058799996972084045,0.0659999978879142,-0.008999999863581633,-0.0030000000934877653
0.0009097966831177473,0.0025091234128922224,9.887823104858398,0.00029999998514540493,-0.0008999999845400453,0.06859999895095825,0.031999999885518396,0.024000000747902123,0
-0.004395754542201757,0.00969172827899456,9.889509201049805,0.00039999998989515007,-0.0008999999845400453,0.06859999895095825,-0.009999999755783667,-0.035000000395887826,-0.010999999647985701
-0.010113107971847057,0.00209732074290514,9.8883695602417,0.00029999998514540493,-0.0008999999845400453,0.06859999895095825,0.007999999971379599,0.041000001416626686,0.03999999902313467
-0.027447128668427467,-0.0004979939549230039,9.886301040649414,-0.009200000204145908,-0.0007999999797903001,0.06859999895095825,-0.006000000186975531,-0.007999999971379599,0.0019999999928448997
0.004491522442549467,0.009710881859064102,9.867673873901367,0.0004999999655410647,-0.0007999999797903001,0.04899999871850014,-0.0019999999928448997,0.02800000031671026,-0.019999999511567335
-0.003945644479244947,-0.00004788403384736739,9.887669563293457,0.0005999999702908099,-0.0007999999797903001,0.06859999895095825,-0.0539999991814898,-0.0039999999856897995,-0.012000000373951061
0.007431602105498314,-0.0024899698328226805,9.891606330871582,0.0005999999702908099,-0.0005999999702908099,0.06859999895095825,0.012000000373951061,0.0030000000934877653,-0.024000000747902123
-0.007776367012411356,-0.0120859295129776,9.873581886291504,0.0005999999702908099,-0.0005999999702908099,0.04899999871850014,-0.01400000015835513,-0.023000000021936765,-0.021000000237532696
0.005583278369158506,0.0018291701562702656,9.882996559143066,0.0004999999655410647,-0.0005999999702908099,0.058799996972084045,0.08400000095013078,-0.0039999999856897995,0.0009999999964224499
0.002403778489679098,-0.00009576806769473478,9.88099479675293,0.0004999999655410647,-0.0007999999797903001,0.058799996972084045,0.010999999647985701,-0.01400000015835513,-0.0039999999856897995
-0.014796166680753231,0.009203311055898666,9.86726188659668,0.0004999999655410647,-0.0007999999797903001,0.04899999871850014,-0.013000000266153095,0.017999999727163266,0.009999999755783667
-0.014796166680753231,0.009203311055898666,9.86726188659668,0.0004999999655410647,-0.0007999999797903001,0.04899999871850014,-0.013000000266153095,0.017999999727163266,0.009999999755783667
-0.004903324879705906,0.005506663583219051,9.883868217468262,0.0004999999655410647,-0.0007999999797903001,0.06859999895095825,-0.031999999885518396,-0.007999999971379599,-0.015999999942759198
-0.006004657596349716,-0.004874594509601593,9.883896827697754,0.0004999999655410647,-0.000699999975040555,0.06859999895095825,0.007999999971379599,0.029999998433587676,0
-0.0037732617929577827,-0.005027823615819216,9.899956703186035,0.0004999999655410647,-0.0007999999797903001,0.07840000092983246,-0.006000000186975531,0.06899999839828364,0.0039999999856897995
-0.0008523358264937997,-0.0008714894065633416,9.885869026184082,0.0005999999702908099,-0.000699999975040555,0.06859999895095825,-0.05600000063342052,0.029999998433587676,-0.019999999511567335
-0.011405977420508862,-0.0075369467958807945,9.885025978088379,0.000699999975040555,-0.0005999999702908099,0.06859999895095825,0.010999999647985701,-0.007000000079177565,0.03699999851276524
-0.003830722765997052,-0.004673481918871403,9.887669563293457,0.000699999975040555,-0.0005999999702908099,0.06859999895095825,0.007999999971379599,-0.007999999971379599,-0.0030000000934877653
-0.001283292076550424,-0.007144297938793898,9.8886079788208,0.000699999975040555,-0.0005999999702908099,0.06859999895095825,0.02899999937514897,-0.010999999647985701,-0.010999999647985701
0.01229662075638771,0.000957680691499263,9.886223793029785,0.0005999999702908099,-0.000699999975040555,0.06859999895095825,0.010999999647985701,-0.0030000000934877653,0.017999999727163266
0.005257667042315006,-0.00803494080901146,9.890811920166016,0.0005999999702908099,-0.000699999975040555,0.06859999895095825,-0.038000000906257256,-0.0269999995907449,0.0039999999856897995
-0.0009385270532220602,-0.00226012640632689,9.877326965332031,0.0004999999655410647,-0.0005999999702908099,0.058799996972084045,0.007999999971379599,-0.03400000133744912,0.008999999863581633
-0.000967257481534034,-0.00012449848873075098,9.875765800476074,0.00039999998989515007,-0.0005999999702908099,0.058799996972084045,0.006000000186975531,-0.007000000079177565,-0.009999999755783667
-0.006224924698472023,-0.0006512228865176439,9.88731575012207,0.00039999998989515007,-0.0005999999702908099,0.06859999895095825,0.0019999999928448997,0.008999999863581633,-0.019999999511567335
-0.0019057845929637551,0.001417367486283183,9.865853309631348,0.00039999998989515007,-0.0005999999702908099,0.04899999871850014,0.010999999647985701,0.008999999863581633,0.01400000015835513
-0.011425131000578403,-0.005142745096236467,9.872145652770996,0.00039999998989515007,-0.0005999999702908099,0.04899999871850014,0.015999999942759198,-0.0329999989439571,-0.006000000186975531
-0.0019632454495877028,-0.01782243698835373,9.86987590789795,0.00029999998514540493,-0.000699999975040555,0.04899999871850014,-0.03100000082707969,-0.007999999971379599,-0.007999999971379599
0.015006856061518192,-0.01656787469983101,9.875908851623535,0.00029999998514540493,-0.0005999999702908099,0.058799996972084045,0.05099999867112037,0.029999998433587676,-0.009999999755783667
0.003303998149931431,0.0043861777521669865,9.879644393920898,0.00039999998989515007,-0.000699999975040555,0.058799996972084045,0.012000000373951061,-0.007999999971379599,0
-0.0009959879098460078,0.012756306678056717,9.883072853088379,0.00039999998989515007,-0.000699999975040555,0.058799996972084045,-0.0269999995907449,-0.019000000453128628,0.02600000053230619
-0.005583278369158506,-0.003696647472679615,9.887085914611816,0.00029999998514540493,-0.0005999999702908099,0.06859999895095825,-0.019000000453128628,0.0269999995907449,0.01400000015835513
0.0031507695093750954,-0.008781932294368744,9.882633209228516,0.00039999998989515007,-0.0005999999702908099,0.058799996972084045,0.02800000031671026,-0.007999999971379599,-0.07900000232288394
-0.006837840192019939,0.007575253956019878,9.889403343200684,0.00039999998989515007,-0.0005999999702908099,0.06859999895095825,0.009999999755783667,0.0030000000934877653,-0.006000000186975531
0.01079306099563837,-0.00036391866160556674,9.895149230957031,0.00039999998989515007,-0.000699999975040555,0.07840000092983246,0.010999999647985701,0.013000000266153095,-0.009999999755783667
-0.015140931122004986,-0.006387730129063129,9.882862091064453,0.00039999998989515007,-0.000699999975040555,0.058799996972084045,0.007999999971379599,-0.0039999999856897995,-0.007999999971379599
0.003955221269279718,0.0015610195696353912,9.877681732177734,0.00039999998989515007,-0.000699999975040555,0.058799996972084045,-0.03899999996469596,-0.013000000266153095,0.031999999885518396
-0.010524910874664783,0.0024995466228574514,9.880688667297363,0.00039999998989515007,-0.0005999999702908099,0.058799996972084045,0.05499999823992851,-0.03400000133744912,-0.008999999863581633
-0.010524910874664783,0.0024995466228574514,9.880688667297363,0.00039999998989515007,-0.0005999999702908099,0.058799996972084045,0.05499999823992851,-0.03400000133744912,-0.008999999863581633
-0.007422025315463543,-0.003734954632818699,9.87036418914795,0.00029999998514540493,-0.0007999999797903001,0.04899999871850014,0.012000000373951061,-0.007999999971379599,-0.010999999647985701
0.009356540627777576,-0.014164096675813198,9.87477970123291,0.00029999998514540493,-0.0007999999797903001,0.058799996972084045,-0.013000000266153095,0.015999999942759198,-0.009999999755783667
0.004807556979358196,-0.012976572848856449,9.883561134338379,0.00029999998514540493,-0.0007999999797903001,0.058799996972084045,-0.038000000906257256,-0.013000000266153095,0
-0.0063589997589588165,-0.000976834329776466,9.873353004455566,0.00029999998514540493,-0.0005999999702908099,0.04899999871850014,0.012000000373951061,0.02600000053230619,-0.01400000015835513
0.0003447650233283639,0.004855440929532051,9.884346961975098,0.00029999998514540493,-0.000699999975040555,0.06859999895095825,0.007000000079177565,-0.007999999971379599,-0.01400000015835513
-0.010505757294595242,0.0004692635266110301,9.88313102722168,0.00029999998514540493,-0.000699999975040555,0.058799996972084045,-0.013000000266153095,-0.006000000186975531,-0.006000000186975531
-0.011377247050404549,0.0033997665159404278,9.888301849365234,0.00029999998514540493,-0.0005999999702908099,0.06859999895095825,0.012000000373951061,0.03400000133744912,-0.008999999863581633
0.0009002198348753154,-0.002403778489679098,9.885189056396484,0.00039999998989515007,-0.000699999975040555,0.06859999895095825,-0.03400000133744912,0.009999999755783667,-0.012000000373951061
-0.011798625811934471,0.004079719539731741,9.885371208190918,0.00039999998989515007,-0.0005999999702908099,0.06859999895095825,-0.021999999295971403,-0.015999999942759198,-0.009999999755783667
-0.00364876352250576,0.012344504706561565,9.891596794128418,0.00039999998989515007,-0.0004999999655410647,0.06859999895095825,-0.05900000114378995,0.010999999647985701,0.004999999877891834
-0.0017525556031614542,-0.00164721067994833,9.888455390930176,0.00039999998989515007,-0.00029999998514540493,0.06859999895095825,0.0009999999964224499,0.05499999823992851,0.015999999942759198
-0.0038019923958927393,0.0043670241720974445,9.894660949707031,0.0004999999655410647,-0.00029999998514540493,0.07840000092983246,0.035000000395887826,0.009999999755783667,-0.006000000186975531
-0.0021452046930789948,-0.015610194765031338,9.886079788208008,0.0005999999702908099,-0.00039999998989515007,0.06859999895095825,-0.03100000082707969,-0.02600000053230619,0.019000000453128628
0.0006320692482404411,-0.0021452046930789948,9.870633125305176,0.0004999999655410647,-0.00029999998514540493,0.04899999871850014,0.012000000373951061,0.05999999686717535,0.007000000079177565
-0.020705057308077812,-0.00549708679318428,9.873629570007324,-0.008899999782443047,-0.00029999998514540493,0.04899999871850014,0.007000000079177565,0.007000000079177565,-0.019999999511567335
0.009739612229168415,-0.006531381979584694,9.888005256652832,0.0007999999797903001,-0.00039999998989515007,0.06859999895095825,0.007999999971379599,-0.0019999999928448997,-0.035000000395887826
