Accelerometer_Gx,Accelerometer_Gy,Accelerometer_Gz,Accelerometer_X,Accelerometer_Y,Accelerometer_Z,Gyroscope_Z,Gyroscope_X,Gyroscope_Y
0.0017142484430223703,0.004951209295541048,9.951202392578125,-0.0004999999655410647,0,0.1371999979019165,-0.0009999999964224499,-0.0039999999856897995,-0.02800000031671026
0.015418658964335918,-0.0018579005263745785,9.959630012512207,-0.00019999999494757503,0,0.1371999979019165,-0.007999999971379599,0.0019999999928448997,-0.07699999753589991
0.006952761672437191,-0.016012420877814293,9.958662986755371,-0.00009999999747378752,0,0.1371999979019165,-0.007999999971379599,0.06200000165415938,0.04500000098543482
-0.007067683152854443,-0.016903065145015717,9.949928283691406,0,0,0.1273999959230423,0.11299999699022645,-0.05900000114378995,-0.07699999753589991
0.003256114199757576,-0.0010630255565047264,9.954343795776367,-0.00009999999747378752,-0.00019999999494757503,0.1371999979019165,-0.048000001495804245,-0.013000000266153095,0.04200000047506539
0.007019799202680588,-0.004683058708906174,9.933609962463379,-0.00009999999747378752,0,0.11759999394416809,-0.043999998591942806,-0.013000000266153095,-0.009999999755783667
0.007757213432341814,-0.009011775255203247,9.93354320526123,-0.00009999999747378752,0,0.11759999394416809,-0.0269999995907449,-0.03400000133744912,0.0030000000934877653
-0.003667917102575302,-0.013283031061291695,9.933609962463379,-0.00009999999747378752,0,0.11759999394416809,-0.021999999295971403,0.010999999647985701,-0.05300000012305109
0.00484586413949728,-0.013034033589065075,9.931867599487305,-0.00009999999747378752,0.00009999999747378752,0.11759999394416809,0.009999999755783667,-0.008999999863581633,0.017999999727163266
0.008781932294368744,-0.009260771796107292,9.938139915466309,-0.00009999999747378752,0.00009999999747378752,0.11759999394416809,-0.10199999734224074,-0.013000000266153095,0.007000000079177565
0.009404424577951431,0.010821791365742683,9.937382698059082,-0.00019999999494757503,0.00039999998989515007,0.11759999394416809,0.007999999971379599,-0.04900000055424296,0.012000000373951061
-0.00024899697746150196,-0.0005267243832349777,9.948713302612305,-0.00029999998514540493,0.00029999998514540493,0.1273999959230423,-0.006000000186975531,-0.03899999996469596,0.007000000079177565
0.013235146179795265,0.008599972352385521,9.921839714050293,-0.00039999998989515007,0.00039999998989515007,0.10779999941587448,-0.035000000395887826,-0.008999999863581633,-0.0019999999928448997
0.013953407295048237,0.010860098525881767,9.940132141113281,-0.00039999998989515007,0.00039999998989515007,0.11759999394416809,-0.007999999971379599,-0.04900000055424296,-0.041000001416626686
0.002853888552635908,0.0035242647863924503,9.945638656616211,-0.0005999999702908099,0.0004999999655410647,0.1273999959230423,0.004999999877891834,-0.01700000066872456,-0.013000000266153095
0.014671668410301208,0.018406622111797333,9.928840637207031,-0.0005999999702908099,0.00039999998989515007,0.10779999941587448,0.008999999863581633,0.007999999971379599,0.0039999999856897995
0.011367670260369778,-0.00003830722562270239,9.94100284576416,-0.0005999999702908099,0.00039999998989515007,0.1273999959230423,0.008999999863581633,0.006000000186975531,0.0030000000934877653
-0.0034859576262533665,-0.012373235076665878,9.926667213439941,-0.0005999999702908099,0.00039999998989515007,0.10779999941587448,0.008999999863581633,0.04500000098543482,0.007000000079177565
-0.010199299082159996,-0.016012420877814293,9.925115585327148,-0.0004999999655410647,0.00039999998989515007,0.10779999941587448,-0.024999999806340833,-0.019999999511567335,-0.008999999863581633
0.006234501488506794,0.00848505087196827,9.927125930786133,-0.0004999999655410647,0.00039999998989515007,0.10779999941587448,0.004999999877891834,-0.012000000373951061,0.019000000453128628
0.0012066776398569345,0.001283292076550424,9.93091869354248,-0.0004999999655410647,0.00039999998989515007,0.10779999941587448,-0.013000000266153095,-0.013000000266153095,-0.009999999755783667
0.010477026924490929,0.004903324879705906,9.927681922912598,-0.0005999999702908099,0.0004999999655410647,0.10779999941587448,0.008999999863581633,-0.0030000000934877653,0.007000000079177565
0.0047500962391495705,0.0025474305730313063,9.911381721496582,-0.0005999999702908099,0.00039999998989515007,0.08819999545812607,-0.015999999942759198,-0.0039999999856897995,-0.043999998591942806
0.009730035439133644,-0.0007469909032806754,9.910759925842285,-0.0005999999702908099,0.0004999999655410647,0.08819999545812607,0.035000000395887826,0.02600000053230619,0.007000000079177565
0.006330269388854504,-0.010601525194942951,9.916055679321289,-0.0004999999655410647,0.00039999998989515007,0.09799999743700027,-0.06200000165415938,0.0039999999856897995,-0.009999999755783667
-0.007852981798350811,-0.0005267243832349777,9.92007827758789,-0.0004999999655410647,0.0004999999655410647,0.09799999743700027,-0.008999999863581633,-0.013000000266153095,0.007000000079177565
0.003390189725905657,-0.005813121795654297,9.921964645385742,-0.0004999999655410647,0.0005999999702908099,0.09799999743700027,0,-0.004999999877891834,0.006000000186975531
0.0038019923958927393,-0.007383718155324459,9.915605545043945,-0.0005999999702908099,0.000699999975040555,0.09799999743700027,-0.03599999945432653,0.024999999806340833,0.008999999863581633
-0.012220004573464394,-0.005765237845480442,9.916007995605469,-0.0004999999655410647,0.0007999999797903001,0.09799999743700027,0.014999999216793838,0.023000000021936765,-0.013000000266153095
0.005573701579123735,0.015859192237257957,9.920882225036621,-0.00039999998989515007,0.0007999999797903001,0.09799999743700027,0.008999999863581633,-0.0030000000934877653,0.007000000079177565
-0.0009097966831177473,-0.022055385634303093,9.920758247375488,-0.00039999998989515007,-0.008899999782443047,0.09799999743700027,-0.02600000053230619,-0.012000000373951061,0.0019999999928448997
-0.004855440929532051,-0.00949061568826437,9.923334121704102,-0.0004999999655410647,0.0007999999797903001,0.10779999941587448,-0.019999999511567335,-0.0039999999856897995,0.024999999806340833
0.001953668659552932,0.006722918711602688,9.905588150024414,-0.0004999999655410647,0.0008999999845400453,0.08819999545812607,-0.008999999863581633,-0.013000000266153095,0.02600000053230619
-0.0038211459759622812,-0.0015035585965961218,9.909428596496582,-0.0004999999655410647,0.0008999999845400453,0.08819999545812607,-0.004999999877891834,-0.015999999942759198,-0.017999999727163266
0.001924938173033297,-0.004539406392723322,9.912464141845703,-0.0005999999702908099,0.0008999999845400453,0.09799999743700027,0.008999999863581633,-0.046999999102312236,-0.017999999727163266
0.00013407529331743717,-0.003246537409722805,9.910807609558105,-0.000699999975040555,0.0008999999845400453,0.08819999545812607,0.023000000021936765,0.021999999295971403,0.024999999806340833
0.012717999517917633,-0.006473921239376068,9.899755477905273,-0.0005999999702908099,0.0007999999797903001,0.07840000092983246,0.008999999863581633,-0.008999999863581633,-0.0009999999964224499
0.006244078278541565,0.0046447510831058025,9.904467582702637,-0.0005999999702908099,0.0007999999797903001,0.08819999545812607,0.004999999877891834,0.0539999991814898,0.007000000079177565
0.0034572272561490536,-0.01769793964922428,9.906957626342773,-0.0004999999655410647,0.0007999999797903001,0.08819999545812607,-0.007999999971379599,-0.010999999647985701,0.007000000079177565
-0.003878606716170907,-0.0019823990296572447,9.904889106750488,-0.0004999999655410647,0.0007999999797903001,0.08819999545812607,-0.04500000098543482,-0.013000000266153095,0.0030000000934877653
-0.007230489049106836,0.0010055646998807788,9.904879570007324,-0.0004999999655410647,0.0008999999845400453,0.08819999545812607,-0.05300000012305109,0.013000000266153095,-0.021999999295971403
-0.005832275375723839,0.01333091501146555,9.899592399597168,-0.0004999999655410647,0.0010999999940395355,0.07840000092983246,-0.043999998591942806,-0.017999999727163266,-0.0019999999928448997
0.0007948749698698521,0.009500192478299141,9.914083480834961,-0.0005999999702908099,0.0011999999405816197,0.09799999743700027,0,-0.05900000114378995,-0.019999999511567335
-0.01058237161487341,-0.006406883709132671,9.903682708740234,-0.000699999975040555,0.0011999999405816197,0.08819999545812607,-0.035000000395887826,-0.05900000114378995,-0.007000000079177565
-0.002212242456153035,-0.004472368862479925,9.91553783416748,-0.0007999999797903001,0.0013000000035390258,0.09799999743700027,-0.017999999727163266,0.006000000186975531,-0.02800000031671026
-0.003342305775731802,-0.007431602105498314,9.90579891204834,-0.0007999999797903001,0.0013000000035390258,0.08819999545812607,-0.012000000373951061,0.024000000747902123,0.007000000079177565
0.005793968215584755,0.006406883709132671,9.917434692382812,-0.0007999999797903001,0.00139999995008111,0.09799999743700027,0.019999999511567335,-0.0030000000934877653,0.007000000079177565
0.006713341921567917,-0.009184157475829124,9.917769432067871,-0.0007999999797903001,0.0013000000035390258,0.09799999743700027,-0.007999999971379599,0.0009999999964224499,-0.023000000021936765
-0.002470816019922495,-0.012038045562803745,9.903519630432129,-0.0007999999797903001,0.0013000000035390258,0.08819999545812607,-0.007999999971379599,-0.013000000266153095,0.007999999971379599
0.003284844569861889,0.0007948749698698521,9.909438133239746,-0.0007999999797903001,0.0013000000035390258,0.08819999545812607,-0.03699999851276524,-0.019999999511567335,0.043999998591942806
0.001934514963068068,0.004539406392723322,9.898377418518066,-0.0007999999797903001,0.00139999995008111,0.07840000092983246,-0.0039999999856897995,-0.041000001416626686,-0.009999999755783667
0.01543781254440546,-0.003658340312540531,9.88868522644043,-0.0009999999310821295,0.00139999995008111,0.06859999895095825,0.0039999999856897995,0.0019999999928448997,-0.004999999877891834
0.004529829602688551,0.004817133769392967,9.889297485351562,-0.0009999999310821295,0.00139999995008111,0.06859999895095825,-0.004999999877891834,0.023000000021936765,-0.03699999851276524
0.009710881859064102,-0.0011971008498221636,9.890092849731445,-0.0008999999845400453,0.00139999995008111,0.06859999895095825,-0.0019999999928448997,-0.023000000021936765,0.008999999863581633
0.012354081496596336,0,9.885247230529785,-0.0009999999310821295,0.00139999995008111,0.06859999895095825,-0.0009999999964224499,0,0.0030000000934877653
0.0038019923958927393,0.008772355504333973,9.912866592407227,-0.0009999999310821295,0.00139999995008111,0.09799999743700027,0.03100000082707969,-0.012000000373951061,-0.05099999867112037
0.007460332475602627,-0.00883939303457737,9.903682708740234,-0.0009999999310821295,0.0013000000035390258,0.08819999545812607,-0.019000000453128628,-0.03100000082707969,0.024999999806340833
0.0021452046930789948,-0.0031699230894446373,9.895139694213867,-0.0010999999940395355,0.0013000000035390258,0.07840000092983246,-0.004999999877891834,-0.05600000063342052,-0.009999999755783667
-0.00938527099788189,0.01348414458334446,9.903595924377441,-0.0011999999405816197,0.0013000000035390258,0.08819999545812607,-0.008999999863581633,0.014999999216793838,0.031999999885518396
-0.005516240373253822,0.0008619126165285707,9.898147583007812,-0.0011999999405816197,0.00139999995008111,0.07840000092983246,0.035000000395887826,-0.013000000266153095,-0.013000000266153095
0.01851196587085724,-0.010323798283934593,9.906047821044922,-0.0011999999405816197,0.0013000000035390258,0.08819999545812607,-0.04500000098543482,-0.03699999851276524,-0.0039999999856897995
-0.0035242647863924503,0.003955221269279718,9.899038314819336,-0.0013000000035390258,0.00139999995008111,0.07840000092983246,0.004999999877891834,0.015999999942759198,0.029999998433587676
0.010534487664699554,-0.012957419268786907,9.9133939743042,-0.0011999999405816197,0.00139999995008111,0.09799999743700027,0.004999999877891834,-0.0019999999928448997,0.007000000079177565
-0.00904050562530756,-0.0075369467958807945,9.897496223449707,-0.0011999999405816197,0.0013000000035390258,0.07840000092983246,-0.01700000066872456,-0.013000000266153095,-0.035000000395887826
-0.0015801731497049332,0.003878606716170907,9.89291763305664,-0.0013000000035390258,0.00139999995008111,0.07840000092983246,0,-0.02800000031671026,0.024000000747902123
-0.0019919758196920156,0.0008523358264937997,9.90394115447998,-0.0013000000035390258,0.00139999995008111,0.08819999545812607,-0.03699999851276524,-0.03999999902313467,-0.010999999647985701
-0.011319786310195923,-0.008456320501863956,9.884758949279785,-0.00139999995008111,0.001500000013038516,0.06859999895095825,0.008999999863581633,0.019999999511567335,0.06700000028140622
0.004807556979358196,-0.006694188341498375,9.89286994934082,-0.00139999995008111,0.00139999995008111,0.07840000092983246,0.0019999999928448997,0.0039999999856897995,0.004999999877891834
-0.011607090011239052,-0.009184157475829124,9.897055625915527,-0.0013000000035390258,0.00139999995008111,0.07840000092983246,0.004999999877891834,-0.012000000373951061,-0.046999999102312236
0.006617573089897633,0.0055353944189846516,9.903682708740234,-0.00139999995008111,0.00139999995008111,0.08819999545812607,0.0030000000934877653,-0.0030000000934877653,0.006000000186975531
0.0204943660646677,-0.021863849833607674,9.89433479309082,0.008299999870359898,-0.008299999870359898,0.07840000092983246,0.023000000021936765,-0.024000000747902123,0.029999998433587676
0.010017340071499348,0.012536040507256985,9.911774635314941,-0.001500000013038516,0.00139999995008111,0.08819999545812607,-0.04600000004387353,0.0039999999856897995,0.0009999999964224499
0.007469909265637398,0.002106897532939911,9.903529167175293,-0.001500000013038516,0.001500000013038516,0.08819999545812607,0.009999999755783667,0.004999999877891834,0.007999999971379599
-0.010658985935151577,-0.0027964275795966387,9.90894889831543,-0.00139999995008111,0.00139999995008111,0.08819999545812607,0.008999999863581633,0.01400000015835513,0.014999999216793838
-0.009299078956246376,-0.0055641247890889645,9.908001899719238,-0.00139999995008111,0.00139999995008111,0.07840000092983246,0.019000000453128628,-0.010999999647985701,-0.014999999216793838
-0.006981492042541504,0.0021930888760834932,9.905550003051758,-0.00139999995008111,0.0013000000035390258,0.08819999545812607,0.009999999755783667,0.04600000004387353,-0.008999999863581633
0.01893334835767746,0.008532934822142124,9.891490936279297,-0.0011999999405816197,0.0013000000035390258,0.06859999895095825,0.038000000906257256,0.021999999295971403,-0.03699999851276524
0.009299078956246376,0.010477026924490929,9.891692161560059,-0.0011999999405816197,0.0011999999405816197,0.06859999895095825,-0.006000000186975531,-0.017999999727163266,-0.02600000053230619
0.014508862048387527,-0.0015514427796006203,9.891031265258789,-0.0011999999405816197,0.0011999999405816197,0.06859999895095825,-0.0039999999856897995,-0.007000000079177565,0.019000000453128628
-0.0017429788131266832,0.006167463958263397,9.895791053771973,-0.0011999999405816197,0.0011999999405816197,0.07840000092983246,0.013000000266153095,0,0.007999999971379599
0.00319865345954895,-0.01658702827990055,9.886712074279785,-0.0011999999405816197,0.0011999999405816197,0.06859999895095825,0.01400000015835513,0.01700000066872456,-0.012000000373951061
0.003725377842783928,0.014824897050857544,9.875870704650879,-0.0011999999405816197,0.0010999999940395355,0.058799996972084045,0.013000000266153095,-0.021999999295971403,0.006000000186975531
0.002930502872914076,0.02438254840672016,9.888675689697266,-0.0011999999405816197,0.010799999348819256,0.06859999895095825,0.01700000066872456,0.008999999863581633,0.007999999971379599
0.015763424336910248,0.02772485464811325,9.896193504333496,-0.0011999999405816197,0.010699999518692493,0.07840000092983246,-0.0039999999856897995,-0.0030000000934877653,0.007999999971379599
0.01407790556550026,0.006244078278541565,9.894670486450195,-0.0011999999405816197,0.0008999999845400453,0.07840000092983246,0.012000000373951061,0,-0.05300000012305109
0.0226299948990345,-0.010917559266090393,9.90482234954834,0.008499999530613422,0.0007999999797903001,0.08819999545812607,0.06299999737754478,-0.01700000066872456,-0.03400000133744912
0.0030071171931922436,0.0025953147560358047,9.897247314453125,-0.0013000000035390258,0.0005999999702908099,0.07840000092983246,-0.029999998433587676,-0.021000000237532696,0.007999999971379599
-0.008197746239602566,0.0010534487664699554,9.882699012756348,-0.0013000000035390258,0.000699999975040555,0.058799996972084045,0.007000000079177565,0.01700000066872456,-0.004999999877891834
0.004826710559427738,-0.002451662439852953,9.903155326843262,-0.0013000000035390258,0.000699999975040555,0.08819999545812607,0.01400000015835513,-0.007999999971379599,0.0329999989439571
0.0028251581825315952,-0.0023367409594357014,9.893712997436523,-0.0013000000035390258,0.0005999999702908099,0.07840000092983246,-0.03999999902313467,0.008999999863581633,0.03400000133744912
-0.01543781254440546,0.007671022322028875,9.88797664642334,-0.0011999999405816197,0.000699999975040555,0.06859999895095825,0.038000000906257256,0.008999999863581633,0.012000000373951061
0.025273192673921585,0.022476764395833015,9.889451026916504,0.00839999970048666,0.010400000028312206,0.06859999895095825,0.007999999971379599,0.01700000066872456,0.007999999971379599
0.010850521735846996,0.0031603462994098663,9.896537780761719,-0.0011999999405816197,0.0004999999655410647,0.07840000092983246,0.01400000015835513,-0.006000000186975531,-0.029999998433587676
0.009624690748751163,0.005516240373253822,9.887353897094727,-0.0011999999405816197,0.0004999999655410647,0.06859999895095825,-0.03699999851276524,-0.0329999989439571,-0.01700000066872456
0.002288856776431203,-0.009050082415342331,9.886444091796875,-0.0013000000035390258,0.0005999999702908099,0.06859999895095825,0.007999999971379599,-0.009999999755783667,0.0009999999964224499
0.0008906430448405445,0.01857900433242321,9.877058982849121,-0.0013000000035390258,0.0004999999655410647,0.058799996972084045,0.010999999647985701,-0.05600000063342052,0.03400000133744912
0.0027868507895618677,-0.016721105203032494,9.890533447265625,-0.001500000013038516,0.0004999999655410647,0.06859999895095825,0.013000000266153095,0.01700000066872456,0.0329999989439571
0.009155427105724812,-0.016309302300214767,9.88939380645752,-0.00139999995008111,0.0004999999655410647,0.06859999895095825,-0.02800000031671026,-0.007999999971379599,-0.004999999877891834
0.00904050562530756,-0.008619125932455063,9.891481399536133,-0.00139999995008111,0.0004999999655410647,0.058799996972084045,0.019999999511567335,0.041000001416626686,0.007999999971379599
-0.00894473772495985,-0.008341399021446705,9.896336555480957,-0.00139999995008111,0.0004999999655410647,0.06859999895095825,0.013000000266153095,-0.009999999755783667,0.007999999971379599
-0.005046977195888758,0.0010438719764351845,9.897046089172363,-0.0013000000035390258,0.0004999999655410647,0.07840000092983246,0.03100000082707969,0.012000000373951061,0.02899999937514897
-0.0015514427796006203,0.0035434183664619923,9.89123249053955,-0.0013000000035390258,0.00039999998989515007,0.06859999895095825,0.015999999942759198,-0.02899999937514897,-0.010999999647985701
0.0075369467958807945,-0.01339795347303152,9.89664363861084,-0.0013000000035390258,0.00029999998514540493,0.07840000092983246,0.007000000079177565,-0.0039999999856897995,0.012000000373951061
-0.006004657596349716,0.011319786310195923,9.901259422302246,-0.0013000000035390258,0.00029999998514540493,0.07840000092983246,0.013000000266153095,-0.007999999971379599,0.0269999995907449
0.00703895278275013,0.0007374141132459044,9.899343490600586,-0.0013000000035390258,0.00029999998514540493,0.07840000092983246,-0.014999999216793838,-0.007999999971379599,0.0030000000934877653
-0.0021547814831137657,-0.010754753835499287,9.879040718078613,-0.0013000000035390258,0.00029999998514540493,0.058799996972084045,-0.029999998433587676,0.02600000053230619,-0.012000000373951061
0.003677493892610073,0.018923770636320114,9.888273239135742,-0.0013000000035390258,0.00039999998989515007,0.06859999895095825,-0.03100000082707969,0.02600000053230619,-0.015999999942759198
0.01408748235553503,-0.007479486055672169,9.889968872070312,-0.0011999999405816197,0.0004999999655410647,0.06859999895095825,-0.05099999867112037,-0.0030000000934877653,-0.009999999755783667
-0.001944091753102839,-0.008791509084403515,9.886003494262695,-0.0011999999405816197,0.0005999999702908099,0.06859999895095825,0.038000000906257256,-0.019000000453128628,0.0019999999928448997
0.0027868507895618677,-0.01697010174393654,9.881760597229004,-0.0011999999405816197,0.0004999999655410647,0.058799996972084045,-0.0039999999856897995,0.0429999995335041,-0.0009999999964224499
0.012258312664926052,0.012737153097987175,9.895370483398438,-0.0010999999940395355,0.0004999999655410647,0.07840000092983246,0.013000000266153095,-0.007999999971379599,0.008999999863581633
0.0027964275795966387,-0.01843535155057907,9.875382423400879,-0.0010999999940395355,0.00039999998989515007,0.058799996972084045,0.0019999999928448997,-0.021999999295971403,-0.009999999755783667
0.011473014950752258,0.0026144683361053467,9.884039878845215,-0.0010999999940395355,0.00039999998989515007,0.06859999895095825,-0.0009999999964224499,0.0269999995907449,-0.041000001416626686
0.0075273700058460236,-0.01099417358636856,9.893204689025879,-0.0010999999940395355,0.00039999998989515007,0.07840000092983246,0.012000000373951061,-0.09500000059811649,-0.023000000021936765
0.0015514427796006203,-0.005046977195888758,9.906661033630371,-0.0013000000035390258,0.00039999998989515007,0.08819999545812607,0.023000000021936765,-0.015999999942759198,0.007999999971379599
-0.003754108212888241,0.0018100164597854018,9.900636672973633,-0.0013000000035390258,0.00029999998514540493,0.07840000092983246,0.007999999971379599,0.017999999727163266,-0.008999999863581633
0.015026009641587734,0.006550535559654236,9.893579483032227,-0.0013000000035390258,0.00029999998514540493,0.07840000092983246,0.012000000373951061,-0.006000000186975531,0.009999999755783667
0.0015705963596701622,0.0063973069190979,9.894920349121094,-0.0013000000035390258,0.00029999998514540493,0.07840000092983246,0.03599999945432653,-0.014999999216793838,0.007000000079177565
-0.011109095998108387,0.008523358032107353,9.89130973815918,-0.0013000000035390258,0.00019999999494757503,0.06859999895095825,-0.0039999999856897995,-0.006000000186975531,0.007999999971379599
-0.01158793643116951,0.0017046716529875994,9.897285461425781,-0.0013000000035390258,0.00019999999494757503,0.07840000092983246,-0.014999999216793838,-0.008999999863581633,0.02600000053230619
0.006004657596349716,0.019891027361154556,9.893329620361328,-0.0013000000035390258,0.00989999994635582,0.07840000092983246,-0.009999999755783667,0.02600000053230619,0.015999999942759198
0.008226476609706879,0.013867216184735298,9.883830070495605,-0.0011999999405816197,0.00009999999747378752,0.06859999895095825,0.021000000237532696,-0.010999999647985701,-0.009999999755783667
0.00045968673657625914,-0.018828002735972404,9.881319999694824,-0.0013000000035390258,0.00009999999747378752,0.058799996972084045,0.0019999999928448997,-0.0019999999928448997,0.03100000082707969
0.006186617538332939,0.0018962076865136623,9.88833999633789,-0.0011999999405816197,0.00009999999747378752,0.058799996972084045,-0.043999998591942806,0.007999999971379599,0.007999999971379599
0.004989516455680132,-0.003840299556031823,9.885209083557129,-0.0011999999405816197,0.00019999999494757503,0.06859999895095825,-0.004999999877891834,0.007999999971379599,0.007999999971379599
0.0039360676892101765,-0.008121131919324398,9.890016555786133,-0.0011999999405816197,0.00019999999494757503,0.06859999895095825,0.0019999999928448997,0.008999999863581633,-0.004999999877891834
0.002126051113009453,-0.012018891982734203,9.8871431350708,-0.0010999999940395355,0.00019999999494757503,0.06859999895095825,-0.031999999885518396,0.0659999978879142,0.0039999999856897995
0.0027198130264878273,-0.013809755444526672,9.882699012756348,-0.0008999999845400453,0.00029999998514540493,0.058799996972084045,-0.029999998433587676,-0.010999999647985701,-0.008999999863581633
0.01893334835767746,-0.01223915908485651,9.888139724731445,-0.0009999999310821295,0.00029999998514540493,0.06859999895095825,0.013000000266153095,0.024999999806340833,-0.015999999942759198
-0.002566584153100848,0.008580818772315979,9.894450187683105,-0.0008999999845400453,0.00029999998514540493,0.07840000092983246,0.019999999511567335,0.019000000453128628,-0.01700000066872456
-0.011377247050404549,0.010103531181812286,9.887832641601562,-0.0007999999797903001,0.00019999999494757503,0.06859999895095825,0.013000000266153095,0.04900000055424296,0.019000000453128628
-0.0010151414899155498,-0.0004979939549230039,9.905770301818848,-0.000699999975040555,0.00019999999494757503,0.08819999545812607,0.038000000906257256,0.01700000066872456,0.006000000186975531
0.001934514963068068,-0.0054683564230799675,9.885946273803711,-0.0005999999702908099,0.00009999999747378752,0.06859999895095825,0.012000000373951061,0.0030000000934877653,0.007999999971379599
0.004089296329766512,-0.005372588522732258,9.88700008392334,-0.0005999999702908099,0.00009999999747378752,0.06859999895095825,0.0009999999964224499,-0.010999999647985701,-0.012000000373951061
0.010400412604212761,0.0031124623492360115,9.890140533447266,-0.0005999999702908099,0.00009999999747378752,0.06859999895095825,-0.012000000373951061,-0.029999998433587676,0.007999999971379599
0.004510676022619009,-0.010678139515221119,9.892152786254883,-0.000699999975040555,0.00009999999747378752,0.06859999895095825,0.024000000747902123,0,-0.0009999999964224499
0.006636727135628462,0.007383718155324459,9.879289627075195,-0.000699999975040555,0,0.058799996972084045,0.013000000266153095,-0.012000000373951061,-0.043999998591942806
-0.009308655746281147,0.005286397412419319,9.877767562866211,-0.000699999975040555,0,0.058799996972084045,-0.06899999839828364,-0.007000000079177565,0.008999999863581633
0.0004501099174376577,-0.0076231383718550205,9.893741607666016,-0.000699999975040555,0.00019999999494757503,0.07840000092983246,-0.01400000015835513,-0.006000000186975531,0.008999999863581633
0.010017340071499348,-0.017860744148492813,9.891386032104492,-0.000699999975040555,0.00019999999494757503,0.06859999895095825,0.035000000395887826,0.01700000066872456,-0.013000000266153095
0.016462530940771103,-0.01498770248144865,9.886396408081055,-0.000699999975040555,0.00009999999747378752,0.06859999895095825,-0.021999999295971403,-0.07000000079177565,-0.019999999511567335
-0.00584185216575861,-0.015581464394927025,9.88473892211914,-0.0008999999845400453,0.00019999999494757503,0.06859999895095825,-0.0009999999964224499,-0.006000000186975531,-0.015999999942759198
0.00209732074290514,0.00442448491230607,9.88525676727295,-0.0008999999845400453,0.00019999999494757503,0.06859999895095825,0.0039999999856897995,-0.007999999971379599,0.035000000395887826
0.004788403399288654,-0.0006129156099632382,9.879721641540527,-0.0008999999845400453,0.00019999999494757503,0.058799996972084045,-0.021999999295971403,0.006000000186975531,-0.03400000133744912
-0.0068091098219156265,0.009873687289655209,9.89162540435791,-0.0008999999845400453,0.00019999999494757503,0.06859999895095825,-0.04600000004387353,0.0269999995907449,-0.0009999999964224499
-0.003667917102575302,-0.005870582535862923,9.884087562561035,-0.0007999999797903001,0.00029999998514540493,0.06859999895095825,-0.009999999755783667,0.013000000266153095,-0.05499999823992851
0.0046543278731405735,0.0013215993531048298,9.883503913879395,-0.000699999975040555,0.00039999998989515007,0.058799996972084045,-0.007000000079177565,0.006000000186975531,0.007999999971379599
0.014575900509953499,0.0005363011732697487,9.885591506958008,-0.000699999975040555,0.00039999998989515007,0.06859999895095825,0.013000000266153095,0,0.008999999863581633
0.003715801052749157,0.006914454512298107,9.881330490112305,-0.000699999975040555,0.00029999998514540493,0.058799996972084045,-0.012000000373951061,0.0329999989439571,0.023000000021936765
-0.0043766009621322155,-0.011224017478525639,9.864044189453125,-0.0005999999702908099,0.00029999998514540493,0.03920000046491623,0.010999999647985701,0.009999999755783667,0.031999999885518396
0.004462792072445154,0.0006512228865176439,9.882555961608887,-0.0004999999655410647,0.00029999998514540493,0.058799996972084045,-0.012000000373951061,-0.0329999989439571,-0.019000000453128628
-0.0005746083916164935,0.0033327287528663874,9.887344360351562,-0.0005999999702908099,0.00029999998514540493,0.06859999895095825,0.01400000015835513,-0.010999999647985701,0.0269999995907449
0.019460070878267288,-0.01124317105859518,9.87767219543457,0.008999999612569809,0.00029999998514540493,0.058799996972084045,0.019000000453128628,-0.043999998591942806,0.006000000186975531
0.021049821749329567,-0.007029375992715359,9.871198654174805,0.008700000122189522,0.00019999999494757503,0.04899999871850014,-0.0019999999928448997,-0.0019999999928448997,0.006000000186975531
-0.0015705963596701622,-0.015677232295274734,9.886922836303711,-0.0009999999310821295,0.00019999999494757503,0.06859999895095825,-0.0019999999928448997,0.038000000906257256,0.007999999971379599
0.001417367486283183,0.0029783868230879307,9.898951530456543,-0.0008999999845400453,0.00019999999494757503,0.07840000092983246,0.0009999999964224499,0.01700000066872456,0.007999999971379599
0.0018100164597854018,-0.0008619126165285707,9.87704849243164,-0.0007999999797903001,0.00019999999494757503,0.058799996972084045,0.007000000079177565,-0.007000000079177565,-0.017999999727163266
-0.00021068975911475718,-0.0020111293997615576,9.88807201385498,-0.0007999999797903001,0.00019999999494757503,0.06859999895095825,0.013000000266153095,0,-0.012000000373951061
0.002432508859783411,0.0012641384964808822,9.897486686706543,-0.0007999999797903001,0.00019999999494757503,0.07840000092983246,0.0019999999928448997,0.0269999995907449,-0.01700000066872456
0.005018246825784445,-0.02104024589061737,9.887555122375488,-0.000699999975040555,-0.009399999864399433,0.06859999895095825,-0.031999999885518396,-0.007999999971379599,0.007999999971379599
0.0013694833032786846,-0.010658985935151577,9.873516082763672,-0.0007999999797903001,0.00039999998989515007,0.04899999871850014,-0.048000001495804245,-0.009999999755783667,-0.05200000106461238
0.013215992599725723,-0.0031890766695141792,9.883868217468262,-0.0007999999797903001,0.0004999999655410647,0.06859999895095825,0.043999998591942806,0.01700000066872456,-0.0030000000934877653
-0.005420472472906113,0.006435614079236984,9.875651359558105,-0.0007999999797903001,0.00029999998514540493,0.058799996972084045,0.046999999102312236,0.0009999999964224499,0.01700000066872456
-0.004606443922966719,0.007852981798350811,9.884882926940918,-0.0007999999797903001,0.00019999999494757503,0.06859999895095825,-0.0030000000934877653,0.008999999863581633,0.0039999999856897995
0.0005650316015817225,-0.0006895300466567278,9.874300956726074,-0.000699999975040555,0.00019999999494757503,0.058799996972084045,-0.021999999295971403,0.01700000066872456,-0.048000001495804245
-0.00026815058663487434,0.0030454243533313274,9.874195098876953,-0.000699999975040555,0.00019999999494757503,0.058799996972084045,0.010999999647985701,-0.009999999755783667,0.008999999863581633
0.001110909623093903,-0.006272808648645878,9.886741638183594,-0.000699999975040555,0.00019999999494757503,0.06859999895095825,-0.0030000000934877653,0.008999999863581633,0.007000000079177565
0.001110909623093903,-0.006272808648645878,9.886741638183594,-0.000699999975040555,0.00019999999494757503,0.06859999895095825,-0.0030000000934877653,0.008999999863581633,0.007000000079177565
-0.0006129156099632382,-0.006215347908437252,9.877978324890137,-0.000699999975040555,0.00019999999494757503,0.058799996972084045,-0.024000000747902123,0.0019999999928448997,0
0.009050082415342331,-0.006387730129063129,9.885773658752441,-0.000699999975040555,0.00029999998514540493,0.06859999895095825,0.038000000906257256,0.008999999863581633,-0.013000000266153095
0.006655880715698004,-0.02378878742456436,9.881281852722168,-0.000699999975040555,-0.009399999864399433,0.058799996972084045,0.008999999863581633,-0.05099999867112037,-0.014999999216793838
0.010898405686020851,-0.016816873103380203,9.884653091430664,-0.0007999999797903001,0.00029999998514540493,0.06859999895095825,0.012000000373951061,0.01700000066872456,0.08100000043976135
0.008753201924264431,0.0027964275795966387,9.8851318359375,-0.0007999999797903001,0.00019999999494757503,0.06859999895095825,0.010999999647985701,0,0.008999999863581633
-0.008734048344194889,-0.0030071171931922436,9.891538619995117,-0.0007999999797903001,0.00019999999494757503,0.06859999895095825,0.013000000266153095,0.02600000053230619,-0.0269999995907449
0.010936712846159935,-0.02063801884651184,9.877423286437988,-0.000699999975040555,-0.009399999864399433,0.058799996972084045,0.021999999295971403,-0.0039999999856897995,0.007999999971379599
0.01338837668299675,-0.0018291701562702656,9.889431953430176,-0.000699999975040555,0.00019999999494757503,0.06859999895095825,-0.029999998433587676,-0.008999999863581633,0.021000000237532696
0.005717353895306587,-0.002576161175966263,9.892467498779297,-0.000699999975040555,0.00029999998514540493,0.06859999895095825,-0.023000000021936765,0.007999999971379599,0.007999999971379599
-0.0019919758196920156,0.005142745096236467,9.872471809387207,-0.000699999975040555,0.00039999998989515007,0.04899999871850014,-0.007000000079177565,-0.007000000079177565,0
0.00804451759904623,-0.008197746239602566,9.873563766479492,-0.000699999975040555,0.00039999998989515007,0.04899999871850014,0.010999999647985701,-0.05200000106461238,-0.013000000266153095
0.0017908628797158599,0.005276820622384548,9.876580238342285,-0.0007999999797903001,0.00029999998514540493,0.058799996972084045,0.03100000082707969,-0.007000000079177565,0.05799999875029794
0.012124236673116684,0.0054683564230799675,9.873075485229492,-0.0007999999797903001,0.00029999998514540493,0.04899999871850014,0.013000000266153095,-0.007999999971379599,0.05499999823992851
-0.0034284968860447407,-0.0036200329195708036,9.884288787841797,-0.0007999999797903001,0.00019999999494757503,0.06859999895095825,0.03599999945432653,-0.02600000053230619,0.014999999216793838
0.0035529951564967632,-0.009624690748751163,9.888282775878906,-0.0008999999845400453,0.00009999999747378752,0.06859999895095825,-0.03400000133744912,-0.043999998591942806,-0.024999999806340833
0.0008331821882165968,0.007900865748524666,9.888962745666504,-0.0009999999310821295,0.00019999999494757503,0.058799996972084045,0.013000000266153095,-0.0039999999856897995,-0.0009999999964224499
0.008379706181585789,-0.007575253956019878,9.877699851989746,-0.0009999999310821295,0.00019999999494757503,0.06859999895095825,-0.012000000373951061,-0.006000000186975531,-0.006000000186975531
-0.002279279986396432,0.0031411927193403244,9.884586334228516,-0.0009999999310821295,0.00019999999494757503,0.058799996972084045,0.012000000373951061,0.01700000066872456,-0.013000000266153095
0.005027823615819216,-0.006110002286732197,9.892132759094238,-0.0008999999845400453,0.00019999999494757503,0.06859999895095825,0.0039999999856897995,-0.012000000373951061,-0.0039999999856897995
0.005430049262940884,-0.006598419509828091,9.882613182067871,-0.0008999999845400453,0.00019999999494757503,0.058799996972084045,-0.004999999877891834,-0.012000000373951061,0.007999999971379599
0.00959596037864685,-0.005363011732697487,9.888177871704102,-0.0008999999845400453,0.00019999999494757503,0.06859999895095825,-0.029999998433587676,-0.017999999727163266,-0.06700000028140622
0.015150507912039757,-0.011865663342177868,9.887287139892578,-0.0009999999310821295,0.00029999998514540493,0.06859999895095825,0,0.015999999942759198,-0.031999999885518396
0.006962338462471962,0.004022258799523115,9.880630493164062,-0.0008999999845400453,0.00019999999494757503,0.058799996972084045,0.013000000266153095,-0.007999999971379599,0.008999999863581633
0.0009193734731525183,-0.001455674646422267,9.886405944824219,-0.0008999999845400453,0.00019999999494757503,0.06859999895095825,0.0019999999928448997,-0.007999999971379599,0.007999999971379599
-0.0072783734649419785,-0.008293514139950275,9.871437072753906,-0.0008999999845400453,0.00019999999494757503,0.04899999871850014,0.013000000266153095,0.03599999945432653,0.043999998591942806
0.010314221493899822,0.00979707296937704,9.884413719177246,-0.0007999999797903001,0.00019999999494757503,0.06859999895095825,0.04500000098543482,0.03400000133744912,0.019999999511567335
-0.0016567875863984227,-0.005698200315237045,9.873908042907715,-0.000699999975040555,0,0.058799996972084045,0.009999999755783667,-0.02600000053230619,0.007999999971379599
0.0030071171931922436,-0.012162543833255768,9.872912406921387,-0.0007999999797903001,0,0.04899999871850014,0.004999999877891834,-0.007999999971379599,-0.012000000373951061
0.012354081496596336,0.012727576307952404,9.876799583435059,-0.0007999999797903001,0,0.058799996972084045,0.013000000266153095,-0.007999999971379599,0.019000000453128628
0.008609549142420292,-0.00397437484934926,9.899506568908691,-0.0007999999797903001,0,0.07840000092983246,0.012000000373951061,-0.008999999863581633,-0.0329999989439571
-0.006646303925663233,0.004558559972792864,9.895858764648438,-0.0007999999797903001,0,0.07840000092983246,0.010999999647985701,-0.004999999877891834,-0.008999999863581633
0.008054094389081001,-0.003265690989792347,9.887956619262695,-0.0007999999797903001,0,0.06859999895095825,0.019999999511567335,0.0019999999928448997,0.03400000133744912
-0.009375694207847118,0.0012258312199264765,9.873764991760254,-0.0007999999797903001,-0.00009999999747378752,0.058799996972084045,0.008999999863581633,-0.019000000453128628,-0.019000000453128628
-0.005085284356027842,0.005631162319332361,9.88579273223877,-0.0008999999845400453,-0.00009999999747378752,0.06859999895095825,-0.0039999999856897995,0.07799999992939192,0.010999999647985701
-0.010477026924490929,-0.01864604465663433,9.898262023925781,-0.0005999999702908099,-0.00009999999747378752,0.07840000092983246,-0.0009999999964224499,-0.031999999885518396,-0.05200000106461238
-0.007795520592480898,-0.006445190869271755,9.882633209228516,-0.000699999975040555,-0.00009999999747378752,0.058799996972084045,-0.008999999863581633,-0.006000000186975531,0.007999999971379599
0.0037732617929577827,0.006569689139723778,9.886568069458008,-0.000699999975040555,0,0.06859999895095825,-0.013000000266153095,0.04600000004387353,0.007999999971379599
0.00748906284570694,0.0063685765489935875,9.88198184967041,-0.0005999999702908099,0,0.058799996972084045,-0.029999998433587676,0.019999999511567335,-0.009999999755783667
0.008063671179115772,-0.008188169449567795,9.894134521484375,-0.0004999999655410647,0,0.07840000092983246,-0.009999999755783667,0.07099999651516105,0.03400000133744912
-0.000976834329776466,-0.00484586413949728,9.872404098510742,-0.00029999998514540493,0,0.04899999871850014,0.029999998433587676,-0.007999999971379599,0.012000000373951061
0.004491522442549467,-0.0030262707732617855,9.88967227935791,-0.00039999998989515007,0,0.06859999895095825,-0.06899999839828364,0.02600000053230619,0.023000000021936765
-0.005305550992488861,0.0005171475349925458,9.881368637084961,-0.00029999998514540493,0.00009999999747378752,0.06859999895095825,-0.04500000098543482,-0.006000000186975531,-0.05200000106461238
-0.0012545617064461112,0.0071634515188634396,9.883485794067383,-0.00029999998514540493,0.00019999999494757503,0.058799996972084045,0.0019999999928448997,0.0009999999964224499,0.013000000266153095
-0.004663905128836632,-0.0026336219161748886,9.892497062683105,-0.00029999998514540493,0.00019999999494757503,0.06859999895095825,-0.023000000021936765,-0.019000000453128628,0.021000000237532696
-0.0030454243533313274,0.0010438719764351845,9.892123222351074,-0.00029999998514540493,0.00019999999494757503,0.06859999895095825,0.008999999863581633,-0.007999999971379599,0.004999999877891834
0.002451662439852953,0.003897760296240449,9.903816223144531,-0.00029999998514540493,0.00019999999494757503,0.08819999545812607,0.009999999755783667,-0.006000000186975531,-0.01400000015835513
-0.0017046716529875994,-0.008025364018976688,9.89717960357666,-0.00039999998989515007,0.00019999999494757503,0.07840000092983246,0.021000000237532696,0.0329999989439571,0.05200000106461238
0.010400412604212761,-0.00748906284570694,9.88273811340332,-0.00029999998514540493,0.00009999999747378752,0.058799996972084045,-0.008999999863581633,0.008999999863581633,-0.0009999999964224499
0.011176133528351784,-0.0015227121766656637,9.869818687438965,-0.00019999999494757503,0.00019999999494757503,0.04899999871850014,-0.010999999647985701,-0.03400000133744912,0.007999999971379599
0.005861005745828152,0.011367670260369778,9.884299278259277,-0.00029999998514540493,0.00019999999494757503,0.06859999895095825,0.012000000373951061,0.008999999863581633,0
-0.009165003895759583,0.00442448491230607,9.878859519958496,-0.00029999998514540493,0.00019999999494757503,0.06859999895095825,0.012000000373951061,0.008999999863581633,0
-0.00793917290866375,-0.016529567539691925,9.881071090698242,-0.00029999998514540493,0.00009999999747378752,0.058799996972084045,-0.021999999295971403,-0.009999999755783667,0.004999999877891834
0.0005171475349925458,0.012622231617569923,9.875852584838867,-0.00029999998514540493,0.00019999999494757503,0.058799996972084045,0.012000000373951061,-0.007999999971379599,-0.0009999999964224499
0.004606443922966719,0.0027198130264878273,9.881340026855469,-0.00029999998514540493,0.00009999999747378752,0.058799996972084045,-0.0030000000934877653,-0.012000000373951061,0.0269999995907449
0.0004022258799523115,0.0031699230894446373,9.891644477844238,-0.00039999998989515007,0.00019999999494757503,0.06859999895095825,-0.019999999511567335,-0.007999999971379599,0.008999999863581633
0.013599066063761711,-0.00824563018977642,9.888713836669922,-0.00039999998989515007,0.00019999999494757503,0.06859999895095825,0.0329999989439571,-0.0039999999856897995,0.015999999942759198
0.014030021615326405,0.010333375073969364,9.875995635986328,-0.00039999998989515007,0.00009999999747378752,0.058799996972084045,0.0019999999928448997,-0.007000000079177565,-0.03100000082707969
-0.011156979948282242,-0.012105083093047142,9.868555068969727,-0.00039999998989515007,0.00009999999747378752,0.04899999871850014,-0.05300000012305109,-0.014999999216793838,0.007999999971379599
0.015045163221657276,0.006129156332463026,9.88327407836914,-0.00039999998989515007,0.00019999999494757503,0.06859999895095825,0.013000000266153095,-0.007999999971379599,0.043999998591942806
0.005995080806314945,-0.008006210438907146,9.893348693847656,-0.0004999999655410647,0.00019999999494757503,0.07840000092983246,0.0019999999928448997,0.0030000000934877653,-0.008999999863581633
-0.0004118026699870825,-0.0016950948629528284,9.896145820617676,-0.0004999999655410647,0.00019999999494757503,0.07840000092983246,-0.012000000373951061,0.012000000373951061,-0.012000000373951061
0.0033327287528663874,0.0015801731497049332,9.88927936553955,-0.00039999998989515007,0.00019999999494757503,0.06859999895095825,-0.05099999867112037,-0.021000000237532696,0.013000000266153095
-0.000823605339974165,-0.009777919389307499,9.882134437561035,-0.0004999999655410647,0.00039999998989515007,0.058799996972084045,0.013000000266153095,-0.0009999999964224499,0.01700000066872456
0.016481684520840645,0.0017046716529875994,9.885103225708008,-0.0004999999655410647,0.00029999998514540493,0.06859999895095825,-0.0039999999856897995,0.01700000066872456,0.007999999971379599
-0.005612008739262819,0.0021452046930789948,9.870316505432129,-0.00039999998989515007,0.00029999998514540493,0.04899999871850014,0.010999999647985701,-0.007999999971379599,0.007000000079177565
0.01219127420336008,-0.019852720201015472,9.885390281677246,-0.00039999998989515007,-0.00930000003427267,0.06859999895095825,0.038000000906257256,-0.01400000015835513,0.007999999971379599
0.007852981798350811,-0.005870582535862923,9.8787260055542,-0.0004999999655410647,0.00029999998514540493,0.058799996972084045,-0.013000000266153095,-0.0329999989439571,-0.07099999651516105
-0.0031603462994098663,-0.006770802661776543,9.877623558044434,-0.0004999999655410647,0.00029999998514540493,0.03920000046491623,-0.029999998433587676,-0.007999999971379599,0.007000000079177565
0.0018866308964788914,-0.0013503297232091427,9.871140480041504,-0.0005999999702908099,0.0004999999655410647,0.04899999871850014,0.007999999971379599,-0.009999999755783667,0.004999999877891834
-0.0075273700058460236,-0.012411542236804962,9.884987831115723,-0.0005999999702908099,0.0004999999655410647,0.04899999871850014,0.010999999647985701,-0.006000000186975531,0.05499999823992851
-0.0019057845929637551,-0.008216899819672108,9.873218536376953,-0.0005999999702908099,0.00039999998989515007,0.04899999871850014,0.012000000373951061,-0.017999999727163266,0.019000000453128628
0.010716446675360203,-0.0010247182799503207,9.895474433898926,-0.0005999999702908099,0.00039999998989515007,0.07840000092983246,0.007000000079177565,0.0019999999928448997,-0.0429999995335041
0.004395754542201757,-0.007872135378420353,9.875018119812012,-0.0005999999702908099,0.00029999998514540493,0.058799996972084045,0.013000000266153095,-0.023000000021936765,0.013000000266153095
0.010946289636194706,-0.006914454512298107,9.89794635772705,-0.000699999975040555,0.00029999998514540493,0.07840000092983246,-0.008999999863581633,-0.017999999727163266,-0.010999999647985701
-0.00739329494535923,0.000814028549939394,9.892908096313477,-0.000699999975040555,0.00029999998514540493,0.07840000092983246,0.012000000373951061,-0.007999999971379599,0.007999999971379599
0.0010534487664699554,-0.0013215993531048298,9.889365196228027,-0.000699999975040555,0.00029999998514540493,0.06859999895095825,-0.03699999851276524,0.008999999863581633,0.014999999216793838
0.002212242456153035,0.012373235076665878,9.885199546813965,-0.000699999975040555,0.00039999998989515007,0.06859999895095825,0.0009999999964224499,0.010999999647985701,0.008999999863581633
-0.016060303896665573,-0.002288856776431203,9.890619277954102,-0.000699999975040555,0.00039999998989515007,0.06859999895095825,-0.012000000373951061,0.008999999863581633,0.007999999971379599
0.01169328112155199,0.001139639993198216,9.891300201416016,-0.0005999999702908099,0.00039999998989515007,0.06859999895095825,-0.014999999216793838,-0.007999999971379599,0.006000000186975531
0.0013694833032786846,-0.016855180263519287,9.881617546081543,-0.0005999999702908099,0.00039999998989515007,0.058799996972084045,-0.03699999851276524,0.0019999999928448997,0.004999999877891834
-0.004606443922966719,-0.004481945652514696,9.895915985107422,-0.0005999999702908099,0.0004999999655410647,0.07840000092983246,-0.004999999877891834,-0.021999999295971403,0.017999999727163266
0.00629196222871542,0.005046977195888758,9.88725757598877,-0.000699999975040555,0.0004999999655410647,0.06859999895095825,0.013000000266153095,-0.024000000747902123,0.0039999999856897995
-0.000823605339974165,0.0010342950699850917,9.878361701965332,-0.000699999975040555,0.0004999999655410647,0.058799996972084045,0.004999999877891834,-0.007999999971379599,0.02600000053230619
0.008437166921794415,-0.01742021180689335,9.8794527053833,-0.000699999975040555,0.0004999999655410647,0.058799996972084045,0.03400000133744912,-0.05900000114378995,0.0030000000934877653
0.0027676972094923258,0.001101332833059132,9.874549865722656,-0.0008999999845400453,0.00039999998989515007,0.058799996972084045,0.009999999755783667,-0.006000000186975531,-0.05600000063342052
-0.007307103835046291,0.0020207061897963285,9.887449264526367,-0.0008999999845400453,0.00029999998514540493,0.06859999895095825,0.012000000373951061,0.0269999995907449,0.03599999945432653
0.007431602105498314,0.009844956919550896,9.894373893737793,-0.0007999999797903001,0.00029999998514540493,0.07840000092983246,0.0030000000934877653,0.0009999999964224499,0.0030000000934877653
0.0021547814831137657,-0.0003447650233283639,9.884557723999023,-0.0007999999797903001,0.00029999998514540493,0.06859999895095825,-0.021000000237532696,0.007000000079177565,0.007999999971379599
0.0006703764665871859,0.008207323029637337,9.896336555480957,-0.0007999999797903001,0.00039999998989515007,0.07840000092983246,0.010999999647985701,-0.024999999806340833,0.0030000000934877653
-0.0029688100330531597,-0.0029975404031574726,9.87918472290039,-0.0007999999797903001,0.00029999998514540493,0.058799996972084045,-0.05999999686717535,-0.01400000015835513,0.009999999755783667
0.006933608092367649,-0.0039264908991754055,9.89757251739502,-0.0008999999845400453,0.0004999999655410647,0.07840000092983246,0.0039999999856897995,-0.007999999971379599,0.024999999806340833
-0.013876792974770069,-0.0015897499397397041,9.883886337280273,-0.0008999999845400453,0.0004999999655410647,0.06859999895095825,-0.021999999295971403,-0.007999999971379599,0.006000000186975531
0.005027823615819216,0.001149216783232987,9.888397216796875,-0.0008999999845400453,0.0004999999655410647,0.06859999895095825,0.01400000015835513,0,-0.006000000186975531
0.002911349292844534,0.003964798059314489,9.892850875854492,-0.0008999999845400453,0.0004999999655410647,0.07840000092983246,0.009999999755783667,-0.03899999996469596,-0.03699999851276524
-0.00893516093492508,0.003725377842783928,9.886052131652832,-0.0009999999310821295,0.00039999998989515007,0.06859999895095825,0.007000000079177565,0.03100000082707969,0.017999999727163266
0.008111555129289627,0.0026048915460705757,9.871188163757324,-0.0008999999845400453,0.00039999998989515007,0.04899999871850014,0.029999998433587676,0.008999999863581633,-0.006000000186975531
0.002288856776431203,0.0013407529331743717,9.875870704650879,-0.0007999999797903001,0.00029999998514540493,0.058799996972084045,0.08299999855663877,0.031999999885518396,-0.046999999102312236
0.009806649759411812,-0.008226476609706879,9.887191772460938,-0.0007999999797903001,0.00009999999747378752,0.06859999895095825,-0.013000000266153095,-0.0030000000934877653,-0.017999999727163266
-0.001924938173033297,0.01223915908485651,9.877758026123047,-0.0007999999797903001,0.00009999999747378752,0.058799996972084045,0.004999999877891834,0.035000000395887826,0.007000000079177565
0.0071921818889677525,-0.003725377842783928,9.887784957885742,-0.000699999975040555,0.00009999999747378752,0.06859999895095825,0.01400000015835513,0.013000000266153095,0.03100000082707969
-0.0015322890831157565,0.010256759822368622,9.881722450256348,-0.0005999999702908099,0,0.058799996972084045,-0.02600000053230619,-0.0030000000934877653,0.012000000373951061
0.0195462629199028,-0.0006129156099632382,9.886741638183594,0.008999999612569809,0.00009999999747378752,0.06859999895095825,-0.0009999999964224499,-0.02800000031671026,0.007000000079177565
-0.0029783868230879307,-0.00027772740577347577,9.8955717086792,-0.0007999999797903001,0.00009999999747378752,0.07840000092983246,0.010999999647985701,-0.0030000000934877653,0.031999999885518396
0.00452025281265378,0.0014844050165265799,9.886079788208008,-0.0007999999797903001,0.00009999999747378752,0.06859999895095825,0.013000000266153095,-0.010999999647985701,0.024999999806340833
-0.0024803930427879095,-0.007738059852272272,9.879481315612793,-0.0007999999797903001,0,0.058799996972084045,-0.038000000906257256,-0.017999999727163266,-0.009999999755783667
0.004242525435984135,0.0158783458173275,9.89162540435791,-0.0007999999797903001,0.00009999999747378752,0.06859999895095825,-0.014999999216793838,-0.0030000000934877653,-0.008999999863581633
0.00004788403384736739,0.013206415809690952,9.892563819885254,-0.0007999999797903001,0.00019999999494757503,0.06859999895095825,0.0009999999964224499,-0.012000000373951061,-0.024999999806340833
-0.004338293336331844,-0.0009481038432568312,9.89401912689209,-0.0008999999845400453,0.00019999999494757503,0.07840000092983246,0.021999999295971403,0.041000001416626686,0.024999999806340833
-0.006675034295767546,-0.006090848706662655,9.8787260055542,-0.000699999975040555,0.00009999999747378752,0.058799996972084045,-0.017999999727163266,0.04600000004387353,0.007000000079177565
0.01534204464405775,-0.007565677165985107,9.887794494628906,-0.0005999999702908099,0.00019999999494757503,0.06859999895095825,0.007999999971379599,-0.057000003026912535,0.014999999216793838
0.009749189019203186,0.005401318892836571,9.891433715820312,-0.0007999999797903001,0.00009999999747378752,0.06859999895095825,0.008999999863581633,-0.007000000079177565,0.013000000266153095
0.0015610195696353912,-0.00874362513422966,9.887947082519531,-0.0007999999797903001,0.00009999999747378752,0.06859999895095825,0.0009999999964224499,-0.007999999971379599,0.057000003026912535
0.006014234386384487,0.008542511612176895,9.87816047668457,-0.0007999999797903001,0.00009999999747378752,0.058799996972084045,0.03100000082707969,-0.007999999971379599,-0.021000000237532696
0.0063781533390283585,0.01878969557583332,9.883944511413574,-0.0007999999797903001,0,0.06859999895095825,0.0009999999964224499,0.0269999995907449,-0.024999999806340833
0.004118026699870825,0.017899051308631897,9.888052940368652,-0.000699999975040555,0,0.06859999895095825,0,-0.007999999971379599,0.007999999971379599
0.008456320501863956,-0.0076135615818202496,9.889068603515625,-0.000699999975040555,0,0.06859999895095825,0.023000000021936765,0.01700000066872456,0.05099999867112037
0.003983951639384031,-0.0018579005263745785,9.883101463317871,-0.000699999975040555,0,0.058799996972084045,0.010999999647985701,-0.007000000079177565,0.006000000186975531
-0.005008670035749674,-0.0003447650233283639,9.891088485717773,-0.000699999975040555,0,0.06859999895095825,0,-0.007999999971379599,0.007000000079177565
-0.002576161175966263,0.005219359882175922,9.893416404724121,-0.000699999975040555,0,0.07840000092983246,0.007000000079177565,-0.007999999971379599,0.0329999989439571
0.0020111293997615576,0.004683058708906174,9.888273239135742,-0.000699999975040555,0,0.06859999895095825,0.009999999755783667,0.03699999851276524,0.0009999999964224499
-0.0063494229689240456,-0.01846408285200596,9.890130996704102,-0.0005999999702908099,0,0.06859999895095825,0.0009999999964224499,0.0329999989439571,0.008999999863581633
0.011367670260369778,-0.002394201699644327,9.879338264465332,-0.0004999999655410647,0,0.058799996972084045,-0.007000000079177565,-0.007999999971379599,-0.035000000395887826
-0.0023558945395052433,-0.017027562484145164,9.888225555419922,-0.0004999999655410647,0,0.058799996972084045,0.041000001416626686,0.01700000066872456,0.007000000079177565
-0.005238513462245464,-0.012440272606909275,9.879961013793945,-0.0004999999655410647,-0.00009999999747378752,0.058799996972084045,-0.010999999647985701,0.023000000021936765,0.007000000079177565
0.004003105219453573,-0.012966996058821678,9.875757217407227,-0.0004999999655410647,-0.00009999999747378752,0.058799996972084045,0.01400000015835513,-0.01700000066872456,0.007000000079177565
0.006014234386384487,0.006301539018750191,9.87926197052002,-0.0004999999655410647,-0.00009999999747378752,0.058799996972084045,-0.0019999999928448997,0.035000000395887826,-0.009999999755783667
-0.005343858152627945,0.02002510242164135,9.872289657592773,-0.00039999998989515007,0.009499999694526196,0.04899999871850014,0.031999999885518396,0.0019999999928448997,0.031999999885518396
0.01039083581417799,-0.008734048344194889,9.877853393554688,-0.00039999998989515007,-0.00029999998514540493,0.058799996972084045,0.009999999755783667,0.0039999999856897995,-0.06299999737754478
-0.005257667042315006,-0.013359645381569862,9.875,-0.00039999998989515007,-0.00029999998514540493,0.058799996972084045,0.009999999755783667,0.0039999999856897995,-0.06299999737754478
0.004797980189323425,0.009423578158020973,9.882335662841797,-0.0004999999655410647,-0.00039999998989515007,0.058799996972084045,-0.015999999942759198,-0.015999999942759198,0.0030000000934877653
0.005410895682871342,-0.004903324879705906,9.876187324523926,-0.0005999999702908099,-0.00029999998514540493,0.058799996972084045,0.021999999295971403,-0.006000000186975531,-0.012000000373951061
0.006272808648645878,-0.0033231519628316164,9.882124900817871,-0.0005999999702908099,-0.00039999998989515007,0.058799996972084045,0.010999999647985701,-0.007999999971379599,0.03999999902313467
0.0063685765489935875,-0.014671668410301208,9.897649765014648,-0.0005999999702908099,-0.00039999998989515007,0.07840000092983246,0.010999999647985701,0.02800000031671026,0.007000000079177565
-0.009710881859064102,0.003907337319105864,9.898223876953125,-0.0004999999655410647,-0.00039999998989515007,0.07840000092983246,0.05600000063342052,0.0269999995907449,0.031999999885518396
-0.009892841801047325,0.007374141365289688,9.875718116760254,-0.00039999998989515007,-0.0005999999702908099,0.058799996972084045,-0.0429999995335041,0.038000000906257256,0.01400000015835513
-0.0034189200960099697,-0.011214440688490868,9.884346961975098,-0.00029999998514540493,-0.0004999999655410647,0.06859999895095825,0.01700000066872456,-0.008999999863581633,-0.0019999999928448997
-0.0030550011433660984,-0.008188169449567795,9.892142295837402,-0.00029999998514540493,-0.0004999999655410647,0.06859999895095825,0.012000000373951061,-0.01700000066872456,-0.009999999755783667
-0.011310209520161152,-0.005937620066106319,9.890801429748535,-0.00039999998989515007,-0.0004999999655410647,0.06859999895095825,0.006000000186975531,0.013000000266153095,-0.035000000395887826
0.012536040507256985,-0.008341399021446705,9.8792142868042,-0.00029999998514540493,-0.0004999999655410647,0.058799996972084045,0.010999999647985701,-0.006000000186975531,0.024000000747902123
0.007354987785220146,-0.007383718155324459,9.875603675842285,-0.00029999998514540493,-0.0005999999702908099,0.058799996972084045,-0.024000000747902123,-0.007000000079177565,-0.021999999295971403
0.0009959879098460078,0.0034093433059751987,9.873045921325684,-0.00039999998989515007,-0.0004999999655410647,0.04899999871850014,0.010999999647985701,-0.017999999727163266,0.007000000079177565
0.004443638492375612,0.0059184664860367775,9.878715515136719,-0.00039999998989515007,-0.0004999999655410647,0.058799996972084045,-0.01400000015835513,0,0.021000000237532696
-0.007249642629176378,0.0020207061897963285,9.87482738494873,-0.00039999998989515007,-0.0004999999655410647,0.058799996972084045,0.0009999999964224499,-0.0019999999928448997,0.006000000186975531
-0.0030262707732617855,-0.010898405686020851,9.887967109680176,-0.00039999998989515007,-0.0004999999655410647,0.06859999895095825,0.010999999647985701,-0.006000000186975531,-0.004999999877891834
-0.0046543278731405735,0.005659893155097961,9.877385139465332,-0.00039999998989515007,-0.0004999999655410647,0.058799996972084045,0.009999999755783667,0.04200000047506539,-0.03699999851276524
0.013321338221430779,-0.0030933087691664696,9.882172584533691,-0.00029999998514540493,-0.0004999999655410647,0.058799996972084045,0.05099999867112037,-0.0329999989439571,0.004999999877891834
-0.0026048915460705757,0.010065224021673203,9.892955780029297,-0.00039999998989515007,-0.0005999999702908099,0.06859999895095825,0.010999999647985701,-0.02600000053230619,-0.0019999999928448997
0.01673068292438984,-0.0056407395750284195,9.898165702819824,-0.0005999999702908099,-0.000699999975040555,0.07840000092983246,0.0009999999964224499,-0.02600000053230619,0.012000000373951061
-0.004683058708906174,-0.011089942418038845,9.883302688598633,-0.0005999999702908099,-0.000699999975040555,0.06859999895095825,-0.024000000747902123,-0.007999999971379599,0.0269999995907449
0.003275267779827118,-0.012574347667396069,9.880066871643066,-0.0005999999702908099,-0.0005999999702908099,0.058799996972084045,0.008999999863581633,0.013000000266153095,0.007000000079177565
0.0008523358264937997,-0.005793968215584755,9.884241104125977,-0.0005999999702908099,-0.0005999999702908099,0.06859999895095825,0.010999999647985701,-0.012000000373951061,-0.006000000186975531
0.015160084702074528,-0.01369483396410942,9.895733833312988,-0.0005999999702908099,-0.0005999999702908099,0.07840000092983246,0.010999999647985701,-0.007000000079177565,0.008999999863581633
-0.0005363011732697487,-0.015093047171831131,9.885974884033203,-0.0005999999702908099,-0.000699999975040555,0.06859999895095825,0.017999999727163266,-0.007999999971379599,0.0539999991814898
-0.002384624909609556,-0.012469002977013588,9.88700008392334,-0.0005999999702908099,-0.000699999975040555,0.06859999895095825,-0.01700000066872456,-0.007000000079177565,0.03100000082707969
0.013417107053101063,-0.00824563018977642,9.881071090698242,-0.0005999999702908099,-0.000699999975040555,0.058799996972084045,0.031999999885518396,-0.007000000079177565,-0.007000000079177565
0.0018004396697506309,0.007422025315463543,9.883589744567871,-0.000699999975040555,-0.000699999975040555,0.06859999895095825,0.010999999647985701,-0.007999999971379599,0.01700000066872456
0.001120486413128674,0.0020111293997615576,9.880439758300781,-0.000699999975040555,-0.0007999999797903001,0.058799996972084045,0.05799999875029794,0,0.01700000066872456
0.012114659883081913,-0.004663905128836632,9.890772819519043,-0.000699999975040555,-0.0008999999845400453,0.06859999895095825,-0.008999999863581633,-0.0329999989439571,-0.05300000012305109
0.0055545479990541935,0.0023654713295400143,9.886578559875488,-0.000699999975040555,-0.0008999999845400453,0.06859999895095825,0.010999999647985701,-0.02600000053230619,0.004999999877891834
-0.01737232692539692,-0.014709975570440292,9.886884689331055,-0.0007999999797903001,-0.0008999999845400453,0.06859999895095825,-0.0039999999856897995,-0.007999999971379599,0.006000000186975531
-0.0013311761431396008,0.0059088896960020065,9.898032188415527,-0.0007999999797903001,-0.0008999999845400453,0.07840000092983246,0.010999999647985701,0.023000000021936765,-0.0019999999928448997
0.00729752704501152,-0.0030262707732617855,9.896269798278809,-0.000699999975040555,-0.0008999999845400453,0.07840000092983246,0.06299999737754478,-0.024999999806340833,0.007000000079177565
0.0018291701562702656,0.0006703764665871859,9.898740768432617,-0.0007999999797903001,-0.0009999999310821295,0.07840000092983246,0,-0.007999999971379599,0.06099999926066736
-0.012861651368439198,0.013215992599725723,9.90477466583252,-0.0007999999797903001,-0.0009999999310821295,0.08819999545812607,-0.038000000906257256,0.01400000015835513,0.007000000079177565
0.008101978339254856,-0.011032480746507645,9.89794635772705,-0.0007999999797903001,-0.0008999999845400453,0.07840000092983246,0.048000001495804245,-0.01700000066872456,0.007000000079177565
0.021691467612981796,0.001149216783232987,9.89892292022705,0.008799999952316284,-0.0009999999310821295,0.07840000092983246,-0.01400000015835513,0.013000000266153095,0.004999999877891834
0.0005746083916164935,-0.008121131919324398,9.894583702087402,-0.0008999999845400453,-0.0009999999310821295,0.07840000092983246,0.035000000395887826,-0.0329999989439571,0.0429999995335041
-0.00824563018977642,0.005056553985923529,9.869129180908203,-0.0008999999845400453,-0.0010999999940395355,0.04899999871850014,-0.03100000082707969,0.010999999647985701,0.0030000000934877653
0.00419464148581028,-0.004453215282410383,9.889968872070312,-0.0008999999845400453,-0.0009999999310821295,0.06859999895095825,-0.014999999216793838,-0.012000000373951061,0.004999999877891834
-0.006435614079236984,-0.008599972352385521,9.892553329467773,-0.0008999999845400453,-0.0008999999845400453,0.06859999895095825,0.010999999647985701,-0.007999999971379599,0.021999999295971403
-0.009500192478299141,-0.011731588281691074,9.882680892944336,-0.0008999999845400453,-0.0008999999845400453,0.058799996972084045,0.021999999295971403,0.007000000079177565,-0.009999999755783667
0.006023811176419258,-0.009701305069029331,9.876311302185059,-0.0008999999845400453,-0.0008999999845400453,0.058799996972084045,0.012000000373951061,-0.007999999971379599,-0.03699999851276524
-0.0035242647863924503,0.016060303896665573,9.8883695602417,-0.0008999999845400453,-0.0009999999310821295,0.06859999895095825,-0.012000000373951061,0.008999999863581633,0.01700000066872456
-0.007125144358724356,-0.004932055249810219,9.88094711303711,-0.0008999999845400453,-0.0008999999845400453,0.058799996972084045,0.010999999647985701,-0.007999999971379599,0.0030000000934877653
0.006033387966454029,-0.01583046093583107,9.894497871398926,-0.0008999999845400453,-0.0008999999845400453,0.07840000092983246,0.010999999647985701,-0.007999999971379599,0.02899999937514897
-0.0031507695093750954,0.003303998149931431,9.88338851928711,-0.0008999999845400453,-0.0009999999310821295,0.06859999895095825,-0.04900000055424296,-0.035000000395887826,0.007999999971379599
0.011185710318386555,0.002221819246187806,9.89779281616211,-0.0009999999310821295,-0.0007999999797903001,0.07840000092983246,0.006000000186975531,-0.007999999971379599,0.021999999295971403
-0.009672574698925018,-0.004855440929532051,9.891462326049805,-0.0009999999310821295,-0.0007999999797903001,0.06859999895095825,-0.021999999295971403,-0.008999999863581633,-0.009999999755783667
0.0017621323931962252,-0.0037828385829925537,9.89370346069336,-0.0009999999310821295,-0.000699999975040555,0.07840000092983246,0.007000000079177565,0,0.007999999971379599
0.002834734972566366,-0.011712434701621532,9.902495384216309,-0.0009999999310821295,-0.0007999999797903001,0.08819999545812607,0.014999999216793838,0.007999999971379599,0.004999999877891834
0.007144297938793898,-0.004127603489905596,9.88633918762207,-0.0009999999310821295,-0.0007999999797903001,0.06859999895095825,-0.0539999991814898,-0.02899999937514897,0.007000000079177565
0.0063685765489935875,-0.009749189019203186,9.896815299987793,-0.0009999999310821295,-0.0005999999702908099,0.07840000092983246,-0.015999999942759198,0.03899999996469596,0.0039999999856897995
-0.003303998149931431,-0.004759673029184341,9.888157844543457,-0.0008999999845400453,-0.0005999999702908099,0.06859999895095825,-0.05300000012305109,-0.012000000373951061,0.007000000079177565
-0.00703895278275013,0.0036104561295360327,9.890274047851562,-0.0008999999845400453,-0.00039999998989515007,0.06859999895095825,0.009999999755783667,0.0019999999928448997,-0.01400000015835513
0.00452025281265378,0.009548076428472996,9.881071090698242,-0.0008999999845400453,-0.0004999999655410647,0.058799996972084045,-0.0329999989439571,-0.006000000186975531,-0.009999999755783667
0.005975927226245403,-0.00803494080901146,9.88131046295166,-0.0008999999845400453,-0.00039999998989515007,0.058799996972084045,0.007000000079177565,0.008999999863581633,0.01700000066872456
-0.0059088896960020065,0.0013694833032786846,9.885247230529785,-0.0008999999845400453,-0.00039999998989515007,0.06859999895095825,0.010999999647985701,-0.008999999863581633,-0.01700000066872456
0.022428881376981735,-0.02203623205423355,9.882057189941406,0.008700000122189522,-0.010099999606609344,0.058799996972084045,-0.006000000186975531,-0.08299999855663877,0.007000000079177565
0.012459426186978817,-0.007469909265637398,9.886913299560547,-0.0011999999405816197,-0.00029999998514540493,0.06859999895095825,0.010999999647985701,-0.007000000079177565,0.02899999937514897
-0.01388636976480484,-0.009634267538785934,9.898089408874512,-0.0011999999405816197,-0.00029999998514540493,0.07840000092983246,-0.04900000055424296,-0.0009999999964224499,-0.03100000082707969
0.003351882565766573,-0.004778826609253883,9.884308815002441,-0.0011999999405816197,-0.00009999999747378752,0.06859999895095825,0.010999999647985701,-0.007999999971379599,0.019000000453128628
-0.0020685901399701834,0.00005746084207203239,9.906163215637207,-0.0011999999405816197,-0.00019999999494757503,0.08819999545812607,0.012000000373951061,-0.02899999937514897,0.004999999877891834
-0.011118672788143158,-0.0004118026699870825,9.899430274963379,-0.0013000000035390258,-0.00019999999494757503,0.07840000092983246,0.010999999647985701,-0.04500000098543482,-0.0019999999928448997
0.001781286089681089,-0.010381259024143219,9.893741607666016,-0.00139999995008111,-0.00019999999494757503,0.07840000092983246,-0.013000000266153095,-0.007999999971379599,0.031999999885518396
0.005209783092141151,0.007699752692133188,9.896442413330078,-0.00139999995008111,-0.00019999999494757503,0.07840000092983246,0.029999998433587676,0.02600000053230619,0.0429999995335041
0.009854533709585667,0.009461885318160057,9.881665229797363,-0.0013000000035390258,-0.00029999998514540493,0.058799996972084045,-0.03100000082707969,0,0.007000000079177565
0.010180145502090454,-0.010649409145116806,9.887171745300293,-0.0013000000035390258,-0.00019999999494757503,0.06859999895095825,0.0039999999856897995,0.0009999999964224499,-0.01700000066872456
-0.0015705963596701622,0.00014365209790412337,9.875621795654297,-0.0011999999405816197,-0.00019999999494757503,0.058799996972084045,-0.024000000747902123,0.015999999942759198,0.006000000186975531
-0.001130063203163445,0.011061212047934532,9.883800506591797,-0.0011999999405816197,-0.00009999999747378752,0.06859999895095825,0.05499999823992851,-0.007000000079177565,-0.019999999511567335
-0.0025091234128922224,-0.007747636642307043,9.883245468139648,-0.0011999999405816197,-0.00029999998514540493,0.058799996972084045,-0.009999999755783667,-0.007000000079177565,0.007000000079177565
-0.006100425496697426,-0.0071730283088982105,9.874300956726074,-0.0011999999405816197,-0.00029999998514540493,0.058799996972084045,-0.007000000079177565,0.004999999877891834,-0.04600000004387353
-0.005985504016280174,0.005305550992488861,9.876502990722656,-0.0011999999405816197,-0.00019999999494757503,0.058799996972084045,-0.035000000395887826,0.0039999999856897995,-0.0030000000934877653
0.007201758679002523,-0.005669469945132732,9.894708633422852,-0.0010999999940395355,-0.00009999999747378752,0.07840000092983246,-0.01400000015835513,-0.031999999885518396,-0.03100000082707969
-0.005353434942662716,-0.005305550992488861,9.896212577819824,-0.0011999999405816197,-0.00009999999747378752,0.07840000092983246,-0.007999999971379599,-0.014999999216793838,0.0030000000934877653
0.012536040507256985,0.00007661445124540478,9.890035629272461,-0.0011999999405816197,-0.00009999999747378752,0.06859999895095825,-0.009999999755783667,-0.008999999863581633,0.007000000079177565
-0.00419464148581028,-0.008523358032107353,9.890313148498535,-0.0011999999405816197,0,0.06859999895095825,0.02800000031671026,0.013000000266153095,0.008999999863581633
0.008753201924264431,-0.013599066063761711,9.88601303100586,-0.0011999999405816197,-0.00009999999747378752,0.06859999895095825,0.019000000453128628,0.0030000000934877653,0.007000000079177565
0.004127603489905596,-0.015207969583570957,9.89450740814209,-0.0011999999405816197,-0.00019999999494757503,0.07840000092983246,-0.02899999937514897,-0.02899999937514897,0.024999999806340833
0.0033997665159404278,-0.0003447650233283639,9.890868186950684,-0.0011999999405816197,-0.00009999999747378752,0.06859999895095825,0.0030000000934877653,0.035000000395887826,-0.006000000186975531
-0.004759673029184341,-0.0060429647564888,9.889891624450684,-0.0010999999940395355,-0.00009999999747378752,0.06859999895095825,-0.010999999647985701,0.0019999999928448997,-0.0030000000934877653
0.0016567875863984227,-0.0028251581825315952,9.88736343383789,-0.0010999999940395355,-0.00009999999747378752,0.06859999895095825,-0.01400000015835513,0.06200000165415938,0.007000000079177565
0.000009576806405675597,-0.012095506303012371,9.88344669342041,-0.0008999999845400453,0,0.06859999895095825,0.007999999971379599,0.009999999755783667,0.035000000395887826
0.010611101984977722,-0.0004118026699870825,9.893952369689941,-0.0008999999845400453,0,0.07840000092983246,0.007000000079177565,-0.01400000015835513,0.01700000066872456
-0.007000645622611046,0.0076231383718550205,9.885466575622559,-0.0008999999845400453,-0.00009999999747378752,0.06859999895095825,0.010999999647985701,0.008999999863581633,0.007000000079177565
0.012047622352838516,0.002135627903044224,9.888618469238281,-0.0008999999845400453,-0.00009999999747378752,0.06859999895095825,0.010999999647985701,-0.0030000000934877653,0.004999999877891834
0.014384363777935505,-0.004702212288975716,9.893281936645508,-0.0008999999845400453,-0.00009999999747378752,0.07840000092983246,0.007000000079177565,-0.010999999647985701,-0.01700000066872456
0.006924031302332878,0.000641646038275212,9.898414611816406,-0.0008999999845400453,-0.00009999999747378752,0.07840000092983246,-0.013000000266153095,-0.0019999999928448997,0
-0.004865017719566822,0.005755661055445671,9.881397247314453,-0.0008999999845400453,-0.00009999999747378752,0.058799996972084045,-0.03100000082707969,-0.04900000055424296,0.015999999942759198
0.007795520592480898,0.005679046735167503,9.890724182128906,-0.0009999999310821295,0,0.07840000092983246,0.012000000373951061,-0.06299999737754478,0.004999999877891834
0.002288856776431203,0.003064578166231513,9.888751983642578,-0.0011999999405816197,-0.00009999999747378752,0.06859999895095825,-0.006000000186975531,0.013000000266153095,0.007000000079177565
0.007603984791785479,-0.002461239229887724,9.899487495422363,-0.0010999999940395355,-0.00009999999747378752,0.07840000092983246,0.007000000079177565,-0.006000000186975531,0.01400000015835513
-0.006263231858611107,-0.005315127782523632,9.89603042602539,-0.0010999999940395355,-0.00009999999747378752,0.07840000092983246,-0.006000000186975531,0.012000000373951061,0.014999999216793838
0.005659893155097961,0.004309562966227531,9.886041641235352,-0.0010999999940395355,-0.00009999999747378752,0.06859999895095825,0.0329999989439571,0.019000000453128628,-0.009999999755783667
0.011578359641134739,0.004031835589557886,9.888837814331055,-0.0009999999310821295,-0.00019999999494757503,0.06859999895095825,-0.04900000055424296,-0.012000000373951061,0.05200000106461238
-0.005276820622384548,0.0030933087691664696,9.900732040405273,-0.0009999999310821295,0,0.07840000092983246,0.010999999647985701,0.035000000395887826,-0.0009999999964224499
0.007125144358724356,-0.0026910826563835144,9.883772850036621,-0.0008999999845400453,-0.00009999999747378752,0.06859999895095825,0.010999999647985701,-0.007999999971379599,0.0030000000934877653
0.013263877481222153,0.010228029452264309,9.885860443115234,-0.0008999999845400453,-0.00009999999747378752,0.06859999895095825,0.019000000453128628,-0.024999999806340833,-0.0019999999928448997
0.004865017719566822,0.002432508859783411,9.877843856811523,-0.0009999999310821295,-0.00009999999747378752,0.058799996972084045,0.021999999295971403,0.019000000453128628,-0.0030000000934877653
-0.0005554548115469515,0.004999093245714903,9.890974044799805,-0.0008999999845400453,-0.00019999999494757503,0.06859999895095825,0.004999999877891834,-0.008999999863581633,0.0030000000934877653
0.008791509084403515,-0.005008670035749674,9.877758026123047,-0.0008999999845400453,-0.00019999999494757503,0.058799996972084045,-0.023000000021936765,0.012000000373951061,0.007999999971379599
-0.004223371855914593,0.0024899698328226805,9.88305377960205,-0.0008999999845400453,-0.00009999999747378752,0.058799996972084045,0,-0.01400000015835513,0.004999999877891834
-0.007929596118628979,-0.012909535318613052,9.896125793457031,-0.0008999999845400453,-0.00009999999747378752,0.07840000092983246,-0.0009999999964224499,0.008999999863581633,0.049999999612681666
-0.0008523358264937997,-0.0018387469463050365,9.888168334960938,-0.0008999999845400453,-0.00009999999747378752,0.06859999895095825,0.0030000000934877653,-0.007000000079177565,-0.02800000031671026
0.0037732617929577827,0.004989516455680132,9.897936820983887,-0.0008999999845400453,-0.00009999999747378752,0.07840000092983246,0.03699999851276524,0.014999999216793838,-0.009999999755783667
0.0031124623492360115,0.008178592659533024,9.885601997375488,-0.0007999999797903001,-0.00019999999494757503,0.06859999895095825,-0.01400000015835513,-0.0329999989439571,0.007000000079177565
-0.0021930888760834932,0.0015897499397397041,9.898577690124512,-0.0008999999845400453,-0.00019999999494757503,0.07840000092983246,0.010999999647985701,-0.0269999995907449,0.024999999806340833
0.003945644479244947,-0.025771187618374825,9.889355659484863,-0.0009999999310821295,-0.00989999994635582,0.06859999895095825,-0.004999999877891834,0.017999999727163266,-0.009999999755783667
0.007335834205150604,-0.0030454243533313274,9.884653091430664,-0.0008999999845400453,-0.00009999999747378752,0.06859999895095825,-0.013000000266153095,0.007999999971379599,-0.04600000004387353
-0.007125144358724356,0.0025091234128922224,9.878323554992676,-0.0007999999797903001,0,0.058799996972084045,0.029999998433587676,-0.01400000015835513,0.006000000186975531
-0.007125144358724356,0.0025091234128922224,9.878323554992676,-0.0007999999797903001,0,0.058799996972084045,0.029999998433587676,-0.01400000015835513,0.006000000186975531
-0.0004692635266110301,-0.008772355504333973,9.881828308105469,-0.0007999999797903001,-0.00009999999747378752,0.058799996972084045,0.010999999647985701,-0.007999999971379599,0.007000000079177565
0.018914194777607918,0.009710881859064102,9.882230758666992,-0.0008999999845400453,-0.00009999999747378752,0.058799996972084045,-0.05099999867112037,-0.017999999727163266,0.006000000186975531
-0.004683058708906174,0.006924031302332878,9.877163887023926,-0.0008999999845400453,0,0.058799996972084045,0.010999999647985701,-0.009999999755783667,0.04600000004387353
-0.009260771796107292,-0.0025187002029269934,9.88976764678955,-0.0008999999845400453,0,0.06859999895095825,-0.008999999863581633,0.010999999647985701,0.007999999971379599
0.006579265929758549,0.0028060043696314096,9.88829231262207,-0.0007999999797903001,0,0.06859999895095825,-0.046999999102312236,0.0019999999928448997,0.038000000906257256
0.004175487905740738,-0.00549708679318428,9.893177032470703,-0.0007999999797903001,0,0.07840000092983246,-0.04900000055424296,0.0019999999928448997,0.007000000079177565
0.002106897532939911,-0.006971915252506733,9.887602806091309,-0.0007999999797903001,0.00019999999494757503,0.06859999895095825,0.010999999647985701,-0.012000000373951061,0.0030000000934877653
-0.010065224021673203,0.0027964275795966387,9.890265464782715,-0.0007999999797903001,0.00009999999747378752,0.06859999895095825,-0.023000000021936765,0.008999999863581633,-0.006000000186975531
0.0006703764665871859,0.004137180279940367,9.896806716918945,-0.0007999999797903001,0.00019999999494757503,0.07840000092983246,-0.02600000053230619,-0.007000000079177565,0.006000000186975531
0.01917276717722416,0.0013120225630700588,9.892850875854492,0.008799999952316284,0.00029999998514540493,0.07840000092983246,-0.0269999995907449,-0.007999999971379599,-0.006000000186975531
0.0014748282264918089,0.006454767659306526,9.893003463745117,-0.0008999999845400453,0.00029999998514540493,0.07840000092983246,-0.007000000079177565,0.01700000066872456,0.007000000079177565
0.004108449909836054,-0.009050082415342331,9.881752014160156,-0.0008999999845400453,0.00029999998514540493,0.058799996972084045,0.007000000079177565,0.019999999511567335,0.03699999851276524
-0.0015131353866308928,-0.007345410995185375,9.89500617980957,-0.0007999999797903001,0.00029999998514540493,0.07840000092983246,0.035000000395887826,-0.0329999989439571,-0.02800000031671026
-0.008207323029637337,0.010534487664699554,9.883264541625977,-0.0008999999845400453,0.00019999999494757503,0.06859999895095825,-0.01700000066872456,0.06500000216452881,0.007000000079177565
0.0047309426590800285,-0.017027562484145164,9.878658294677734,-0.000699999975040555,0.00029999998514540493,0.058799996972084045,-0.03400000133744912,-0.03100000082707969,0.05799999875029794
0.0047309426590800285,-0.017027562484145164,9.878658294677734,-0.000699999975040555,0.00029999998514540493,0.058799996972084045,-0.03400000133744912,-0.03100000082707969,0.05799999875029794
-0.009988609701395035,0.0072783734649419785,9.888177871704102,-0.0007999999797903001,0.00039999998989515007,0.06859999895095825,-0.0030000000934877653,0.008999999863581633,0.008999999863581633
0.01938345655798912,0.006435614079236984,9.876215934753418,-0.0007999999797903001,0.00039999998989515007,0.06859999895095825,0.010999999647985701,0.01700000066872456,0.007999999971379599
0.015619771555066109,-0.013675680384039879,9.89651870727539,0.008799999952316284,0.00039999998989515007,0.058799996972084045,0.0009999999964224499,0.07900000232288394,0.0030000000934877653
0.0055545479990541935,-0.012469002977013588,9.882124900817871,-0.0005999999702908099,0.00029999998514540493,0.058799996972084045,-0.013000000266153095,-0.007999999971379599,0.0039999999856897995
0.0052002063021063805,-0.008216899819672108,9.893195152282715,-0.0005999999702908099,0.00039999998989515007,0.07840000092983246,0.009999999755783667,0.05999999686717535,-0.0009999999964224499
-0.000976834329776466,0.016931794583797455,9.900455474853516,-0.00039999998989515007,0.00029999998514540493,0.07840000092983246,0.0009999999964224499,-0.007000000079177565,-0.0030000000934877653
-0.004960786085575819,-0.0076422919519245625,9.899478912353516,-0.0004999999655410647,0.00029999998514540493,0.07840000092983246,-0.01700000066872456,-0.04500000098543482,0.008999999863581633
0.011607090011239052,0.006885724142193794,9.893013954162598,-0.0005999999702908099,0.00039999998989515007,0.07840000092983246,-0.0009999999964224499,0.03699999851276524,-0.035000000395887826
-0.007910442538559437,-0.015476119704544544,9.886482238769531,-0.0004999999655410647,0.00039999998989515007,0.06859999895095825,0.024000000747902123,0.0269999995907449,0.017999999727163266
0.008714893832802773,-0.01999637298285961,9.886529922485352,-0.00039999998989515007,-0.00930000003427267,0.06859999895095825,-0.013000000266153095,0.0030000000934877653,0.0030000000934877653
-0.012765883468091488,-0.008667009882628918,9.881340026855469,-0.00039999998989515007,0.00039999998989515007,0.058799996972084045,0.007999999971379599,0.021999999295971403,0.02899999937514897
0.0019728222396224737,-0.019498378038406372,9.883637428283691,-0.00029999998514540493,-0.009200000204145908,0.06859999895095825,0.007999999971379599,-0.024000000747902123,0.010999999647985701
0.012076352722942829,-0.0042904093861579895,9.88833999633789,-0.00039999998989515007,0.0004999999655410647,0.06859999895095825,0.014999999216793838,0,0.0039999999856897995
0.006722918711602688,0.008226476609706879,9.880937576293945,-0.00039999998989515007,0.0004999999655410647,0.058799996972084045,-0.01400000015835513,-0.0009999999964224499,-0.03899999996469596
-0.005880159325897694,0.009107543155550957,9.876982688903809,-0.00039999998989515007,0.0004999999655410647,0.058799996972084045,0.010999999647985701,-0.03100000082707969,0.02800000031671026
-0.008753201924264431,0.0042808325961232185,9.882871627807617,-0.00039999998989515007,0.00039999998989515007,0.058799996972084045,-0.006000000186975531,-0.004999999877891834,0.024000000747902123
0.01992933452129364,0.004089296329766512,9.868430137634277,0.009099999442696571,0.0004999999655410647,0.04899999871850014,-0.006000000186975531,0.03999999902313467,-0.006000000186975531
-0.01324472390115261,0.0008331821882165968,9.88486385345459,-0.0004999999655410647,0.0004999999655410647,0.06859999895095825,0.021000000237532696,-0.0019999999928448997,0.013000000266153095
-0.013350068591535091,0.0029592332430183887,9.895781517028809,-0.0004999999655410647,0.00039999998989515007,0.07840000092983246,0.009999999755783667,0.010999999647985701,0.05099999867112037
0.007441178895533085,-0.004884171299636364,9.88780403137207,-0.00039999998989515007,0.00039999998989515007,0.06859999895095825,0.010999999647985701,-0.007000000079177565,0.0030000000934877653
0.01003649365156889,0.0009385270532220602,9.895868301391602,-0.0004999999655410647,0.00029999998514540493,0.07840000092983246,0.009999999755783667,0.0030000000934877653,0.0039999999856897995
-0.012660538777709007,-0.00562158552929759,9.897141456604004,-0.00039999998989515007,0.00029999998514540493,0.07840000092983246,0.006000000186975531,0.010999999647985701,-0.057000003026912535
-0.0063589997589588165,-0.009375694207847118,9.894182205200195,-0.00039999998989515007,0.00029999998514540493,0.07840000092983246,0.006000000186975531,-0.0009999999964224499,0.004999999877891834
-0.0009097966831177473,-0.00407014274969697,9.8873929977417,-0.00039999998989515007,0.00029999998514540493,0.06859999895095825,0.0030000000934877653,0.006000000186975531,0.0030000000934877653
0.007881712168455124,0.001417367486283183,9.885161399841309,-0.00039999998989515007,0.00029999998514540493,0.06859999895095825,-0.024000000747902123,0.03100000082707969,0.09099999769425504
-0.0015610195696353912,-0.015983689576387405,9.885161399841309,-0.00029999998514540493,0.00029999998514540493,0.07840000092983246,-0.006000000186975531,0.01400000015835513,0.0039999999856897995
0.015648502856492996,-0.0019823990296572447,9.871800422668457,-0.00029999998514540493,0.00029999998514540493,0.06859999895095825,0.010999999647985701,-0.006000000186975531,0.0039999999856897995
0.0017525556031614542,-0.0034189200960099697,9.890887260437012,-0.00039999998989515007,0.00029999998514540493,0.04899999871850014,-0.008999999863581633,-0.004999999877891834,-0.01400000015835513
0.011741165071725845,-0.00364876352250576,9.880142211914062,-0.00039999998989515007,0.00029999998514540493,0.06859999895095825,0.010999999647985701,0.035000000395887826,0.0039999999856897995
0.005324704572558403,-0.014106635935604572,9.887325286865234,-0.00029999998514540493,0.00029999998514540493,0.06859999895095825,0.010999999647985701,-0.006000000186975531,-0.013000000266153095
0.000028730421036016196,0.00529597420245409,9.876972198486328,-0.00029999998514540493,0.00019999999494757503,0.058799996972084045,0.024999999806340833,-0.06299999737754478,0.007000000079177565
0.014997279271483421,-0.0046543278731405735,9.89130973815918,-0.0004999999655410647,0.00019999999494757503,0.06859999895095825,0.009999999755783667,-0.0019999999928448997,0.057000003026912535
0.006866570562124252,-0.007508216425776482,9.89549446105957,-0.0004999999655410647,0.00009999999747378752,0.07840000092983246,0.008999999863581633,-0.0039999999856897995,0.0039999999856897995
-0.0021739350631833076,0.002126051113009453,9.88192367553711,-0.0004999999655410647,0.00009999999747378752,0.058799996972084045,-0.006000000186975531,-0.006000000186975531,0.0039999999856897995
0.010180145502090454,0.00020111293997615576,9.900742530822754,-0.0004999999655410647,0.00009999999747378752,0.07840000092983246,0.009999999755783667,0.02600000053230619,-0.014999999216793838
0.014259865507483482,-0.00209732074290514,9.886415481567383,-0.0004999999655410647,0.00009999999747378752,0.07840000092983246,0.03400000133744912,0.0039999999856897995,-0.0039999999856897995
0.0013503297232091427,-0.0071730283088982105,9.893071174621582,-0.00039999998989515007,0,0.07840000092983246,0.01700000066872456,-0.010999999647985701,0.0039999999856897995
0.0075465235859155655,-0.019421763718128204,9.88099479675293,-0.00039999998989515007,-0.009599999524652958,0.058799996972084045,0.013000000266153095,-0.004999999877891834,-0.0009999999964224499
0.012536040507256985,-0.010611101984977722,9.89708423614502,-0.00039999998989515007,0,0.07840000092983246,0.007999999971379599,-0.029999998433587676,0.0039999999856897995
0.008121131919324398,-0.0050661307759583,9.871216773986816,-0.0004999999655410647,0,0.04899999871850014,-0.024000000747902123,0.038000000906257256,-0.014999999216793838
0.005726930685341358,0.006464344449341297,9.86992359161377,-0.00039999998989515007,0.00009999999747378752,0.04899999871850014,0.012000000373951061,0.029999998433587676,0.021999999295971403
0.00924161821603775,-0.014796166680753231,9.870240211486816,-0.00029999998514540493,0,0.04899999871850014,-0.049999999612681666,0.0039999999856897995,0.0030000000934877653
-0.003715801052749157,-0.014566323719918728,9.885601997375488,-0.00029999998514540493,0.00019999999494757503,0.06859999895095825,-0.03899999996469596,-0.024000000747902123,-0.006000000186975531
0.017707515507936478,-0.0025378537829965353,9.888206481933594,-0.00029999998514540493,0.00029999998514540493,0.06859999895095825,0.02899999937514897,0.05499999823992851,0.004999999877891834
0.01458547729998827,-0.003696647472679615,9.877777099609375,-0.00019999999494757503,0.00019999999494757503,0.058799996972084045,0.021000000237532696,-0.04500000098543482,0.013000000266153095
0.0031794998794794083,-0.012315774336457253,9.892716407775879,-0.00029999998514540493,0.00009999999747378752,0.06859999895095825,0,-0.0039999999856897995,0.01400000015835513
0.005870582535862923,0.0043861777521669865,9.882508277893066,-0.00029999998514540493,0.00009999999747378752,0.058799996972084045,0.010999999647985701,-0.0019999999928448997,-0.035000000395887826
-0.0034189200960099697,0.01288080494850874,9.886041641235352,-0.00029999998514540493,0.00009999999747378752,0.06859999895095825,0.013000000266153095,-0.004999999877891834,0.006000000186975531
-0.003667917102575302,-0.004951209295541048,9.894182205200195,-0.00029999998514540493,0.00009999999747378752,0.07840000092983246,0.0039999999856897995,0.007999999971379599,-0.006000000186975531
0.006684611551463604,-0.0013024457730352879,9.891654014587402,-0.00029999998514540493,0.00009999999747378752,0.06859999895095825,0.010999999647985701,-0.031999999885518396,0.013000000266153095
0.020676326006650925,0.005736507475376129,9.893780708312988,0.009200000204145908,0,0.07840000092983246,0.010999999647985701,0.0329999989439571,0.006000000186975531
0.0025187002029269934,-0.003236960619688034,9.897371292114258,-0.00039999998989515007,0,0.07840000092983246,-0.023000000021936765,-0.007000000079177565,0.048000001495804245
-0.0051140147261321545,-0.0026910826563835144,9.884424209594727,-0.00039999998989515007,0.00009999999747378752,0.06859999895095825,-0.007000000079177565,-0.006000000186975531,0.0039999999856897995
0.006071695126593113,-0.002298433566465974,9.883589744567871,-0.00039999998989515007,0.00009999999747378752,0.06859999895095825,0,-0.009999999755783667,0.01700000066872456
0.005755661055445671,-0.012507310137152672,9.891969680786133,-0.00039999998989515007,0.00009999999747378752,0.06859999895095825,-0.01400000015835513,0.038000000906257256,-0.01400000015835513
0.00009576806769473478,0.01169328112155199,9.867673873901367,-0.00029999998514540493,0.00009999999747378752,0.04899999871850014,0.0019999999928448997,0.048000001495804245,-0.017999999727163266
-0.00017238251166418195,0.0068186866119503975,9.876082420349121,-0.00019999999494757503,0.00009999999747378752,0.058799996972084045,-0.0329999989439571,0.031999999885518396,0.02899999937514897
-0.006033387966454029,-0.011530475690960884,9.88170337677002,-0.00009999999747378752,0.00019999999494757503,0.058799996972084045,0.02899999937514897,-0.0009999999964224499,0.019999999511567335
0.0012066776398569345,0.0076135615818202496,9.88033390045166,-0.00009999999747378752,0.00009999999747378752,0.06859999895095825,-0.009999999755783667,-0.006000000186975531,-0.024999999806340833
0.007115567568689585,-0.003706224262714386,9.883332252502441,0,0.00009999999747378752,0.058799996972084045,0.006000000186975531,0.019000000453128628,0.02899999937514897
0.00629196222871542,-0.002126051113009453,9.888349533081055,0,0.00009999999747378752,0.06859999895095825,0.007000000079177565,-0.004999999877891834,0.012000000373951061
0.0054779332131147385,0.011750741861760616,9.896404266357422,0,0.00009999999747378752,0.07840000092983246,0,-0.0329999989439571,0.0039999999856897995
-0.0006799532566219568,-0.006684611551463604,9.883034706115723,-0.00009999999747378752,0.00009999999747378752,0.058799996972084045,-0.03699999851276524,0.0039999999856897995,-0.023000000021936765
0.0027868507895618677,-0.019469648599624634,9.884126663208008,-0.00009999999747378752,-0.009399999864399433,0.06859999895095825,0.009999999755783667,-0.015999999942759198,-0.015999999942759198
0.010314221493899822,-0.0006224924582056701,9.893367767333984,-0.00009999999747378752,0.00019999999494757503,0.07840000092983246,-0.008999999863581633,-0.006000000186975531,0.01400000015835513
-0.0005458780215121806,-0.01599326729774475,9.87975025177002,-0.00009999999747378752,0.00019999999494757503,0.058799996972084045,0.007000000079177565,0.02899999937514897,-0.043999998591942806
0.004118026699870825,-0.0034189200960099697,9.89566707611084,-0.00009999999747378752,0.00019999999494757503,0.07840000092983246,-0.021000000237532696,-0.007000000079177565,-0.015999999942759198
-0.0017525556031614542,0.003687070682644844,9.886348724365234,-0.00009999999747378752,0.00029999998514540493,0.06859999895095825,-0.024000000747902123,-0.006000000186975531,0.0019999999928448997
0.0021452046930789948,-0.00029688101494684815,9.883465766906738,-0.00009999999747378752,0.00029999998514540493,0.06859999895095825,0.012000000373951061,-0.0030000000934877653,0.012000000373951061
0.011856086552143097,-0.007929596118628979,9.879615783691406,-0.00009999999747378752,0.00029999998514540493,0.058799996972084045,-0.0030000000934877653,-0.041000001416626686,0
0.01189439371228218,0.0033327287528663874,9.876656532287598,-0.00019999999494757503,0.00029999998514540493,0.058799996972084045,0.010999999647985701,-0.035000000395887826,0.009999999755783667
0.016146495938301086,-0.007249642629176378,9.88202953338623,-0.00029999998514540493,0.00029999998514540493,0.058799996972084045,-0.023000000021936765,0.05499999823992851,-0.0009999999964224499
0.011281479150056839,0.012363658286631107,9.879338264465332,-0.00019999999494757503,0.00029999998514540493,0.058799996972084045,0,0.021999999295971403,0.0019999999928448997
0.005583278369158506,-0.001426944276317954,9.882920265197754,-0.00009999999747378752,0.00029999998514540493,0.058799996972084045,0.006000000186975531,0.0539999991814898,0.046999999102312236
-0.004012682009488344,0.006473921239376068,9.88256549835205,0,0.00029999998514540493,0.058799996972084045,0.012000000373951061,-0.06700000028140622,-0.006000000186975531
0.011626243591308594,-0.0070964135229587555,9.890246391296387,-0.00009999999747378752,0.00029999998514540493,0.06859999895095825,-0.007000000079177565,-0.004999999877891834,-0.023000000021936765
0.0010151414899155498,0.002202665666118264,9.875699043273926,-0.00009999999747378752,0.00029999998514540493,0.058799996972084045,0,0.03100000082707969,0.02899999937514897
-0.01317768543958664,-0.017592594027519226,9.88585090637207,0,0.00029999998514540493,0.06859999895095825,0.009999999755783667,-0.007000000079177565,0.0039999999856897995
0.004596867132931948,0.0038211459759622812,9.879644393920898,-0.00009999999747378752,0.00029999998514540493,0.058799996972084045,-0.03400000133744912,-0.006000000186975531,0.0039999999856897995
0.0005363011732697487,0.004874594509601593,9.886271476745605,-0.00009999999747378752,0.00029999998514540493,0.06859999895095825,-0.03899999996469596,0.017999999727163266,0.01400000015835513
0.009251195006072521,-0.010295066982507706,9.88851261138916,0,0.00039999998989515007,0.06859999895095825,-0.017999999727163266,-0.007000000079177565,0.0039999999856897995
0.009931148961186409,0.003217807039618492,9.891443252563477,0,0.0004999999655410647,0.06859999895095825,-0.06299999737754478,-0.021000000237532696,0
0.009375694207847118,-0.0006607996765524149,9.872356414794922,-0.00009999999747378752,0.000699999975040555,0.04899999871850014,0.007000000079177565,-0.009999999755783667,0.0030000000934877653
0.006933608092367649,0.00008619125583209097,9.892152786254883,-0.00009999999747378752,0.0005999999702908099,0.06859999895095825,0.009999999755783667,0.017999999727163266,0.007000000079177565
0.01433647982776165,0.0046447510831058025,9.886453628540039,0,0.0005999999702908099,0.06859999895095825,-0.019000000453128628,0.07099999651516105,-0.010999999647985701
0.013656526803970337,0.005832275375723839,9.883848190307617,0.00009999999747378752,0.0005999999702908099,0.06859999895095825,0.03599999945432653,-0.004999999877891834,0.0039999999856897995
0.01198058482259512,-0.005228936672210693,9.880668640136719,0.00009999999747378752,0.0004999999655410647,0.058799996972084045,0.013000000266153095,0.01700000066872456,0.0039999999856897995
0.00026815058663487434,0.005717353895306587,9.887076377868652,0.00009999999747378752,0.0004999999655410647,0.06859999895095825,0.035000000395887826,-0.006000000186975531,0.0030000000934877653
0.0055545479990541935,-0.00814028549939394,9.892457962036133,0.00009999999747378752,0.00039999998989515007,0.06859999895095825,-0.007999999971379599,0.0429999995335041,-0.013000000266153095
-0.004635174293071032,-0.0011779472697526217,9.879777908325195,0.00019999999494757503,0.00039999998989515007,0.058799996972084045,-0.01400000015835513,0.038000000906257256,0.02800000031671026
-0.0029688100330531597,0.014451401308178902,9.886837005615234,0.00029999998514540493,0.00039999998989515007,0.06859999895095825,0,-0.004999999877891834,0.007999999971379599
0.00419464148581028,-0.004692635498940945,9.885725975036621,0.00029999998514540493,0.00039999998989515007,0.06859999895095825,-0.0030000000934877653,-0.006000000186975531,0.021999999295971403
0.0024995466228574514,0.00033518823329359293,9.888359069824219,0.00029999998514540493,0.00039999998989515007,0.06859999895095825,-0.004999999877891834,-0.007000000079177565,-0.01400000015835513
-0.0007182605331763625,0.0027772739995270967,9.888436317443848,0.00019999999494757503,0.00039999998989515007,0.06859999895095825,0.02899999937514897,0.0039999999856897995,-0.006000000186975531
0.003227383829653263,0.010534487664699554,9.87926197052002,0.00019999999494757503,0.00039999998989515007,0.058799996972084045,0.014999999216793838,0.017999999727163266,0.0039999999856897995
0.00164721067994833,-0.01803312636911869,9.874712944030762,0.00039999998989515007,0.00029999998514540493,0.058799996972084045,-0.017999999727163266,-0.0039999999856897995,0.02800000031671026
0.006770802661776543,-0.012430695816874504,9.87842845916748,0.00039999998989515007,0.00039999998989515007,0.058799996972084045,-0.031999999885518396,-0.0030000000934877653,0
0.0030071171931922436,-0.007469909265637398,9.884288787841797,0.00039999998989515007,0.00039999998989515007,0.058799996972084045,-0.007000000079177565,-0.012000000373951061,0.021999999295971403
0.008437166921794415,-0.00018195933080278337,9.884758949279785,0.00029999998514540493,0.0004999999655410647,0.06859999895095825,0.010999999647985701,0.0009999999964224499,0.023000000021936765
0.010333375073969364,0.004951209295541048,9.895225524902344,0.00029999998514540493,0.00039999998989515007,0.07840000092983246,-0.029999998433587676,-0.01400000015835513,-0.004999999877891834
-0.008628702722489834,0.005410895682871342,9.885055541992188,0.00029999998514540493,0.0004999999655410647,0.06859999895095825,-0.0019999999928448997,0.031999999885518396,0
-0.013464991003274918,-0.000488417164888233,9.881646156311035,0.00039999998989515007,0.0004999999655410647,0.058799996972084045,-0.024000000747902123,0.012000000373951061,0.0039999999856897995
-0.0038115691859275103,-0.0054779332131147385,9.884806632995605,0.00039999998989515007,0.0005999999702908099,0.06859999895095825,0.004999999877891834,0.012000000373951061,0.007000000079177565
-0.020484788343310356,0.004692635498940945,9.896164894104004,-0.009200000204145908,0.0004999999655410647,0.07840000092983246,0.007000000079177565,-0.03400000133744912,0.02600000053230619
0.003955221269279718,-0.0035242647863924503,9.894928932189941,0.00039999998989515007,0.0004999999655410647,0.07840000092983246,0.010999999647985701,-0.024000000747902123,-0.01400000015835513
0.006607996299862862,-0.002240972826257348,9.884308815002441,0.00039999998989515007,0.0004999999655410647,0.06859999895095825,-0.01700000066872456,-0.0009999999964224499,0.024999999806340833
0.01222958229482174,0.0043670241720974445,9.886396408081055,0.00029999998514540493,0.0004999999655410647,0.06859999895095825,-0.019999999511567335,-0.006000000186975531,-0.01700000066872456
0.0033231519628316164,0.00027772740577347577,9.888206481933594,0.00029999998514540493,0.0005999999702908099,0.06859999895095825,-0.02800000031671026,-0.0039999999856897995,0.0039999999856897995
-0.001101332833059132,-0.0015897499397397041,9.880592346191406,0.00029999998514540493,0.0005999999702908099,0.058799996972084045,0.03699999851276524,0.0329999989439571,0.015999999942759198
0.0004788403457496315,-0.0059184664860367775,9.888455390930176,0.00039999998989515007,0.0004999999655410647,0.06859999895095825,-0.06800000267489824,-0.004999999877891834,-0.031999999885518396
0.010122684761881828,-0.0075465235859155655,9.879060745239258,0.00039999998989515007,0.000699999975040555,0.058799996972084045,0.0030000000934877653,-0.05999999686717535,0.013000000266153095
-0.002911349292844534,-0.006780379451811314,9.872567176818848,0.00019999999494757503,0.000699999975040555,0.04899999871850014,-0.031999999885518396,-0.03400000133744912,0.07300000130214508
-0.0021835120860487223,-0.0054587796330451965,9.871590614318848,0.00009999999747378752,0.0007999999797903001,0.04899999871850014,-0.031999999885518396,0.019999999511567335,0.0030000000934877653
0.011185710318386555,-0.004012682009488344,9.874703407287598,0.00019999999494757503,0.0007999999797903001,0.058799996972084045,0.008999999863581633,-0.006000000186975531,-0.01400000015835513
0.0010151414899155498,-0.0075273700058460236,9.880880355834961,0.00009999999747378752,0.0007999999797903001,0.058799996972084045,-0.007999999971379599,-0.0039999999856897995,-0.031999999885518396
-0.012114659883081913,-0.00629196222871542,9.890706062316895,0.00009999999747378752,0.0007999999797903001,0.06859999895095825,0,-0.008999999863581633,0
0.010611101984977722,0.00032561144325882196,9.888320922851562,0.00009999999747378752,0.0007999999797903001,0.06859999895095825,-0.046999999102312236,0.029999998433587676,0.0039999999856897995
-0.0050948611460626125,-0.004721365869045258,9.890983581542969,0.00019999999494757503,0.0008999999845400453,0.06859999895095825,0,-0.004999999877891834,-0.009999999755783667
0.001110909623093903,-0.012430695816874504,9.888243675231934,0.00019999999494757503,0.0008999999845400453,0.06859999895095825,0.008999999863581633,0.0039999999856897995,0.0039999999856897995
0.006406883709132671,0.01189439371228218,9.884193420410156,0.00019999999494757503,0.0008999999845400453,0.06859999895095825,0.010999999647985701,0.0039999999856897995,0
0.00018195933080278337,-0.01444182451814413,9.888790130615234,0.00019999999494757503,0.0007999999797903001,0.06859999895095825,-0.010999999647985701,-0.0019999999928448997,-0.024999999806340833
0.0012449849164113402,-0.00968215148895979,9.886673927307129,0.00019999999494757503,0.0008999999845400453,0.06859999895095825,0.031999999885518396,-0.006000000186975531,0.0030000000934877653
-0.011674127541482449,0.003667917102575302,9.890178680419922,0,0.000699999975040555,0.06859999895095825,0.010999999647985701,-0.03100000082707969,0
0.014930241741240025,-0.010160991922020912,9.877374649047852,0,0.000699999975040555,0.058799996972084045,-0.01400000015835513,0.0039999999856897995,-0.023000000021936765
-0.0003543418715707958,-0.004491522442549467,9.89063835144043,0,0.000699999975040555,0.06859999895095825,-0.014999999216793838,-0.004999999877891834,0
-0.004127603489905596,-0.011549629271030426,9.878265380859375,0,0.000699999975040555,0.058799996972084045,0.007000000079177565,-0.007000000079177565,0.02899999937514897
0.0009289502631872892,-0.011865663342177868,9.877460479736328,0,0.000699999975040555,0.058799996972084045,-0.0009999999964224499,0.010999999647985701,0.0039999999856897995
0.021298818290233612,0.009423578158020973,9.88851261138916,0.00969999935477972,0.000699999975040555,0.06859999895095825,-0.09999999922536333,0.012000000373951061,0.0329999989439571
-0.00013407529331743717,0.008925584144890308,9.880525588989258,0,0.0009999999310821295,0.058799996972084045,-0.007999999971379599,0.012000000373951061,0.0030000000934877653
0.00416591065004468,0.006110002286732197,9.889154434204102,0,0.0009999999310821295,0.06859999895095825,-0.010999999647985701,0.02800000031671026,0.0039999999856897995
0.0012162544298917055,-0.018952501937747,9.88038158416748,0,0.0009999999310821295,0.058799996972084045,-0.014999999216793838,-0.007000000079177565,0.019000000453128628
-0.0072687966749072075,-0.006981492042541504,9.893980979919434,0,0.0009999999310821295,0.07840000092983246,0.010999999647985701,-0.004999999877891834,0
0.0025187002029269934,-0.003696647472679615,9.880525588989258,0,0.0009999999310821295,0.058799996972084045,-0.029999998433587676,0.014999999216793838,0.021000000237532696
0.006579265929758549,-0.013733141124248505,9.891999244689941,0,0.0009999999310821295,0.06859999895095825,-0.024999999806340833,0.019000000453128628,0.03999999902313467
-0.008446743711829185,0.010419566184282303,9.895733833312988,0.00009999999747378752,0.0010999999940395355,0.07840000092983246,0.008999999863581633,-0.04900000055424296,0.0039999999856897995
0.0020494365599006414,-0.01418325025588274,9.886377334594727,0,0.0010999999940395355,0.06859999895095825,0.007999999971379599,-0.019999999511567335,0.004999999877891834
-0.007125144358724356,-0.0016663643764331937,9.884299278259277,0,0.0009999999310821295,0.06859999895095825,0.006000000186975531,0.0009999999964224499,0.004999999877891834
-0.009289502166211605,0.018856734037399292,9.901144981384277,0,0.0009999999310821295,0.07840000092983246,-0.006000000186975531,-0.035000000395887826,0.021000000237532696
-0.0035146879963576794,-0.004893748089671135,9.884318351745605,-0.00009999999747378752,0.0009999999310821295,0.06859999895095825,0.0429999995335041,0.013000000266153095,0.0039999999856897995
0.004855440929532051,0.0009481038432568312,9.874529838562012,-0.00009999999747378752,0.0008999999845400453,0.058799996972084045,0,-0.004999999877891834,0
0.018138471990823746,-0.003907337319105864,9.878341674804688,-0.00009999999747378752,0.0008999999845400453,0.058799996972084045,-0.007999999971379599,-0.006000000186975531,-0.04600000004387353
0.009672574698925018,-0.004395754542201757,9.88589859008789,-0.00009999999747378752,0.0008999999845400453,0.06859999895095825,-0.010999999647985701,0.012000000373951061,0.0329999989439571
0.008379706181585789,-0.0003064578049816191,9.877948760986328,-0.00009999999747378752,0.0008999999845400453,0.058799996972084045,0.014999999216793838,-0.006000000186975531,0.0019999999928448997
-0.002231396036222577,0.01580173149704933,9.872117042541504,-0.00009999999747378752,0.0007999999797903001,0.04899999871850014,0,0.013000000266153095,-0.0019999999928448997
-0.006540958769619465,-0.009998186491429806,9.890379905700684,0,0.0007999999797903001,0.06859999895095825,-0.02800000031671026,0.0009999999964224499,-0.019999999511567335
-0.000028730421036016196,0.0013886369997635484,9.873553276062012,0,0.0008999999845400453,0.04899999871850014,0.008999999863581633,0.007000000079177565,-0.02800000031671026
0.021672314032912254,-0.0005841852398589253,9.891758918762207,0.009599999524652958,0.000699999975040555,0.06859999895095825,0.007999999971379599,0.006000000186975531,-0.04600000004387353
0.014518438838422298,0.0017621323931962252,9.887956619262695,-0.00009999999747378752,0.0005999999702908099,0.06859999895095825,0.014999999216793838,0.024000000747902123,0.0039999999856897995
0.014518438838422298,0.0017621323931962252,9.887956619262695,-0.00009999999747378752,0.0005999999702908099,0.06859999895095825,0.014999999216793838,0.024000000747902123,0.0039999999856897995
-0.005382165312767029,0.01003649365156889,9.894009590148926,-0.00009999999747378752,0.0005999999702908099,0.07840000092983246,0,-0.006000000186975531,0.0019999999928448997
-0.0009097966831177473,-0.007479486055672169,9.886980056762695,-0.00009999999747378752,0.0005999999702908099,0.06859999895095825,-0.006000000186975531,-0.009999999755783667,0.038000000906257256
0.008753201924264431,0.0018579005263745785,9.884049415588379,-0.00009999999747378752,0.0005999999702908099,0.06859999895095825,-0.006000000186975531,-0.006000000186975531,-0.03400000133744912
0.0030358475632965565,-0.01679771952331066,9.891222953796387,-0.00009999999747378752,0.0005999999702908099,0.06859999895095825,0,-0.0009999999964224499,-0.007000000079177565
-0.0029975404031574726,-0.018358737230300903,9.887468338012695,-0.00009999999747378752,0.0005999999702908099,0.06859999895095825,0.010999999647985701,0.021000000237532696,0.0030000000934877653
0.010017340071499348,-0.010218452662229538,9.875659942626953,-0.00009999999747378752,0.0005999999702908099,0.058799996972084045,0.0269999995907449,0.015999999942759198,-0.041000001416626686
-0.0036391867324709892,-0.004807556979358196,9.883609771728516,0,0.0004999999655410647,0.06859999895095825,0.007000000079177565,0.021999999295971403,0.004999999877891834
-0.010477026924490929,0.019230227917432785,9.88273811340332,0,0.010199999436736107,0.058799996972084045,-0.01400000015835513,-0.006000000186975531,-0.024000000747902123
0.011051634326577187,-0.00913627352565527,9.88566780090332,0,0.00039999998989515007,0.06859999895095825,-0.009999999755783667,0.03699999851276524,0.010999999647985701
0.007441178895533085,-0.010620678775012493,9.883427619934082,0,0.00039999998989515007,0.06859999895095825,0.008999999863581633,0.02600000053230619,0.019000000453128628
0.00209732074290514,-0.005793968215584755,9.886165618896484,0.00009999999747378752,0.00039999998989515007,0.06859999895095825,0.008999999863581633,0.009999999755783667,0.0039999999856897995
0.013168108649551868,-0.004137180279940367,9.880860328674316,0.00009999999747378752,0.00029999998514540493,0.058799996972084045,0.014999999216793838,-0.004999999877891834,0.004999999877891834
0.001944091753102839,0.013905523344874382,9.879739761352539,0.00009999999747378752,0.00029999998514540493,0.058799996972084045,-0.007000000079177565,-0.02899999937514897,0.0039999999856897995
0.009605537168681622,-0.01488235779106617,9.873774528503418,0,0.00029999998514540493,0.058799996972084045,0,0.04600000004387353,-0.0039999999856897995
-0.014815320260822773,-0.0059184664860367775,9.883581161499023,0.00009999999747378752,0.00029999998514540493,0.06859999895095825,0.010999999647985701,0.014999999216793838,0.057000003026912535
-0.009835380129516125,0.007469909265637398,9.88904857635498,0.00019999999494757503,0.00029999998514540493,0.06859999895095825,-0.03899999996469596,-0.0039999999856897995,0.0009999999964224499
0.0107834842056036,0.006071695126593113,9.896978378295898,0.00019999999494757503,0.00039999998989515007,0.07840000092983246,-0.017999999727163266,0.038000000906257256,0.0039999999856897995
-0.0003064578049816191,-0.0027102362364530563,9.900627136230469,0.00029999998514540493,0.00039999998989515007,0.07840000092983246,-0.0329999989439571,-0.004999999877891834,0.0009999999964224499
-0.011769895441830158,0.004137180279940367,9.887449264526367,0.00019999999494757503,0.0004999999655410647,0.06859999895095825,0.007000000079177565,0.0030000000934877653,-0.035000000395887826
0.012478579767048359,-0.003677493892610073,9.88632869720459,0.00019999999494757503,0.0004999999655410647,0.06859999895095825,0.010999999647985701,0.019000000453128628,0.0030000000934877653
0.012478579767048359,-0.003677493892610073,9.88632869720459,0.00019999999494757503,0.0004999999655410647,0.06859999895095825,0.010999999647985701,0.019000000453128628,0.0030000000934877653
0.012727576307952404,0.0034380736760795116,9.877288818359375,0.00029999998514540493,0.0004999999655410647,0.058799996972084045,-0.010999999647985701,-0.004999999877891834,0.0019999999928448997
0.013819332234561443,0.0012928689830005169,9.879395484924316,0.00029999998514540493,0.0004999999655410647,0.058799996972084045,-0.01400000015835513,-0.029999998433587676,-0.05799999875029794
0.0004405330982990563,0.004242525435984135,9.875469207763672,0.00019999999494757503,0.0004999999655410647,0.058799996972084045,-0.024999999806340833,-0.006000000186975531,-0.021000000237532696
0.0037924153730273247,-0.00442448491230607,9.870260238647461,0.00019999999494757503,0.0005999999702908099,0.04899999871850014,0,-0.006000000186975531,0.009999999755783667
-0.0038211459759622812,0.0020590133499354124,9.882096290588379,0.00009999999747378752,0.0005999999702908099,0.058799996972084045,0.010999999647985701,-0.0019999999928448997,0.0039999999856897995
0.0020111293997615576,-0.0042999861761927605,9.873955726623535,0.00009999999747378752,0.0005999999702908099,0.058799996972084045,-0.010999999647985701,-0.0030000000934877653,0.0329999989439571
0.005698200315237045,-0.022878991439938545,9.88001823425293,0.00009999999747378752,-0.008999999612569809,0.058799996972084045,0.009999999755783667,0.0019999999928448997,-0.021000000237532696
0.005698200315237045,-0.022878991439938545,9.88001823425293,0.00009999999747378752,-0.008999999612569809,0.058799996972084045,0.009999999755783667,0.0019999999928448997,-0.021000000237532696
-0.0063781533390283585,-0.01169328112155199,9.88038158416748,0.00009999999747378752,0.0005999999702908099,0.04899999871850014,0,-0.007000000079177565,0.0019999999928448997
0.010371682234108448,-0.010208875872194767,9.882660865783691,0.00009999999747378752,0.0005999999702908099,0.058799996972084045,0.03599999945432653,-0.008999999863581633,0.05200000106461238
0.004079719539731741,0.005612008739262819,9.89571475982666,0.00009999999747378752,0.0004999999655410647,0.07840000092983246,0.02899999937514897,-0.021999999295971403,-0.009999999755783667
0.0181288942694664,0.0011779472697526217,9.900186538696289,0,0.00039999998989515007,0.07840000092983246,0.009999999755783667,-0.0009999999964224499,0.0039999999856897995
0.0026336219161748886,0.013953407295048237,9.890140533447266,0,0.00039999998989515007,0.06859999895095825,0.013000000266153095,-0.024000000747902123,0.0039999999856897995
0.004118026699870825,-0.00242293206974864,9.887372970581055,0,0.00029999998514540493,0.06859999895095825,-0.01400000015835513,0.021999999295971403,0.0039999999856897995
0.008216899819672108,-0.0017046716529875994,9.886127471923828,0,0.00039999998989515007,0.06859999895095825,0.03599999945432653,0.0009999999964224499,0.02899999937514897
0.006703765131533146,-0.020542249083518982,9.883101463317871,0,-0.00930000003427267,0.058799996972084045,0,0.007999999971379599,0.010999999647985701
0.005583278369158506,0.006177040748298168,9.873457908630371,0,0.00039999998989515007,0.04899999871850014,-0.024000000747902123,-0.0009999999964224499,0
-0.0010438719764351845,-0.016529567539691925,9.884366035461426,0,0.0004999999655410647,0.06859999895095825,-0.007000000079177565,0.012000000373951061,0.0019999999928448997
0.009998186491429806,0.00038307227077893913,9.87024974822998,0,0.0004999999655410647,0.04899999871850014,-0.031999999885518396,-0.03899999996469596,-0.007000000079177565
-0.009375694207847118,-0.01962287724018097,9.878265380859375,0,-0.008999999612569809,0.058799996972084045,0,-0.007999999971379599,0.007999999971379599
-0.0029783868230879307,-0.011185710318386555,9.869550704956055,0,0.000699999975040555,0.04899999871850014,-0.0039999999856897995,-0.024000000747902123,0.0030000000934877653
0.021413739770650864,-0.008753201924264431,9.880563735961914,0.009499999694526196,0.000699999975040555,0.058799996972084045,-0.021999999295971403,-0.038000000906257256,-0.03999999902313467
-0.0013503297232091427,-0.005267243832349777,9.877623558044434,-0.00029999998514540493,0.000699999975040555,0.058799996972084045,0.0329999989439571,0.0030000000934877653,0.01700000066872456
0.002106897532939911,0.003562572179362178,9.89538860321045,-0.00029999998514540493,0.0005999999702908099,0.07840000092983246,-0.06099999926066736,0.0039999999856897995,-0.017999999727163266
0.005439626052975655,0.008513781242072582,9.890954971313477,-0.00019999999494757503,0.0007999999797903001,0.06859999895095825,-0.015999999942759198,-0.031999999885518396,-0.01700000066872456
-0.01268926914781332,-0.005803545005619526,9.882536888122559,-0.00029999998514540493,0.0007999999797903001,0.058799996972084045,-0.012000000373951061,0.014999999216793838,-0.03599999945432653
0.003667917102575302,-0.019134460017085075,9.861869812011719,-0.00029999998514540493,0.0007999999797903001,0.03920000046491623,-0.05300000012305109,-0.024000000747902123,-0.0039999999856897995
-0.0075465235859155655,-0.024861391633749008,9.868066787719727,-0.00029999998514540493,-0.008599999360740185,0.04899999871850014,0.031999999885518396,-0.006000000186975531,0.013000000266153095
0.00209732074290514,-0.008552088402211666,9.869847297668457,-0.00039999998989515007,0.0009999999310821295,0.04899999871850014,-0.035000000395887826,0,-0.019999999511567335
0.02102109231054783,0.002279279986396432,9.846997261047363,0.009200000204145908,0.0010999999940395355,0.029399998486042023,0.031999999885518396,-0.019999999511567335,0.024999999806340833
0.004711789079010487,-0.0043766009621322155,9.855377197265625,-0.0005999999702908099,0.0009999999310821295,0.03920000046491623,-0.0039999999856897995,0.007000000079177565,0.021000000237532696
-0.0068186866119503975,-0.001446097856387496,9.870096206665039,-0.0005999999702908099,0.0008999999845400453,0.03920000046491623,0.013000000266153095,-0.024000000747902123,0.0030000000934877653
0.00629196222871542,0.0009002198348753154,9.863038063049316,-0.000699999975040555,0.0010999999940395355,0.04899999871850014,0.013000000266153095,-0.024000000747902123,0.0030000000934877653
0.005851428955793381,0.0011779472697526217,9.882603645324707,-0.0007999999797903001,0.0009999999310821295,0.058799996972084045,0.014999999216793838,-0.0019999999928448997,0.0030000000934877653
-0.0018100164597854018,-0.0028251581825315952,9.875459671020508,-0.0007999999797903001,0.0009999999310821295,0.058799996972084045,0.01400000015835513,-0.01700000066872456,-0.023000000021936765
0.005880159325897694,-0.007508216425776482,9.8890962600708,-0.0007999999797903001,0.0009999999310821295,0.058799996972084045,0,-0.031999999885518396,0.004999999877891834
-0.00036391866160556674,-0.00814028549939394,9.873113632202148,-0.0008999999845400453,0.0008999999845400453,0.04899999871850014,-0.010999999647985701,0.010999999647985701,0.010999999647985701
0.01639549247920513,0.015351621434092522,9.880477905273438,-0.0008999999845400453,0.0008999999845400453,0.058799996972084045,0.043999998591942806,-0.03999999902313467,0.0030000000934877653
-0.0035146879963576794,0.005315127782523632,9.89779281616211,-0.0009999999310821295,0.0007999999797903001,0.07840000092983246,0.0329999989439571,-0.006000000186975531,0.023000000021936765
0.0012354080099612474,0.0012449849164113402,9.897409439086914,-0.0009999999310821295,0.000699999975040555,0.07840000092983246,-0.05099999867112037,-0.01700000066872456,0.0030000000934877653
0.006167463958263397,0.0011875240597873926,9.8903226852417,-0.0010999999940395355,0.0007999999797903001,0.06859999895095825,0.013000000266153095,0.0030000000934877653,0.0009999999964224499
-0.01139640063047409,-0.005382165312767029,9.900005340576172,-0.0009999999310821295,0.0007999999797903001,0.07840000092983246,0.0030000000934877653,-0.004999999877891834,0.0039999999856897995
0.0047309426590800285,0.0018866308964788914,9.88971996307373,-0.0009999999310821295,0.0007999999797903001,0.06859999895095825,0.008999999863581633,0.017999999727163266,0.0030000000934877653
-0.007757213432341814,-0.001417367486283183,9.886855125427246,-0.0009999999310821295,0.0007999999797903001,0.06859999895095825,-0.0269999995907449,0.012000000373951061,0.01400000015835513
-0.007565677165985107,0.0003543418715707958,9.89887523651123,-0.0008999999845400453,0.0007999999797903001,0.07840000092983246,-0.02899999937514897,0.048000001495804245,-0.0329999989439571
-0.0014844050165265799,0.013848062604665756,9.891490936279297,-0.0007999999797903001,0.0008999999845400453,0.06859999895095825,0.019000000453128628,-0.009999999755783667,0.0039999999856897995
-0.00397437484934926,-0.013148955069482327,9.873151779174805,-0.0007999999797903001,0.0007999999797903001,0.04899999871850014,-0.021999999295971403,0.03899999996469596,0.0030000000934877653
0.009643844328820705,-0.002240972826257348,9.884729385375977,-0.000699999975040555,0.0008999999845400453,0.06859999895095825,-0.01400000015835513,-0.0039999999856897995,0.013000000266153095
