Accelerometer_Gx,Accelerometer_Gy,Accelerometer_Gz,Accelerometer_X,Accelerometer_Y,Accelerometer_Z,Gyroscope_Z,Gyroscope_X,Gyroscope_Y
0.00562158552929759,0.011674127541482449,9.932853698730469,0,0,0.11759999394416809,0.5300000012305109,-3.364000074259626,-0.1199999937343507
0.009318233467638493,0.011856086552143097,9.938407897949219,-0.009099999442696571,-0.00139999995008111,0.11759999394416809,-0.07099999651516105,-0.03400000133744912,0.08899999957737763
0.010256759822368622,-0.002844311762601137,9.944307327270508,-0.007599999662488699,-0.0009999999310821295,0.1273999959230423,-0.009999999755783667,0.08700000146050021,0.02800000031671026
0.0019919758196920156,0.013608642853796482,9.953367233276367,-0.006099999882280827,-0.0007999999797903001,0.1371999979019165,-0.009999999755783667,0.02600000053230619,0.02800000031671026
0.01642422378063202,-0.006177040748298168,9.937287330627441,-0.004799999762326479,-0.0005999999702908099,0.11759999394416809,-0.009999999755783667,0.02600000053230619,-0.031999999885518396
-0.0010630255565047264,-0.004778826609253883,9.950139999389648,-0.0038999998942017555,-0.0004999999655410647,0.11759999394416809,-0.0019999999928448997,0,0.004999999877891834
-0.014211980625987053,-0.0050661307759583,9.941961288452148,-0.0026000000070780516,-0.00019999999494757503,0.1273999959230423,-0.009999999755783667,0.019999999511567335,0.019000000453128628
-0.006052541546523571,-0.004587290342897177,9.947860717773438,-0.002099999925121665,-0.00019999999494757503,0.1273999959230423,-0.006000000186975531,0,0.024000000747902123
0.0004501099174376577,-0.007249642629176378,9.945868492126465,-0.0016999999061226845,-0.00009999999747378752,0.1273999959230423,-0.0019999999928448997,-0.024999999806340833,0.05600000063342052
-0.0033135751727968454,-0.006694188341498375,9.924808502197266,-0.00139999995008111,-0.00009999999747378752,0.10779999941587448,-0.0269999995907449,-0.01400000015835513,0.013000000266153095
0.0033231519628316164,-0.0043766009621322155,9.930679321289062,-0.0010999999940395355,0,0.10779999941587448,0.017999999727163266,0.01700000066872456,0.05300000012305109
-0.0035242647863924503,0.003725377842783928,9.922118186950684,-0.0010999999940395355,0,0.10779999941587448,-0.021000000237532696,0.0009999999964224499,0.015999999942759198
0.005248090252280235,-0.002087743952870369,9.92162036895752,-0.0010999999940395355,0,0.10779999941587448,-0.03100000082707969,0.02899999937514897,-0.007000000079177565
-0.0008810661965981126,0.0019823990296572447,9.91659164428711,-0.0009999999310821295,0,0.09799999743700027,-0.01700000066872456,-0.03599999945432653,0.007999999971379599
0.004922478459775448,0.013311761431396008,9.917817115783691,-0.0010999999940395355,0.00009999999747378752,0.09799999743700027,-0.006000000186975531,0.006000000186975531,0.0429999995335041
0.004405331332236528,-0.0071921818889677525,9.919666290283203,-0.0010999999940395355,0.00009999999747378752,0.09799999743700027,-0.035000000395887826,-0.024999999806340833,-0.023000000021936765
0.014125789515674114,-0.000967257481534034,9.932479858398438,-0.0010999999940395355,0.00019999999494757503,0.11759999394416809,-0.01700000066872456,0.01700000066872456,0.07099999651516105
-0.018042704090476036,-0.005219359882175922,9.926187515258789,-0.0010999999940395355,0.00019999999494757503,0.10779999941587448,-0.017999999727163266,-0.019999999511567335,0.08400000095013078
-0.0035146879963576794,0.007680599112063646,9.933600425720215,-0.0010999999940395355,0.00029999998514540493,0.11759999394416809,-0.0269999995907449,-0.0429999995335041,0.024000000747902123
-0.013809755444526672,0.0016950948629528284,9.92046070098877,-0.0013000000035390258,0.00029999998514540493,0.09799999743700027,-0.021000000237532696,0.024999999806340833,0.0019999999928448997
0.0007469909032806754,0.008791509084403515,9.929165840148926,-0.0011999999405816197,0.00039999998989515007,0.10779999941587448,0.0039999999856897995,0.015999999942759198,-0.024000000747902123
0.0035817257594317198,0.009346963837742805,9.92138957977295,-0.0010999999940395355,0.00039999998989515007,0.09799999743700027,0.007000000079177565,-0.024999999806340833,-0.024000000747902123
0.008963891305029392,-0.0010726023465394974,9.910606384277344,-0.0011999999405816197,0.00039999998989515007,0.08819999545812607,0.004999999877891834,0,0.02800000031671026
0.0015705963596701622,-0.0009864111198112369,9.911506652832031,-0.0011999999405816197,0.00029999998514540493,0.08819999545812607,0,0,-0.004999999877891834
-0.005717353895306587,-0.0017142484430223703,9.928524017333984,-0.0011999999405816197,0.00029999998514540493,0.10779999941587448,-0.006000000186975531,-0.0039999999856897995,0.012000000373951061
0.011856086552143097,-0.001417367486283183,9.909217834472656,-0.0011999999405816197,0.00039999998989515007,0.08819999545812607,0.02899999937514897,-0.024000000747902123,0.0030000000934877653
0.007498639635741711,-0.012555194087326527,9.919569969177246,-0.0013000000035390258,0.00029999998514540493,0.09799999743700027,-0.007999999971379599,-0.010999999647985701,-0.010999999647985701
0.004865017719566822,-0.00028730419580824673,9.904735565185547,-0.0013000000035390258,0.00029999998514540493,0.08819999545812607,0.0039999999856897995,0.004999999877891834,0.043999998591942806
0.00015322890249080956,0.004031835589557886,9.917597770690918,-0.0013000000035390258,0.00029999998514540493,0.09799999743700027,0.007999999971379599,-0.0019999999928448997,0.0019999999928448997
0.009672574698925018,-0.017199944704771042,9.912790298461914,-0.0013000000035390258,0.00029999998514540493,0.09799999743700027,-0.05200000106461238,0,0
0.01418325025588274,0.006684611551463604,9.928707122802734,-0.0013000000035390258,0.00039999998989515007,0.09799999743700027,0.007999999971379599,0.01400000015835513,0.0019999999928448997
0.01468124520033598,-0.013350068591535091,9.92050838470459,-0.00139999995008111,0.00039999998989515007,0.09799999743700027,0.007000000079177565,0,0.03400000133744912
-0.011568782851099968,-0.00397437484934926,9.920987129211426,-0.00139999995008111,0.00039999998989515007,0.09799999743700027,0.004999999877891834,0.0019999999928448997,0.05600000063342052
0.006119579542428255,0.0005650316015817225,9.9235258102417,-0.00139999995008111,0.00039999998989515007,0.10779999941587448,0.009999999755783667,0.008999999863581633,-0.007000000079177565
0.004989516455680132,-0.01886630989611149,9.916314125061035,-0.00139999995008111,0.00029999998514540493,0.09799999743700027,0.007000000079177565,0,0.019999999511567335
0.0047500962391495705,-0.002451662439852953,9.909486770629883,-0.00139999995008111,0.00029999998514540493,0.08819999545812607,-0.009999999755783667,0.0659999978879142,0.021000000237532696
0.005410895682871342,-0.006665457505732775,9.9227876663208,-0.0011999999405816197,0.00039999998989515007,0.10779999941587448,-0.0039999999856897995,0.009999999755783667,0.0019999999928448997
0.01689348742365837,-0.0007757213898003101,9.908729553222656,-0.0010999999940395355,0.00039999998989515007,0.08819999545812607,0.012000000373951061,0,0.015999999942759198
-0.004826710559427738,-0.002212242456153035,9.898463249206543,-0.0010999999940395355,0.00029999998514540493,0.07840000092983246,0.007999999971379599,0,-0.07099999651516105
0.004558559972792864,0.003897760296240449,9.903949737548828,-0.0010999999940395355,0.00029999998514540493,0.08819999545812607,0.0039999999856897995,0,0.0019999999928448997
-0.0030837319791316986,-0.004999093245714903,9.894201278686523,-0.0010999999940395355,0.00029999998514540493,0.07840000092983246,0.007999999971379599,0,0.0009999999964224499
-0.00022026654914952815,-0.020465634763240814,9.911506652832031,-0.0010999999940395355,-0.009399999864399433,0.08819999545812607,-0.014999999216793838,0.01400000015835513,-0.007999999971379599
0.016290146857500076,0.0004788403457496315,9.898913383483887,-0.0010999999940395355,0.00029999998514540493,0.07840000092983246,0.017999999727163266,-0.02899999937514897,0.019999999511567335
-0.0004788403457496315,0.013599066063761711,9.91238784790039,-0.0011999999405816197,0.00029999998514540493,0.09799999743700027,0.014999999216793838,0.01700000066872456,0.0030000000934877653
-0.005717353895306587,-0.00793917290866375,9.896145820617676,-0.0010999999940395355,0.00019999999494757503,0.07840000092983246,-0.0009999999964224499,0.0019999999928448997,0.021000000237532696
0.002461239229887724,-0.0006224924582056701,9.918027877807617,-0.0010999999940395355,0.00029999998514540493,0.09799999743700027,0.017999999727163266,-0.009999999755783667,0.0009999999964224499
-0.012440272606909275,-0.007469909265637398,9.905147552490234,-0.0010999999940395355,0.00019999999494757503,0.08819999545812607,0.0039999999856897995,0.019000000453128628,-0.004999999877891834
-0.01508347038179636,0.007498639635741711,9.902332305908203,-0.0010999999940395355,0.00019999999494757503,0.07840000092983246,-0.01400000015835513,0,-0.03400000133744912
-0.011846509762108326,0.007316680625081062,9.91179370880127,-0.0010999999940395355,0.00019999999494757503,0.08819999545812607,0.024999999806340833,0.0030000000934877653,0.013000000266153095
0.0029975404031574726,-0.010409989394247532,9.90161418914795,-0.0010999999940395355,0.00019999999494757503,0.07840000092983246,0.007999999971379599,0.01700000066872456,0.05499999823992851
0.0059184664860367775,-0.005937620066106319,9.919341087341309,-0.0009999999310821295,0.00009999999747378752,0.09799999743700027,-0.004999999877891834,0.007000000079177565,-0.021999999295971403
-0.0015897499397397041,-0.005037400405853987,9.904840469360352,-0.0009999999310821295,0.00009999999747378752,0.08819999545812607,-0.007999999971379599,0.0429999995335041,0.012000000373951061
-0.004012682009488344,0.0012354080099612474,9.894450187683105,-0.0008999999845400453,0.00019999999494757503,0.07840000092983246,-0.019999999511567335,0.038000000906257256,0.0019999999928448997
0.009816226549446583,0.00859039556235075,9.895111083984375,-0.000699999975040555,0.00019999999494757503,0.07840000092983246,-0.008999999863581633,0.009999999755783667,0.04600000004387353
0.010333375073969364,0.0010726023465394974,9.893636703491211,-0.000699999975040555,0.00019999999494757503,0.07840000092983246,0.007999999971379599,0,0.0039999999856897995
-0.01769793964922428,-0.0031603462994098663,9.889518737792969,-0.000699999975040555,0.00019999999494757503,0.06859999895095825,-0.0269999995907449,-0.023000000021936765,0.021000000237532696
0.017650054767727852,0.0019728222396224737,9.895513534545898,-0.0007999999797903001,0.00029999998514540493,0.07840000092983246,-0.008999999863581633,0.024999999806340833,-0.007000000079177565
-0.0042808325961232185,-0.004213795065879822,9.8893461227417,-0.000699999975040555,0.00029999998514540493,0.06859999895095825,0.007999999971379599,0.0009999999964224499,0.021000000237532696
0.008638279512524605,0.0027772739995270967,9.90540599822998,-0.000699999975040555,0.00029999998514540493,0.08819999545812607,0.0039999999856897995,-0.021999999295971403,0.0030000000934877653
-0.008207323029637337,-0.0018579005263745785,9.878341674804688,-0.0007999999797903001,0.00029999998514540493,0.058799996972084045,0.007999999971379599,-0.009999999755783667,-0.0009999999964224499
0.005592855159193277,-0.0029688100330531597,9.898577690124512,-0.0007999999797903001,0.00029999998514540493,0.07840000092983246,0.0039999999856897995,-0.012000000373951061,-0.015999999942759198
-0.00494163203984499,0.008322244510054588,9.892975807189941,-0.0007999999797903001,0.00019999999494757503,0.07840000092983246,0.007999999971379599,-0.0019999999928448997,0.009999999755783667
-0.0020302829798310995,-0.010563218034803867,9.905242919921875,-0.0007999999797903001,0.00019999999494757503,0.07840000092983246,0.007999999971379599,-0.0019999999928448997,0.009999999755783667
0.014470554888248444,-0.012258312664926052,9.896432876586914,-0.0007999999797903001,0.00019999999494757503,0.07840000092983246,0.007000000079177565,0.0039999999856897995,0.0039999999856897995
-0.008523358032107353,-0.007287950254976749,9.903844833374023,-0.0007999999797903001,0.00019999999494757503,0.08819999545812607,0.01400000015835513,0.024999999806340833,0.0019999999928448997
-0.007996633648872375,-0.0071634515188634396,9.898674011230469,-0.000699999975040555,0.00009999999747378752,0.07840000092983246,-0.03999999902313467,-0.010999999647985701,0.0039999999856897995
0.0028251581825315952,0.008092401549220085,9.889853477478027,-0.000699999975040555,0.00029999998514540493,0.06859999895095825,-0.008999999863581633,0.02899999937514897,0.0030000000934877653
-0.00038307227077893913,0.00484586413949728,9.894057273864746,-0.000699999975040555,0.00029999998514540493,0.07840000092983246,-0.019999999511567335,0.07300000130214508,0.02600000053230619
0.006761225871741772,-0.019728220999240875,9.906373023986816,-0.0004999999655410647,-0.00930000003427267,0.08819999545812607,0.007999999971379599,0,0.0039999999856897995
-0.005583278369158506,-0.006301539018750191,9.901633262634277,-0.0004999999655410647,0.00039999998989515007,0.07840000092983246,-0.014999999216793838,0.0039999999856897995,0.0009999999964224499
0.0020494365599006414,-0.004443638492375612,9.900205612182617,-0.00039999998989515007,0.00039999998989515007,0.07840000092983246,-0.019000000453128628,0.0009999999964224499,0.0269999995907449
0.0034859576262533665,-0.0114921685308218,9.874597549438477,-0.00039999998989515007,0.00039999998989515007,0.058799996972084045,-0.007000000079177565,-0.03599999945432653,-0.0329999989439571
0.013225569389760494,-0.0021643582731485367,9.88327407836914,-0.0004999999655410647,0.0004999999655410647,0.06859999895095825,0.007999999971379599,0.004999999877891834,0.02800000031671026
0.013675680384039879,-0.014700398780405521,9.891251564025879,-0.0004999999655410647,0.00039999998989515007,0.06859999895095825,-0.014999999216793838,-0.07000000079177565,0.0019999999928448997
0.011195287108421326,0.01023760624229908,9.893204689025879,-0.000699999975040555,0.0004999999655410647,0.07840000092983246,0.007000000079177565,-0.02600000053230619,0.0019999999928448997
0.010917559266090393,0.0046543278731405735,9.891194343566895,-0.0007999999797903001,0.0004999999655410647,0.06859999895095825,-0.008999999863581633,0.04900000055424296,0.02800000031671026
-0.0005841852398589253,-0.01148259174078703,9.883628845214844,-0.0005999999702908099,0.0004999999655410647,0.06859999895095825,-0.01700000066872456,-0.0039999999856897995,0.021000000237532696
-0.014480131678283215,0.00497036287561059,9.898079872131348,-0.0005999999702908099,0.0004999999655410647,0.07840000092983246,-0.017999999727163266,-0.009999999755783667,0.0019999999928448997
-0.005334281362593174,-0.0018483237363398075,9.912942886352539,-0.0005999999702908099,0.000699999975040555,0.09799999743700027,0.012000000373951061,0.008999999863581633,0.0019999999928448997
-0.0027964275795966387,-0.0035338415764272213,9.912732124328613,-0.0005999999702908099,0.000699999975040555,0.09799999743700027,-0.007000000079177565,0.014999999216793838,0.02899999937514897
-0.001924938173033297,0.002863465342670679,9.89979362487793,-0.0005999999702908099,0.000699999975040555,0.07840000092983246,0.02600000053230619,-0.01700000066872456,0.02899999937514897
0.00923204142600298,-0.012765883468091488,9.897294998168945,-0.0005999999702908099,0.0005999999702908099,0.07840000092983246,0.009999999755783667,-0.014999999216793838,0.006000000186975531
-0.011329363100230694,-0.0042999861761927605,9.887325286865234,-0.000699999975040555,0.0005999999702908099,0.06859999895095825,-0.007000000079177565,-0.0019999999928448997,0.041000001416626686
0.008734048344194889,-0.0035338415764272213,9.88953685760498,-0.000699999975040555,0.0005999999702908099,0.06859999895095825,-0.035000000395887826,0.0009999999964224499,-0.0030000000934877653
0.005228936672210693,0.006426037289202213,9.881425857543945,-0.0005999999702908099,0.000699999975040555,0.058799996972084045,-0.008999999863581633,-0.017999999727163266,0.0019999999928448997
0.002461239229887724,-0.00045968673657625914,9.886032104492188,-0.000699999975040555,0.000699999975040555,0.06859999895095825,0.031999999885518396,0.007000000079177565,0.0019999999928448997
0.0025091234128922224,-0.005602431949228048,9.88459587097168,-0.000699999975040555,0.0005999999702908099,0.06859999895095825,0.035000000395887826,-0.019999999511567335,0
-0.00319865345954895,-0.006770802661776543,9.892170906066895,-0.000699999975040555,0.0004999999655410647,0.06859999895095825,0.006000000186975531,-0.03599999945432653,0.041000001416626686
-0.00023942017287481576,0.007115567568689585,9.884231567382812,-0.0007999999797903001,0.0004999999655410647,0.06859999895095825,-0.05499999823992851,0.007999999971379599,0.04200000047506539
0.002317587146535516,0.023587675765156746,9.886884689331055,-0.0007999999797903001,0.010400000028312206,0.06859999895095825,-0.013000000266153095,0.043999998591942806,-0.014999999216793838
-0.0018866308964788914,0.012095506303012371,9.890504837036133,-0.0005999999702908099,0.0005999999702908099,0.06859999895095825,-0.0329999989439571,0.0009999999964224499,0.03899999996469596
0.005937620066106319,-0.018023550510406494,9.900216102600098,-0.0005999999702908099,0.000699999975040555,0.07840000092983246,0.007999999971379599,0,0.0019999999928448997
0.010065224021673203,0.015121777541935444,9.896145820617676,-0.0005999999702908099,0.0005999999702908099,0.07840000092983246,0.007000000079177565,0,0.012000000373951061
0.003840299556031823,-0.002384624909609556,9.894824028015137,-0.0005999999702908099,0.0005999999702908099,0.07840000092983246,0.007999999971379599,0,0.004999999877891834
0.002844311762601137,-0.0031890766695141792,9.887594223022461,-0.0005999999702908099,0.0005999999702908099,0.06859999895095825,0.007999999971379599,0,0.0019999999928448997
0.004271255806088448,-0.009078812785446644,9.891366004943848,-0.0005999999702908099,0.0005999999702908099,0.06859999895095825,-0.006000000186975531,-0.0019999999928448997,0.024999999806340833
-0.005679046735167503,-0.016462530940771103,9.903529167175293,-0.0005999999702908099,0.0005999999702908099,0.08819999545812607,0.01400000015835513,0.035000000395887826,-0.007000000079177565
0.0036391867324709892,0.014001291245222092,9.889020919799805,-0.0004999999655410647,0.0004999999655410647,0.06859999895095825,-0.029999998433587676,0.046999999102312236,0.0039999999856897995
0.007211335469037294,-0.013014880008995533,9.886137962341309,-0.00039999998989515007,0.0005999999702908099,0.06859999895095825,-0.019000000453128628,-0.017999999727163266,0.05300000012305109
0.0053917421028018,0.004079719539731741,9.892132759094238,-0.00039999998989515007,0.000699999975040555,0.06859999895095825,-0.07999999804626934,-0.024999999806340833,-0.007000000079177565
0.012009315192699432,-0.0076135615818202496,9.883830070495605,-0.0004999999655410647,0.0008999999845400453,0.06859999895095825,0.02600000053230619,0.023000000021936765,0.06800000267489824
-0.00005746084207203239,-0.003390189725905657,9.881511688232422,-0.00039999998989515007,0.0007999999797903001,0.06859999895095825,0.01700000066872456,-0.013000000266153095,0.0019999999928448997
-0.0009385270532220602,0.0013503297232091427,9.887066841125488,-0.00039999998989515007,0.000699999975040555,0.058799996972084045,-0.03899999996469596,0.0009999999964224499,0.0019999999928448997
0.0020781669300049543,0.003265690989792347,9.88305377960205,-0.00039999998989515007,0.0007999999797903001,0.058799996972084045,-0.0030000000934877653,0.0009999999964224499,0.02800000031671026
0.004606443922966719,0.012210427783429623,9.883830070495605,-0.00039999998989515007,0.0007999999797903001,0.06859999895095825,0.031999999885518396,-0.05499999823992851,-0.021999999295971403
0.01148259174078703,-0.0023558945395052433,9.885765075683594,-0.0005999999702908099,0.000699999975040555,0.06859999895095825,-0.0019999999928448997,0.014999999216793838,0.021999999295971403
-0.0043766009621322155,0.012823344208300114,9.894575119018555,-0.0004999999655410647,0.000699999975040555,0.07840000092983246,0.007999999971379599,0.009999999755783667,0.0019999999928448997
0.0027293898165225983,-0.0043766009621322155,9.89625072479248,-0.0004999999655410647,0.000699999975040555,0.07840000092983246,0.012000000373951061,0,0.04200000047506539
-0.0104866037145257,-0.009710881859064102,9.88525676727295,-0.0004999999655410647,0.0005999999702908099,0.06859999895095825,0.057000003026912535,0.021000000237532696,0.0019999999928448997
0.0013503297232091427,-0.013168108649551868,9.894095420837402,-0.00039999998989515007,0.0004999999655410647,0.07840000092983246,0.01700000066872456,0,0.0030000000934877653
-0.008619125932455063,0.0028060043696314096,9.885380744934082,-0.00039999998989515007,0.00039999998989515007,0.06859999895095825,0.03599999945432653,0,0.0019999999928448997
0.004836287349462509,0.0031890766695141792,9.885946273803711,-0.00039999998989515007,0.00029999998514540493,0.06859999895095825,0.004999999877891834,0.024000000747902123,0.0019999999928448997
-0.006033387966454029,-0.004865017719566822,9.884777069091797,-0.00029999998514540493,0.00029999998514540493,0.06859999895095825,0.007999999971379599,0,0.0039999999856897995
-0.0012641384964808822,-0.016146495938301086,9.886147499084473,-0.00029999998514540493,0.00029999998514540493,0.06859999895095825,0.007999999971379599,0,0.02800000031671026
0.007460332475602627,0.002930502872914076,9.884882926940918,-0.00029999998514540493,0.00019999999494757503,0.06859999895095825,-0.03100000082707969,0.0009999999964224499,-0.0019999999928448997
-0.00209732074290514,0.0038211459759622812,9.864044189453125,-0.00029999998514540493,0.00029999998514540493,0.03920000046491623,-0.03699999851276524,-0.009999999755783667,-0.023000000021936765
-0.002403778489679098,0.0026144683361053467,9.886319160461426,-0.00029999998514540493,0.00039999998989515007,0.06859999895095825,0.007999999971379599,0,0.05300000012305109
0.01508347038179636,0.006272808648645878,9.881455421447754,-0.00029999998514540493,0.00039999998989515007,0.058799996972084045,-0.01700000066872456,0.024999999806340833,-0.021000000237532696
0.004577713552862406,-0.0025187002029269934,9.876379013061523,-0.00029999998514540493,0.00039999998989515007,0.058799996972084045,0.021999999295971403,0.048000001495804245,0.0019999999928448997
0.012555194087326527,-0.0025857379660010338,9.89291763305664,-0.00009999999747378752,0.00039999998989515007,0.07840000092983246,0.038000000906257256,0.015999999942759198,0.010999999647985701
-0.00629196222871542,0.012267890386283398,9.881023406982422,-0.00009999999747378752,0.00029999998514540493,0.058799996972084045,0.007999999971379599,0.021000000237532696,0.02800000031671026
0.00803494080901146,0.004510676022619009,9.886970520019531,0,0.00019999999494757503,0.06859999895095825,-0.0429999995335041,0.017999999727163266,0.021000000237532696
-0.005161899141967297,0.007881712168455124,9.891960144042969,0,0.00029999998514540493,0.06859999895095825,0,0.0429999995335041,0.0039999999856897995
-0.010572794824838638,0.026508601382374763,9.88571548461914,0,0.010099999606609344,0.06859999895095825,0.04200000047506539,0.02600000053230619,0.04200000047506539
0.0010247182799503207,0.009375694207847118,9.890763282775879,0.00009999999747378752,0.00009999999747378752,0.06859999895095825,0.007999999971379599,0.0429999995335041,0.0039999999856897995
0.013014880008995533,0.005861005745828152,9.881607055664062,0.00019999999494757503,0.00009999999747378752,0.058799996972084045,0.012000000373951061,0.009999999755783667,0.010999999647985701
0.0030071171931922436,-0.0075273700058460236,9.890514373779297,0.00029999998514540493,0.00009999999747378752,0.058799996972084045,-0.0269999995907449,0.013000000266153095,0.0019999999928448997
0.003687070682644844,-0.0031890766695141792,9.884930610656738,0.00029999998514540493,0.00019999999494757503,0.06859999895095825,0.008999999863581633,-0.06299999737754478,0.0030000000934877653
-0.0018866308964788914,0.0006512228865176439,9.887430191040039,0.00009999999747378752,0.00019999999494757503,0.06859999895095825,0.006000000186975531,0.01400000015835513,0.0030000000934877653
-0.0016950948629528284,-0.017190368846058846,9.888254165649414,0.00019999999494757503,0.00009999999747378752,0.06859999895095825,0.010999999647985701,0.0030000000934877653,-0.023000000021936765
-0.0005171475349925458,0.0017525556031614542,9.87669563293457,0.00019999999494757503,0.00009999999747378752,0.058799996972084045,0.007000000079177565,0.0429999995335041,0.0030000000934877653
0.01298614963889122,0.01687433384358883,9.878293991088867,0.00029999998514540493,0.00009999999747378752,0.058799996972084045,-0.04600000004387353,0.007000000079177565,0.04900000055424296
0.006081271916627884,0.002288856776431203,9.88327407836914,0.00029999998514540493,0.00019999999494757503,0.06859999895095825,0.010999999647985701,-0.009999999755783667,-0.004999999877891834
0.011118672788143158,0.0037732617929577827,9.877699851989746,0.00029999998514540493,0.00019999999494757503,0.058799996972084045,0.0039999999856897995,0.017999999727163266,0.0269999995907449
0.004912901669740677,-0.009471462108194828,9.891443252563477,0.00029999998514540493,0.00019999999494757503,0.06859999895095825,0.017999999727163266,0.0009999999964224499,-0.021999999295971403
0.0055545479990541935,0.013225569389760494,9.88393497467041,0.00029999998514540493,0.00009999999747378752,0.06859999895095825,-0.04200000047506539,-0.03599999945432653,0.021000000237532696
-0.005008670035749674,-0.0033997665159404278,9.882393836975098,0.00019999999494757503,0.00019999999494757503,0.058799996972084045,0.009999999755783667,0.024000000747902123,0.021000000237532696
-0.020867861807346344,-0.002911349292844534,9.881416320800781,-0.00930000003427267,0.00019999999494757503,0.058799996972084045,0,0,0.013000000266153095
0.007900865748524666,0.003849876346066594,9.894258499145508,0.00039999998989515007,0.00019999999494757503,0.07840000092983246,-0.014999999216793838,0,0.0019999999928448997
0.0020494365599006414,0.0005841852398589253,9.897649765014648,0.00039999998989515007,0.00019999999494757503,0.07840000092983246,0.024999999806340833,-0.0039999999856897995,0.0019999999928448997
-0.0006799532566219568,-0.009749189019203186,9.89392375946045,0.00039999998989515007,0.00019999999494757503,0.07840000092983246,0.017999999727163266,-0.0019999999928448997,0.004999999877891834
0.002451662439852953,0.002202665666118264,9.885515213012695,0.00039999998989515007,0.00009999999747378752,0.06859999895095825,-0.04600000004387353,0.024000000747902123,0.019000000453128628
0.0018579005263745785,-0.00039264908991754055,9.882996559143066,0.00039999998989515007,0.00019999999494757503,0.058799996972084045,-0.004999999877891834,0.009999999755783667,0.0039999999856897995
-0.00497036287561059,-0.015246276743710041,9.87379264831543,0.00039999998989515007,0.00019999999494757503,0.058799996972084045,0.0030000000934877653,-0.017999999727163266,0.0030000000934877653
0.004865017719566822,0.005152322351932526,9.878485679626465,0.00039999998989515007,0.00019999999494757503,0.058799996972084045,0,0,-0.004999999877891834
0.0063781533390283585,-0.0046543278731405735,9.88432788848877,0.00039999998989515007,0.00019999999494757503,0.06859999895095825,0.009999999755783667,0.013000000266153095,0.02800000031671026
0.005334281362593174,0.0025570073630660772,9.8700590133667,0.00039999998989515007,0.00019999999494757503,0.04899999871850014,-0.0009999999964224499,0.0429999995335041,0.0019999999928448997
0.003303998149931431,-0.0013311761431396008,9.873103141784668,0.0004999999655410647,0.00019999999494757503,0.04899999871850014,0.004999999877891834,0.024999999806340833,0.02800000031671026
0.001628057099878788,-0.01039083581417799,9.875239372253418,0.0005999999702908099,0.00019999999494757503,0.058799996972084045,-0.007999999971379599,-0.03899999996469596,-0.007000000079177565
0.006167463958263397,0.0009002198348753154,9.886540412902832,0.0004999999655410647,0.00019999999494757503,0.06859999895095825,0.007999999971379599,0.02600000053230619,0.006000000186975531
0.001455674646422267,-0.013120224699378014,9.894794464111328,0.0004999999655410647,0.00019999999494757503,0.058799996972084045,0.0329999989439571,0.01700000066872456,0.0039999999856897995
-0.004826710559427738,-0.002576161175966263,9.887372970581055,0.0004999999655410647,0,0.06859999895095825,0.021000000237532696,0,0.0019999999928448997
-0.007565677165985107,0.0067995330318808556,9.89854907989502,0.0004999999655410647,0,0.07840000092983246,0.007999999971379599,-0.021999999295971403,0.004999999877891834
-0.006885724142193794,-0.00594719685614109,9.893741607666016,0.00039999998989515007,0,0.07840000092983246,0.0329999989439571,0.0009999999964224499,0.0039999999856897995
0.0009864111198112369,0.0017142484430223703,9.893281936645508,0.00039999998989515007,0,0.07840000092983246,0.0329999989439571,0.0009999999964224499,0.0039999999856897995
0.003064578166231513,-0.011377247050404549,9.893837928771973,0.00039999998989515007,-0.00019999999494757503,0.07840000092983246,0.0039999999856897995,-0.02600000053230619,-0.014999999216793838
0.010084377601742744,-0.01229662075638771,9.886070251464844,0.00029999998514540493,-0.00019999999494757503,0.06859999895095825,-0.0429999995335041,0,-0.017999999727163266
0.0056503163650631905,-0.004232948645949364,9.878600120544434,0.00029999998514540493,0,0.058799996972084045,0.007999999971379599,0.06800000267489824,0.0539999991814898
0.0020302829798310995,0.0029592332430183887,9.890753746032715,0.0004999999655410647,-0.00009999999747378752,0.06859999895095825,-0.03400000133744912,-0.017999999727163266,0.0019999999928448997
0.005659893155097961,-0.012564770877361298,9.875967025756836,0.0004999999655410647,0,0.058799996972084045,-0.0019999999928448997,0.008999999863581633,0.0009999999964224499
-0.0027006594464182854,-0.014116212725639343,9.873516082763672,0.0004999999655410647,0,0.04899999871850014,0.006000000186975531,0,0.012000000373951061
-0.007345410995185375,-0.009097966365516186,9.88459587097168,0.0004999999655410647,0,0.06859999895095825,0.007999999971379599,0,0.02899999937514897
0.006675034295767546,-0.0028060043696314096,9.895551681518555,0.0004999999655410647,0,0.07840000092983246,-0.008999999863581633,-0.035000000395887826,0.02800000031671026
0.015255853533744812,0.00584185216575861,9.890016555786133,0.00039999998989515007,0,0.06859999895095825,-0.015999999942759198,-0.0269999995907449,-0.0030000000934877653
-0.016414646059274673,-0.007374141365289688,9.881579399108887,0.00029999998514540493,0,0.058799996972084045,0.007999999971379599,0.006000000186975531,0.0019999999928448997
-0.002308010356500745,0.0025187002029269934,9.886079788208008,0.00029999998514540493,0,0.06859999895095825,0.007999999971379599,0.049999999612681666,0.021000000237532696
-0.0071921818889677525,0.0028251581825315952,9.889785766601562,0.00039999998989515007,0,0.06859999895095825,0.043999998591942806,0.01700000066872456,0.0019999999928448997
0.012018891982734203,-0.00649307481944561,9.885141372680664,0.0004999999655410647,-0.00009999999747378752,0.06859999895095825,0.03599999945432653,0.0030000000934877653,0.013000000266153095
-0.008149862289428711,-0.007671022322028875,9.884902000427246,0.0004999999655410647,-0.00019999999494757503,0.06859999895095825,0.007999999971379599,-0.0039999999856897995,0.0019999999928448997
0.0070772599428892136,-0.0003064578049816191,9.890351295471191,0.0004999999655410647,-0.00019999999494757503,0.06859999895095825,0.031999999885518396,0.01700000066872456,0.006000000186975531
-0.0018291701562702656,-0.006177040748298168,9.8836669921875,0.0004999999655410647,-0.00029999998514540493,0.06859999895095825,0.03400000133744912,-0.0039999999856897995,0.029999998433587676
0.003955221269279718,-0.006732495501637459,9.887382507324219,0.0004999999655410647,-0.00039999998989515007,0.06859999895095825,-0.006000000186975531,-0.048000001495804245,0.024000000747902123
0.007316680625081062,-0.011616666801273823,9.887660026550293,0.00029999998514540493,-0.00039999998989515007,0.06859999895095825,0.009999999755783667,-0.015999999942759198,-0.01700000066872456
0.004673481918871403,-0.008504204452037811,9.87064266204834,0.00029999998514540493,-0.00039999998989515007,0.058799996972084045,-0.007999999971379599,0.007000000079177565,-0.007000000079177565
-0.01059194840490818,-0.011559206061065197,9.88099479675293,0.00029999998514540493,-0.00039999998989515007,0.04899999871850014,-0.017999999727163266,-0.009999999755783667,-0.0019999999928448997
-0.009710881859064102,0.012756306678056717,9.883647918701172,0.00029999998514540493,-0.00029999998514540493,0.06859999895095825,0.019000000453128628,0,-0.0269999995907449
-0.0017908628797158599,0.008283937349915504,9.87614917755127,0.00029999998514540493,-0.00039999998989515007,0.058799996972084045,0.006000000186975531,0.008999999863581633,0.01700000066872456
0.004405331332236528,-0.003208230249583721,9.88100528717041,0.00029999998514540493,-0.00039999998989515007,0.058799996972084045,-0.04900000055424296,0,-0.021000000237532696
0.014719552360475063,-0.006138733588159084,9.86872673034668,0.00029999998514540493,-0.00019999999494757503,0.04899999871850014,-0.007999999971379599,-0.015999999942759198,0.0009999999964224499
0.007316680625081062,-0.012727576307952404,9.880104064941406,0.00019999999494757503,-0.00019999999494757503,0.058799996972084045,-0.0019999999928448997,0.008999999863581633,0.0019999999928448997
-0.0036296097096055746,0.006904877722263336,9.894268989562988,0.00029999998514540493,-0.00019999999494757503,0.07840000092983246,-0.015999999942759198,-0.013000000266153095,-0.007999999971379599
-0.014566323719918728,0.0047500962391495705,9.876771926879883,0.00019999999494757503,-0.00019999999494757503,0.058799996972084045,0.007999999971379599,0.015999999942759198,-0.007000000079177565
-0.004175487905740738,-0.007134721148759127,9.890887260437012,0.00029999998514540493,-0.00019999999494757503,0.06859999895095825,0.0030000000934877653,0.031999999885518396,0.008999999863581633
0.003840299556031823,-0.003706224262714386,9.895503997802734,0.00029999998514540493,-0.00019999999494757503,0.07840000092983246,0.007999999971379599,-0.0030000000934877653,-0.04900000055424296
-0.0006991068948991597,-0.00958638358861208,9.8903226852417,0.00029999998514540493,-0.00019999999494757503,0.06859999895095825,0.0039999999856897995,-0.02800000031671026,0.013000000266153095
0.001130063203163445,-0.008916007354855537,9.896892547607422,0.00029999998514540493,-0.00019999999494757503,0.07840000092983246,0.010999999647985701,-0.010999999647985701,0.0009999999964224499
0.0017621323931962252,-0.002212242456153035,9.884308815002441,0.00019999999494757503,-0.00019999999494757503,0.06859999895095825,0.008999999863581633,-0.0019999999928448997,-0.0429999995335041
0.004443638492375612,-0.009902418591082096,9.891960144042969,0.00019999999494757503,-0.00029999998514540493,0.06859999895095825,0.019999999511567335,0.010999999647985701,-0.007000000079177565
0.00924161821603775,0.010907982476055622,9.87656021118164,0.00019999999494757503,-0.00029999998514540493,0.058799996972084045,-0.05900000114378995,0.024000000747902123,-0.007000000079177565
0.002882618922740221,-0.0006320692482404411,9.870604515075684,0.00029999998514540493,-0.00009999999747378752,0.04899999871850014,0.03100000082707969,0.03699999851276524,-0.007999999971379599
0.0031890766695141792,-0.008073247969150543,9.876044273376465,0.00039999998989515007,-0.00019999999494757503,0.058799996972084045,0.008999999863581633,-0.0030000000934877653,-0.007999999971379599
0.006627150345593691,-0.015294160693883896,9.875307083129883,0.00039999998989515007,-0.00029999998514540493,0.058799996972084045,0.008999999863581633,-0.0030000000934877653,0.03400000133744912
-0.0027868507895618677,-0.009203311055898666,9.882834434509277,0.00039999998989515007,-0.00029999998514540493,0.058799996972084045,-0.07600000181251451,0.014999999216793838,-0.021000000237532696
0.005228936672210693,-0.009662997908890247,9.88207721710205,0.00039999998989515007,-0.00009999999747378752,0.058799996972084045,-0.007000000079177565,0.015999999942759198,0.01700000066872456
-0.005238513462245464,-0.006090848706662655,9.88300609588623,0.00039999998989515007,0,0.058799996972084045,0.029999998433587676,-0.0030000000934877653,0.019999999511567335
-0.001130063203163445,-0.0035338415764272213,9.887794494628906,0.00039999998989515007,-0.00009999999747378752,0.06859999895095825,-0.004999999877891834,-0.04200000047506539,0.019000000453128628
-0.005631162319332361,-0.004031835589557886,9.877901077270508,0.00029999998514540493,-0.00009999999747378752,0.058799996972084045,-0.012000000373951061,-0.0019999999928448997,-0.008999999863581633
-0.010630255565047264,-0.004261679016053677,9.898444175720215,0.00019999999494757503,-0.00009999999747378752,0.07840000092983246,0.013000000266153095,0.021999999295971403,-0.009999999755783667
-0.00904050562530756,-0.005439626052975655,9.887718200683594,0.00019999999494757503,-0.00009999999747378752,0.07840000092983246,0.007999999971379599,0.0009999999964224499,-0.009999999755783667
-0.0075369467958807945,-0.0004979939549230039,9.881292343139648,0.00029999998514540493,-0.00019999999494757503,0.058799996972084045,-0.015999999942759198,0.01400000015835513,-0.007999999971379599
-0.0034476504661142826,0.005870582535862923,9.898913383483887,0.00029999998514540493,-0.00009999999747378752,0.07840000092983246,0.0009999999964224499,-0.02800000031671026,-0.007000000079177565
0.010773907415568829,-0.0036391867324709892,9.883398056030273,0.00029999998514540493,-0.00009999999747378752,0.06859999895095825,-0.029999998433587676,-0.006000000186975531,0.01700000066872456
0.00658884271979332,-0.02741839736700058,9.880966186523438,0.00019999999494757503,-0.00969999935477972,0.058799996972084045,-0.015999999942759198,0.0039999999856897995,-0.024999999806340833
0.008274360559880733,-0.013618219643831253,9.868430137634277,0.00019999999494757503,0,0.04899999871850014,0.0269999995907449,0.019999999511567335,-0.006000000186975531
-0.0005937620298936963,-0.002758120186626911,9.880889892578125,0.00029999998514540493,0,0.058799996972084045,0.029999998433587676,0.041000001416626686,0.035000000395887826
0.005353434942662716,-0.0076231383718550205,9.874013900756836,0.00039999998989515007,0,0.058799996972084045,0.013000000266153095,0.024000000747902123,-0.0019999999928448997
-0.014365210197865963,0.004788403399288654,9.879327774047852,0.0004999999655410647,-0.00009999999747378752,0.058799996972084045,-0.007999999971379599,0.021999999295971403,0.0019999999928448997
-0.010314221493899822,-0.009605537168681622,9.880324363708496,0.0004999999655410647,0,0.058799996972084045,0.008999999863581633,0.03999999902313467,0.017999999727163266
-0.012009315192699432,-0.001608903519809246,9.877450942993164,0.0005999999702908099,-0.00009999999747378752,0.058799996972084045,0.023000000021936765,-0.041000001416626686,-0.0009999999964224499
-0.007958326488733292,-0.008657433092594147,9.879510879516602,0.0004999999655410647,-0.00009999999747378752,0.058799996972084045,-0.007000000079177565,-0.0030000000934877653,-0.007999999971379599
-0.018521543592214584,-0.005363011732697487,9.88676929473877,0.0004999999655410647,-0.00009999999747378752,0.06859999895095825,0.008999999863581633,0.0009999999964224499,-0.0019999999928448997
-0.009346963837742805,-0.0038115691859275103,9.880602836608887,0.0004999999655410647,-0.00009999999747378752,0.058799996972084045,0.008999999863581633,0.01400000015835513,0.019999999511567335
0.003351882565766573,-0.004462792072445154,9.89286994934082,0.0004999999655410647,-0.00019999999494757503,0.07840000092983246,0.0039999999856897995,0.0019999999928448997,-0.04200000047506539
-0.005822698585689068,-0.003945644479244947,9.89002513885498,0.0004999999655410647,-0.00019999999494757503,0.06859999895095825,0.024999999806340833,-0.009999999755783667,-0.041000001416626686
-0.012478579767048359,-0.002116474322974682,9.873640060424805,0.0004999999655410647,-0.00019999999494757503,0.04899999871850014,0.01700000066872456,0.007000000079177565,-0.007999999971379599
0.0037828385829925537,-0.010907982476055622,9.891529083251953,0.0004999999655410647,-0.00029999998514540493,0.06859999895095825,-0.010999999647985701,-0.0030000000934877653,0.03100000082707969
0.0072687966749072075,0.0039264908991754055,9.882048606872559,0.0004999999655410647,-0.00019999999494757503,0.058799996972084045,-0.017999999727163266,-0.0030000000934877653,-0.007999999971379599
0.0072687966749072075,0.0039264908991754055,9.882048606872559,0.0004999999655410647,-0.00019999999494757503,0.058799996972084045,-0.017999999727163266,-0.0030000000934877653,-0.007999999971379599
0.0017908628797158599,-0.005765237845480442,9.892248153686523,0.00039999998989515007,-0.00009999999747378752,0.06859999895095825,0.013000000266153095,-0.004999999877891834,-0.007999999971379599
-0.003380612935870886,0.006761225871741772,9.884567260742188,0.00029999998514540493,-0.00009999999747378752,0.06859999895095825,0.007000000079177565,-0.0030000000934877653,0.0030000000934877653
0.004050989169627428,0.002834734972566366,9.881895065307617,0.00029999998514540493,-0.00009999999747378752,0.058799996972084045,0.007999999971379599,0.010999999647985701,0.008999999863581633
-0.006387730129063129,0.0009481038432568312,9.876502990722656,0.00039999998989515007,-0.00019999999494757503,0.058799996972084045,-0.02600000053230619,-0.0019999999928448997,-0.007999999971379599
-0.004663905128836632,0.004328716546297073,9.87446403503418,0.00039999998989515007,-0.00009999999747378752,0.058799996972084045,-0.0009999999964224499,-0.008999999863581633,-0.0269999995907449
0.004137180279940367,0.001953668659552932,9.888206481933594,0.00029999998514540493,-0.00009999999747378752,0.06859999895095825,0.05300000012305109,-0.0030000000934877653,-0.0019999999928448997
0.0034955344162881374,0.012277467176318169,9.891874313354492,0.00029999998514540493,-0.00019999999494757503,0.06859999895095825,0.03400000133744912,0.007000000079177565,-0.007999999971379599
0.00045968673657625914,-0.005525817163288593,9.888771057128906,0.00029999998514540493,-0.00029999998514540493,0.06859999895095825,0.0269999995907449,0.010999999647985701,-0.007999999971379599
0.0011971008498221636,-0.005774814635515213,9.89936351776123,0.00039999998989515007,-0.00039999998989515007,0.07840000092983246,0.0429999995335041,-0.013000000266153095,-0.012000000373951061
0.0023654713295400143,0.017362751066684723,9.884471893310547,0.00029999998514540493,-0.0004999999655410647,0.06859999895095825,0.008999999863581633,0.01400000015835513,-0.008999999863581633
-0.004548983182758093,0.005832275375723839,9.891031265258789,0.00029999998514540493,-0.0004999999655410647,0.06859999895095825,0.019000000453128628,0.019999999511567335,0.017999999727163266
-0.0018004396697506309,0.0051044379360973835,9.88099479675293,0.00039999998989515007,-0.0005999999702908099,0.058799996972084045,-0.015999999942759198,-0.004999999877891834,-0.007999999971379599
0.0012449849164113402,-0.006119579542428255,9.888636589050293,0.00039999998989515007,-0.0004999999655410647,0.06859999895095825,-0.04500000098543482,0.01400000015835513,-0.02899999937514897
-0.004434061702340841,-0.0005171475349925458,9.884711265563965,0.00039999998989515007,-0.00039999998989515007,0.06859999895095825,-0.0030000000934877653,-0.0019999999928448997,0.024999999806340833
-0.0023271639365702868,-0.016673222184181213,9.88072681427002,0.00039999998989515007,-0.00039999998989515007,0.058799996972084045,0.0019999999928448997,-0.03899999996469596,-0.0269999995907449
0.012823344208300114,0.007862558588385582,9.876953125,0.00029999998514540493,-0.00039999998989515007,0.058799996972084045,-0.0009999999964224499,-0.007000000079177565,-0.0009999999964224499
-0.008054094389081001,0.008063671179115772,9.875621795654297,0.00029999998514540493,-0.00039999998989515007,0.058799996972084045,0.008999999863581633,-0.0019999999928448997,-0.007999999971379599
0.00794874969869852,-0.009911995381116867,9.875144004821777,0.00019999999494757503,-0.00039999998989515007,0.058799996972084045,-0.03400000133744912,-0.021000000237532696,-0.0429999995335041
-0.0034955344162881374,0.005966350436210632,9.869895935058594,0.00009999999747378752,-0.00029999998514540493,0.04899999871850014,0.007999999971379599,0.0269999995907449,0.007999999971379599
-0.012842497788369656,0.0047405194491147995,9.88841724395752,0.00019999999494757503,-0.00029999998514540493,0.06859999895095825,0.007999999971379599,0.015999999942759198,-0.01700000066872456
-0.0029879636131227016,-0.0018004396697506309,9.883312225341797,0.00019999999494757503,-0.00029999998514540493,0.06859999895095825,-0.0009999999964224499,-0.0039999999856897995,-0.013000000266153095
0.0051906295120716095,-0.017448943108320236,9.865461349487305,0.00019999999494757503,-0.00029999998514540493,0.04899999871850014,0.02600000053230619,-0.0039999999856897995,0.02800000031671026
-0.0021739350631833076,-0.012200850993394852,9.873113632202148,0.00019999999494757503,-0.00039999998989515007,0.04899999871850014,0.008999999863581633,-0.03400000133744912,0.05300000012305109
-0.00419464148581028,-0.016309302300214767,9.885878562927246,0.00009999999747378752,-0.00039999998989515007,0.06859999895095825,-0.024999999806340833,0.012000000373951061,-0.0030000000934877653
0.016673222184181213,-0.006607996299862862,9.870498657226562,0.00009999999747378752,-0.00029999998514540493,0.04899999871850014,0.008999999863581633,-0.0009999999964224499,0.009999999755783667
-0.004587290342897177,-0.0019632454495877028,9.887737274169922,0.00009999999747378752,-0.00029999998514540493,0.06859999895095825,0.007000000079177565,0.01700000066872456,-0.04200000047506539
0.002288856776431203,0.009519346058368683,9.889509201049805,0.00019999999494757503,-0.00029999998514540493,0.06859999895095825,-0.015999999942759198,0.01700000066872456,0.004999999877891834
0.002892195712774992,0.0051810527220368385,9.886377334594727,0.00019999999494757503,-0.00029999998514540493,0.06859999895095825,0.008999999863581633,-0.0269999995907449,-0.024000000747902123
0.008015787228941917,-0.010218452662229538,9.881742477416992,0.00009999999747378752,-0.00029999998514540493,0.058799996972084045,0.009999999755783667,-0.0030000000934877653,0.03999999902313467
0.008638279512524605,0.011415554210543633,9.88376235961914,0.00009999999747378752,-0.00029999998514540493,0.06859999895095825,0.009999999755783667,0.01400000015835513,-0.04500000098543482
-0.000957680691499263,-0.001436521066352725,9.891222953796387,0.00019999999494757503,-0.00039999998989515007,0.06859999895095825,0.0030000000934877653,0.041000001416626686,-0.0329999989439571
0.005315127782523632,-0.0035242647863924503,9.878782272338867,0.00029999998514540493,-0.00039999998989515007,0.058799996972084045,0.008999999863581633,0.0030000000934877653,-0.010999999647985701
0.002566584153100848,0.002202665666118264,9.881224632263184,0.00029999998514540493,-0.00039999998989515007,0.058799996972084045,-0.006000000186975531,0.014999999216793838,-0.006000000186975531
-0.013321338221430779,-0.013024456799030304,9.888532638549805,0.00029999998514540493,-0.00039999998989515007,0.06859999895095825,-0.008999999863581633,0,0.02899999937514897
0.0050948611460626125,-0.005257667042315006,9.88971996307373,0.00029999998514540493,-0.00029999998514540493,0.06859999895095825,0.009999999755783667,0.05999999686717535,-0.007000000079177565
-0.012957419268786907,-0.0007757213898003101,9.874970436096191,0.0004999999655410647,-0.00039999998989515007,0.058799996972084045,0.008999999863581633,0.0019999999928448997,-0.007999999971379599
-0.0034093433059751987,-0.01580173149704933,9.889853477478027,0.0004999999655410647,-0.00039999998989515007,0.06859999895095825,0.007999999971379599,-0.02800000031671026,-0.007000000079177565
-0.0007086837431415915,-0.006837840192019939,9.898491859436035,0.00039999998989515007,-0.00039999998989515007,0.07840000092983246,0.013000000266153095,0,-0.017999999727163266
-0.010745177045464516,0.00893516093492508,9.885955810546875,0.00039999998989515007,-0.00039999998989515007,0.06859999895095825,0.0039999999856897995,-0.0030000000934877653,0.0019999999928448997
0.002863465342670679,-0.007125144358724356,9.889422416687012,0.00039999998989515007,-0.00039999998989515007,0.06859999895095825,-0.0019999999928448997,-0.0030000000934877653,-0.0039999999856897995
-0.006387730129063129,-0.007230489049106836,9.888895034790039,0.00039999998989515007,-0.00039999998989515007,0.06859999895095825,0.007000000079177565,-0.0019999999928448997,-0.007999999971379599
-0.005679046735167503,-0.002566584153100848,9.883159637451172,0.00029999998514540493,-0.00039999998989515007,0.058799996972084045,0.008999999863581633,0.021999999295971403,-0.04200000047506539
0.0023463177494704723,-0.023348255082964897,9.884078979492188,0.00039999998989515007,-0.010099999606609344,0.06859999895095825,-0.006000000186975531,0.006000000186975531,0.017999999727163266
-0.004098873119801283,-0.019891027361154556,9.892391204833984,0.00039999998989515007,-0.009999999776482582,0.06859999895095825,0.009999999755783667,-0.0030000000934877653,0.031999999885518396
0.0027964275795966387,0.008178592659533024,9.890830039978027,0.00039999998989515007,-0.00019999999494757503,0.06859999895095825,0.019000000453128628,-0.038000000906257256,0.05300000012305109
-0.004347870126366615,-0.0035146879963576794,9.888781547546387,0.00029999998514540493,-0.00029999998514540493,0.06859999895095825,0.0030000000934877653,0.006000000186975531,-0.006000000186975531
0.0055641247890889645,-0.021289242431521416,9.878600120544434,0.00029999998514540493,-0.009999999776482582,0.058799996972084045,0.024000000747902123,-0.0019999999928448997,-0.006000000186975531
0.008427590131759644,-0.002576161175966263,9.881061553955078,0.00029999998514540493,-0.00029999998514540493,0.058799996972084045,0.007000000079177565,-0.017999999727163266,-0.007999999971379599
-0.0033135751727968454,-0.00848505087196827,9.880831718444824,0.00019999999494757503,-0.00029999998514540493,0.058799996972084045,0.02600000053230619,0,-0.007000000079177565
-0.0007661445415578783,-0.0047500962391495705,9.877710342407227,0.00019999999494757503,-0.00029999998514540493,0.058799996972084045,0.008999999863581633,-0.008999999863581633,0.0009999999964224499
0.007287950254976749,-0.0021835120860487223,9.876675605773926,0.00019999999494757503,-0.00039999998989515007,0.058799996972084045,0.010999999647985701,0.0009999999964224499,-0.007000000079177565
0.013129801489412785,-0.010007763281464577,9.876608848571777,0.00019999999494757503,-0.00039999998989515007,0.058799996972084045,-0.012000000373951061,0,-0.007999999971379599
-0.0018579005263745785,0.0010438719764351845,9.885113716125488,0.00019999999494757503,-0.00029999998514540493,0.06859999895095825,0.007999999971379599,-0.0030000000934877653,-0.0030000000934877653
-0.0012066776398569345,-0.013273454271256924,9.881138801574707,0.00019999999494757503,-0.00039999998989515007,0.058799996972084045,-0.0269999995907449,0.0539999991814898,0.05300000012305109
0.011511322110891342,-0.01318726222962141,9.895408630371094,0.00029999998514540493,-0.00029999998514540493,0.07840000092983246,0.02899999937514897,-0.0030000000934877653,-0.007000000079177565
0.0007086837431415915,-0.016864757984876633,9.871437072753906,0.00029999998514540493,-0.00039999998989515007,0.04899999871850014,-0.0039999999856897995,-0.006000000186975531,0.0269999995907449
0.004922478459775448,-0.02580949477851391,9.88344669342041,0.00029999998514540493,-0.009999999776482582,0.06859999895095825,0.041000001416626686,-0.029999998433587676,0.0009999999964224499
0.007517793215811253,0.0008523358264937997,9.894794464111328,0.00019999999494757503,-0.00029999998514540493,0.07840000092983246,0.007000000079177565,-0.03100000082707969,-0.007000000079177565
-0.008073247969150543,-0.0027964275795966387,9.891270637512207,0.00009999999747378752,-0.00039999998989515007,0.06859999895095825,0.006000000186975531,-0.0009999999964224499,0.021000000237532696
0.011377247050404549,0.003208230249583721,9.88525676727295,0.00009999999747378752,-0.00039999998989515007,0.06859999895095825,0.015999999942759198,0.024000000747902123,0
0.01068771630525589,-0.016108188778162003,9.88730525970459,0.00019999999494757503,-0.00039999998989515007,0.06859999895095825,0.008999999863581633,-0.0009999999964224499,-0.007999999971379599
0.005075707565993071,-0.0171807911247015,9.894737243652344,0.00019999999494757503,-0.00039999998989515007,0.07840000092983246,0.0269999995907449,0.012000000373951061,-0.0030000000934877653
0.0023463177494704723,-0.0008810661965981126,9.889030456542969,0.00019999999494757503,-0.0004999999655410647,0.06859999895095825,0.0039999999856897995,0.04500000098543482,0.013000000266153095
0.012354081496596336,0.004663905128836632,9.877288818359375,0.00029999998514540493,-0.0004999999655410647,0.058799996972084045,-0.0009999999964224499,-0.015999999942759198,-0.007000000079177565
-0.012660538777709007,-0.0036008793395012617,9.890303611755371,0.00029999998514540493,-0.0004999999655410647,0.06859999895095825,0.023000000021936765,-0.0030000000934877653,-0.012000000373951061
-0.00242293206974864,0.006502651609480381,9.880218505859375,0.00029999998514540493,-0.0004999999655410647,0.058799996972084045,-0.06399999977103679,0.013000000266153095,0.0019999999928448997
0.005372588522732258,-0.01159751322120428,9.875784873962402,0.00029999998514540493,-0.00039999998989515007,0.058799996972084045,-0.0329999989439571,0.0019999999928448997,-0.024000000747902123
-0.0075465235859155655,0.0013694833032786846,9.878600120544434,0.00029999998514540493,-0.00029999998514540493,0.058799996972084045,0.01400000015835513,0.01400000015835513,-0.007999999971379599
-0.006694188341498375,0.0005267243832349777,9.879319190979004,0.00029999998514540493,-0.00029999998514540493,0.06859999895095825,-0.03699999851276524,0.0009999999964224499,-0.007999999971379599
-0.0020781669300049543,-0.01024718303233385,9.879539489746094,0.00029999998514540493,-0.00019999999494757503,0.058799996972084045,0.008999999863581633,-0.024000000747902123,-0.05099999867112037
-0.0029496564529836178,0.00019153613538946956,9.891730308532715,0.00029999998514540493,-0.00019999999494757503,0.058799996972084045,0.013000000266153095,0.014999999216793838,0.006000000186975531
0.00419464148581028,-0.001781286089681089,9.89264965057373,0.00029999998514540493,-0.00019999999494757503,0.06859999895095825,-0.007999999971379599,0,-0.007999999971379599
-0.003236960619688034,-0.0015227121766656637,9.893741607666016,0.00029999998514540493,-0.00019999999494757503,0.07840000092983246,-0.01400000015835513,-0.0429999995335041,-0.021000000237532696
0.003275267779827118,0.0046447510831058025,9.887689590454102,0.00019999999494757503,-0.00009999999747378752,0.06859999895095825,0.029999998433587676,0.013000000266153095,0.008999999863581633
0.001446097856387496,0.0161177646368742,9.884136199951172,0.00019999999494757503,-0.00019999999494757503,0.06859999895095825,0.03400000133744912,-0.0009999999964224499,-0.008999999863581633
0.00416591065004468,0.0158783458173275,9.889078140258789,0.00019999999494757503,-0.00029999998514540493,0.06859999895095825,0.004999999877891834,0.010999999647985701,-0.007999999971379599
0.004137180279940367,0.015524003654718399,9.882671356201172,0.00029999998514540493,-0.00029999998514540493,0.058799996972084045,0.015999999942759198,-0.021000000237532696,-0.007999999971379599
-0.006100425496697426,-0.010907982476055622,9.883609771728516,0.00019999999494757503,-0.00039999998989515007,0.06859999895095825,-0.006000000186975531,-0.0030000000934877653,-0.007000000079177565
-0.000028730421036016196,0.00018195933080278337,9.891634941101074,0.00019999999494757503,-0.00029999998514540493,0.06859999895095825,-0.015999999942759198,-0.0030000000934877653,-0.014999999216793838
-0.002087743952870369,-0.009414001367986202,9.880630493164062,0.00019999999494757503,-0.00029999998514540493,0.058799996972084045,0.05499999823992851,0.024000000747902123,0
0.009988609701395035,0.007230489049106836,9.874253273010254,0.00019999999494757503,-0.00039999998989515007,0.058799996972084045,0.004999999877891834,-0.02800000031671026,0.03400000133744912
-0.004606443922966719,-0.00015322890249080956,9.872289657592773,0.00019999999494757503,-0.00039999998989515007,0.04899999871850014,-0.05300000012305109,0.021999999295971403,-0.007999999971379599
0.006071695126593113,-0.003256114199757576,9.884001731872559,0.00019999999494757503,-0.00029999998514540493,0.06859999895095825,-0.03400000133744912,0.0009999999964224499,-0.007999999971379599
0.0020111293997615576,-0.006675034295767546,9.88971996307373,0.00019999999494757503,-0.00019999999494757503,0.06859999895095825,0.02600000053230619,0.010999999647985701,-0.046999999102312236
0.006636727135628462,0.001608903519809246,9.870823860168457,0.00019999999494757503,-0.00029999998514540493,0.04899999871850014,0.009999999755783667,-0.0019999999928448997,0.03100000082707969
0.016759412363171577,-0.0169413723051548,9.877528190612793,0.00019999999494757503,-0.00029999998514540493,0.058799996972084045,0.008999999863581633,0.007000000079177565,0.013000000266153095
0.004711789079010487,-0.00804451759904623,9.863632202148438,0.00019999999494757503,-0.00029999998514540493,0.03920000046491623,0.05999999686717535,-0.0019999999928448997,0.01700000066872456
0.010074800811707973,-0.000641646038275212,9.878351211547852,0.00019999999494757503,-0.0004999999655410647,0.058799996972084045,0.008999999863581633,-0.0030000000934877653,-0.007999999971379599
0.007469909265637398,-0.01478658989071846,9.887287139892578,0.00019999999494757503,-0.0004999999655410647,0.06859999895095825,0.006000000186975531,-0.02800000031671026,-0.03400000133744912
-0.007125144358724356,0.00619619432836771,9.875621795654297,0.00009999999747378752,-0.0004999999655410647,0.058799996972084045,-0.0009999999964224499,0.0009999999964224499,-0.0329999989439571
0.009327810257673264,0.007374141365289688,9.894594192504883,0.00009999999747378752,-0.0004999999655410647,0.07840000092983246,0.009999999755783667,-0.0019999999928448997,0.0030000000934877653
0.0072687966749072075,-0.00029688101494684815,9.900752067565918,0.00009999999747378752,-0.0004999999655410647,0.07840000092983246,-0.03599999945432653,-0.0009999999964224499,0
-0.015485696494579315,-0.003754108212888241,9.887296676635742,0.00009999999747378752,-0.00039999998989515007,0.06859999895095825,0.008999999863581633,0.05200000106461238,-0.0329999989439571
-0.006627150345593691,0.0046543278731405735,9.879051208496094,0.00029999998514540493,-0.00039999998989515007,0.058799996972084045,-0.01700000066872456,-0.004999999877891834,0.009999999755783667
-0.01049618050456047,-0.006665457505732775,9.872539520263672,0.00029999998514540493,-0.00039999998989515007,0.04899999871850014,0.04500000098543482,0.0039999999856897995,0.024999999806340833
0.0012641384964808822,0.004663905128836632,9.872614860534668,0.00029999998514540493,-0.0004999999655410647,0.04899999871850014,0.013000000266153095,0.017999999727163266,-0.0039999999856897995
-0.000804451759904623,0.007010222412645817,9.881292343139648,0.00029999998514540493,-0.0004999999655410647,0.058799996972084045,0.05300000012305109,-0.03599999945432653,0.02800000031671026
-0.0029592332430183887,-0.0018291701562702656,9.879979133605957,0.00019999999494757503,-0.0005999999702908099,0.058799996972084045,-0.015999999942759198,-0.0030000000934877653,-0.012000000373951061
-0.0030454243533313274,0.0024995466228574514,9.88405990600586,0.00019999999494757503,-0.0005999999702908099,0.058799996972084045,-0.014999999216793838,0.014999999216793838,-0.017999999727163266
-0.001426944276317954,-0.0075273700058460236,9.873324394226074,0.00019999999494757503,-0.0004999999655410647,0.04899999871850014,0.008999999863581633,-0.01400000015835513,-0.007999999971379599
-0.01324472390115261,-0.0008810661965981126,9.876320838928223,0.00019999999494757503,-0.0005999999702908099,0.058799996972084045,-0.03400000133744912,-0.019000000453128628,-0.021999999295971403
-0.007364564575254917,-0.016146495938301086,9.877145767211914,0.00009999999747378752,-0.0004999999655410647,0.058799996972084045,0.007999999971379599,-0.0030000000934877653,-0.008999999863581633
-0.0019057845929637551,0.013704410754144192,9.891606330871582,0.00009999999747378752,-0.0004999999655410647,0.06859999895095825,-0.015999999942759198,-0.02800000031671026,0.0269999995907449
0.013503298163414001,-0.00364876352250576,9.878140449523926,0,-0.00039999998989515007,0.058799996972084045,0.031999999885518396,-0.0019999999928448997,-0.007999999971379599
0.008916007354855537,-0.014796166680753231,9.887133598327637,0,-0.0004999999655410647,0.06859999895095825,0.0039999999856897995,-0.0009999999964224499,-0.007000000079177565
0.004855440929532051,-0.007115567568689585,9.88967227935791,0,-0.0004999999655410647,0.06859999895095825,-0.006000000186975531,0.0039999999856897995,-0.021999999295971403
-0.001149216783232987,-0.014374786987900734,9.878677368164062,0,-0.0004999999655410647,0.058799996972084045,-0.013000000266153095,-0.0030000000934877653,0.041000001416626686
-0.014518438838422298,-0.016242263838648796,9.887468338012695,0,-0.00039999998989515007,0.058799996972084045,-0.03400000133744912,-0.0019999999928448997,0
-0.014518438838422298,-0.016242263838648796,9.887468338012695,0,-0.0004999999655410647,0.06859999895095825,-0.03400000133744912,-0.0019999999928448997,0
0.017784129828214645,-0.014116212725639343,9.892850875854492,0,-0.00039999998989515007,0.07840000092983246,0.035000000395887826,-0.02800000031671026,0.0269999995907449
0.008791509084403515,-0.005410895682871342,9.885025978088379,0,-0.0004999999655410647,0.06859999895095825,0.007999999971379599,0.006000000186975531,-0.007000000079177565
0.0076231383718550205,-0.009030928835272789,9.888962745666504,0,-0.0004999999655410647,0.06859999895095825,0.007999999971379599,-0.0030000000934877653,-0.023000000021936765
-0.01023760624229908,0.0035434183664619923,9.885611534118652,0,-0.0004999999655410647,0.06859999895095825,-0.015999999942759198,0.023000000021936765,-0.004999999877891834
0.006186617538332939,0.00416591065004468,9.880315780639648,0,-0.00039999998989515007,0.058799996972084045,0.008999999863581633,-0.0030000000934877653,0.0269999995907449
-0.013934253714978695,0.007431602105498314,9.877997398376465,0,-0.0004999999655410647,0.058799996972084045,0.04200000047506539,0.05600000063342052,0.014999999216793838
0.011405977420508862,0.015102623961865902,9.883216857910156,0.00009999999747378752,-0.0005999999702908099,0.058799996972084045,0.008999999863581633,0.01400000015835513,-0.0030000000934877653
0.009998186491429806,0.009059659205377102,9.890045166015625,0.00019999999494757503,-0.0005999999702908099,0.06859999895095825,0.008999999863581633,0.023000000021936765,-0.004999999877891834
-0.0015610195696353912,0.007565677165985107,9.88566780090332,0.00019999999494757503,-0.0005999999702908099,0.06859999895095825,0.03100000082707969,0.01700000066872456,-0.004999999877891834
0.008781932294368744,-0.0020685901399701834,9.882508277893066,0.00029999998514540493,-0.000699999975040555,0.058799996972084045,0.007999999971379599,-0.0009999999964224499,-0.007000000079177565
-0.002288856776431203,-0.010228029452264309,9.883235931396484,0.00029999998514540493,-0.000699999975040555,0.058799996972084045,-0.007000000079177565,-0.04900000055424296,-0.029999998433587676
0.0003064578049816191,0.0020685901399701834,9.89260196685791,0.00009999999747378752,-0.000699999975040555,0.07840000092983246,0.008999999863581633,0.023000000021936765,0.023000000021936765
0.0003064578049816191,0.0020685901399701834,9.89260196685791,0.00019999999494757503,-0.000699999975040555,0.06859999895095825,-0.0009999999964224499,0.0329999989439571,-0.007999999971379599
-0.002576161175966263,-0.014575900509953499,9.881425857543945,0.00029999998514540493,-0.000699999975040555,0.058799996972084045,0.0019999999928448997,0.021999999295971403,-0.021999999295971403
0.0030454243533313274,-0.0006033388199284673,9.881061553955078,0.00029999998514540493,-0.000699999975040555,0.058799996972084045,0.008999999863581633,0.006000000186975531,0.010999999647985701
-0.0035529951564967632,-0.019958065822720528,9.875784873962402,0.00029999998514540493,-0.010400000028312206,0.058799996972084045,-0.015999999942759198,-0.007000000079177565,0.008999999863581633
-0.0070772599428892136,0.0027772739995270967,9.88197135925293,0.00029999998514540493,-0.0004999999655410647,0.058799996972084045,0.0019999999928448997,-0.013000000266153095,-0.004999999877891834
0.006607996299862862,-0.006991068832576275,9.88343620300293,0.00029999998514540493,-0.0004999999655410647,0.06859999895095825,0.008999999863581633,0.021000000237532696,-0.024999999806340833
-0.0005171475349925458,-0.001158793573267758,9.881013870239258,0.00029999998514540493,-0.0004999999655410647,0.058799996972084045,-0.038000000906257256,-0.012000000373951061,0.048000001495804245
0.002394201699644327,-0.025512613356113434,9.8794527053833,0.00029999998514540493,-0.010099999606609344,0.058799996972084045,0,0.021000000237532696,-0.007000000079177565
0.0018483237363398075,-0.006483498029410839,9.891443252563477,0.00029999998514540493,-0.00029999998514540493,0.06859999895095825,-0.015999999942759198,-0.0030000000934877653,-0.007999999971379599
0.002308010356500745,-0.004759673029184341,9.892688751220703,0.00029999998514540493,-0.00029999998514540493,0.06859999895095825,-0.007999999971379599,-0.004999999877891834,-0.017999999727163266
0.005248090252280235,0.004817133769392967,9.892889976501465,0.00029999998514540493,-0.00019999999494757503,0.07840000092983246,-0.05999999686717535,0.048000001495804245,-0.008999999863581633
-0.010026916861534119,-0.00794874969869852,9.890734672546387,0.00039999998989515007,-0.00009999999747378752,0.06859999895095825,0.007999999971379599,-0.0019999999928448997,-0.007999999971379599
-0.008561665192246437,-0.009730035439133644,9.876522064208984,0.00039999998989515007,-0.00009999999747378752,0.058799996972084045,0.038000000906257256,-0.0030000000934877653,0.02899999937514897
-0.012660538777709007,0.003878606716170907,9.874866485595703,0.00039999998989515007,-0.00019999999494757503,0.058799996972084045,0.023000000021936765,-0.0030000000934877653,0.0859999990670082
-0.012172120623290539,-0.0009385270532220602,9.87641716003418,0.00039999998989515007,-0.00019999999494757503,0.058799996972084045,0.007999999971379599,0.004999999877891834,-0.006000000186975531
0.004242525435984135,0.0004118026699870825,9.87690544128418,0.00039999998989515007,-0.00029999998514540493,0.058799996972084045,0,0.007000000079177565,-0.012000000373951061
-0.0035338415764272213,0.008274360559880733,9.880324363708496,0.00039999998989515007,-0.00029999998514540493,0.06859999895095825,0.05300000012305109,-0.004999999877891834,-0.007999999971379599
0.005267243832349777,-0.011932700872421265,9.884537696838379,0.00039999998989515007,-0.00029999998514540493,0.06859999895095825,-0.03400000133744912,-0.0019999999928448997,0.02800000031671026
-0.0076327151618897915,-0.01469082199037075,9.872241973876953,0.00039999998989515007,-0.00019999999494757503,0.04899999871850014,0.0039999999856897995,-0.0009999999964224499,-0.02600000053230619
0.0051810527220368385,-0.00868616346269846,9.872509956359863,0.00039999998989515007,-0.00019999999494757503,0.04899999871850014,0.015999999942759198,-0.0030000000934877653,-0.012000000373951061
-0.0006799532566219568,-0.0011779472697526217,9.889154434204102,0.00029999998514540493,-0.00029999998514540493,0.06859999895095825,0.041000001416626686,-0.0030000000934877653,0.0039999999856897995
0.013196839019656181,-0.009749189019203186,9.886195182800293,0.00029999998514540493,-0.00039999998989515007,0.06859999895095825,-0.0269999995907449,0.013000000266153095,-0.0039999999856897995
-0.0016759412828832865,0.013532028533518314,9.874253273010254,0.00039999998989515007,-0.00029999998514540493,0.058799996972084045,0.010999999647985701,0.02600000053230619,0.029999998433587676
0.008025364018976688,-0.014547170139849186,9.882278442382812,0.00039999998989515007,-0.00029999998514540493,0.058799996972084045,0.004999999877891834,-0.031999999885518396,0.004999999877891834
0.011501745320856571,-0.008513781242072582,9.885639190673828,0.00029999998514540493,-0.00029999998514540493,0.06859999895095825,-0.004999999877891834,-0.021000000237532696,-0.006000000186975531
0.009375694207847118,0.013369223102927208,9.892803192138672,0.00029999998514540493,-0.00029999998514540493,0.06859999895095825,0.0039999999856897995,0,-0.007000000079177565
0.007996633648872375,0.00005746084207203239,9.879587173461914,0.00029999998514540493,-0.00029999998514540493,0.058799996972084045,-0.021000000237532696,0.029999998433587676,-0.014999999216793838
0.005966350436210632,0.003696647472679615,9.880831718444824,0.00039999998989515007,-0.00029999998514540493,0.058799996972084045,0.004999999877891834,0.04600000004387353,0.02899999937514897
-0.02693955786526203,-0.0055449712090194225,9.900349617004395,-0.009099999442696571,-0.00029999998514540493,0.07840000092983246,0.0039999999856897995,0.009999999755783667,-0.006000000186975531
0.003706224262714386,-0.013254300691187382,9.889144897460938,0.0005999999702908099,-0.00029999998514540493,0.06859999895095825,0.0030000000934877653,0.019999999511567335,-0.006000000186975531
0.001417367486283183,-0.010678139515221119,9.88633918762207,0.0005999999702908099,-0.00029999998514540493,0.06859999895095825,0.004999999877891834,-0.0039999999856897995,-0.0039999999856897995
-0.006607996299862862,0.006119579542428255,9.881349563598633,0.0005999999702908099,-0.00029999998514540493,0.058799996972084045,-0.03599999945432653,-0.048000001495804245,-0.0039999999856897995
-0.0009481038432568312,-0.008427590131759644,9.874137878417969,0.0004999999655410647,-0.00019999999494757503,0.058799996972084045,0.014999999216793838,0.02800000031671026,-0.0019999999928448997
-0.002844311762601137,0.006110002286732197,9.888388633728027,0.0004999999655410647,-0.00019999999494757503,0.06859999895095825,-0.019999999511567335,0.014999999216793838,-0.03100000082707969
0.005410895682871342,0.0063494229689240456,9.8710355758667,0.0005999999702908099,-0.00019999999494757503,0.04899999871850014,0.004999999877891834,-0.0009999999964224499,-0.006000000186975531
0.008303090929985046,0.0071730283088982105,9.894182205200195,0.0005999999702908099,-0.00019999999494757503,0.07840000092983246,0.006000000186975531,-0.0019999999928448997,-0.0030000000934877653
0.01947922445833683,-0.006148310378193855,9.872088432312012,0.010199999436736107,-0.00019999999494757503,0.04899999871850014,-0.019999999511567335,-0.0039999999856897995,-0.007999999971379599
0.008475474081933498,-0.005679046735167503,9.884777069091797,0.00039999998989515007,-0.00009999999747378752,0.06859999895095825,-0.03699999851276524,-0.0039999999856897995,-0.007999999971379599
0.005679046735167503,-0.010773907415568829,9.883705139160156,0.00039999998989515007,0,0.06859999895095825,0.029999998433587676,-0.007000000079177565,0.0009999999964224499
-0.020810401067137718,-0.02142331749200821,9.883810997009277,-0.009200000204145908,-0.009800000116229057,0.06859999895095825,0.004999999877891834,-0.015999999942759198,-0.0030000000934877653
0.009433154948055744,-0.0010438719764351845,9.875420570373535,0.00039999998989515007,0,0.058799996972084045,0.006000000186975531,-0.0039999999856897995,-0.006000000186975531
-0.013953407295048237,-0.012976572848856449,9.899592399597168,0.00039999998989515007,0,0.07840000092983246,-0.007999999971379599,0.006000000186975531,0.017999999727163266
0.003983951639384031,-0.016079457476735115,9.881013870239258,0.00039999998989515007,0,0.058799996972084045,-0.0329999989439571,0.021000000237532696,-0.07900000232288394
0.003983951639384031,-0.016079457476735115,9.881013870239258,0.0004999999655410647,0,0.058799996972084045,-0.006000000186975531,-0.0030000000934877653,0.01700000066872456
0.0035051112063229084,-0.016108188778162003,9.886741638183594,0.00039999998989515007,0,0.06859999895095825,-0.021999999295971403,0.04200000047506539,-0.04200000047506539
-0.01024718303233385,0.005018246825784445,9.876110076904297,0.0004999999655410647,0.00009999999747378752,0.058799996972084045,-0.0039999999856897995,-0.0019999999928448997,0.0030000000934877653
-0.0034955344162881374,-0.0068186866119503975,9.878983497619629,0.0004999999655410647,0.00009999999747378752,0.058799996972084045,-0.013000000266153095,-0.004999999877891834,-0.006000000186975531
-0.00006703764665871859,0.004865017719566822,9.869607925415039,0.0004999999655410647,0.00009999999747378752,0.04899999871850014,0.004999999877891834,-0.01700000066872456,0.03599999945432653
0.004156333860009909,-0.01188481692224741,9.879271507263184,0.00039999998989515007,0.00009999999747378752,0.058799996972084045,0.004999999877891834,-0.07099999651516105,0.0269999995907449
-0.008475474081933498,0.0027389666065573692,9.881665229797363,0.00029999998514540493,0.00009999999747378752,0.058799996972084045,0.004999999877891834,0.035000000395887826,-0.006000000186975531
0.0020398597698658705,0.02147120051085949,9.886109352111816,0.00029999998514540493,0.009800000116229057,0.06859999895095825,-0.007000000079177565,0.010999999647985701,0.024999999806340833
-0.0008619126165285707,0.01349372137337923,9.879606246948242,0.00039999998989515007,0,0.058799996972084045,-0.010999999647985701,0.007999999971379599,-0.004999999877891834
0.011760318651795387,0.015753846615552902,9.884634017944336,0.00039999998989515007,0,0.06859999895095825,0.024000000747902123,0.004999999877891834,-0.031999999885518396
0.0030837319791316986,-0.0018674773164093494,9.8851318359375,0.00039999998989515007,0,0.06859999895095825,0.01700000066872456,-0.0030000000934877653,0.0019999999928448997
-0.005813121795654297,-0.000028730421036016196,9.884394645690918,0.00039999998989515007,0,0.06859999895095825,0.007999999971379599,0.035000000395887826,-0.0009999999964224499
0.0052002063021063805,-0.007508216425776482,9.886377334594727,0.0004999999655410647,0,0.06859999895095825,0.0039999999856897995,0,-0.008999999863581633
-0.0035913025494664907,0.007345410995185375,9.885773658752441,0.0004999999655410647,0,0.06859999895095825,0.004999999877891834,0.02800000031671026,-0.0019999999928448997
-0.004577713552862406,-0.0010726023465394974,9.887660026550293,0.0004999999655410647,0,0.06859999895095825,0.004999999877891834,-0.02600000053230619,-0.008999999863581633
-0.014480131678283215,0.009921572171151638,9.89223861694336,0.0004999999655410647,-0.00009999999747378752,0.06859999895095825,0.004999999877891834,-0.0039999999856897995,-0.006000000186975531
-0.007958326488733292,-0.0027293898165225983,9.882843017578125,0.00039999998989515007,-0.00009999999747378752,0.058799996972084045,0.004999999877891834,-0.015999999942759198,0.03599999945432653
0.0009002198348753154,-0.015006856061518192,9.890427589416504,0.00039999998989515007,-0.00009999999747378752,0.06859999895095825,-0.0009999999964224499,-0.0039999999856897995,0.0030000000934877653
-0.004271255806088448,-0.014039598405361176,9.882201194763184,0.00039999998989515007,-0.00009999999747378752,0.058799996972084045,-0.041000001416626686,-0.01400000015835513,-0.006000000186975531
-0.0028155811596661806,0.002317587146535516,9.8794527053833,0.00029999998514540493,0,0.058799996972084045,0,0,-0.0030000000934877653
0.006751649081707001,0.011903970502316952,9.893023490905762,0.00029999998514540493,0,0.07840000092983246,0.024000000747902123,0,0.0039999999856897995
-0.007967903278768063,-0.00894473772495985,9.887650489807129,0.00029999998514540493,0,0.06859999895095825,0.012000000373951061,-0.0039999999856897995,0.01400000015835513
-0.0031316159293055534,0.005975927226245403,9.882939338684082,0.00029999998514540493,-0.00009999999747378752,0.058799996972084045,0.017999999727163266,-0.007999999971379599,-0.0039999999856897995
-0.0021930888760834932,-0.005784391425549984,9.885496139526367,0.00029999998514540493,-0.00009999999747378752,0.06859999895095825,-0.004999999877891834,-0.046999999102312236,-0.006000000186975531
0.004635174293071032,-0.009988609701395035,9.88077449798584,0.00019999999494757503,-0.00009999999747378752,0.058799996972084045,-0.0030000000934877653,-0.02600000053230619,-0.014999999216793838
-0.012526463717222214,0.0034476504661142826,9.875258445739746,0.00009999999747378752,-0.00009999999747378752,0.058799996972084045,0.023000000021936765,-0.0039999999856897995,-0.006000000186975531
0.011568782851099968,0.0027964275795966387,9.884777069091797,0.00009999999747378752,-0.00009999999747378752,0.06859999895095825,0.004999999877891834,0,0.010999999647985701
0.0015131353866308928,0.0018004396697506309,9.87668514251709,0.00009999999747378752,-0.00019999999494757503,0.06859999895095825,0.006000000186975531,-0.03100000082707969,0.007000000079177565
-0.0029496564529836178,-0.009662997908890247,9.8965482711792,0,-0.00029999998514540493,0.07840000092983246,-0.013000000266153095,0.021999999295971403,-0.02800000031671026
-0.006627150345593691,-0.003064578166231513,9.884586334228516,0,-0.00029999998514540493,0.07840000092983246,-0.007999999971379599,0.007999999971379599,-0.004999999877891834
0.0017908628797158599,-0.005679046735167503,9.878658294677734,0,-0.00019999999494757503,0.058799996972084045,0.007999999971379599,0.038000000906257256,0.057000003026912535
0.006100425496697426,0.006454767659306526,9.886578559875488,0,-0.00019999999494757503,0.06859999895095825,0.023000000021936765,0.0009999999964224499,-0.006000000186975531
0.008868123404681683,0.005008670035749674,9.89304256439209,0,-0.00029999998514540493,0.07840000092983246,-0.015999999942759198,-0.03699999851276524,0.006000000186975531
-0.0027006594464182854,0.005018246825784445,9.87292194366455,0,-0.00029999998514540493,0.04899999871850014,-0.03100000082707969,-0.0039999999856897995,-0.006000000186975531
0.0026240451261401176,0.008906430564820766,9.880075454711914,0,-0.00019999999494757503,0.058799996972084045,-0.04500000098543482,-0.007999999971379599,-0.03100000082707969
-0.0036296097096055746,-0.0055449712090194225,9.874540328979492,0,0,0.058799996972084045,-0.004999999877891834,-0.0039999999856897995,0.029999998433587676
0.01808101125061512,-0.005822698585689068,9.8888578414917,0,0,0.06859999895095825,0.006000000186975531,0.02800000031671026,0.0329999989439571
-0.013618219643831253,-0.004539406392723322,9.887076377868652,0,0,0.06859999895095825,-0.0030000000934877653,0.01400000015835513,0.010999999647985701
0.006971915252506733,-0.0184832364320755,9.877241134643555,0,0,0.058799996972084045,0.015999999942759198,-0.02899999937514897,0.01700000066872456
0.0003447650233283639,0.0027676972094923258,9.896575927734375,0,-0.00009999999747378752,0.07840000092983246,0,0.01700000066872456,0.008999999863581633
0.013972560875117779,-0.009308655746281147,9.872126579284668,0,-0.00009999999747378752,0.04899999871850014,0.029999998433587676,-0.023000000021936765,-0.0269999995907449
-0.005793968215584755,0.00549708679318428,9.888397216796875,0,-0.00019999999494757503,0.06859999895095825,0.017999999727163266,-0.006000000186975531,-0.006000000186975531
0.016577452421188354,-0.0225150715559721,9.893473625183105,0,-0.00989999994635582,0.07840000092983246,-0.019999999511567335,0.010999999647985701,0.0030000000934877653
-0.004932055249810219,-0.003667917102575302,9.883427619934082,0,0,0.06859999895095825,0.0039999999856897995,-0.02899999937514897,-0.006000000186975531
0.002298433566465974,-0.028998570516705513,9.891069412231445,-0.00009999999747378752,-0.019500000402331352,0.06859999895095825,0.06299999737754478,-0.014999999216793838,-0.006000000186975531
0.009069235995411873,0.011817779392004013,9.892668724060059,-0.00009999999747378752,0,0.06859999895095825,0.0659999978879142,-0.05099999867112037,0.017999999727163266
0.0036008793395012617,-0.001618480309844017,9.877307891845703,-0.00019999999494757503,-0.00019999999494757503,0.058799996972084045,-0.010999999647985701,0.01400000015835513,-0.024999999806340833
0.0015227121766656637,0.009165003895759583,9.874195098876953,-0.00019999999494757503,-0.00019999999494757503,0.058799996972084045,0.0039999999856897995,0.019999999511567335,0.029999998433587676
0.001120486413128674,-0.00784340500831604,9.893914222717285,-0.00009999999747378752,-0.00019999999494757503,0.07840000092983246,0.02899999937514897,-0.015999999942759198,0.0269999995907449
0.005420472472906113,-0.007383718155324459,9.884136199951172,-0.00019999999494757503,-0.00019999999494757503,0.06859999895095825,0.004999999877891834,-0.0039999999856897995,0
0.014393940567970276,0.002394201699644327,9.879098892211914,-0.00019999999494757503,-0.00029999998514540493,0.058799996972084045,0.008999999863581633,0.015999999942759198,-0.017999999727163266
0.008379706181585789,0.00009576806769473478,9.881416320800781,-0.00009999999747378752,-0.00029999998514540493,0.058799996972084045,0.02899999937514897,-0.0039999999856897995,-0.004999999877891834
0.012018891982734203,-0.011300632730126381,9.880563735961914,-0.00009999999747378752,-0.00029999998514540493,0.058799996972084045,-0.019999999511567335,-0.01400000015835513,0.010999999647985701
-0.0020398597698658705,0.00032561144325882196,9.877959251403809,-0.00019999999494757503,-0.00029999998514540493,0.058799996972084045,0.023000000021936765,0.013000000266153095,-0.031999999885518396
0.014221558347344398,0.0008427590364590287,9.87325668334961,-0.00019999999494757503,-0.0004999999655410647,0.04899999871850014,-0.029999998433587676,-0.0019999999928448997,0
-0.01339795347303152,-0.002901772502809763,9.889460563659668,-0.00019999999494757503,-0.00039999998989515007,0.06859999895095825,-0.03400000133744912,-0.023000000021936765,0.012000000373951061
0.002834734972566366,-0.006483498029410839,9.884797096252441,-0.00029999998514540493,-0.00029999998514540493,0.06859999895095825,0.0039999999856897995,0.021000000237532696,-0.012000000373951061
-0.00419464148581028,0.0039169141091406345,9.867319107055664,-0.00029999998514540493,-0.00029999998514540493,0.06859999895095825,0.0039999999856897995,-0.0039999999856897995,-0.004999999877891834
-0.00032561144325882196,0.008887276984751225,9.890782356262207,-0.00019999999494757503,-0.00029999998514540493,0.06859999895095825,0.014999999216793838,0.010999999647985701,-0.008999999863581633
0.012018891982734203,-0.0015035585965961218,9.891117095947266,-0.00019999999494757503,-0.00039999998989515007,0.06859999895095825,0.004999999877891834,-0.03999999902313467,-0.006000000186975531
0.0017429788131266832,-0.019603723660111427,9.888474464416504,-0.00029999998514540493,-0.010099999606609344,0.06859999895095825,0,-0.0039999999856897995,-0.031999999885518396
-0.0016855180729180574,-0.0018100164597854018,9.878705978393555,-0.00029999998514540493,-0.00029999998514540493,0.058799996972084045,-0.010999999647985701,-0.017999999727163266,0.0039999999856897995
0.01928768865764141,-0.011319786310195923,9.877412796020508,0.00930000003427267,-0.00019999999494757503,0.058799996972084045,0.004999999877891834,-0.007000000079177565,0.010999999647985701
-0.0014077905798330903,0.0029592332430183887,9.87636947631836,-0.0004999999655410647,-0.00019999999494757503,0.058799996972084045,0.0039999999856897995,-0.0039999999856897995,-0.0039999999856897995
-0.0004309563082642853,-0.00839885976165533,9.877767562866211,-0.0004999999655410647,-0.00029999998514540493,0.058799996972084045,0.0039999999856897995,0.08299999855663877,0.014999999216793838
0.0071826050989329815,-0.005439626052975655,9.880793571472168,-0.00019999999494757503,-0.00029999998514540493,0.058799996972084045,0.03999999902313467,0,-0.004999999877891834
0.002834734972566366,-0.0030071171931922436,9.880419731140137,-0.00019999999494757503,-0.00039999998989515007,0.058799996972084045,0.004999999877891834,-0.006000000186975531,-0.006000000186975531
-0.0029783868230879307,-0.0014844050165265799,9.873103141784668,-0.00019999999494757503,-0.00039999998989515007,0.04899999871850014,0.023000000021936765,-0.029999998433587676,0
0.013474567793309689,-0.019393034279346466,9.888359069824219,-0.00029999998514540493,-0.010099999606609344,0.06859999895095825,0.004999999877891834,-0.015999999942759198,-0.02899999937514897
-0.010333375073969364,-0.002308010356500745,9.894766807556152,-0.00039999998989515007,-0.00029999998514540493,0.07840000092983246,0.024000000747902123,0.013000000266153095,-0.0030000000934877653
-0.010333375073969364,-0.002308010356500745,9.894766807556152,-0.00039999998989515007,-0.00029999998514540493,0.07840000092983246,0.024000000747902123,0.013000000266153095,-0.0030000000934877653
0.00014365209790412337,-0.012545617297291756,9.897534370422363,-0.00039999998989515007,-0.00039999998989515007,0.07840000092983246,-0.01400000015835513,0.004999999877891834,0
0.004893748089671135,-0.0012258312199264765,9.887334823608398,-0.00039999998989515007,-0.00039999998989515007,0.06859999895095825,-0.013000000266153095,-0.004999999877891834,-0.0039999999856897995
0.002135627903044224,-0.014575900509953499,9.9024658203125,-0.00039999998989515007,-0.00039999998989515007,0.08819999545812607,-0.019000000453128628,-0.014999999216793838,0
-0.010266336612403393,0.004759673029184341,9.875967025756836,-0.00039999998989515007,-0.00029999998514540493,0.058799996972084045,0.015999999942759198,0.0039999999856897995,0.01400000015835513
-0.010266336612403393,0.004759673029184341,9.875967025756836,-0.00039999998989515007,-0.00029999998514540493,0.058799996972084045,0.015999999942759198,0.0039999999856897995,0.01400000015835513
0.00703895278275013,0.004232948645949364,9.88001823425293,-0.00039999998989515007,-0.00039999998989515007,0.058799996972084045,0.012000000373951061,-0.046999999102312236,-0.006000000186975531
-0.006483498029410839,0.0012449849164113402,9.886061668395996,-0.0004999999655410647,-0.00039999998989515007,0.06859999895095825,0.0039999999856897995,-0.0019999999928448997,-0.004999999877891834
-0.004635174293071032,-0.017554286867380142,9.872049331665039,-0.0004999999655410647,-0.00039999998989515007,0.04899999871850014,-0.02899999937514897,-0.004999999877891834,0.01700000066872456
-0.0037732617929577827,-0.007019799202680588,9.877269744873047,-0.0004999999655410647,-0.00029999998514540493,0.058799996972084045,0.004999999877891834,-0.03999999902313467,-0.004999999877891834
-0.001618480309844017,-0.010477026924490929,9.882230758666992,-0.0005999999702908099,-0.00029999998514540493,0.058799996972084045,0,0.0030000000934877653,0.0030000000934877653
-0.0010630255565047264,-0.00036391866160556674,9.874204635620117,-0.0005999999702908099,-0.00029999998514540493,0.058799996972084045,0.004999999877891834,0,0.046999999102312236
0.0008331821882165968,-0.0008427590364590287,9.872605323791504,-0.0005999999702908099,-0.00029999998514540493,0.04899999871850014,-0.038000000906257256,0.03100000082707969,0.004999999877891834
-0.0015705963596701622,0.011367670260369778,9.88354206085205,-0.0004999999655410647,-0.00019999999494757503,0.06859999895095825,-0.004999999877891834,-0.007000000079177565,-0.0039999999856897995
-0.008877700194716454,-0.007144297938793898,9.89615535736084,-0.0004999999655410647,-0.00019999999494757503,0.07840000092983246,-0.004999999877891834,-0.0039999999856897995,-0.024999999806340833
0.008149862289428711,-0.005851428955793381,9.899909019470215,-0.0004999999655410647,-0.00019999999494757503,0.07840000092983246,-0.017999999727163266,-0.048000001495804245,-0.006000000186975531
-0.007469909265637398,0.005784391425549984,9.880037307739258,-0.0005999999702908099,-0.00009999999747378752,0.058799996972084045,0.0039999999856897995,-0.017999999727163266,-0.024000000747902123
0.011549629271030426,-0.0029496564529836178,9.885113716125488,-0.000699999975040555,-0.00009999999747378752,0.06859999895095825,0.004999999877891834,-0.0030000000934877653,0.023000000021936765
0.0018100164597854018,0.001149216783232987,9.891481399536133,-0.000699999975040555,-0.00009999999747378752,0.06859999895095825,0.0039999999856897995,0.021000000237532696,-0.0269999995907449
0.007000645622611046,-0.015868768095970154,9.8846435546875,-0.0005999999702908099,-0.00009999999747378752,0.06859999895095825,0.0019999999928448997,-0.006000000186975531,0.0030000000934877653
-0.005305550992488861,0.01238281186670065,9.882335662841797,-0.0005999999702908099,-0.00009999999747378752,0.058799996972084045,-0.021999999295971403,0.038000000906257256,-0.0039999999856897995
-0.009548076428472996,-0.0027964275795966387,9.880008697509766,-0.0004999999655410647,-0.00009999999747378752,0.058799996972084045,0.0030000000934877653,-0.019000000453128628,0.013000000266153095
0.010764330625534058,0.006675034295767546,9.870967864990234,-0.0005999999702908099,-0.00009999999747378752,0.058799996972084045,-0.004999999877891834,-0.0030000000934877653,-0.024000000747902123
0.007929596118628979,-0.01024718303233385,9.871485710144043,-0.0005999999702908099,-0.00009999999747378752,0.04899999871850014,0,0.06200000165415938,0.004999999877891834
-0.004185064695775509,-0.008293514139950275,9.876120567321777,-0.00039999998989515007,-0.00009999999747378752,0.058799996972084045,0.0039999999856897995,-0.0030000000934877653,-0.0329999989439571
-0.00416591065004468,0.0043670241720974445,9.875957489013672,-0.00039999998989515007,-0.00009999999747378752,0.058799996972084045,-0.004999999877891834,-0.0030000000934877653,0.0539999991814898
-0.008341399021446705,-0.0043766009621322155,9.892860412597656,-0.00039999998989515007,-0.00009999999747378752,0.07840000092983246,-0.007000000079177565,0.0030000000934877653,0.04600000004387353
-0.009126696735620499,0.001101332833059132,9.88967227935791,-0.00039999998989515007,0,0.06859999895095825,0.0019999999928448997,-0.009999999755783667,-0.009999999755783667
0.0034668040461838245,0.014604630880057812,9.891021728515625,-0.00039999998989515007,-0.00009999999747378752,0.06859999895095825,0.03999999902313467,-0.0039999999856897995,0.06099999926066736
-0.003878606716170907,0.0026719290763139725,9.8806791305542,-0.00039999998989515007,-0.00019999999494757503,0.058799996972084045,0.0329999989439571,-0.0039999999856897995,0.02899999937514897
0.0053917421028018,0.0025570073630660772,9.887458801269531,-0.00039999998989515007,-0.00019999999494757503,0.06859999895095825,0.023000000021936765,-0.0039999999856897995,-0.03899999996469596
0.00584185216575861,0.016357185319066048,9.897773742675781,-0.00039999998989515007,-0.00029999998514540493,0.07840000092983246,-0.0019999999928448997,0.014999999216793838,-0.01700000066872456
0.01653914526104927,0.0043670241720974445,9.899707794189453,-0.00039999998989515007,-0.00029999998514540493,0.07840000092983246,0.0039999999856897995,-0.007999999971379599,0.007000000079177565
0.006177040748298168,0.00014365209790412337,9.900503158569336,-0.00039999998989515007,-0.00029999998514540493,0.07840000092983246,0.004999999877891834,0.03899999996469596,0.017999999727163266
0.008772355504333973,0.00594719685614109,9.895216941833496,-0.00029999998514540493,-0.00029999998514540493,0.07840000092983246,0,-0.014999999216793838,0.029999998433587676
0.0005937620298936963,0.0011875240597873926,9.880401611328125,-0.00029999998514540493,-0.00029999998514540493,0.058799996972084045,0.031999999885518396,0.024000000747902123,-0.006000000186975531
-0.0020398597698658705,0.0008427590364590287,9.873457908630371,-0.00029999998514540493,-0.00039999998989515007,0.04899999871850014,-0.004999999877891834,0.0030000000934877653,0.0009999999964224499
0.003390189725905657,-0.004979939665645361,9.874866485595703,-0.00019999999494757503,-0.00039999998989515007,0.058799996972084045,0.008999999863581633,0.013000000266153095,0.01400000015835513
0.0063781533390283585,0.012018891982734203,9.893961906433105,-0.00019999999494757503,-0.00039999998989515007,0.07840000092983246,0.043999998591942806,-0.006000000186975531,0.02899999937514897
0.0012162544298917055,-0.004568136762827635,9.885025978088379,-0.00019999999494757503,-0.0004999999655410647,0.06859999895095825,0.012000000373951061,-0.02899999937514897,0.021999999295971403
0.013215992599725723,-0.0051044379360973835,9.894651412963867,-0.00029999998514540493,-0.0004999999655410647,0.07840000092983246,0.0039999999856897995,-0.0030000000934877653,-0.014999999216793838
-0.0030741551890969276,0.011166556738317013,9.88628101348877,-0.00029999998514540493,-0.0004999999655410647,0.06859999895095825,-0.02899999937514897,-0.006000000186975531,0.010999999647985701
0.00407014274969697,-0.005420472472906113,9.880162239074707,-0.00029999998514540493,-0.0004999999655410647,0.058799996972084045,0.006000000186975531,-0.02600000053230619,-0.008999999863581633
-0.012823344208300114,-0.0036104561295360327,9.894354820251465,-0.00039999998989515007,-0.0004999999655410647,0.07840000092983246,0.008999999863581633,0.04500000098543482,0.06099999926066736
0.019182344898581505,-0.006033387966454029,9.883858680725098,0.009399999864399433,-0.0004999999655410647,0.06859999895095825,0.008999999863581633,0.0039999999856897995,0.029999998433587676
-0.0013982137897983193,-0.015284583903849125,9.897745132446289,-0.00029999998514540493,-0.0004999999655410647,0.07840000092983246,-0.004999999877891834,-0.0039999999856897995,-0.008999999863581633
0.0028251581825315952,0.004903324879705906,9.896537780761719,-0.00039999998989515007,-0.0004999999655410647,0.07840000092983246,-0.008999999863581633,-0.008999999863581633,0.029999998433587676
-0.001628057099878788,-0.0026910826563835144,9.886606216430664,-0.00039999998989515007,-0.0004999999655410647,0.07840000092983246,0.014999999216793838,0.013000000266153095,0.013000000266153095
-0.0036391867324709892,0.006464344449341297,9.884575843811035,-0.00039999998989515007,-0.00039999998989515007,0.06859999895095825,0.004999999877891834,0.041000001416626686,-0.006000000186975531
-0.0036391867324709892,0.006464344449341297,9.884575843811035,-0.00029999998514540493,-0.0004999999655410647,0.06859999895095825,0.004999999877891834,0.041000001416626686,-0.006000000186975531
0.0007852981798350811,-0.006119579542428255,9.88704776763916,-0.00009999999747378752,-0.0004999999655410647,0.06859999895095825,0.02899999937514897,0.0329999989439571,-0.01700000066872456
-0.003227383829653263,-0.008216899819672108,9.885802268981934,0,-0.0004999999655410647,0.06859999895095825,0.006000000186975531,0.004999999877891834,-0.006000000186975531
-0.0019728222396224737,-0.009337387047708035,9.889030456542969,0,-0.0004999999655410647,0.06859999895095825,0.004999999877891834,0.019999999511567335,-0.006000000186975531
-0.002087743952870369,0.010093954391777515,9.874041557312012,0,-0.0004999999655410647,0.058799996972084045,-0.0019999999928448997,0.021000000237532696,0
0.012018891982734203,-0.020982785150408745,9.881837844848633,0,-0.010199999436736107,0.058799996972084045,0.007999999971379599,0,0.019000000453128628
0.0025570073630660772,-0.008312667720019817,9.88508415222168,0,-0.00039999998989515007,0.06859999895095825,0.0039999999856897995,-0.0039999999856897995,0.043999998591942806
-0.002116474322974682,-0.006244078278541565,9.876542091369629,0,-0.00039999998989515007,0.058799996972084045,0.0039999999856897995,-0.035000000395887826,0.017999999727163266
0.0020494365599006414,-0.011032480746507645,9.883925437927246,0,-0.00039999998989515007,0.06859999895095825,-0.01400000015835513,-0.0039999999856897995,-0.006000000186975531
0.00031603462412022054,0.00494163203984499,9.887478828430176,0,-0.00039999998989515007,0.06859999895095825,0.0030000000934877653,-0.004999999877891834,-0.0269999995907449
-0.0008619126165285707,-0.01964203082025051,9.885889053344727,0,-0.010099999606609344,0.06859999895095825,0.004999999877891834,-0.03100000082707969,-0.006000000186975531
-0.0012928689830005169,-0.0031028855592012405,9.886223793029785,-0.00009999999747378752,-0.00029999998514540493,0.06859999895095825,-0.02899999937514897,0.004999999877891834,-0.02800000031671026
-0.01138682384043932,-0.010189722292125225,9.882383346557617,-0.00009999999747378752,-0.00019999999494757503,0.058799996972084045,0.008999999863581633,0.01700000066872456,-0.014999999216793838
0.010113107971847057,-0.005142745096236467,9.890466690063477,-0.00009999999747378752,-0.00019999999494757503,0.06859999895095825,0,0.0030000000934877653,0.043999998591942806
0.004960786085575819,-0.004587290342897177,9.887755393981934,-0.00009999999747378752,-0.00019999999494757503,0.06859999895095825,0.004999999877891834,-0.019999999511567335,-0.024000000747902123
0.014642938040196896,-0.007757213432341814,9.872519493103027,-0.00009999999747378752,-0.00019999999494757503,0.04899999871850014,-0.013000000266153095,0.0030000000934877653,0.019000000453128628
0.005037400405853987,-0.004137180279940367,9.883695602416992,-0.00009999999747378752,-0.00019999999494757503,0.06859999895095825,-0.01700000066872456,-0.02800000031671026,0.05900000114378995
-0.0015610195696353912,0.019469648599624634,9.878878593444824,-0.00019999999494757503,0.009399999864399433,0.058799996972084045,0.014999999216793838,-0.007000000079177565,-0.031999999885518396
0.011329363100230694,0.011300632730126381,9.88241195678711,-0.00019999999494757503,-0.00029999998514540493,0.058799996972084045,0.0039999999856897995,-0.04200000047506539,-0.06899999839828364
-0.008571241982281208,0.005133168306201696,9.880784034729004,-0.00029999998514540493,-0.00029999998514540493,0.058799996972084045,0.004999999877891834,-0.0039999999856897995,0.0030000000934877653
-0.0006799532566219568,0.005133168306201696,9.887104034423828,-0.00029999998514540493,-0.00029999998514540493,0.06859999895095825,-0.013000000266153095,-0.0039999999856897995,-0.008999999863581633
0.014633361250162125,-0.003964798059314489,9.884892463684082,-0.00029999998514540493,-0.00029999998514540493,0.06859999895095825,-0.006000000186975531,-0.012000000373951061,-0.006000000186975531
-0.01649126037955284,-0.016903065145015717,9.884873390197754,-0.00029999998514540493,-0.00029999998514540493,0.06859999895095825,-0.021999999295971403,-0.04600000004387353,-0.006000000186975531
-0.005133168306201696,0.007345410995185375,9.886022567749023,-0.0004999999655410647,-0.00019999999494757503,0.06859999895095825,-0.004999999877891834,0.007999999971379599,0.03599999945432653
-0.004960786085575819,0.004893748089671135,9.875296592712402,-0.00039999998989515007,-0.00019999999494757503,0.058799996972084045,0.0030000000934877653,-0.021999999295971403,-0.007000000079177565
-0.001446097856387496,0.004759673029184341,9.892505645751953,-0.0004999999655410647,-0.00019999999494757503,0.058799996972084045,-0.019000000453128628,-0.0039999999856897995,0.02899999937514897
-0.012660538777709007,-0.00814028549939394,9.880401611328125,-0.0004999999655410647,-0.00019999999494757503,0.058799996972084045,0.004999999877891834,0.014999999216793838,-0.006000000186975531
-0.002240972826257348,-0.009730035439133644,9.888130187988281,-0.0004999999655410647,-0.00019999999494757503,0.06859999895095825,-0.0009999999964224499,-0.0039999999856897995,0.021000000237532696
-0.002911349292844534,0.009730035439133644,9.893242835998535,-0.0004999999655410647,-0.00019999999494757503,0.07840000092983246,-0.004999999877891834,-0.0039999999856897995,0.046999999102312236
-0.004232948645949364,-0.0027293898165225983,9.884451866149902,-0.0004999999655410647,-0.00019999999494757503,0.06859999895095825,0.024000000747902123,-0.0039999999856897995,0.0019999999928448997
0.011415554210543633,-0.01684560440480709,9.882402420043945,-0.0004999999655410647,-0.00019999999494757503,0.058799996972084045,0.02899999937514897,-0.0039999999856897995,0.0039999999856897995
0.0029879636131227016,0.0071921818889677525,9.877547264099121,-0.0004999999655410647,-0.00029999998514540493,0.058799996972084045,0.004999999877891834,-0.004999999877891834,0.06399999977103679
-0.002863465342670679,-0.004501099232584238,9.877010345458984,-0.0004999999655410647,-0.00029999998514540493,0.058799996972084045,-0.021000000237532696,-0.021999999295971403,-0.004999999877891834
-0.0055353944189846516,-0.006483498029410839,9.876139640808105,-0.0005999999702908099,-0.00029999998514540493,0.058799996972084045,0.0009999999964224499,-0.01400000015835513,-0.023000000021936765
0.010352528654038906,-0.005343858152627945,9.885773658752441,-0.0005999999702908099,-0.00029999998514540493,0.06859999895095825,0.014999999216793838,0.004999999877891834,-0.007000000079177565
0.008791509084403515,-0.0027772739995270967,9.88476848602295,-0.0005999999702908099,-0.00029999998514540493,0.06859999895095825,0.004999999877891834,0.017999999727163266,-0.006000000186975531
-0.0004692635266110301,0.000028730421036016196,9.895082473754883,-0.0004999999655410647,-0.00029999998514540493,0.07840000092983246,-0.004999999877891834,-0.0039999999856897995,-0.007000000079177565
0.010438719764351845,-0.001924938173033297,9.884892463684082,-0.0004999999655410647,-0.00029999998514540493,0.06859999895095825,0.006000000186975531,-0.02899999937514897,0.03599999945432653
-0.008408436551690102,0.006952761672437191,9.877163887023926,-0.0005999999702908099,-0.00029999998514540493,0.058799996972084045,0.004999999877891834,-0.0039999999856897995,0.013000000266153095
0.005612008739262819,-0.0169413723051548,9.885993957519531,-0.0005999999702908099,-0.00029999998514540493,0.06859999895095825,0.006000000186975531,0,0.015999999942759198
-0.01199016161262989,-0.01602199673652649,9.877528190612793,-0.0005999999702908099,-0.00029999998514540493,0.058799996972084045,-0.0329999989439571,0.008999999863581633,-0.014999999216793838
0.016261417418718338,-0.000641646038275212,9.87863826751709,-0.0005999999702908099,-0.00019999999494757503,0.058799996972084045,-0.0009999999964224499,0.009999999755783667,-0.0269999995907449
-0.008082824759185314,0.0028155811596661806,9.883533477783203,-0.0004999999655410647,-0.00019999999494757503,0.06859999895095825,0,0.007000000079177565,-0.007999999971379599
0.0034955344162881374,-0.0031507695093750954,9.876675605773926,-0.0004999999655410647,-0.00019999999494757503,0.058799996972084045,-0.007000000079177565,-0.0009999999964224499,-0.03599999945432653
0.003064578166231513,-0.018962077796459198,9.886434555053711,-0.0004999999655410647,-0.00019999999494757503,0.06859999895095825,-0.006000000186975531,-0.019000000453128628,0.019999999511567335
-0.0013982137897983193,-0.0005363011732697487,9.888636589050293,-0.0004999999655410647,-0.00019999999494757503,0.06859999895095825,0.012000000373951061,-0.008999999863581633,0.046999999102312236
-0.00407014274969697,-0.006177040748298168,9.886588096618652,-0.0005999999702908099,-0.00019999999494757503,0.06859999895095825,-0.06099999926066736,0.029999998433587676,0.014999999216793838
0.009615113958716393,0.008561665192246437,9.877423286437988,-0.0004999999655410647,0,0.058799996972084045,0.0019999999928448997,0.02899999937514897,-0.006000000186975531
0.015447389334440231,0.01068771630525589,9.86938762664795,-0.00039999998989515007,0,0.04899999871850014,0.0009999999964224499,0.04900000055424296,-0.008999999863581633
0.003361459355801344,0.0018195933662354946,9.877873420715332,-0.00029999998514540493,0,0.058799996972084045,-0.007999999971379599,0.0030000000934877653,-0.007999999971379599
-0.000976834329776466,0.0075369467958807945,9.877777099609375,-0.00019999999494757503,0,0.058799996972084045,-0.0009999999964224499,-0.0030000000934877653,0
-0.003256114199757576,-0.0026336219161748886,9.892037391662598,-0.00019999999494757503,0,0.058799996972084045,-0.0329999989439571,0.0009999999964224499,0.0009999999964224499
0.0117890490218997,0.014125789515674114,9.88508415222168,-0.00019999999494757503,0,0.06859999895095825,-0.0329999989439571,0.0009999999964224499,0.0009999999964224499
-0.010007763281464577,-0.0010917560430243611,9.888388633728027,-0.00019999999494757503,0,0.06859999895095825,-0.010999999647985701,0.019999999511567335,-0.03400000133744912
-0.005975927226245403,0.003342305775731802,9.886290550231934,-0.00019999999494757503,0,0.06859999895095825,0.0019999999928448997,-0.0009999999964224499,-0.0269999995907449
0.0030454243533313274,0.012152967043220997,9.8794527053833,-0.00019999999494757503,0,0.058799996972084045,0.0019999999928448997,0.02600000053230619,0.013000000266153095
-0.0046543278731405735,0.010544064454734325,9.888331413269043,-0.00009999999747378752,0,0.06859999895095825,0.006000000186975531,0.019999999511567335,0.007000000079177565
-0.0003447650233283639,0.0019823990296572447,9.879146575927734,0,0,0.058799996972084045,-0.008999999863581633,0,0.0009999999964224499
0.014259865507483482,0.001455674646422267,9.885333061218262,0,0,0.06859999895095825,0.0019999999928448997,-0.0019999999928448997,0.03400000133744912
0.006148310378193855,0.0035529951564967632,9.875191688537598,0,0,0.058799996972084045,-0.023000000021936765,0.01700000066872456,-0.03400000133744912
0.006339846178889275,0.00959596037864685,9.869071960449219,0,0.00009999999747378752,0.04899999871850014,0.03899999996469596,-0.0269999995907449,-0.007999999971379599
-0.0120859295129776,-0.005439626052975655,9.877010345458984,-0.00009999999747378752,0,0.058799996972084045,-0.035000000395887826,0.017999999727163266,0.01700000066872456
0.012966996058821678,-0.0003064578049816191,9.864627838134766,0,0,0.04899999871850014,0.0019999999928448997,0,-0.007999999971379599
-0.002298433566465974,0.00978749617934227,9.8799409866333,0,0,0.058799996972084045,0.024999999806340833,0.035000000395887826,-0.007999999971379599
0.0006033388199284673,0.006406883709132671,9.8806791305542,0,0,0.058799996972084045,-0.021999999295971403,-0.06700000028140622,-0.0009999999964224499
0.004836287349462509,0.013838485814630985,9.877891540527344,-0.00009999999747378752,0,0.058799996972084045,-0.013000000266153095,0.024000000747902123,-0.013000000266153095
0.012574347667396069,0.004817133769392967,9.89113712310791,0,0.00009999999747378752,0.06859999895095825,0.03699999851276524,-0.0329999989439571,0.008999999863581633
0.0006512228865176439,-0.013704410754144192,9.970662117004395,-0.00009999999747378752,0,0.15689998865127563,0.04500000098543482,-0.0039999999856897995,-0.008999999863581633
-0.006052541546523571,-0.01698925532400608,9.917875289916992,-0.00009999999747378752,-0.00009999999747378752,0.09799999743700027,0.0019999999928448997,0.0030000000934877653,-0.007000000079177565
0.00739329494535923,-0.007019799202680588,9.910577774047852,-0.00009999999747378752,-0.00009999999747378752,0.08819999545812607,0.0019999999928448997,0.024999999806340833,-0.0039999999856897995
0.0029783868230879307,-0.009749189019203186,9.909514427185059,-0.00009999999747378752,-0.00009999999747378752,0.08819999545812607,0.0030000000934877653,0,0.02600000053230619
-0.01378102507442236,0.0026815058663487434,9.887420654296875,-0.00009999999747378752,-0.00009999999747378752,0.06859999895095825,-0.021999999295971403,0.0030000000934877653,0.03999999902313467
0.010572794824838638,-0.006138733588159084,9.866581916809082,-0.00009999999747378752,0,0.04899999871850014,-0.0019999999928448997,-0.0039999999856897995,0.012000000373951061
0.006138733588159084,0.00914585031569004,9.87331485748291,-0.00009999999747378752,0,0.04899999871850014,0.0269999995907449,-0.0030000000934877653,0
-0.00364876352250576,-0.012919112108647823,9.874300956726074,-0.00009999999747378752,-0.00009999999747378752,0.058799996972084045,0.038000000906257256,0.0039999999856897995,-0.007999999971379599
0.000967257481534034,0.004932055249810219,9.869607925415039,-0.00009999999747378752,-0.00019999999494757503,0.04899999871850014,-0.0329999989439571,-0.009999999755783667,0.019000000453128628
0.003284844569861889,0.011520898900926113,9.870699882507324,-0.00009999999747378752,-0.00009999999747378752,0.04899999871850014,-0.017999999727163266,0.008999999863581633,0.010999999647985701
-0.0003734954516403377,-0.005228936672210693,9.867539405822754,-0.00009999999747378752,0,0.04899999871850014,0.02800000031671026,-0.0039999999856897995,0.019999999511567335
0.005209783092141151,-0.0031507695093750954,9.885927200317383,-0.00009999999747378752,-0.00009999999747378752,0.058799996972084045,0.004999999877891834,0,-0.007999999971379599
0.0051140147261321545,-0.007498639635741711,9.872376441955566,0,0,0.06859999895095825,0.0009999999964224499,-0.01400000015835513,0.0009999999964224499
-0.005861005745828152,0.008159439079463482,9.86410140991211,0,0,0.04899999871850014,0.0019999999928448997,-0.017999999727163266,-0.0329999989439571
0.0018483237363398075,0.0124977333471179,9.885889053344727,-0.00009999999747378752,0,0.06859999895095825,-0.0329999989439571,-0.0329999989439571,0.0329999989439571
0.008437166921794415,-0.003878606716170907,9.894230842590332,-0.00019999999494757503,0,0.07840000092983246,0,-0.024999999806340833,-0.007999999971379599
-0.007690175902098417,-0.009212887845933437,9.89172077178955,-0.00019999999494757503,0,0.06859999895095825,0.012000000373951061,-0.004999999877891834,0.038000000906257256
0.012306197546422482,0.001637633889913559,9.884432792663574,-0.00019999999494757503,0,0.06859999895095825,0.0019999999928448997,0.035000000395887826,-0.007999999971379599
-0.0010726023465394974,0.0012258312199264765,9.89789867401123,-0.00009999999747378752,0,0.07840000092983246,-0.035000000395887826,0,-0.007999999971379599
0.0003447650233283639,-0.009461885318160057,9.900732040405273,-0.00009999999747378752,0.00009999999747378752,0.07840000092983246,-0.02899999937514897,0.01700000066872456,0.0009999999964224499
-0.004261679016053677,-0.004912901669740677,9.888570785522461,-0.00009999999747378752,0.00009999999747378752,0.06859999895095825,-0.007000000079177565,0.057000003026912535,-0.0039999999856897995
-0.0027964275795966387,-0.015677232295274734,9.883551597595215,0,0.00019999999494757503,0.06859999895095825,-0.0009999999964224499,-0.024999999806340833,-0.007999999971379599
-0.014537593349814415,-0.013273454271256924,9.890398979187012,0,0.00019999999494757503,0.06859999895095825,0.019999999511567335,0.008999999863581633,-0.007999999971379599
-0.008609549142420292,-0.006617573089897633,9.885860443115234,0,0.00009999999747378752,0.06859999895095825,0.0009999999964224499,0.035000000395887826,0.0019999999928448997
0.0005075707449577749,0.00416591065004468,9.868803977966309,0,0.00009999999747378752,0.04899999871850014,0.0019999999928448997,0.017999999727163266,-0.024999999806340833
-0.0009002198348753154,0.001953668659552932,9.877193450927734,0.00009999999747378752,0.00009999999747378752,0.058799996972084045,0.009999999755783667,0.06099999926066736,0.02600000053230619
0.01739148050546646,-0.008657433092594147,9.878323554992676,0.00019999999494757503,0.00009999999747378752,0.058799996972084045,-0.015999999942759198,-0.024999999806340833,-0.023000000021936765
0.006272808648645878,0.005726930685341358,9.8866548538208,0.00019999999494757503,0.00009999999747378752,0.06859999895095825,-0.012000000373951061,0.02600000053230619,-0.007999999971379599
0.013359645381569862,0.003955221269279718,9.880084991455078,0.00019999999494757503,0.00009999999747378752,0.058799996972084045,0.004999999877891834,0.024999999806340833,-0.024000000747902123
-0.00016280572162941098,0.005803545005619526,9.892218589782715,0.00029999998514540493,0.00009999999747378752,0.06859999895095825,0.0030000000934877653,-0.0269999995907449,-0.0269999995907449
0.007010222412645817,0.004999093245714903,9.891386032104492,0.00019999999494757503,0.00009999999747378752,0.06859999895095825,-0.029999998433587676,0.031999999885518396,-0.019000000453128628
0.008063671179115772,-0.0013503297232091427,9.885581970214844,0.00029999998514540493,0.00019999999494757503,0.06859999895095825,0.0009999999964224499,0.0039999999856897995,0.03400000133744912
0.005209783092141151,0.0015801731497049332,9.878122329711914,0.00029999998514540493,0.00019999999494757503,0.058799996972084045,-0.0030000000934877653,0,-0.007000000079177565
0.0020590133499354124,-0.006119579542428255,9.88481616973877,0.00029999998514540493,0.00019999999494757503,0.06859999895095825,-0.0019999999928448997,0.019000000453128628,0.04900000055424296
-0.019019538536667824,0.008619125932455063,9.871590614318848,0.00029999998514540493,0.00019999999494757503,0.04899999871850014,-0.0009999999964224499,0.02800000031671026,-0.02600000053230619
0.005966350436210632,-0.005698200315237045,9.887775421142578,0.00039999998989515007,0.00019999999494757503,0.06859999895095825,0.0039999999856897995,0.006000000186975531,-0.007999999971379599
0.012047622352838516,-0.007364564575254917,9.887908935546875,0.00039999998989515007,0.00019999999494757503,0.06859999895095825,-0.012000000373951061,-0.0269999995907449,0.023000000021936765
-0.00703895278275013,-0.006684611551463604,9.891194343566895,0.00039999998989515007,0.00019999999494757503,0.06859999895095825,-0.021999999295971403,0.006000000186975531,-0.007999999971379599
0.0009289502631872892,-0.00442448491230607,9.884998321533203,0.00039999998989515007,0.00029999998514540493,0.04899999871850014,-0.041000001416626686,0.02600000053230619,-0.0039999999856897995
0.004788403399288654,0.0035146879963576794,9.876656532287598,0.0004999999655410647,0.00039999998989515007,0.058799996972084045,0.023000000021936765,0,-0.024999999806340833
0.00833182130008936,0.0006129156099632382,9.879415512084961,0.0004999999655410647,0.00029999998514540493,0.058799996972084045,-0.0329999989439571,0,-0.008999999863581633
0.010936712846159935,-0.008829816244542599,9.882766723632812,0.0004999999655410647,0.00039999998989515007,0.058799996972084045,0.010999999647985701,0.004999999877891834,0.0039999999856897995
0.002442085649818182,-0.008657433092594147,9.882057189941406,0.0004999999655410647,0.00039999998989515007,0.058799996972084045,0.0019999999928448997,0.008999999863581633,-0.029999998433587676
-0.005870582535862923,-0.015294160693883896,9.8729887008667,0.0004999999655410647,0.00029999998514540493,0.04899999871850014,-0.0329999989439571,-0.0039999999856897995,-0.007999999971379599
0.02423889748752117,-0.0012066776398569345,9.892075538635254,0.010199999436736107,0.00039999998989515007,0.06859999895095825,-0.014999999216793838,-0.0030000000934877653,-0.007999999971379599
-0.004462792072445154,-0.003897760296240449,9.883581161499023,0.00039999998989515007,0.0004999999655410647,0.06859999895095825,0.0269999995907449,-0.0429999995335041,-0.007999999971379599
-0.003830722765997052,0.009653421118855476,9.883072853088379,0.00029999998514540493,0.00039999998989515007,0.058799996972084045,0.0019999999928448997,0,-0.007999999971379599
0.002892195712774992,0.0034476504661142826,9.870479583740234,0.00029999998514540493,0.00039999998989515007,0.04899999871850014,0.010999999647985701,-0.009999999755783667,-0.007999999971379599
0.010429142974317074,0.00969172827899456,9.885323524475098,0.00019999999494757503,0.00029999998514540493,0.06859999895095825,0.0039999999856897995,-0.019000000453128628,0.004999999877891834
0.016050728037953377,-0.006550535559654236,9.874520301818848,0.00019999999494757503,0.00029999998514540493,0.058799996972084045,-0.013000000266153095,0.0009999999964224499,0.04200000047506539
-0.0010630255565047264,-0.013120224699378014,9.884471893310547,0.00019999999494757503,0.00039999998989515007,0.06859999895095825,0.007999999971379599,0.01700000066872456,-0.006000000186975531
-0.003715801052749157,0.001455674646422267,9.88349437713623,0.00019999999494757503,0.00029999998514540493,0.06859999895095825,-0.014999999216793838,-0.03599999945432653,-0.03400000133744912
0.00584185216575861,0.0051044379360973835,9.87918472290039,0.00009999999747378752,0.00039999998989515007,0.058799996972084045,0.0269999995907449,-0.014999999216793838,-0.015999999942759198
0.004434061702340841,-0.008887276984751225,9.882431983947754,0.00009999999747378752,0.00029999998514540493,0.058799996972084045,0.0019999999928448997,0.02600000053230619,-0.007999999971379599
-0.0018291701562702656,-0.017171215265989304,9.88158893585205,0.00009999999747378752,0.00029999998514540493,0.058799996972084045,0.006000000186975531,0,-0.029999998433587676
-0.001446097856387496,0.01938345655798912,9.890122413635254,0.00009999999747378752,0.009999999776482582,0.06859999895095825,0.0019999999928448997,0,-0.019000000453128628
0.011501745320856571,0.005506663583219051,9.883886337280273,0.00009999999747378752,0.00009999999747378752,0.06859999895095825,0.0019999999928448997,0.019999999511567335,-0.035000000395887826
0.0006991068948991597,-0.007805097382515669,9.893177032470703,0.00019999999494757503,0.00009999999747378752,0.07840000092983246,0.02600000053230619,0.04200000047506539,-0.019999999511567335
-0.0004309563082642853,0.002930502872914076,9.883944511413574,0.00029999998514540493,0.00009999999747378752,0.06859999895095825,-0.041000001416626686,-0.007999999971379599,-0.007999999971379599
0.0013407529331743717,-0.0006703764665871859,9.888522148132324,0.00029999998514540493,0.00019999999494757503,0.06859999895095825,0.043999998591942806,-0.0009999999964224499,-0.007999999971379599
-0.003351882565766573,-0.0018100164597854018,9.886165618896484,0.00029999998514540493,0,0.06859999895095825,0.021999999295971403,0.01400000015835513,-0.04500000098543482
0.01258392445743084,-0.00562158552929759,9.891021728515625,0.00029999998514540493,0,0.06859999895095825,-0.008999999863581633,-0.007999999971379599,-0.015999999942759198
0.0004501099174376577,-0.009931148961186409,9.887104034423828,0.00029999998514540493,0,0.04899999871850014,-0.007999999971379599,0.008999999863581633,-0.035000000395887826
-0.01138682384043932,-0.008312667720019817,9.899200439453125,0.00029999998514540493,0,0.07840000092983246,0.0009999999964224499,0.05999999686717535,0.023000000021936765
0.010007763281464577,0.012746729888021946,9.87891674041748,0.00039999998989515007,0,0.058799996972084045,-0.021999999295971403,0.0019999999928448997,-0.021999999295971403
0.002126051113009453,0.005861005745828152,9.8871431350708,0.00039999998989515007,0,0.06859999895095825,-0.0009999999964224499,0.0269999995907449,0.03999999902313467
0.004769249819219112,-0.007671022322028875,9.882967948913574,0.0004999999655410647,0,0.058799996972084045,-0.06399999977103679,0,0.0009999999964224499
-0.004865017719566822,0.0028251581825315952,9.880831718444824,0.0004999999655410647,0.00009999999747378752,0.058799996972084045,-0.008999999863581633,0.0039999999856897995,-0.008999999863581633
0.009873687289655209,-0.013723564334213734,9.883886337280273,0.0004999999655410647,0.00009999999747378752,0.06859999895095825,0.0019999999928448997,0.01400000015835513,0.017999999727163266
0.0009385270532220602,0.0014844050165265799,9.891433715820312,0.0004999999655410647,0.00009999999747378752,0.06859999895095825,-0.05999999686717535,0,-0.015999999942759198
0.0008523358264937997,-0.006770802661776543,9.88100528717041,0.0004999999655410647,0.00029999998514540493,0.058799996972084045,0.06899999839828364,0.035000000395887826,0.008999999863581633
0.002317587146535516,0.00684741698205471,9.873132705688477,0.0005999999702908099,0.00009999999747378752,0.04899999871850014,0.0030000000934877653,0,-0.019000000453128628
0.003217807039618492,-0.00584185216575861,9.893990516662598,0.0005999999702908099,0.00009999999747378752,0.07840000092983246,0.0019999999928448997,0.0019999999928448997,0
-0.004232948645949364,0.0053917421028018,9.873927116394043,0.0005999999702908099,0.00009999999747378752,0.058799996972084045,0.0269999995907449,0.0429999995335041,-0.007999999971379599
0.0005458780215121806,-0.0018962076865136623,9.890610694885254,0.000699999975040555,0,0.06859999895095825,0.014999999216793838,0.007999999971379599,-0.019000000453128628
-0.00442448491230607,0.0013886369997635484,9.881511688232422,0.000699999975040555,0,0.058799996972084045,-0.0039999999856897995,0.024000000747902123,-0.021999999295971403
0.0051044379360973835,-0.014374786987900734,9.884987831115723,0.0007999999797903001,0,0.06859999895095825,0.0019999999928448997,0,-0.0019999999928448997
0.005755661055445671,0.001915361382998526,9.872960090637207,0.0007999999797903001,0,0.04899999871850014,0.0039999999856897995,0.0429999995335041,-0.007999999971379599
0.007910442538559437,0.0007565676933154464,9.885371208190918,0.0008999999845400453,0,0.06859999895095825,0.0019999999928448997,-0.004999999877891834,-0.004999999877891834
-0.008475474081933498,-0.010831368155777454,9.882977485656738,0.0008999999845400453,0,0.058799996972084045,0.0269999995907449,-0.017999999727163266,-0.007999999971379599
