Accelerometer_Gx,Accelerometer_Gy,Accelerometer_Gz,Accelerometer_X,Accelerometer_Y,Accelerometer_Z,Gyroscope_Z,Gyroscope_X,Gyroscope_Y
-0.049301404505968094,0.13385502994060516,9.94749641418457,-0.0031999999191612005,-0.003499999875202775,0.1282999962568283,1.3419999437140424,0.5699999902484857,0.46000000710884187
-0.048899173736572266,0.13487973809242249,9.95486068725586,-0.000699999975040555,0.0024999999441206455,0.13809999823570251,-2.6909999775537017,2.4950000153573693,1.361000035881137
-0.042530596256256104,0.13029244542121887,9.948338508605957,0.012199999764561653,-0.00039999998989515007,0.1281999945640564,1.9980000197409222,-1.213999957512182,-0.24800000661663751
-0.05803544819355011,0.14124831557273865,9.945150375366211,-0.010900000110268593,0.0037999998312443495,0.1282999962568283,1.508000007528386,-1.7039999697247181,-1.0880000427983718
-0.052164867520332336,0.13307930529117584,9.952198028564453,-0.005499999970197678,-0.00930000003427267,0.13809999823570251,-0.2609999910412874,0.23699998695833197,0.11200000126684104
-0.05725972726941109,0.11708603799343109,9.93785285949707,-0.0044999998062849045,-0.017099998891353607,0.1184999942779541,0.05099999867112037,0.0009999999964224499,-0.26600000967885407
-0.06500735878944397,0.12519758939743042,9.962492942810059,-0.00419999985024333,-0.015699999406933784,0.1282999962568283,-0.5699999902484857,0.25400000763737635,0.007999999971379599
-0.05609135702252388,0.12216175347566605,9.934749603271484,-0.012799999676644802,-0.0032999999821186066,0.14790000021457672,-0.4109999898793324,-0.33300000329015367,0.0269999995907449
-0.055765748023986816,0.1273619532585144,9.949861526489258,-0.0031999999191612005,-0.0016999999061226845,0.1281999945640564,0.2069999951948509,0.4109999898793324,-0.09200000008774706
-0.054511185735464096,0.13523408770561218,9.934873580932617,-0.0016999999061226845,0.008100000210106373,0.11840000003576279,0.3089999992071983,-0.2549999900205486,-0.3819999938392367
-0.055909398943185806,0.1240483745932579,9.940524101257324,-0.0016999999061226845,0.008100000210106373,0.11840000003576279,-0.3759999928184979,0.16699999283666295,0.09099999769425504
-0.06829220801591873,0.11755530536174774,9.951709747314453,-0.020800000056624413,-0.010099999606609344,0.1379999965429306,0.3529999977991411,0.31099999065396905,0.2899999870813831
-0.05253836140036583,0.12450806796550751,9.94592571258545,0,-0.0005999999702908099,0.1281999945640564,0.8080000129508427,0.031999999885518396,-0.0539999991814898
-0.05250963196158409,0.12891338765621185,9.959677696228027,0.00029999998514540493,-0.002300000051036477,0.13809999823570251,-0.33300000329015367,-0.36099999026665075,-0.15900000036915327
-0.05022077634930611,0.1395532190799713,9.95833683013916,-0.00029999998514540493,0.008599999360740185,0.1379999965429306,-0.7420000017227153,-0.4429999864297975,-0.2780000117203318
-0.05197333171963692,0.14424586296081543,9.936980247497559,-0.001500000013038516,0.02070000022649765,0.11840000003576279,-0.05300000012305109,-0.325000010822644,-0.1830000044521087
-0.047596730291843414,0.14173674583435059,9.946375846862793,0.007499999832361937,0.010900000110268593,0.1281999945640564,0.11299999699022645,-0.0539999991814898,0.041000001416626686
-0.05616797134280205,0.14354676008224487,9.949105262756348,-0.001999999862164259,0.008999999612569809,0.1281999945640564,-0.010999999647985701,0.41300000800652964,0.23900000508552924
-0.04488649219274521,0.12135729193687439,9.9502534866333,0.008700000122189522,-0.010300000198185444,0.1281999945640564,0.13799999679656727,0.19099999691961836,0.07000000079177565
-0.054894257336854935,0.13506171107292175,9.944345474243164,-0.0004999999655410647,0.008999999612569809,0.1281999945640564,0.08200000283325337,-0.59999999535218,-0.09200000008774706
-0.051743488758802414,0.13394121825695038,9.950531959533691,-0.0023999998811632395,-0.0008999999845400453,0.1379999965429306,-0.4930000127229056,-0.8149999963547537,-0.10600000024610218
-0.062000248581171036,0.12899959087371826,9.950235366821289,-0.014099999330937862,0.00029999998514540493,0.1281999945640564,-0.3220000103122746,-0.9539999488540668,-0.4240000009844087
-0.049732357263565063,0.1324663907289505,9.940600395202637,-0.0066999997943639755,0.0013000000035390258,0.11840000003576279,0.09000000197086964,-0.24200000559589865,-0.06899999839828364
-0.05612008646130562,0.1233588457107544,9.950675964355469,-0.007199999876320362,-0.008599999360740185,0.1379999965429306,0.37200000992495624,0.8889999733699644,0.33300000329015367
-0.04686889424920082,0.12615527212619781,9.945255279541016,0.004999999888241291,0.00019999999494757503,0.1281999945640564,-0.4390000035362559,-0.3119999997175677,-0.18600000496247812
-0.044369347393512726,0.1367568075656891,9.932029724121094,0.003999999724328518,0.011399999260902405,0.11840000003576279,-0.43799999447265725,-0.88700000860362,-0.4870000117021667
-0.053400274366140366,0.13073298335075378,9.942784309387207,-0.007699999958276749,0.002699999837204814,0.1281999945640564,0.9310000338759893,0.5870000109275301,0.32899999371618566
-0.03855622559785843,0.1528266817331314,9.947956085205078,0.003599999938160181,0.019600000232458115,0.1281999945640564,-0.9229999613672003,-0.5399999851447914,-0.23499999551156117
-0.059347473084926605,0.12595416605472565,9.935094833374023,-0.01719999872148037,0.0024999999441206455,0.11840000003576279,0.8900000091139895,0.6009999777353522,-0.13600000534979648
-0.048496946692466736,0.1403002142906189,9.93674087524414,-0.00559999980032444,0.00969999935477972,0.11840000003576279,-0.885999972859595,-0.46000000710884187,0.07300000130214508
-0.053754616528749466,0.13201628625392914,9.952351570129395,-0.016599999740719795,-0.0071000000461936,0.1281999945640564,-0.969999987149939,-1.1630000021967546,-0.4240000009844087
-0.0625748559832573,0.11895351111888885,9.947400093078613,-0.004600000102072954,0.0015999999595806003,0.1379999965429306,0.8059999948236455,1.1599999483255323,0.545000003782358
-0.04326801374554634,0.13440090417861938,9.939614295959473,0.00559999980032444,0.011799999512732029,0.11840000003576279,0.24399999704266945,-0.06200000165415938,-0.3459999877148036
-0.06524679064750671,0.14739663898944855,9.945782661437988,-0.013899999670684338,0.020800000056624413,0.1281999945640564,-1.5099999722947304,-1.0919999723310605,-0.46900000863995017
-0.05334281548857689,0.12785036861896515,9.948175430297852,-0.013899999670684338,0.020800000056624413,0.1281999945640564,0.9719999519162833,1.038999945527583,0.656000022666027
-0.05822698771953583,0.13415192067623138,9.949075698852539,-0.014399999752640724,0.012999999336898327,0.1281999945640564,1.0369999807612387,1.5029999888908194,0.3980000054546825
-0.056646812707185745,0.12383769452571869,9.943282127380371,-0.00029999998514540493,-0.009399999864399433,0.1281999945640564,0.7500000208706514,0.5919999762042438,-0.0749999994190225
-0.049847278743982315,0.11834059655666351,9.938206672668457,0.00139999995008111,-0.011500000022351742,0.11840000003576279,-0.14300000209392072,-0.43999998591942807,-0.6480000035180908
-0.049157749861478806,0.13645035028457642,9.956977844238281,0.00029999998514540493,0.00839999970048666,0.1379999965429306,-0.838000018054537,-1.5620000167150356,-0.7759999897199512
-0.059395354241132736,0.12685438990592957,9.933045387268066,-0.0139999995008111,0.0011999999405816197,0.11840000003576279,-1.3949999705175198,-1.5730000363733412,-0.7919999746549705
-0.04542279615998268,0.14106635749340057,9.958940505981445,0.0017999999690800905,0.0142000000923872,0.1378999948501587,-1.5690000001189468,-1.2650000195493152,-0.7909999922717983
-0.05221274867653847,0.1281951367855072,9.939910888671875,-0.01119999960064888,0.008599999360740185,0.11829999834299088,-1.4270000471092643,-1.0269999434861052,-0.8519999848623591
-0.0460931695997715,0.1363832950592041,9.950675964355469,-0.003999999724328518,0.022199999541044235,0.13779999315738678,-0.09200000008774706,-0.5200000173162305,-0.5939999943314411
-0.057240575551986694,0.10920432955026627,9.935036659240723,-0.015099999494850636,-0.00699999975040555,0.11819999665021896,1.7070000235959404,0.8630000045206646,0.0030000000934877653
-0.05517198517918587,0.12328223139047623,9.940132141113281,-0.012299999594688416,-0.0024999999441206455,0.11829999834299088,2.339999971201331,1.7440000121035457,0.4969999956164472
-0.05192544683814049,0.13303141295909882,9.936453819274902,-0.007899999618530273,0.0015999999595806003,0.11840000003576279,0.3459999877148036,0.5339999841240525,0.7440000198499125
-0.04332547262310982,0.12138602137565613,9.936051368713379,0.0032999999821186066,-0.009099999442696571,0.11840000003576279,-2.523999931356186,-2.2229998979360706,-0.851000002479187
-0.05827486887574196,0.13351984322071075,9.937555313110352,-0.02199999988079071,0.007499999832361937,0.11829999834299088,0.42599999243117953,0.2259999939804529,-0.7390000012123459
-0.0533236600458622,0.13942871987819672,9.943655967712402,-0.011399999260902405,0.016099998727440834,0.12809999287128448,1.1579999835591879,1.6389999408797629,1.1010000272230216
-0.04720408096909523,0.12623189389705658,9.928304672241211,0.003399999812245369,0.0026000000070780516,0.10859999805688858,-3.100000029347116,-2.0409999025475605,-1.0139999590614552
-0.04646666720509529,0.1371781826019287,9.953855514526367,-0.0011999999405816197,0.01979999989271164,0.1378999948501587,2.644999934154135,1.7629999975489345,0.2740000021463637
-0.0665779560804367,0.1251497119665146,9.945656776428223,-0.01589999906718731,0.0026000000070780516,0.1281999945640564,-2.065999889013688,-1.4830000210622585,-0.41499999945330046
-0.0566372349858284,0.13564589619636536,9.949363708496094,-0.00989999994635582,0.017899999395012856,0.12809999287128448,2.091000088923227,1.4869999505949472,0.23399998644796255
-0.0489279069006443,0.1272183060646057,9.953529357910156,-0.005699999630451202,0.002300000051036477,0.1379999965429306,-3.3829999529833086,-1.961000031233317,-0.7560000218913903
-0.042501870542764664,0.13729310035705566,9.946730613708496,-0.021399999037384987,0.012600000016391277,0.11819999665021896,3.2070000653372435,2.5809999944140576,0.8900000091139895
-0.06358999758958817,0.13392207026481628,9.951336860656738,0.004399999976158142,0.014599999412894249,0.12809999287128448,-1.6460000310053797,-0.6819999915153268,0.11599999750059588
-0.041314344853162766,0.12809936702251434,9.923171043395996,-0.0007999999797903001,0.013399999588727951,0.10839999467134476,2.285000086353215,2.373000030176248,0.9839999539577611
-0.04672523960471153,0.13126929104328156,9.939126014709473,0.005699999630451202,0.00699999975040555,0.11829999834299088,1.9799999099569998,0.9440000183006392,-0.36199999933024934
-0.05850471183657646,0.12508267164230347,9.944643020629883,0.005699999630451202,0.00699999975040555,0.11829999834299088,-2.9979999052728497,-1.7500000131242845,-1.1970000435548434
-0.04898536577820778,0.12506352365016937,9.92966365814209,-0.0050999997183680534,0.007899999618530273,0.10849999636411667,-3.587999970071602,-3.1600000395545047,-1.0100000295287666
-0.0466773584485054,0.14021404087543488,9.935946464538574,-0.0037999998312443495,0.027400000020861626,0.11819999665021896,-2.35699988515867,-1.6009999699889854,-0.15900000036915327
-0.05359181389212608,0.13112564384937286,9.93931770324707,-0.017899999395012856,0.023799998685717583,0.11809999495744705,-2.338999988818159,0.20599999947146552,0.4999999961268166
-0.057288460433483124,0.1370057910680771,9.944795608520508,-0.01719999872148037,0.039799999445676804,0.12789998948574066,-0.9070000297930338,-0.15800000464576788,0.5189999815722054
-0.059443242847919464,0.1315470188856125,9.942717552185059,-0.027300000190734863,0.03240000084042549,0.12780000269412994,-1.4909999868493415,-1.3649999654138256,0.5540000053134664
-0.060247693210840225,0.14014698565006256,9.934768676757812,-0.030299998819828033,0.045399997383356094,0.11800000071525574,-0.48199999306460006,-1.9590000664669724,0.16599999711327754
-0.06854120641946793,0.13479354977607727,9.92406177520752,-0.04519999772310257,0.046299997717142105,0.10819999873638153,-3.105999923646149,-2.6549999714292682,-0.4139999903897018
-0.057240575551986694,0.13637372851371765,9.952792167663574,-0.032499998807907104,0.0543999969959259,0.13750000298023224,-1.988999964848961,-2.5170000546739804,-0.9399999820462447
-0.04966532066464424,0.14606545865535736,9.91940689086914,-0.039000000804662704,0.06909999996423721,0.09829999506473541,2.0350000082485273,-0.7500000208706514,-0.5290000188473387
-0.05481764301657677,0.13350068032741547,9.948904037475586,-0.04089999943971634,0.04259999841451645,0.12770000100135803,4.326999971283948,1.9269999898752281,0.5879999933107023
-0.05528690665960312,0.13070425391197205,9.931981086730957,-0.03579999879002571,0.031700000166893005,0.11800000071525574,-0.4240000009844087,-0.24099999653230003,0.4300000020051476
-0.05199248343706131,0.1339891105890274,9.931530952453613,-0.03610000014305115,0.03229999914765358,0.11800000071525574,-2.498999944890058,-2.4389999346826694,-1.0129999766782831
-0.054798487573862076,0.13560758531093597,9.92810344696045,-0.04230000078678131,0.048499997705221176,0.10809999704360962,2.806000086052618,2.8499999512424283,0.4999999961268166
-0.05233725160360336,0.12823344767093658,9.934174537658691,-0.03399999812245369,0.030499998480081558,0.11800000071525574,-1.9909999296153054,-0.8129999782275565,0.2050000037480801
-0.05038357898592949,0.13804009556770325,9.945093154907227,-0.03610000014305115,0.045899998396635056,0.12780000269412994,1.3229999582686536,0.021999999295971403,-0.4139999903897018
-0.030550014227628708,0.14341269433498383,9.908853530883789,-0.01599999889731407,0.0421999990940094,0.08859999477863312,-0.9140000131969449,0.7299999996812375,0.20599999947146552
-0.05052723363041878,0.12206597626209259,9.920355796813965,-0.03319999948143959,0.02459999918937683,0.09839999675750732,1.3769999674553033,-0.33600000380052314,-0.32899999371618566
-0.04895663633942604,0.15528792142868042,9.945504188537598,-0.03370000049471855,0.05959999933838844,0.12780000269412994,-2.621999912454352,-0.585999975183505,0.057000003026912535
-0.06372407078742981,0.11556332558393478,9.941118240356445,-0.04470000043511391,0.026999998837709427,0.12780000269412994,4.099999914879043,1.472999983787125,0.5270000007201415
-0.039944861084222794,0.12312900274991989,9.926619529724121,-0.029999999329447746,0.03359999880194664,0.11809999495744705,-2.5920000140723634,-1.3730000379226146,-1.0940000438191106
-0.058610059320926666,0.12657664716243744,9.939221382141113,-0.042899999767541885,0.031300000846385956,0.11800000071525574,2.773000027077701,1.8150000419692398,0.830999981289773
-0.06288131326436996,0.12793655693531036,9.936473846435547,-0.042899999767541885,0.031300000846385956,0.11800000071525574,1.2160000290002322,0.5330000017408804,-0.3130000087811663
-0.050038814544677734,0.12180740386247635,9.922807693481445,-0.02589999884366989,0.009800000116229057,0.10830000042915344,-1.0600000024610219,-0.7889999741446011,-0.8359999999273398
-0.0676601380109787,0.1393042355775833,9.946097373962402,-0.04749999940395355,0.03240000084042549,0.12789998948574066,-1.834999903076095,-1.8170000067355843,-0.7249999810436709
-0.07350198924541473,0.14369040727615356,9.932164192199707,-0.05139999836683273,0.04619999974966049,0.11809999495744705,-2.5440000059064523,-1.952999958724528,-0.7429999841058874
-0.04589205980300903,0.12613612413406372,9.928707122802734,-0.026899999007582664,0.03319999948143959,0.10819999873638153,-1.2720000029532261,-1.6110000072641188,-0.13000000432905762
-0.057355497032403946,0.15091131627559662,9.934107780456543,-0.040699999779462814,0.05590000003576279,0.11800000071525574,-2.108000002880566,-1.8850000894517618,-0.2259999939804529
-0.054539911448955536,0.12610739469528198,9.940993309020996,-0.045399997383356094,0.04169999808073044,0.12770000100135803,-1.7749999995904122,-2.0489999750563497,-0.6020000134793773
-0.05445372313261032,0.1244218721985817,9.923650741577148,-0.05119999870657921,0.03689999878406525,0.10809999704360962,-2.4320000580004644,-1.9580000840838003,-0.7720000068264096
-0.06494033336639404,0.1364886462688446,9.93016242980957,-0.06520000100135803,0.06189999729394913,0.10809999704360962,-1.0650000210985886,-1.7949999674189732,-0.5969999948418105
-0.0553252138197422,0.14393940567970276,9.930257797241211,-0.05979999899864197,0.07409999519586563,0.10799999535083771,1.4139999559629086,0.4669999905127529,-0.0329999989439571
-0.05748957023024559,0.1272566020488739,9.935553550720215,-0.06780000030994415,0.05009999871253967,0.11789999902248383,2.3350000592854703,1.8939999309003115,0.49600001323327503
-0.060918066650629044,0.13568420708179474,9.933733940124512,-0.06199999898672104,0.05299999937415123,0.11789999902248383,-0.3240000017590454,0.12599999475508955,-0.03699999851276524
-0.05114014819264412,0.12943054735660553,9.932891845703125,-0.05130000039935112,0.043699998408555984,0.11789999902248383,-1.9360000447671892,-1.9980000197409222,-0.7769999721031233
-0.0618470199406147,0.14241668581962585,9.919053077697754,-0.06529999524354935,0.05769999697804451,0.09829999506473541,2.596999925988224,1.0489999828027163,0.1930000017066024
-0.04670608416199684,0.1435084491968155,9.940303802490234,-0.0421999990940094,0.05009999871253967,0.11789999902248383,-0.9440000183006392,0.10199999734224074,0.2589999995945166
-0.0586579404771328,0.13445837795734406,9.924846649169922,-0.060999996960163116,0.05209999904036522,0.10809999704360962,-0.0749999994190225,-0.46000000710884187,-0.5480000042927274
-0.052931010723114014,0.125944584608078,9.92819881439209,-0.051899999380111694,0.041999999433755875,0.10809999704360962,0.34299998720443414,1.2549999822741817,0.49799997799961937
-0.05553590506315231,0.14695610105991364,9.929807662963867,-0.04749999940395355,0.060099996626377106,0.10809999704360962,-0.17799999915475526,-0.9469999654501557,-0.34299998720443414
-0.04851610213518143,0.127486452460289,9.928677558898926,-0.049300000071525574,0.04039999842643738,0.10809999704360962,0.1509999945614304,0.9980000274872889,0.44500000455699473
-0.05287355184555054,0.12090718746185303,9.93064022064209,-0.04609999805688858,0.02979999966919422,0.10809999704360962,1.0259999611029331,-0.3879999948599756,-0.15500000413539844
-0.053553506731987,0.1332804262638092,9.925995826721191,-0.04659999907016754,0.036399997770786285,0.10819999873638153,-1.8959998956666557,-1.5060000427620417,-0.2810000122307012
-0.05161898955702782,0.1233396902680397,9.93126392364502,-0.0502999983727932,0.05089999735355377,0.10809999704360962,0.9570000027252891,1.1570000011760158,0.3220000103122746
-0.06475836783647537,0.12519758939743042,9.931042671203613,-0.054499998688697815,0.035099998116493225,0.10819999873638153,-1.850000065710501,-1.1169999587971882,-0.4500000231945614
-0.0580546036362648,0.12270762771368027,9.944613456726074,-0.057099997997283936,0.029999999329447746,0.12770000100135803,-1.591000039435558,-0.7889999741446011,-0.07199999890865307
-0.05114014819264412,0.12789826095104218,9.949402809143066,-0.048899997025728226,0.043800000101327896,0.12770000100135803,0.12599999475508955,-0.19799999366374263,-0.08899999957737763
-0.044512998312711716,0.13191093504428864,9.941204071044922,-0.03920000046491623,0.04309999942779541,0.12770000100135803,0.46999999102312234,0.2770000026567332,0.4630000076192113
-0.05327577516436577,0.1272566020488739,9.926081657409668,-0.04769999906420708,0.041200000792741776,0.10809999704360962,0.4939999951060778,0.6189999807975687,0.2159999967259592
-0.05362053960561752,0.13667060434818268,9.927165031433105,-0.045899998396635056,0.04959999769926071,0.10809999704360962,0.9589999674916334,0.9450000006838114,0.3220000103122746
-0.054587800055742264,0.1308383345603943,9.934433937072754,-0.042899999767541885,0.03680000081658363,0.11800000071525574,1.3159999748647426,1.2869999521442204,0.36099999026665075
-0.06927862018346786,0.13330914080142975,9.924885749816895,-0.05849999934434891,0.03280000016093254,0.10819999873638153,0.7939999927821677,0.26500000061525547,0.36199999933024934
-0.06127241253852844,0.13904565572738647,9.918516159057617,-0.047599997371435165,0.04010000079870224,0.09839999675750732,0.09600000299160849,0.5709999726316578,0.2710000016359943
-0.051982905715703964,0.1269022673368454,9.918066024780273,-0.035599999129772186,0.02969999983906746,0.09839999675750732,-1.6280000279431632,-0.817000014481951,-0.3130000087811663
-0.07116525620222092,0.13598108291625977,9.929070472717285,-0.0568000003695488,0.04309999942779541,0.10819999873638153,-0.5189999815722054,-0.6239999994351354,-0.43600000302588643
-0.04739561676979065,0.1316523551940918,9.934021949768066,-0.028699999675154686,0.03439999744296074,0.11800000071525574,0.9709999695331112,-0.21899999723632863,-0.04200000047506539
-0.05708734691143036,0.120859295129776,9.931617736816406,-0.03869999945163727,0.02159999869763851,0.11800000071525574,0.9289999623879391,1.0689999506312773,0.149999998838045
-0.04926309734582901,0.12558066844940186,9.935314178466797,-0.03539999946951866,0.028599999845027924,0.11800000071525574,-0.3409999957576634,-0.5429999856551608,-0.14600000260429016
-0.04350743442773819,0.11605174094438553,9.931723594665527,-0.026999998837709427,0.019600000232458115,0.11800000071525574,-0.36099999026665075,-0.16899999762364695,-0.10600000024610218
-0.05893566831946373,0.14437036216259003,9.940035820007324,-0.04659999907016754,0.04959999769926071,0.11800000071525574,0.11200000126684104,0.24500000610626807,0.12299999424472013
-0.050584692507982254,0.13385502994060516,9.937718391418457,-0.03579999879002571,0.029399998486042023,0.11800000071525574,-0.15999999609253868,-0.407999989368963,-0.31099999065396905
-0.04350743442773819,0.12422076612710953,9.91348934173584,-0.026799999177455902,0.01979999989271164,0.09839999675750732,0.6330000009662436,0.934999963408678,0.03899999996469596
-0.051839254796504974,0.12839625775814056,9.933034896850586,-0.033799998462200165,0.02759999968111515,0.11800000071525574,-1.4499999620873418,-0.035000000395887826,-0.1610000051561373
-0.04863102361559868,0.1396968811750412,9.937967300415039,-0.032099999487400055,0.0414000004529953,0.11800000071525574,1.7010000225752016,-0.06899999839828364,-0.1390000058601659
-0.04863102361559868,0.1396968811750412,9.937967300415039,-0.032099999487400055,0.0414000004529953,0.11800000071525574,1.7010000225752016,-0.06899999839828364,-0.1390000058601659
-0.06805279105901718,0.1299668401479721,9.937163352966309,-0.0543999969959259,0.028999999165534973,0.11800000071525574,-0.08899999957737763,0.3559999983095105,0.08499999667351618
-0.06095637381076813,0.11708603799343109,9.929625511169434,-0.043299999088048935,0.019199999049305916,0.10819999873638153,1.6599999978132018,0.08400000095013078,0.1419999930303221
-0.050536807626485825,0.1304456740617752,9.934491157531738,-0.043299999088048935,0.019199999049305916,0.10819999873638153,1.0979999733517993,-0.07099999651516105,-0.0329999989439571
-0.05329493060708046,0.1392180323600769,9.934538841247559,-0.03280000016093254,0.03059999831020832,0.11809999495744705,-0.14699999832767557,-0.25299999857377775,-0.13100000005244303
-0.05513367801904678,0.12873142957687378,9.925201416015625,-0.03319999948143959,0.020999999716877937,0.10830000042915344,0.3119999997175677,0.38100001145606455,0.06399999977103679
-0.05329493060708046,0.12397176027297974,9.925699234008789,-0.03189999982714653,0.010199999436736107,0.10830000042915344,-0.24399999704266945,-0.517000016805861,-0.14799999405106096
-0.062479086220264435,0.1373409926891327,9.928093910217285,-0.042899999767541885,0.030299998819828033,0.10830000042915344,-0.05999999686717535,-0.2140000052791884,0.0749999994190225
-0.056627657264471054,0.1306563764810562,9.932700157165527,-0.03350000083446503,0.020499998703598976,0.11809999495744705,0.7350000183188042,-0.19499999315337319,0.13600000534979648
-0.061933208256959915,0.1406545490026474,9.925095558166504,-0.04349999874830246,0.0284000001847744,0.10830000042915344,-0.12599999475508955,0.09500000059811649,-0.09899999683187131
-0.044321462512016296,0.14427459239959717,9.94188404083252,-0.01939999870955944,0.03189999982714653,0.12799999117851257,-0.9299999447711114,-1.3730000379226146,-0.03699999851276524
-0.06262274086475372,0.13555970788002014,9.934988975524902,-0.043299999088048935,0.025699999183416367,0.11819999665021896,-1.7949999674189732,0.07799999992939192,-0.42200000953763794
-0.05268201604485512,0.1434893012046814,9.93703842163086,-0.03359999880194664,0.03139999881386757,0.11809999495744705,0.5200000173162305,-0.2039999946844815,-0.2929999875917525
-0.04257848486304283,0.11570698022842407,9.927864074707031,-0.02459999918937683,0.010799999348819256,0.10830000042915344,1.5879999855643354,0.8239999978858621,0.03599999945432653
-0.054750602692365646,0.13749422132968903,9.918880462646484,-0.032600000500679016,0.026999998837709427,0.09849999845027924,-0.16899999762364695,0.010999999647985701,0.07900000232288394
-0.05620627850294113,0.14183250069618225,9.926963806152344,-0.026099998503923416,0.022199999541044235,0.10839999467134476,0.05600000063342052,-0.09099999769425504,-0.2710000016359943
-0.053065087646245956,0.12588712573051453,9.936444282531738,-0.027499999850988388,0.013499999418854713,0.11819999665021896,-0.19999999845072666,0.02800000031671026,0.14799999405106096
-0.052691590040922165,0.13151828944683075,9.930248260498047,-0.02850000001490116,0.015099999494850636,0.10839999467134476,-0.5669999897381163,-0.019999999511567335,-0.29999999767609
-0.06062118709087372,0.1292390078306198,9.930276870727539,-0.03909999877214432,0.01769999973475933,0.10830000042915344,0,0,0.4199999914104407
-0.06130113825201988,0.12478578835725784,9.940476417541504,-0.03959999978542328,0.018299998715519905,0.11809999495744705,0.09300000248123906,-0.8279999807794036,-0.43600000302588643
-0.05317043140530586,0.1332995742559433,9.930669784545898,-0.032499998807907104,0.01860000006854534,0.10830000042915344,0.5480000042927274,-0.16400000566650674,0.2699999925723957
-0.04955997318029404,0.13278242945671082,9.937402725219727,-0.03319999948143959,0.017400000244379044,0.11809999495744705,-0.010999999647985701,0.9790000420419002,-0.5059999971475555
-0.061368178576231,0.12405795603990555,9.931580543518066,-0.04050000011920929,0.007899999618530273,0.11809999495744705,-0.7789999902303206,-0.45400000608810304,-0.21100000476881897
-0.06602250784635544,0.13772405683994293,9.920891761779785,-0.02239999920129776,0.020399998873472214,0.10830000042915344,0.9680000223835946,1.479999967191036,0.1830000044521087
-0.05681919306516647,0.12531252205371857,9.926628112792969,-0.04230000078678131,0.02879999950528145,0.09849999845027924,-0.46199997187518627,0.17899999487814064,-0.19600000221697184
-0.05707776919007301,0.11832144856452942,9.93474006652832,-0.02850000001490116,0.016499999910593033,0.10839999467134476,0.1620000008795227,1.1080000106269328,-0.27200001069959295
-0.04483860731124878,0.13169068098068237,9.932767868041992,-0.015099999494850636,0.017400000244379044,0.11819999665021896,-0.9690000047667668,0.34200000482126197,-0.3789999933288673
-0.047663770616054535,0.13578954339027405,9.923343658447266,-0.015099999494850636,0.017400000244379044,0.11819999665021896,-1.9029999857922726,0.4649999723855557,-0.16500000138989213
-0.05912720412015915,0.13436259329319,9.931034088134766,-0.03240000084042549,0.034699998795986176,0.10830000042915344,-3.078999972413677,0.283000003677472,-0.20899999998183494
-0.0643274113535881,0.12427821755409241,9.927528381347656,-0.03150000050663948,0.023399999365210533,0.10819999873638153,-3.1960000456789377,-0.4070000069857908,-0.22700000304405152
-0.04167826473712921,0.13203543424606323,9.938024520874023,-0.012899999506771564,0.04189999774098396,0.11789999902248383,-2.396000051876031,-0.2589999995945166,0.029999998433587676
-0.04630386084318161,0.14358507096767426,9.937125205993652,-0.013499999418854713,0.05810000002384186,0.11789999902248383,-2.0879999283302992,-0.024000000747902123,-0.17400000292100043
-0.055842362344264984,0.13040737807750702,9.929520606994629,-0.02329999953508377,0.05460000038146973,0.10799999535083771,0.013000000266153095,0.24099999653230003,-0.41600000851689906
-0.056551042944192886,0.14525143802165985,9.935047149658203,-0.022599998861551285,0.0738999992609024,0.11779999732971191,0.48199999306460006,1.450999944470514,0.041000001416626686
-0.049847278743982315,0.1344679445028305,9.938743591308594,-0.01850000023841858,0.0625,0.11789999902248383,0.031999999885518396,0.6579999874323713,0.09999999922536333
-0.05639781430363655,0.13697706162929535,9.936100006103516,-0.016599999740719795,0.062199998646974564,0.11789999902248383,-0.11599999750059588,-0.8339999818001425,-0.14499999354069154
-0.05202121287584305,0.13465948402881622,9.918660163879395,-0.018699999898672104,0.062199998646974564,0.09829999506473541,-1.1159999764140158,0.5909999938210717,-0.22299999347008345
-0.057192690670490265,0.15088258683681488,9.935505867004395,-0.01679999940097332,0.07509999722242355,0.11789999902248383,-1.0720000045024995,-0.3579999897562813,-0.20999999570522035
-0.04344997555017471,0.1366131454706192,9.910634994506836,-0.007799999788403511,0.06749999523162842,0.08839999884366989,-0.149999998838045,-0.6870000101528934,-0.28799999563461226
-0.05885905399918556,0.12539871037006378,9.92966365814209,-0.029099998995661736,0.05779999867081642,0.10799999535083771,0.6320000185830715,1.0530000190571107,0.031999999885518396
-0.04935886338353157,0.14135366678237915,9.928485870361328,-0.01640000008046627,0.06549999862909317,0.10799999535083771,-1.1349999618594047,-1.1329999970930602,-0.10400000212922476
-0.053543925285339355,0.1350904405117035,9.927001953125,-0.019299998879432678,0.06830000132322311,0.10799999535083771,1.0849999889271496,1.5490000322903859,-0.09500000059811649
-0.05564124509692192,0.13029244542121887,9.91904354095459,-0.014499999582767487,0.05480000004172325,0.0982000008225441,-0.9659999508955445,-1.3479999447347812,0.16400000566650674
-0.05412811413407326,0.12641385197639465,9.922538757324219,-0.01759999990463257,0.0568000003695488,0.10799999535083771,1.2720000029532261,-0.26600000967885407,-0.19699999794035722
-0.06446148455142975,0.13179601728916168,9.942535400390625,-0.0279999990016222,0.05299999937415123,0.12770000100135803,-0.49600001323327503,-0.1180000022875799,-0.09999999922536333
-0.0489279069006443,0.11670296639204025,9.92176342010498,-0.018400000408291817,0.044199999421834946,0.10809999704360962,-0.41499999945330046,-0.7339999825747792,-0.09999999922536333
-0.056646812707185745,0.12762053310871124,9.918642044067383,-0.02029999904334545,0.05480000004172325,0.0982000008225441,0.8099999777171871,-2.0399999201643886,-0.12299999424472013
-0.05429091677069664,0.13643118739128113,9.918229103088379,-0.026499999687075615,0.061799999326467514,0.0982000008225441,1.1070000282437604,-0.5480000042927274,-0.02899999937514897
-0.05621585622429848,0.12296620011329651,9.931933403015137,-0.027699999511241913,0.07849999517202377,0.09829999506473541,2.8979999594083394,-0.2810000122307012,0.1079999983629796
-0.05049850046634674,0.13988840579986572,9.94766902923584,-0.022599998861551285,0.05309999734163284,0.12770000100135803,1.8179999891187564,-2.1949999643204263,-0.33000000277978425
-0.048832137137651443,0.13143210113048553,9.925047874450684,-0.02850000001490116,0.038100000470876694,0.10819999873638153,1.2239999947873152,-3.2080000477204154,-0.8200000149923204
-0.05601474270224571,0.13897861540317535,9.91463851928711,-0.02850000001490116,0.038100000470876694,0.10819999873638153,-0.25400000763737635,-2.790999923418212,-0.4889999764685111
-0.05454949289560318,0.14613249897956848,9.927384376525879,-0.04470000043511391,0.053999997675418854,0.10819999873638153,0.08200000283325337,-3.9379997805973885,-0.536999984634422
-0.049253515899181366,0.14108550548553467,9.910040855407715,-0.055299997329711914,0.043699998408555984,0.08859999477863312,0.03699999851276524,-3.1240000334300713,-0.517000016805861
-0.061981093138456345,0.1470518708229065,9.916707038879395,-0.07339999824762344,0.05309999734163284,0.09839999675750732,-0.3019999891228608,-0.4489999874505363,-0.5690000078653135
-0.054961297661066055,0.12914323806762695,9.929271697998047,-0.06459999829530716,0.0340999998152256,0.10819999873638153,-0.07000000079177565,-1.3999999891550865,-0.11699999322398127
-0.04747223109006882,0.13953407108783722,9.922538757324219,-0.058799996972084045,0.043800000101327896,0.10819999873638153,0.15800000464576788,-2.202000054446043,-0.14799999405106096
-0.050584692507982254,0.13403698801994324,9.922098159790039,-0.07360000163316727,0.033399999141693115,0.10819999873638153,0.8189999792482954,0.8480000019688174,0.4190000090272685
-0.04779784381389618,0.11680831015110016,9.932929992675781,-0.06119999662041664,0.021199999377131462,0.11809999495744705,0.39399999588071444,0.13100000005244303,-0.24800000661663751
-0.046457089483737946,0.1311735212802887,9.922136306762695,-0.06059999763965607,0.02969999983906746,0.10830000042915344,-1.401999953921431,-0.5119999981682943,-0.06899999839828364
-0.04732858017086983,0.13545435667037964,9.917990684509277,-0.0616999976336956,0.04309999942779541,0.09839999675750732,-2.585999906329919,-1.5250000282074303,-0.31099999065396905
-0.054750602692365646,0.13818374276161194,9.920355796813965,-0.07580000162124634,0.05089999735355377,0.09839999675750732,1.7790000358448068,2.4269999326411917,0.10400000212922476
-0.05705861747264862,0.1340274065732956,9.936511993408203,-0.06969999521970749,0.03659999743103981,0.11800000071525574,1.4199999569836474,-0.2770000026567332,0.16500000138989213
-0.03942771628499031,0.13466905057430267,9.920355796813965,-0.06030000001192093,0.04230000078678131,0.09839999675750732,-1.7569999965281957,-0.5960000124586383,-0.5260000183369693
-0.051504068076610565,0.14486835896968842,9.920154571533203,-0.0714000016450882,0.056699998676776886,0.09839999675750732,2.046000027906833,1.284000004994704,0.22299999347008345
-0.04855440929532051,0.12972743809223175,9.942803382873535,-0.06759999692440033,0.031300000846385956,0.12789998948574066,-3.397999902174303,-0.0659999978879142,-0.5440000213991859
-0.04815218225121498,0.13906480371952057,9.94946002960205,-0.06749999523162842,0.05130000039935112,0.12780000269412994,2.165000065938438,0.22100000202331266,0.4010000059650519
-0.03974374756217003,0.12270762771368027,9.929328918457031,-0.0568000003695488,0.02630000002682209,0.10819999873638153,-0.5519999871862691,1.2969999894193538,-0.2810000122307012
-0.04504929855465889,0.1398022323846817,9.923065185546875,-0.05289999768137932,0.04729999974370003,0.10819999873638153,-2.461999956382453,-2.9829999560818554,-0.5330000017408804
-0.0586579404771328,0.14179420471191406,9.910674095153809,-0.0705999955534935,0.05379999801516533,0.10819999873638153,1.8630000501351507,3.016999997439944,0.24800000661663751
-0.0586579404771328,0.14179420471191406,9.910674095153809,-0.0810999944806099,0.05169999971985817,0.08859999477863312,1.8630000501351507,3.016999997439944,0.24800000661663751
-0.06285258382558823,0.13437217473983765,9.921724319458008,-0.06159999966621399,0.026099998503923416,0.09839999675750732,-0.7320000178084348,-3.628999888111896,-0.39599998732748526
-0.05033569782972336,0.1355501264333725,9.910520553588867,-0.08159999549388885,0.05069999769330025,0.08859999477863312,3.342000034943015,1.306000044311315,0.7699999886992124
-0.05409938097000122,0.12203724682331085,9.913661003112793,-0.07769999653100967,0.021699998527765274,0.09849999845027924,4.66100006367898,2.1410000618554825,0.7570000042745624
-0.048966214060783386,0.14167927205562592,9.91576862335205,-0.07149999588727951,0.0284000001847744,0.09860000014305115,4.587999855603529,3.608000044621869,0.59999999535218
-0.048305410891771317,0.13155660033226013,9.927911758422852,-0.05949999764561653,0.003499999875202775,0.10849999636411667,4.557000188281781,5.688999882826551,0.726000016787696
-0.054233454167842865,0.11261367052793503,9.922712326049805,-0.04649999737739563,-0.026200000196695328,0.10859999805688858,8.022999746285437,5.232999805250398,0.6129999797768299
-0.05246174708008766,0.12954546511173248,9.915596008300781,-0.03189999982714653,-0.028599999845027924,0.09910000115633011,3.6430000683631296,0.6230000170519632,0.6919999754296072
-0.05566040053963661,0.1422826200723648,9.93456745147705,-0.029999999329447746,-0.02879999950528145,0.11889999359846115,2.033000043482183,0.05600000063342052,0.2780000117203318
-0.06728664040565491,0.12046664953231812,9.927327156066895,-0.04919999837875366,-0.05389999970793724,0.10920000076293945,-2.746000075845229,0.7709999710823845,-0.10100000161885533
-0.04948335886001587,0.12896127998828888,9.92046070098877,-0.026999998837709427,-0.035599999129772186,0.09919999539852142,-5.760999895075417,-2.4759999231902747,-0.6799999733881295
-0.054108958691358566,0.13381673395633698,9.927797317504883,-0.03269999846816063,-0.021699998527765274,0.1087999939918518,1.0350000159948942,2.117000057772527,-0.620999998924766
-0.052998051047325134,0.1363832950592041,9.929520606994629,-0.02669999934732914,-0.014699999243021011,0.10889999568462372,5.337999876474181,4.230000186012366,0.407999989368963
-0.05070919170975685,0.1370728313922882,9.914619445800781,-0.01489999983459711,-0.029199998825788498,0.09929999709129333,0.11200000126684104,-1.1970000435548434,0.07900000232288394
-0.06339845806360245,0.1427614539861679,9.914140701293945,-0.027899999171495438,-0.029399998486042023,0.09929999709129333,-6.008999794970349,-2.1180000401556995,-0.6519999864116324
-0.056953269988298416,0.13432429730892181,9.937009811401367,-0.024399999529123306,-0.010799999348819256,0.11859999597072601,7.633999982485702,3.4160000119582254,0.475000009660689
-0.05737464874982834,0.12934434413909912,9.917520523071289,-0.016099998727440834,-0.03879999741911888,0.09929999709129333,-8.81500030790979,-4.053000102539716,-0.5219999820825748
-0.05485595017671585,0.12876015901565552,9.916218757629395,-0.026999998837709427,-0.014599999412894249,0.09889999777078629,8.376000144290975,6.477000088031391,0.59999999535218
-0.05193502455949783,0.14007996022701263,9.918008804321289,-0.009200000204145908,-0.02759999968111515,0.09929999709129333,-9.407000124031475,-4.273000068819004,-1.2869999521442204
-0.051006071269512177,0.12105083465576172,9.92264461517334,-0.02070000022649765,-0.021299999207258224,0.10869999974966049,7.55900023653073,1.7490000307411124,0.9659999508955445
-0.034677617251873016,0.13349109888076782,9.929701805114746,0.00419999985024333,-0.034699998795986176,0.10899999737739563,-6.157999944827354,-1.0549999838234552,-0.48299997544777223
-0.07250600308179855,0.13642162084579468,9.93610954284668,-0.027499999850988388,-0.01979999989271164,0.1087999939918518,-2.003999914039955,2.1109999500300827,0.33000000277978425
-0.06132987141609192,0.14378617703914642,9.925182342529297,-0.03150000050663948,-0.004399999976158142,0.11859999597072601,-0.6080000145001161,2.0009999668904386,-0.885999972859595
-0.05070919170975685,0.1450503021478653,9.932575225830078,0.0058999997563660145,-0.01860000006854534,0.11899999529123306,-8.794000037532939,-4.609999894920141,-1.0449999465483217
-0.04552813991904259,0.13786770403385162,9.925708770751953,0.0058999997563660145,-0.01860000006854534,0.11899999529123306,0.015999999942759198,-2.0279999181229105,-0.26300000916848465
-0.056388236582279205,0.1313842236995697,9.919781684875488,-0.012899999506771564,-0.010999999940395355,0.09889999777078629,6.9009998755723885,2.444000060041942,0.9320000162591615
-0.07100244611501694,0.14581646025180817,9.924166679382324,-0.02579999901354313,-0.010199999436736107,0.10899999737739563,9.252000079875437,5.457999896888958,0.8549999853727285
-0.05506663769483566,0.1329452395439148,9.925383567810059,0.008700000122189522,-0.05509999766945839,0.10949999839067459,12.112000068392998,6.032000030113544,0.6459999853908935
-0.07863516360521317,0.13924676179885864,9.926015853881836,-0.004100000020116568,-0.07829999923706055,0.11019999533891678,12.298999548810547,7.472999617143807,1.1949999720667932
-0.048563987016677856,0.13916058838367462,9.924445152282715,0.04809999838471413,-0.11599999666213989,0.1111999973654747,11.599999696698735,5.182000063378382,1.3380000141813537
-0.04959828034043312,0.12582966685295105,9.91517448425293,0.06039999797940254,-0.15330000221729279,0.1022999957203865,5.657000019678218,1.8730000874102841,1.41000002643022
-0.04345954954624176,0.13894988596439362,9.931512832641602,0.07509999722242355,-0.15860000252723694,0.12239999324083328,5.001000050373044,0.43400001157911566,0.6669999889634796
-0.046313438564538956,0.13132674992084503,9.918986320495605,0.07609999924898148,-0.1816999912261963,0.10319999605417252,-8.037999695476431,-0.6750000081114157,0.038000000906257256
-0.0622013583779335,0.13713029026985168,9.921140670776367,0.054499998688697815,-0.149399995803833,0.10249999910593033,-10.962000264064306,-5.840999766389661,-1.3509999986060035
-0.04805641621351242,0.12825259566307068,9.916629791259766,0.04619999974966049,-0.12489999830722809,0.1013999953866005,7.208999999118121,6.004999865437661,-0.3379999952472939
-0.046313438564538956,0.12607866525650024,9.931158065795898,0.07029999792575836,-0.14169999957084656,0.12159999459981918,9.562000168187513,7.264999866349409,1.459000016979303
-0.06340803951025009,0.12770672142505646,9.917061805725098,0.07019999623298645,-0.1673000007867813,0.10289999842643738,-8.269000108300848,-5.989000147306905,-0.22400000253368207
-0.06398265063762665,0.12391430884599686,9.928008079528809,0.053599998354911804,-0.15389999747276306,0.11189999431371689,0.8949999743907032,2.7360000385700958,-0.7729999892095818
-0.05641696974635124,0.14819151163101196,9.91775131225586,0.07069999724626541,-0.12639999389648438,0.1021999940276146,5.803000008942295,2.0230000062070497,0.9639999861292001
-0.047998953610658646,0.12628935277462006,9.933178901672363,0.07660000026226044,-0.16329999268054962,0.12229999899864197,-10.411000365982915,-2.7830000643528345,-1.3140000100983982
-0.062028978019952774,0.13975435495376587,9.916017532348633,0.05999999865889549,-0.12789998948574066,0.10199999809265137,13.000999561515288,4.96000013233275,1.3589999643930868
-0.05562209337949753,0.1400320678949356,9.92585277557373,0.07319999486207962,-0.1727999895811081,0.11289999634027481,-7.538999735093641,0.9269999976215948,0.38100001145606455
-0.05562209337949753,0.1400320678949356,9.92585277557373,0.08659999817609787,-0.1550000011920929,0.11270000040531158,-7.538999735093641,0.9269999976215948,0.38100001145606455
-0.06290046870708466,0.1429721564054489,9.930841445922852,0.07899999618530273,-0.13379999995231628,0.11209999769926071,8.830000257100785,6.479999821737497,0.18099999966512467
-0.0600753091275692,0.13674722611904144,9.915854454040527,0.08879999816417694,-0.15049999952316284,0.10339999943971634,1.0770000231400663,-2.5719999395220965,1.0940000438191106
-0.05366842821240425,0.1280514895915985,9.925518035888672,0.08100000023841858,-0.11739999800920486,0.10189999639987946,18.708999749952344,9.237000130684443,1.39700004200557
-0.04736688733100891,0.13212162256240845,9.922395706176758,0.11809999495744705,-0.18029999732971191,0.11349999904632568,6.253999961159176,-1.5169999556986413,-0.6099999792664604
-0.049301404505968094,0.12279381603002548,9.904007911682129,0.10379999876022339,-0.20649999380111694,0.09429999440908432,-17.251999164130858,-6.9269998444216885,-1.534999958760858
-0.0505942702293396,0.1290283203125,9.935870170593262,0.08229999989271164,-0.1428999900817871,0.121799997985363,-17.200999849145663,-9.519999627433812,-0.8669999874142063
-0.05095818638801575,0.12270762771368027,9.935754776000977,0.05920000001788139,-0.11089999973773956,0.12060000002384186,-13.622000360852846,-8.62099988359298,-0.6889999749192377
-0.043852198868989944,0.13743674755096436,9.920393943786621,0.045099999755620956,-0.05350000038743019,0.09999999403953552,-7.164000151545138,-7.087000013936999,-0.019000000453128628
-0.05462610721588135,0.13155660033226013,9.928629875183105,0.015599999576807022,-0.04319999739527702,0.10929999500513077,-4.611000090746725,-5.5449998583288185,-0.25299999857377775
-0.0439479686319828,0.1356937736272812,9.920058250427246,0.010099999606609344,-0.020399998873472214,0.09919999539852142,-14.57899950980449,-9.359999884805324,-0.8140000139715816
-0.04636131972074509,0.12247778475284576,9.928236961364746,-0.018799999728798866,0.0050999997183680534,0.10839999467134476,-16.264000347857465,-10.075000308821538,-1.3630000006474812
-0.055890243500471115,0.13619177043437958,9.904458045959473,-0.052799999713897705,0.06390000134706497,0.08839999884366989,-17.671000533859875,-7.633999982485702,-1.725000026658157
-0.05732676759362221,0.1414685994386673,9.92330551147461,-0.07369999587535858,0.11229999363422394,0.1078999936580658,0.24599998848944027,-2.9089999790666448,-0.9219999789840281
-0.07065768539905548,0.12538912892341614,9.928485870361328,-0.10119999945163727,0.10179999470710754,0.1078999936580658,18.801000690525125,9.114000376563562,1.0710000221193274
-0.055181559175252914,0.12236285954713821,9.932479858398438,-0.056599996984004974,0.04050000011920929,0.11789999902248383,-1.7599999436777123,-4.441999866339453,0.5729999907588551
-0.04352658987045288,0.12960292398929596,9.938398361206055,-0.06030000001192093,0.05570000037550926,0.11789999902248383,-13.901999697009288,-9.060000047211794,-1.4460000325546531
-0.03841257095336914,0.13606727123260498,9.925134658813477,-0.08190000057220459,0.09869999438524246,0.10799999535083771,8.59499991474368,7.029000181939367,-0.2259999939804529
-0.047903187572956085,0.1433456391096115,9.912148475646973,-0.0722000002861023,0.07499999552965164,0.0982000008225441,1.0520000366739386,-3.60400011508918,0.8050000124404733
-0.05412811413407326,0.13351984322071075,9.91828727722168,-0.08190000057220459,0.06209999695420265,0.09829999506473541,-7.889999741446011,-1.0770000231400663,-1.132000014709888
-0.051695603877305984,0.13043610751628876,9.909514427185059,-0.08460000157356262,0.08349999785423279,0.08839999884366989,7.984999988838072,0.7459999846162569,0.969999987149939
-0.0508241131901741,0.12016976624727249,9.939384460449219,-0.08209999650716782,0.048899997025728226,0.11789999902248383,-7.73700008894314,-1.9629999959996611,-0.9070000297930338
-0.054683566093444824,0.1172967329621315,9.919953346252441,-0.08649999648332596,0.06719999760389328,0.0982000008225441,-2.905000049533956,-3.887999807665133,0.2150000010025738
-0.05776729807257652,0.13956280052661896,9.920135498046875,-0.10669999569654465,0.09459999948740005,0.0982000008225441,10.338999926847226,4.530000023605897,0.09399999820462447
-0.056579772382974625,0.13373053073883057,9.929788589477539,-0.08419999480247498,0.056199997663497925,0.10809999704360962,-16.387000101978348,-8.6649999622262,-1.3649999654138256
-0.05952943116426468,0.12058157473802567,9.91891860961914,-0.11739999800920486,0.09099999815225601,0.09829999506473541,10.42799985305343,8.39199986242173,0.7029999950879127
-0.05682877078652382,0.12438356876373291,9.919349670410156,-0.08150000125169754,0.05869999900460243,0.0982000008225441,13.180999805580864,7.429000392284231,0.2899999870813831
-0.05292143300175667,0.1261744350194931,9.908987998962402,-0.06340000033378601,0.03669999912381172,0.08859999477863312,-3.619999833219935,2.197999911469943,-1.034000033611722
-0.06874231994152069,0.11986330896615982,9.920116424560547,-0.06689999997615814,0.056199997663497925,0.10809999704360962,2.7179999287861736,-1.5070000251452138,0.6849999920256962
-0.049722783267498016,0.1330697387456894,9.937957763671875,-0.07419999688863754,0.06350000202655792,0.11779999732971191,9.37000013552387,1.4479999973209974,0.9060000474098617
-0.05566997826099396,0.1355309784412384,9.925776481628418,-0.07419999688863754,0.06350000202655792,0.11779999732971191,10.57800019873702,1.3260000121398758,0.7999999938029067
-0.052787356078624725,0.13250470161437988,9.920498847961426,-0.06599999964237213,0.008899999782443047,0.09869999438524246,10.774000160933351,1.1409999628801435,0.6159999802871993
-0.05831317603588104,0.13639287650585175,9.929051399230957,-0.07239999622106552,-0.010799999348819256,0.1087999939918518,4.89999990868195,-0.39599998732748526,0.5799999741627662
-0.05566997826099396,0.13299311697483063,9.913105010986328,-0.06350000202655792,-0.0340999998152256,0.09919999539852142,-0.648999985901263,-3.805999971584545,0.02800000031671026
-0.06488286703824997,0.12464214116334915,9.932557106018066,-0.08339999616146088,-0.03240000084042549,0.11879999935626984,-12.984000074444772,-5.283999974009237,-0.25299999857377775
-0.05650315806269646,0.13882538676261902,9.914916038513184,-0.08959999680519104,0.01730000041425228,0.09879999607801437,-14.151999988557387,-5.873000056424817,-1.0979999733517993
-0.04933971166610718,0.13418063521385193,9.910778045654297,-0.10339999943971634,0.0510999970138073,0.08869999647140503,-4.121999954195655,-8.13900026405435,-0.36499999984061876
-0.05926128104329109,0.13074256479740143,9.911391258239746,-0.13509999215602875,0.05249999836087227,0.08879999816417694,12.681000076258313,6.104000042362411,0.2159999967259592
-0.0497610904276371,0.12828132510185242,9.925555229187012,-0.10830000042915344,0.01769999973475933,0.10859999805688858,-2.0479999926731773,-5.786999863924717,0.3409999957576634
-0.05657019838690758,0.12538912892341614,9.910615921020508,-0.12379999458789825,0.02319999970495701,0.08899999409914017,-8.94699969003581,-3.896000093617334,-0.7009999769607155
-0.06621403992176056,0.14214853942394257,9.91997241973877,-0.1451999992132187,0.06039999797940254,0.09869999438524246,-0.9359999457918502,3.330000032901537,-0.6159999802871993
-0.0502399280667305,0.14187082648277283,9.916764259338379,-0.12700000405311584,0.0625,0.09860000014305115,5.241000091202599,-1.6019999523721575,0.4649999723855557
-0.06899131834506989,0.12772586941719055,9.910520553588867,-0.15060000121593475,0.03830000013113022,0.08899999409914017,-8.812999916256622,0.70500001321511,-0.6189999807975687
-0.04820007085800171,0.13135547935962677,9.920557022094727,-0.12860000133514404,0.062199998646974564,0.09860000014305115,2.338999988818159,-0.2839999860606442,0.11699999322398127
-0.06107129529118538,0.13215993344783783,9.925862312316895,-0.1387999951839447,0.05570000037550926,0.10839999467134476,-0.41300000800652964,2.547999935439141,-0.40599999792219216
-0.05026865750551224,0.1453663408756256,9.92094898223877,-0.12069999426603317,0.07639999687671661,0.09849999845027924,-5.008000140498661,-4.884000190551196,-0.043999998591942806
-0.03983951732516289,0.12555193901062012,9.908930778503418,-0.12219999730587006,0.06859999895095825,0.08879999816417694,27.885999230099163,5.646000000019913,0.1620000008795227
-0.04227202758193016,0.12428779900074005,9.911477088928223,-0.1062999963760376,-0.01759999990463257,0.0892999991774559,-7.722000139752146,1.6789999832585905,-0.9159999779632892
-0.05796841159462929,0.14029064774513245,9.928438186645508,-0.120899997651577,0.013100000098347664,0.08899999409914017,4.5599999219878855,-2.4950000153573693,0.24399999704266945
-0.06465302407741547,0.14864161610603333,9.916515350341797,-0.10359999537467957,-0.02149999886751175,0.10909999907016754,4.5599999219878855,-2.4950000153573693,0.24399999704266945
-0.06492117047309875,0.13374967873096466,9.919465065002441,-0.09459999948740005,-0.09099999815225601,0.10029999911785126,-12.792000041781128,-3.511000045906875,0.29800000622931916
-0.0547410286962986,0.12274593114852905,9.904256820678711,-0.0940999984741211,-0.065700002014637,0.08989999443292618,-7.026999790286199,-7.958000251049011,-0.031999999885518396
-0.056407392024993896,0.1319875419139862,9.909677505493164,-0.11549999564886093,-0.03659999743103981,0.08969999849796295,0.33600000380052314,-4.572000137472775,0.08100000043976135
-0.06780379265546799,0.12650004029273987,9.911497116088867,-0.14720000326633453,-0.03739999979734421,0.08980000019073486,3.343999999709359,-3.84200019115239,0.038000000906257256
-0.05646485090255737,0.13834655284881592,9.931867599487305,-0.13899999856948853,-0.03779999911785126,0.11949999630451202,-3.927999956765667,2.574999886671613,0.10100000161885533
-0.05184883251786232,0.13320380449295044,9.920001029968262,-0.13249999284744263,-0.038100000470876694,0.09969999641180038,-9.691000243494251,-6.118999991553404,-0.16599999711327754
-0.05446329712867737,0.13337619602680206,9.908259391784668,-0.14880000054836273,-0.011500000022351742,0.08969999849796295,-12.467000004278058,-12.954000176062783,-0.1390000058601659
-0.06823474913835526,0.13594278693199158,9.9066801071167,-0.20340000092983246,0.03240000084042549,0.08969999849796295,-19.605999955913656,10.664999733290056,-0.32299999269544677
-0.04093126952648163,0.12966996431350708,9.907781600952148,-0.14429999887943268,0.0762999951839447,0.08899999409914017,27.354999833454862,12.619999656780928,0.046999999102312236
-0.050939034670591354,0.1270076185464859,9.928035736083984,-0.11479999870061874,-0.007899999618530273,0.10889999568462372,11.828999717869983,-8.035000388657151,-0.12100000279794933
-0.05946239456534386,0.15423446893692017,9.92682933807373,-0.14339999854564667,-0.006799999624490738,0.10949999839067459,-38.02099933568468,-12.787000343308678,0.07999999804626934
-0.05120718851685524,0.142320916056633,9.905434608459473,-0.1680999994277954,0.07759999483823776,0.08919999748468399,3.3900000431089254,-5.180000098612038,0.007999999971379599
-0.05327577516436577,0.13870090246200562,9.91069221496582,-0.1817999929189682,0.0681999996304512,0.08940000087022781,-38.37199934203705,-1.6059999886265521,-0.3559999983095105
-0.055440135300159454,0.14295299351215363,9.912445068359375,-0.18569999933242798,0.17309999465942383,0.09919999539852142,35.34600014347879,13.292999540043441,0.019000000453128628
-0.059682659804821014,0.14696568250656128,9.905426025390625,-0.15399999916553497,0.0737999975681305,0.08899999409914017,-23.596000101096468,-15.340000404107093,-0.30799999014359963
-0.06552451103925705,0.13208331167697906,9.924732208251953,-0.19029998779296875,0.11050000041723251,0.1087999939918518,14.91800058133244,15.639000472760863,0.31999999218507735
-0.06702806800603867,0.1343817561864853,9.901144981384277,-0.1468999981880188,0.07930000126361847,0.07899999618530273,-26.122999339271935,4.613999824452829,-0.06899999839828364
-0.05118803307414055,0.12982319295406342,9.923602104187012,-0.12399999797344208,0.14069999754428864,0.10819999873638153,37.32299839873898,3.2399999108687485,-0.46199997187518627
-0.05231809616088867,0.1297561526298523,9.923746109008789,-0.11469999700784683,0.03830000013113022,0.10839999467134476,-37.09999955252724,19.804000309763158,0.31600000929153577
-0.06404010951519012,0.13464990258216858,9.9131441116333,-0.06300000101327896,0.16210000216960907,0.09809999912977219,-21.383000026992118,13.273999661319758,-0.7660000058056707
-0.052998051047325134,0.1328015774488449,9.91495418548584,-0.0210999995470047,0.20319999754428864,0.09839999675750732,46.985998281730765,-40.59699835096582,-1.193999989683621
-0.06581181287765503,0.13243766129016876,9.915079116821289,-0.14169999957084656,0.07419999688863754,0.09860000014305115,21.52100058407764,-31.52900015223594,0.42200000953763794
-0.056340355426073074,0.13535858690738678,9.916236877441406,-0.21779999136924744,0.014999999664723873,0.10019999742507935,-14.861999860327506,34.70699838058366,1.200999973087532
-0.03417004644870758,0.12210428714752197,9.902963638305664,-0.12239999324083328,0.06529999524354935,0.09860000014305115,-0.12799999954207358,30.008999609057547,0
-0.05372588708996773,0.12114660441875458,9.911890029907227,0.03680000081658363,0.08410000056028366,0.0885000005364418,-11.391999945904336,-20.887000227202254,1.070000039736155
-0.048094723373651505,0.12920069694519043,9.923908233642578,-0.020099999383091927,0.12479999661445618,0.10779999941587448,-20.446999440870034,-19.98599923793461,0.7829999731238623
-0.05961562320590019,0.1249869093298912,9.921581268310547,-0.0843999981880188,0.18050000071525574,0.10809999704360962,-6.2150000078852266,-3.7650000535442514,0.6540000045388297
-0.05851428955793381,0.130110502243042,9.922855377197266,-0.09449999779462814,0.19709999859333038,0.10830000042915344,-8.948000312749217,0.8960000101347283,1.388999969496781
-0.06453809887170792,0.13870090246200562,9.940446853637695,-0.09139999747276306,0.23409999907016754,0.11829999834299088,4.613000055513068,0.8110000134612122,1.4609999817456474
-0.05516240745782852,0.13025414943695068,9.926580429077148,-0.07939999550580978,0.21279999613761902,0.10839999467134476,22.837999367386793,-11.70500019480934,0.6810000091321545
-0.07414364069700241,0.12660539150238037,9.913192749023438,-0.13079999387264252,0.14970000088214874,0.09829999506473541,2.325000022010337,-5.280000044476548,-1.0629999496105385
-0.05607220530509949,0.14433206617832184,9.929788589477539,-0.12529999017715454,0.16249999403953552,0.10819999873638153,-21.466000485786115,8.250999998516926,0.2810000122307012
-0.04871721565723419,0.14145901799201965,9.917875289916992,-0.10239999741315842,0.210999995470047,0.09860000014305115,11.285999678853969,-7.483999636802113,0.9239999437503725
-0.06441360712051392,0.12377065420150757,9.91816234588623,-0.13499999046325684,0.15609999001026154,0.09849999845027924,8.36500012463267,-10.73199962017965,-1.0439999641651496
-0.0612628310918808,0.1277545988559723,9.928285598754883,-0.16030000150203705,0.1453000009059906,0.10849999636411667,-20.951999722438682,6.013000151389861,-0.32700000226941484
-0.05417599529027939,0.1355309784412384,9.908699989318848,-0.13369999825954437,0.21199999749660492,0.08899999409914017,4.112999899303693,-6.761999976433929,0.7630000052953013
-0.052500054240226746,0.13762830197811127,9.926685333251953,-0.1517999917268753,0.20019999146461487,0.10869999974966049,-13.550999690656917,5.086999815986321,1.021000049187072
-0.05431964993476868,0.12051453441381454,9.91287612915039,-0.13750000298023224,0.21719999611377716,0.09910000115633011,13.467000316696808,-0.6159999802871993,-0.8129999782275565
-0.04116111248731613,0.13041695952415466,9.918402671813965,-0.12919999659061432,0.18490000069141388,0.09879999607801437,-10.40199988420413,-7.0379998099445045,1.0549999838234552
-0.054185573011636734,0.1361534595489502,9.914762496948242,-0.15549999475479126,0.2190999984741211,0.09910000115633011,-0.7009999769607155,2.755999899676951,-2.6939999247032183
-0.05161898955702782,0.1335294246673584,9.931779861450195,-0.147599995136261,0.21059998869895935,0.11869999766349792,9.284000369910594,2.3340000769022984,1.3149999924815703
-0.05736507475376129,0.12744814157485962,9.929625511169434,-0.14079999923706055,0.18459999561309814,0.10859999805688858,-9.858000076248356,-5.217000087119644,0.6960000116840017
-0.05646485090255737,0.1458643525838852,9.909955024719238,-0.15459999442100525,0.23070000112056732,0.0892999991774559,-2.191000034787738,-10.083000167886915,-0.4840000111917973
-0.0479893796145916,0.1336347609758377,9.913738250732422,-0.18529999256134033,0.21719999611377716,0.09959999471902847,3.5559998934798576,-4.949000112674445,-1.3899999518799533
-0.06096595525741577,0.14048217236995697,9.917252540588379,-0.20649999380111694,0.21779999136924744,0.09969999641180038,4.884999959490956,6.928000040248272,-0.48199999306460006
-0.05875370651483536,0.12694057822227478,9.923314094543457,-0.17459999024868011,0.19669999182224274,0.10889999568462372,-2.666999973470746,5.309000173918776,0.5630000068445746
-0.05875370651483536,0.12694057822227478,9.923314094543457,-0.17459999024868011,0.19669999182224274,0.10889999568462372,-2.666999973470746,5.309000173918776,0.5630000068445746
-0.05906016752123833,0.12587754428386688,9.923257827758789,-0.15950000286102295,0.20340000092983246,0.08919999748468399,0.747000020360282,1.8109998989931397,0.6089999968832882
-0.05707776919007301,0.1265096217393875,9.908317565917969,-0.14589999616146088,0.20089998841285706,0.10869999974966049,0.6119999973936576,2.192999999554082,0.019999999511567335
-0.05329493060708046,0.12203724682331085,9.89859676361084,-0.12479999661445618,0.18649999797344208,0.07909999787807465,1.4470000149378253,7.226000339962282,0.4229999919208101
-0.055698707699775696,0.13230359554290771,9.912674903869629,-0.10459999740123749,0.19179999828338623,0.09849999845027924,4.894999783322677,7.622000193887636,-0.3450000053316314
-0.07404786348342896,0.14206235110759735,9.930755615234375,-0.10300000011920929,0.1876000016927719,0.10809999704360962,1.99700003735775,10.157999913841888,-0.5020000142540139
-0.06746860593557358,0.1350904405117035,9.892449378967285,-0.0714000016450882,0.1808999925851822,0.06879999488592148,0.7889999741446011,-0.606999978756091,-1.1529999649216212
-0.058638785034418106,0.1358661651611328,9.900588989257812,-0.06269999593496323,0.1784999966621399,0.07849999517202377,-0.21700000578955783,-4.681999907169007,0.03400000133744912
-0.05892609432339668,0.1350904405117035,9.922280311584473,-0.07519999891519547,0.1784999966621399,0.10799999535083771,0.5570000058238358,0.3529999977991411,0.01700000066872456
-0.06261315941810608,0.12969869375228882,9.905654907226562,-0.07400000095367432,0.16669999063014984,0.08839999884366989,1.2539999998910096,1.1109999577764493,-0.6999999945775432
-0.06261315941810608,0.12969869375228882,9.905654907226562,-0.07400000095367432,0.16669999063014984,0.08839999884366989,1.2539999998910096,1.1109999577764493,-0.6999999945775432
-0.053687579929828644,0.1307138353586197,9.903529167175293,-0.08159999549388885,0.16769999265670776,0.08839999884366989,0.4229999919208101,5.171000043720077,0.013000000266153095
-0.058897361159324646,0.13629712164402008,9.925479888916016,-0.07880000025033951,0.17599999904632568,0.10799999535083771,-2.7879999762686953,-4.3970000187664695,-0.4709999734062945
-0.047031696885824203,0.13585658371448517,9.916295051574707,-0.07099999487400055,0.18320000171661377,0.09829999506473541,1.5159999733154692,2.3809998892416253,-1.200999973087532
-0.05675215646624565,0.12943054735660553,9.91456127166748,-0.07409999519586563,0.16869999468326569,0.0982000008225441,-1.6950000215544627,-5.270999989584587,1.1560000187928436
-0.058475982397794724,0.12951673567295074,9.916783332824707,-0.09799999743700027,0.17289999127388,0.09829999506473541,0.9790000420419002,2.9689999892740335,-0.8789999894556839
-0.06737283617258072,0.12648089230060577,9.915145874023438,-0.09849999845027924,0.16929998993873596,0.0982000008225441,1.0309999797404998,3.8980000583836785,0.8960000101347283
-0.060793567448854446,0.1465921849012375,9.916611671447754,-0.07909999787807465,0.18599998950958252,0.0982000008225441,-2.7189999111693455,-3.5809998799459852,-0.10400000212922476
-0.05582320690155029,0.1315278559923172,9.91691780090332,-0.07880000025033951,0.17339999973773956,0.09829999506473541,1.550000014673558,-0.19799999366374263,-0.9049999583049837
-0.0664726197719574,0.13432429730892181,9.902915954589844,-0.08899999409914017,0.17839999496936798,0.08839999884366989,1.2179999937665764,3.9130000075746727,-0.18799999640924894
-0.059376202523708344,0.135655477643013,9.921313285827637,-0.07800000160932541,0.17459999024868011,0.0982000008225441,1.1670000384511492,5.9780001276486,0.7949999751653399
-0.05801629647612572,0.1382795125246048,9.923965454101562,-0.05939999967813492,0.1704999953508377,0.1078999936580658,-0.06500000216452881,-3.9130000075746727,0.6219999813079381
-0.05803544819355011,0.11925039440393448,9.922798156738281,-0.048899997025728226,0.16040000319480896,0.09809999912977219,-1.36900000166822,-5.32899982158222,-1.070000039736155
-0.05572744086384773,0.13908396661281586,9.933457374572754,-0.07050000131130219,0.15330000221729279,0.10799999535083771,-0.20599999947146552,-4.622999879344791,-1.200999973087532
-0.04776911064982414,0.14291468262672424,9.918000221252441,-0.07509999722242355,0.1762000024318695,0.11779999732971191,-0.20599999947146552,-4.622999879344791,-1.200999973087532
-0.06712383776903152,0.1371111422777176,9.921916961669922,-0.07779999822378159,0.17629998922348022,0.09829999506473541,0.8750000065621423,-4.681999907169007,1.900000038642756
-0.06251739710569382,0.12201809883117676,9.913919448852539,-0.12449999898672104,0.15119999647140503,0.09839999675750732,0.49099999459570837,-4.160000138529844,1.722999955170107
-0.06477751582860947,0.13214077055454254,9.91087532043457,-0.1356000006198883,0.15929999947547913,0.08869999647140503,0.838000018054537,-0.927999980004767,1.3509999986060035
-0.04794149473309517,0.1268831044435501,9.930411338806152,-0.12799999117851257,0.1565999984741211,0.10830000042915344,1.1759999866214046,1.2830000226115317,0.49600001323327503
-0.05954858288168907,0.1356937736272812,9.918076515197754,-0.1340000033378601,0.16269999742507935,0.09839999675750732,-0.2570000081477458,-0.8549999853727285,-1.3879999871136088
-0.052385132759809494,0.14027148485183716,9.920853614807129,-0.1264999955892563,0.1630999892950058,0.09849999845027924,-0.6579999874323713,-0.7299999996812375,0.2150000010025738
-0.052385132759809494,0.14027148485183716,9.920853614807129,-0.1264999955892563,0.1630999892950058,0.09849999845027924,-0.6579999874323713,-0.7299999996812375,0.2150000010025738
-0.044043734669685364,0.1461995393037796,9.92210865020752,-0.11819999665021896,0.15439999103546143,0.10830000042915344,0.4679999728959251,2.116000075389355,-0.2069999951948509
-0.0668269544839859,0.13103944063186646,9.907580375671387,-0.12099999934434891,0.15049999952316284,0.0885000005364418,-0.22199999774669807,-0.3980000054546825,-0.8799999718388561
-0.0668269544839859,0.13103944063186646,9.907580375671387,-0.12099999934434891,0.15049999952316284,0.0885000005364418,-0.22199999774669807,-0.3980000054546825,-0.8799999718388561
-0.05718311294913292,0.13254299759864807,9.917003631591797,-0.1054999977350235,0.14890000224113464,0.09829999506473541,-0.5530000229302942,2.555000025564758,-0.7549999861473652
-0.051858410239219666,0.12705549597740173,9.9168701171875,-0.09910000115633011,0.14980000257492065,0.09829999506473541,-0.44399999549339614,4.001999933780877,-2.290999980652248
-0.06276638805866241,0.1363449990749359,9.921380043029785,-0.09910000115633011,0.14980000257492065,0.09829999506473541,0.6819999915153268,-1.8880000366012784,2.2539999921446427
-0.0533236600458622,0.14554831385612488,9.910002708435059,-0.09769999980926514,0.16030000150203705,0.0982000008225441,-0.6540000045388297,1.1970000435548434,-2.3220000748608203
-0.058590903878211975,0.13041695952415466,9.921821594238281,-0.09910000115633011,0.14959999918937683,0.10799999535083771,0.7699999886992124,1.17199995036701,0.5960000124586383
-0.04622724652290344,0.1321982443332672,9.915423393249512,-0.09910000115633011,0.14959999918937683,0.10799999535083771,-0.12599999475508955,-2.2929999454185928,1.1490000353889325
-0.0748714730143547,0.13516704738140106,9.917061805725098,-0.11019999533891678,0.1565999984741211,0.0982000008225441,-0.6630000060699379,-0.4930000127229056,-1.8160000243524121
-0.054492030292749405,0.124402716755867,9.929338455200195,-0.0916999951004982,0.13840000331401825,0.10799999535083771,0.7500000208706514,0.49000001221253614,-0.06399999977103679
-0.05277778208255768,0.13230359554290771,9.926398277282715,-0.09009999781847,0.14569999277591705,0.10799999535083771,-0.11299999699022645,1.2100000279794934,1.1109999577764493
-0.05763322487473488,0.13672807812690735,9.931243896484375,-0.09640000015497208,0.15549999475479126,0.11779999732971191,-0.363000008393848,-1.6280000279431632,0.5930000119482689
-0.04741477221250534,0.14004163444042206,9.91593074798584,-0.08150000125169754,0.15619999170303345,0.0982000008225441,-0.7579999866577346,-0.34899998822517303,-1.0770000231400663
-0.0516572967171669,0.13180558383464813,9.920144081115723,-0.09189999848604202,0.1477999985218048,0.0982000008225441,-0.4229999919208101,0.9490000369382059,-0.9860000254458112
-0.05427176132798195,0.1307138353586197,9.922961235046387,-0.08909999579191208,0.1485999971628189,0.10799999535083771,1.3630000006474812,-0.2140000052791884,-1.5339999763776857
-0.05271074175834656,0.13799220323562622,9.90954303741455,-0.08949999511241913,0.15429998934268951,0.08839999884366989,0.6819999915153268,0.4139999903897018,0.8729999884349451
-0.03843172639608383,0.1343817561864853,9.907992362976074,-0.07829999923706055,0.15199999511241913,0.08839999884366989,1.0880000427983718,1.310999956227176,2.17900003274626
-0.056646812707185745,0.13099156320095062,9.909419059753418,-0.08379999548196793,0.13849999010562897,0.08829999715089798,0.2469999975530389,1.7749999995904122,0.15500000413539844
-0.05358223244547844,0.12970826029777527,9.90416145324707,-0.07939999550580978,0.14739999175071716,0.08829999715089798,-0.1939999974299878,3.6249999585792074,-2.683999887428085
-0.05589982122182846,0.133443221449852,9.915423393249512,-0.06709999591112137,0.1396999955177307,0.09809999912977219,-0.1930000017066024,0.17599999436777122,0.13000000432905762
-0.05589982122182846,0.133443221449852,9.915423393249512,-0.06709999591112137,0.1396999955177307,0.09809999912977219,-0.1930000017066024,0.17599999436777122,0.13000000432905762
-0.05571785941720009,0.13112564384937286,9.908930778503418,-0.06650000065565109,0.13989999890327454,0.08829999715089798,0.15200000362502902,-1.6559999615588072,-0.650000021645288
-0.05983588844537735,0.1255710870027542,9.926570892333984,-0.0811999961733818,0.13899999856948853,0.1078999936580658,0.33900000431089256,-2.276000031461254,3.9980000042481887
-0.04457045719027519,0.1268831044435501,9.895235061645508,-0.06700000166893005,0.13830000162124634,0.07849999517202377,-0.6369999838597853,1.4640000356168696,-3.8269998150745725
-0.055698707699775696,0.13272495567798615,9.910481452941895,-0.07279999554157257,0.14000000059604645,0.08829999715089798,0.30100000673968863,-1.9100000759178895,-0.325000010822644
-0.059299588203430176,0.12413457036018372,9.912110328674316,-0.093299999833107,0.12879998981952667,0.09809999912977219,-0.475000009660689,1.9689998902986943,-6.898000141866284
-0.059299588203430176,0.12413457036018372,9.912110328674316,-0.093299999833107,0.12879998981952667,0.09809999912977219,-0.475000009660689,1.9689998902986943,-6.898000141866284
-0.05502833053469658,0.1360289603471756,9.926217079162598,-0.07750000059604645,0.14980000257492065,0.1078999936580658,0.4769999744270334,0.9910000440833778,9.22399971937297
-0.05492299050092697,0.12256397306919098,9.921724319458008,-0.07509999722242355,0.14869999885559082,0.07849999517202377,-0.38999998630674637,2.3429999183508476,2.4879999252317524
-0.05173391103744507,0.1410088986158371,9.913354873657227,-0.06859999895095825,0.13019999861717224,0.1078999936580658,-1.3649999654138256,0.5979999772249827,-15.375000000961531
-0.06194278597831726,0.1267969161272049,9.923975944519043,-0.07069999724626541,0.14630000293254852,0.09809999912977219,-0.4300000020051476,2.755999899676951,21.271999207695657
-0.061052143573760986,0.1382412165403366,9.931015014648438,-0.07029999792575836,0.15139999985694885,0.1078999936580658,1.0600000024610219,0.041000001416626686,-15.543999371595156
-0.05096776410937309,0.12751518189907074,9.917664527893066,-0.06039999797940254,0.1388999968767166,0.09809999912977219,-1.089000025181544,0.433000002515517,-0.606999978756091
-0.052854396402835846,0.13548308610916138,9.916735649108887,-0.05929999798536301,0.1516999900341034,0.09809999912977219,-0.7510000032538235,-0.5390000027616192,0.4199999914104407
-0.06302496790885925,0.13518621027469635,9.909102439880371,-0.07050000131130219,0.15379999577999115,0.08829999715089798,0.13700000107318186,1.070000039736155,1.7870000016318899
-0.04831499233841896,0.12011231482028961,9.906316757202148,-0.05779999867081642,0.13379999995231628,0.08829999715089798,0.5149999986786638,0.1749999986443858,-3.839000030559462
-0.05718311294913292,0.1491779237985611,9.90518569946289,-0.05729999765753746,0.1615999937057495,0.08829999715089798,0.5179999991890332,-1.7620000151657624,-2.0119999865487443
-0.04891832917928696,0.1334240734577179,9.910079956054688,-0.06149999797344208,0.14069999754428864,0.08829999715089798,-0.1189999980109653,-0.9839999539577611,-0.23399998644796255
-0.06288131326436996,0.1370536834001541,9.902676582336426,-0.07400000095367432,0.1508999913930893,0.08829999715089798,0.16599999711327754,-0.9579999851084613,-0.3280000113330135
-0.061387334018945694,0.14765521883964539,9.924378395080566,-0.07660000026226044,0.16019999980926514,0.1078999936580658,0.3600000078834786,-1.7289999561908458,-1.0640000387154163
-0.059989117085933685,0.12265974283218384,9.919685363769531,-0.08139999955892563,0.1297999918460846,0.09809999912977219,1.0859999713103217,-1.9299999370247447,-1.8160000243524121
-0.06035303324460983,0.1315087080001831,9.914935111999512,-0.08729999512434006,0.13619999587535858,0.09809999912977219,0.5780000093964218,-0.8979999749010726,-1.9340000800008448
-0.06494990736246109,0.13570335507392883,9.902504920959473,-0.08949999511241913,0.14459998905658722,0.08829999715089798,-0.36199999933024934,1.5800000197772524,0.09500000059811649
-0.04153461009263992,0.1246517151594162,9.91958999633789,-0.06549999862909317,0.13580000400543213,0.09809999912977219,0.007000000079177565,1.2859999697610482,1.6590000154300297
-0.050891149789094925,0.14576856791973114,9.908767700195312,-0.07180000096559525,0.15539999306201935,0.08829999715089798,-1.0770000231400663,0.6219999813079381,0.7630000052953013
-0.05822698771953583,0.14593137800693512,9.926178932189941,-0.07989999651908875,0.15839999914169312,0.1078999936580658,0.3770000018820965,0.6949999759399766,-0.59999999535218
-0.048755522817373276,0.13235147297382355,9.90798282623291,-0.06799999624490738,0.13759998977184296,0.08829999715089798,0.22800001210765014,0.6999999945775432,-1.0979999733517993
-0.05516240745782852,0.13826994597911835,9.920173645019531,-0.06629999727010727,0.1467999964952469,0.09809999912977219,-1.3159999748647426,0.6679999713466518,1.2789999863571373
-0.048161763697862625,0.1474923938512802,9.925689697265625,-0.06449999660253525,0.16019999980926514,0.1078999936580658,0.2770000026567332,-0.8470000195856453,-1.4419999963002585
-0.06615658104419708,0.13242807984352112,9.916410446166992,-0.07660000026226044,0.13989999890327454,0.09809999912977219,0.43400001157911566,0.7009999769607155,-0.2680000011256249
-0.04952166602015495,0.13449667394161224,9.895082473754883,-0.0648999959230423,0.148499995470047,0.07849999517202377,-0.04600000004387353,-1.144999999134538,-0.10900000075647161
-0.05644569918513298,0.14720509946346283,9.908184051513672,-0.06839999556541443,0.15839999914169312,0.08829999715089798,-0.19499999315337319,0.9529999664708946,0.325000010822644
-0.06097552925348282,0.12790782749652863,9.91295337677002,-0.06610000133514404,0.13930000364780426,0.09809999912977219,-0.33600000380052314,0.606999978756091,1.1000000448398495
-0.06880936026573181,0.1392563432455063,9.915433883666992,-0.07719999551773071,0.13729999959468842,0.09809999912977219,0.10199999734224074,1.0770000231400663,-0.28600000418784144
-0.04459919035434723,0.13821247220039368,9.927318572998047,-0.05299999937415123,0.1476999968290329,0.1078999936580658,0.3240000017590454,-0.8299999989066009,-0.9999999922536332
-0.05149449035525322,0.13753251731395721,9.92220401763916,-0.05299999937415123,0.1476999968290329,0.1078999936580658,-1.2569999470405262,0.7570000042745624,0.5519999871862691
-0.06697060912847519,0.13759955763816833,9.926504135131836,-0.07329999655485153,0.14970000088214874,0.1078999936580658,-0.9579999851084613,-0.2039999946844815,0.09999999922536333
-0.048688482493162155,0.13164278864860535,9.912033081054688,-0.06399999558925629,0.14249999821186066,0.09809999912977219,0.09099999769425504,0.20299999896109608,-0.24200000559589865
-0.04636131972074509,0.13945746421813965,9.922567367553711,-0.053700000047683716,0.15199999511241913,0.1078999936580658,1.0669999858649328,-0.11699999322398127,-0.8500000200960147
-0.06134902685880661,0.11790964752435684,9.924732208251953,-0.07360000163316727,0.12950000166893005,0.1078999936580658,0.6470000211349186,-0.7350000183188042,-0.7990000114197344
-0.03236960619688034,0.13109691441059113,9.914523124694824,-0.04639999940991402,0.13729999959468842,0.09809999912977219,0.39399999588071444,-0.941999946812589,-0.21700000578955783
-0.06692273169755936,0.13431471586227417,9.909399032592773,-0.07809999585151672,0.1460999995470047,0.08829999715089798,0.1849999958988795,-0.8889999733699644,-0.35899999881987993
-0.05665638670325279,0.13147997856140137,9.916725158691406,-0.07069999724626541,0.13580000400543213,0.09809999912977219,0.9080000121762061,-0.49099999459570837,-0.39299998681711584
-0.052787356078624725,0.13251428306102753,9.921686172485352,-0.07209999859333038,0.13329999148845673,0.1078999936580658,0.8399999828208814,-0.09800000110848592,-0.5099999800410971
-0.07101202756166458,0.14512692391872406,9.913862228393555,-0.09200000017881393,0.15060000121593475,0.09809999912977219,0.31800000073830653,-0.12400000330831876,-0.5219999820825748
-0.0408833883702755,0.12676818668842316,9.925938606262207,-0.06289999932050705,0.12999999523162842,0.1078999936580658,-0.5720000083756829,0.6140000155208549,0.16899999762364695
-0.0499909333884716,0.12781205773353577,9.921371459960938,-0.07119999825954437,0.13130000233650208,0.09809999912977219,-1.0069999756575443,0.796000010909365,0.09399999820462447
-0.05952943116426468,0.1254657506942749,9.912693977355957,-0.07880000025033951,0.13409999012947083,0.09809999912977219,-0.6630000060699379,-0.07199999890865307,0.14799999405106096
-0.05337154492735863,0.12447933107614517,9.927404403686523,-0.06920000165700912,0.12610000371932983,0.1078999936580658,1.2280000310417098,-0.3600000078834786,-0.3999999969014533
-0.054137688130140305,0.13286861777305603,9.909859657287598,-0.07019999623298645,0.13249999284744263,0.08829999715089798,-0.5360000022512498,0.5429999856551608,0.2399999874687014
-0.052385132759809494,0.12221920490264893,9.91954231262207,-0.06849999725818634,0.12429999560117722,0.09809999912977219,0.5390000027616192,-0.41199999894293104,-0.2680000011256249
-0.043804313987493515,0.1367184966802597,9.911985397338867,-0.059699997305870056,0.14259999990463257,0.08829999715089798,0.49000001221253614,-0.433000002515517,0.05300000012305109
-0.06248866394162178,0.13360603153705597,9.914734840393066,-0.08049999922513962,0.1314999908208847,0.09809999912977219,-0.15999999609253868,0.7020000127047406,0.2069999951948509
-0.044369347393512726,0.1290283203125,9.90803050994873,-0.05889999866485596,0.13189999759197235,0.08829999715089798,0.14699999832767557,-0.5290000188473387,-0.1400000015835513
-0.05553590506315231,0.13076171278953552,9.91767406463623,-0.07019999623298645,0.1314999908208847,0.09809999912977219,-0.9750000057875057,-0.024999999806340833,0
-0.05398445948958397,0.14754986763000488,9.926427841186523,-0.07019999623298645,0.1542000025510788,0.08829999715089798,0.17100000241063099,-0.17599999436777122,-0.15200000362502902
-0.04746265336871147,0.1415739357471466,9.923381805419922,-0.0705999955534935,0.15379999577999115,0.1078999936580658,-0.26900001018922354,0.31600000929153577,0
-0.05511452630162239,0.1419474333524704,9.90847110748291,-0.06229999661445618,0.14409999549388885,0.1078999936580658,0.6129999797768299,0.2069999951948509,0.015999999942759198
-0.04725196585059166,0.1179000735282898,9.90705394744873,-0.06079999729990959,0.12349999696016312,0.08829999715089798,0.4270000014947782,-0.3379999952472939,-0.4210000004740393
-0.054396264255046844,0.1399650275707245,9.906957626342773,-0.06079999729990959,0.12349999696016312,0.08829999715089798,0.04200000047506539,0.27200001069959295,-0.24299998797907083
-0.058590903878211975,0.1330505758523941,9.921150207519531,-0.08079999685287476,0.13189999759197235,0.09809999912977219,-0.11299999699022645,-0.4390000035362559,-0.03699999851276524
-0.06435614079236984,0.13091494143009186,9.91331672668457,-0.0819999948143959,0.13220000267028809,0.09809999912977219,-0.1749999986443858,0.29899998861249133,0.12599999475508955
-0.04344997555017471,0.13070425391197205,9.909409523010254,-0.06149999797344208,0.13259999454021454,0.08829999715089798,0.22400000253368207,0.1400000015835513,-0.009999999755783667
-0.041697416454553604,0.13289734721183777,9.920595169067383,-0.06109999865293503,0.13199999928474426,0.09809999912977219,0.23099998593759313,0.24399999704266945,0.0019999999928448997
-0.042837053537368774,0.14133451879024506,9.904275894165039,-0.06039999797940254,0.14100000262260437,0.08829999715089798,-0.15999999609253868,0.46199997187518627,-0.2680000011256249
-0.07296568900346756,0.13478398323059082,9.922146797180176,-0.08869999647140503,0.14139999449253082,0.1078999936580658,-0.4429999864297975,0.4139999903897018,0.019000000453128628
-0.06686526536941528,0.12643299996852875,9.918689727783203,-0.07769999653100967,0.13279999792575836,0.09809999912977219,-0.42200000953763794,-0.013000000266153095,0.03100000082707969
-0.050747498869895935,0.13093410432338715,9.927547454833984,-0.06790000200271606,0.1339000016450882,0.1078999936580658,-0.19799999366374263,0,-0.24299998797907083
-0.06969042122364044,0.1290474683046341,9.924177169799805,-0.08749999850988388,0.13439999520778656,0.1078999936580658,-0.3240000017590454,-0.7230000162773266,-0.03400000133744912
-0.060554150491952896,0.13867215812206268,9.91059684753418,-0.07989999651908875,0.1451999992132187,0.08829999715089798,0.9239999437503725,-0.13400000056281244,-0.27599999359313454
-0.029611486941576004,0.12735237181186676,9.923123359680176,-0.05079999938607216,0.1331000030040741,0.1078999936580658,-0.7080000137254794,-0.02899999937514897,0.17100000241063099
-0.06552451103925705,0.13574165105819702,9.911295890808105,-0.0802999958395958,0.14489999413490295,0.08829999715089798,0.02899999937514897,0.32700000226941484,-0.22299999347008345
-0.06012319028377533,0.12079226970672607,9.906852722167969,-0.07930000126361847,0.1251000016927719,0.08829999715089798,0.09800000110848592,-0.014999999216793838,0.03899999996469596
-0.06736325472593307,0.13551181554794312,9.909534454345703,-0.08909999579191208,0.14429999887943268,0.08829999715089798,-0.15800000464576788,-0.1749999986443858,0.13600000534979648
-0.05591897666454315,0.1387583464384079,9.92203140258789,-0.07000000029802322,0.14479999244213104,0.1078999936580658,-0.07099999651516105,0.13100000005244303,-0.1800000039417393
-0.054798487573862076,0.10679096728563309,9.921964645385742,-0.06969999521970749,0.11549999564886093,0.1078999936580658,0.30799999014359963,-0.03400000133744912,-0.3310000118433829
-0.05133168399333954,0.13662272691726685,9.912933349609375,-0.06969999521970749,0.14399999380111694,0.09809999912977219,-0.4100000074961602,-0.09399999820462447,0.06299999737754478
-0.047261543571949005,0.13750380277633667,9.92541217803955,-0.06019999831914902,0.14509999752044678,0.1078999936580658,-0.0269999995907449,0.11400000605382507,-0.1079999983629796
-0.04344997555017471,0.13193966448307037,9.909648895263672,-0.05979999899864197,0.13529999554157257,0.08829999715089798,0.08899999957737763,-0.05099999867112037,-0.2609999910412874
-0.04540364071726799,0.1227555051445961,9.920815467834473,-0.05009999871253967,0.1251000016927719,0.07849999517202377,-0.49099999459570837,0.15699999558216926,0
-0.06327396631240845,0.1336539089679718,9.913412094116211,-0.05949999764561653,0.12629999220371246,0.09809999912977219,1.242999980232704,0.13000000432905762,-0.09600000299160849
-0.042837053537368774,0.13068510591983795,9.914006233215332,-0.0575999990105629,0.13329999148845673,0.09809999912977219,0.5360000022512498,-0.13100000005244303,-0.3280000113330135
-0.04881298542022705,0.11769896000623703,9.90944766998291,-0.06780000030994415,0.12199999392032623,0.08829999715089798,0.2469999975530389,-0.02600000053230619,-0.015999999942759198
-0.050651729106903076,0.1250922530889511,9.913642883300781,-0.06780000030994415,0.12199999392032623,0.08829999715089798,0.37800001094569513,-0.05900000114378995,0.12299999424472013
-0.07182604819536209,0.12603077292442322,9.921419143676758,-0.08760000020265579,0.13009999692440033,0.09809999912977219,-0.14099999730693671,-0.12100000279794933,-0.11500000177721047
-0.07562804222106934,0.1360960155725479,9.905367851257324,-0.08779999613761902,0.14010000228881836,0.08829999715089798,0.3499999972887716,-0.25400000763737635,-0.007999999971379599
-0.04401500150561333,0.13456369936466217,9.91691780090332,-0.05900000035762787,0.13910000026226044,0.09809999912977219,0.35499998924591186,-0.15900000036915327,0.13400000056281244
-0.03533841669559479,0.14677414298057556,9.923027038574219,-0.04959999769926071,0.14790000021457672,0.1078999936580658,0.5709999726316578,0.25599999908414717,-0.38000000239246595
-0.04357447102665901,0.14190912246704102,9.914848327636719,-0.05859999731183052,0.1362999975681305,0.09809999912977219,-0.2549999900205486,-0.19000000119623298,-0.03100000082707969
-0.07125144451856613,0.12140518426895142,9.905932426452637,-0.0885000005364418,0.11719999462366104,0.08829999715089798,-0.6080000145001161,-0.17100000241063099,0.04500000098543482
-0.05960604548454285,0.12772586941719055,9.914820671081543,-0.07909999787807465,0.12870000302791595,0.09809999912977219,-0.17400000292100043,-0.013000000266153095,-0.0859999990670082
-0.05454949289560318,0.1272757649421692,9.918392181396484,-0.06920000165700912,0.1289999932050705,0.09809999912977219,0.30700000776042746,-0.23499999551156117,-0.13400000056281244
-0.0481138750910759,0.13418063521385193,9.908614158630371,-0.0697999969124794,0.1378999948501587,0.08829999715089798,-0.6789999910049573,0.13499999628619785,-0.21999999295971404
-0.04872678965330124,0.12875059247016907,9.904228210449219,-0.06939999759197235,0.13009999692440033,0.08829999715089798,-0.29500000571894974,0.07900000232288394,0.04200000047506539
-0.06064991652965546,0.13591404259204865,9.916773796081543,-0.07899999618530273,0.14059999585151672,0.09809999912977219,0.3240000017590454,0.14600000260429016,-0.05799999875029794
-0.05657019838690758,0.1397830694913864,9.917702674865723,-0.06870000064373016,0.1396999955177307,0.09809999912977219,-0.4109999898793324,0.07699999753589991,-0.009999999755783667
-0.04891832917928696,0.1251114010810852,9.912349700927734,-0.06849999725818634,0.13089999556541443,0.09809999912977219,0.6140000155208549,0.1849999958988795,-0.057000003026912535
-0.0380294993519783,0.13235147297382355,9.910367012023926,-0.04829999804496765,0.12919999659061432,0.08829999715089798,-0.49600001323327503,0.25299999857377775,-0.05600000063342052
-0.057642798870801926,0.12944969534873962,9.903682708740234,-0.07689999788999557,0.1306999921798706,0.08829999715089798,0.5879999933107023,0.1509999945614304,-0.257999990530918
-0.05637866258621216,0.14269442856311798,9.928524017333984,-0.06669999659061432,0.13899999856948853,0.1078999936580658,-0.3439999962680328,-0.28699998657101367,-0.024000000747902123
-0.03529053181409836,0.12084972113370895,9.90962028503418,-0.0478999987244606,0.12029999494552612,0.08829999715089798,-0.26699999206202624,0.19799999366374263,0.05600000063342052
-0.052385132759809494,0.14069287478923798,9.918190956115723,-0.06689999997615814,0.14059999585151672,0.09809999912977219,0.3980000054546825,0.1070000026395942,-0.13799999679656727
-0.0578247606754303,0.13102029263973236,9.905386924743652,-0.07639999687671661,0.12960000336170197,0.08829999715089798,0.4669999905127529,-0.029999998433587676,-0.17599999436777122
-0.061674635857343674,0.12292789667844772,9.905109405517578,-0.07639999687671661,0.12809999287128448,0.1078999936580658,-0.3770000018820965,0.05600000063342052,0.13100000005244303
-0.04459919035434723,0.1440926343202591,9.910088539123535,-0.07620000094175339,0.11919999867677689,0.08829999715089798,-0.3989999878378547,0.043999998591942806,0.14399999781730613
-0.049588706344366074,0.13057975471019745,9.906862258911133,-0.06560000032186508,0.1314999908208847,0.08829999715089798,-0.3989999878378547,0.02899999937514897,-0.23199999500119176
-0.04909071326255798,0.12734279036521912,9.917328834533691,-0.06549999862909317,0.13249999284744263,0.09809999912977219,-0.10600000024610218,-0.15999999609253868,-0.12599999475508955
-0.0697861909866333,0.14158351719379425,9.900885581970215,-0.08559999614953995,0.14259999990463257,0.07849999517202377,0.2469999975530389,0.33300000329015367,-0.42599999243117953
-0.04569094628095627,0.13122139871120453,9.920144081115723,-0.055299997329711914,0.13210000097751617,0.09809999912977219,-0.3770000018820965,0.11299999699022645,-0.27599999359313454
-0.06293877214193344,0.12811851501464844,9.928620338439941,-0.07459999620914459,0.1331000030040741,0.1078999936580658,-0.5029999966371861,0.27599999359313454,0.015999999942759198
-0.06045838072896004,0.1269022673368454,9.910079956054688,-0.0737999975681305,0.13439999520778656,0.08829999715089798,-0.5579999882070079,0.551000004803097,0.2050000037480801
-0.03773261979222298,0.13050314784049988,9.926312446594238,-0.042799998074769974,0.13589999079704285,0.1078999936580658,-0.31800000073830653,0.35899999881987993,0.1400000015835513
-0.027906814590096474,0.11464395374059677,9.918737411499023,-0.03179999813437462,0.11719999462366104,0.09809999912977219,0.5900000114378995,-0.1749999986443858,-0.035000000395887826
-0.04547068104147911,0.13408486545085907,9.898366928100586,-0.05179999768733978,0.14509999752044678,0.07840000092983246,0.32899999371618566,0.07099999651516105,-0.3150000002279371
-0.0399257093667984,0.1456536501646042,9.906344413757324,-0.05159999802708626,0.15389999747276306,0.08819999545812607,-0.5069999795307276,0.09500000059811649,-0.0859999990670082
-0.044369347393512726,0.11927913129329681,9.934624671936035,-0.05130000039935112,0.1257999986410141,0.11769999563694,0.043999998591942806,0.11200000126684104,-0.07699999753589991
-0.0539078451693058,0.13952450454235077,9.909428596496582,-0.06069999933242798,0.14509999752044678,0.08829999715089798,-0.07000000079177565,-0.05799999875029794,-0.2549999900205486
-0.05760449171066284,0.12855905294418335,9.906000137329102,-0.0705999955534935,0.13539999723434448,0.08829999715089798,-0.3980000054546825,-0.26500000061525547,0.09500000059811649
-0.037550657987594604,0.11478760838508606,9.906402587890625,-0.04179999977350235,0.11669999361038208,0.08829999715089798,0.6709999718570212,-0.13300000483942703,-0.09999999922536333
-0.0537833496928215,0.13451582193374634,9.906325340270996,-0.0616999976336956,0.14419999718666077,0.08829999715089798,-0.3950000049443131,0.0539999991814898,-0.0429999995335041
-0.046121902763843536,0.14233051240444183,9.907791137695312,-0.05169999971985817,0.1451999992132187,0.08829999715089798,0.048000001495804245,-0.11699999322398127,-0.25100000712700693
-0.046121902763843536,0.1250922530889511,9.908863067626953,-0.05199999734759331,0.13519999384880066,0.08829999715089798,-0.37200000992495624,-0.13100000005244303,-0.07300000130214508
-0.04776911064982414,0.11250832676887512,9.908844947814941,-0.052299998700618744,0.11669999361038208,0.08829999715089798,-0.5969999948418105,0.0009999999964224499,-0.2259999939804529
-0.040299203246831894,0.14110466837882996,9.908154487609863,-0.052299998700618744,0.14739999175071716,0.08829999715089798,0.3570000073731091,-0.19799999366374263,0.010999999647985701
-0.044110771268606186,0.12541785836219788,9.924569129943848,-0.05269999802112579,0.13660000264644623,0.1078999936580658,0.17700000343136985,-0.04900000055424296,-0.09200000008774706
-0.041457995772361755,0.13630668818950653,9.915145874023438,-0.052799999713897705,0.14569999277591705,0.09809999912977219,-0.31600000929153577,-0.11699999322398127,-0.09399999820462447
-0.03455311805009842,0.12470917403697968,9.919512748718262,-0.043299999088048935,0.13669998943805695,0.09809999912977219,-0.23900000508552924,-0.13499999628619785,-0.2250000115972807
-0.05157110467553139,0.1278408020734787,9.917702674865723,-0.05339999869465828,0.13729999959468842,0.1078999936580658,-0.14699999832767557,-0.041000001416626686,-0.20999999570522035
-0.03165134787559509,0.12000696361064911,9.912254333496094,-0.0632999986410141,0.13759998977184296,0.09809999912977219,0.39699999639108385,-0.27500001120996237,-0.2710000016359943
-0.03857537731528282,0.11471099406480789,9.920441627502441,-0.053599998354911804,0.11679999530315399,0.09809999912977219,0.5390000027616192,-0.29399999665535115,-0.14600000260429016
-0.03995443880558014,0.13964900374412537,9.924301147460938,-0.05429999902844429,0.14469999074935913,0.1078999936580658,0.19799999366374263,-0.26000000865811523,-0.17400000292100043
-0.03599921613931656,0.12457510083913803,9.90927505493164,-0.05429999902844429,0.14469999074935913,0.1078999936580658,0.11400000605382507,-0.08200000283325337,-0.013000000266153095
-0.04149630293250084,0.1260882467031479,9.91189956665039,-0.0551999993622303,0.13369999825954437,0.08829999715089798,-0.5709999726316578,0.1070000026395942,-0.0039999999856897995
-0.046696510165929794,0.13753251731395721,9.907532691955566,-0.05480000004172325,0.14489999413490295,0.08829999715089798,-0.24800000661663751,0.07099999651516105,-0.2399999874687014
-0.06106172129511833,0.13166193664073944,9.916458129882812,-0.07419999688863754,0.13570000231266022,0.09809999912977219,-0.07900000232288394,-0.12400000330831876,-0.07199999890865307
-0.04689761996269226,0.11940362304449081,9.906009674072266,-0.05480000004172325,0.125900000333786,0.08829999715089798,0.10999999647985702,-0.05099999867112037,-0.05999999686717535
-0.049042828381061554,0.1283196359872818,9.914676666259766,-0.06469999998807907,0.13519999384880066,0.09809999912977219,0.20899999998183494,0.0329999989439571,-0.11099999887334903
-0.03889141231775284,0.11657846719026566,9.917022705078125,-0.05469999834895134,0.12479999661445618,0.09809999912977219,-0.2570000081477458,0.2680000011256249,-0.14300000209392072
-0.04956955462694168,0.11970050632953644,9.909993171691895,-0.06369999796152115,0.12539999186992645,0.08829999715089798,0.035000000395887826,0.1729999938574018,-0.09800000110848592
-0.040586505085229874,0.1354256272315979,9.908547401428223,-0.05339999869465828,0.14469999074935913,0.08829999715089798,-0.03100000082707969,0.17400000292100043,-0.10199999734224074
-0.0362577885389328,0.1235886886715889,9.91767406463623,-0.0429999977350235,0.12489999830722809,0.09809999912977219,0.1509999945614304,-0.07600000181251451,-0.024999999806340833
-0.06201940029859543,0.13572250306606293,9.908049583435059,-0.07249999791383743,0.14379999041557312,0.08829999715089798,-0.08799999718388561,0.035000000395887826,-0.19000000119623298
-0.032666489481925964,0.11918335407972336,9.920040130615234,-0.0429999977350235,0.1241999939084053,0.09809999912977219,-0.42500001004800736,-0.15200000362502902,-0.02899999937514897
-0.04938759282231331,0.13253343105316162,9.91975212097168,-0.06289999932050705,0.13509999215602875,0.09809999912977219,-0.04200000047506539,-0.09200000008774706,-0.024999999806340833
-0.014106635935604572,0.12949758768081665,9.920891761779785,-0.023899998515844345,0.13499999046325684,0.09809999912977219,0.15699999558216926,0.13000000432905762,0.10900000075647161
-0.046504974365234375,0.13328999280929565,9.911468505859375,-0.05289999768137932,0.13449999690055847,0.08829999715089798,-0.010999999647985701,0.14099999730693671,-0.12299999424472013
-0.03357628732919693,0.13038823008537292,9.91539478302002,-0.04259999841451645,0.13429999351501465,0.09809999912977219,-0.031999999885518396,-0.021999999295971403,-0.21200000049220435
-0.0656585842370987,0.13527239859104156,9.918785095214844,-0.07189999520778656,0.14389999210834503,0.09809999912977219,-0.18700000068586353,-0.11400000605382507,0.07699999753589991
-0.04128561541438103,0.12474748492240906,9.90356731414795,-0.05260000005364418,0.13449999690055847,0.08829999715089798,-0.19000000119623298,-0.16899999762364695,-0.16500000138989213
-0.03535757213830948,0.11679873615503311,9.919474601745605,-0.04319999739527702,0.12520000338554382,0.09809999912977219,-0.16999999334703236,-0.25100000712700693,0.2549999900205486
-0.045556869357824326,0.12648089230060577,9.894814491271973,-0.053599998354911804,0.13529999554157257,0.07840000092983246,-0.0039999999856897995,0.019000000453128628,-0.010999999647985701
-0.054511185735464096,0.12538912892341614,9.919235229492188,-0.06319999694824219,0.13509999215602875,0.08829999715089798,0.27200001069959295,0.008999999863581633,0.014999999216793838
-0.03945644199848175,0.13764744997024536,9.908720016479492,-0.06289999932050705,0.13570000231266022,0.09809999912977219,-0.36399999077702017,-0.10199999734224074,0.03699999851276524
-0.036909010261297226,0.11682746559381485,9.908279418945312,-0.04339999705553055,0.125900000333786,0.08829999715089798,-0.16500000138989213,0.0969999987149939,-0.03400000133744912
-0.04440765455365181,0.11271901428699493,9.898271560668945,-0.05289999768137932,0.11629999428987503,0.07840000092983246,-0.17100000241063099,0.13000000432905762,-0.07900000232288394
-0.04663905128836632,0.13396036624908447,9.921371459960938,-0.05289999768137932,0.11629999428987503,0.07840000092983246,-0.21899999723632863,-0.019999999511567335,0.03100000082707969
-0.040462009608745575,0.12795571982860565,9.91544246673584,-0.052299998700618744,0.13650000095367432,0.09809999912977219,-0.16400000566650674,-0.2839999860606442,-0.13300000483942703
-0.04248271510004997,0.13013921678066254,9.91344165802002,-0.05299999937415123,0.13689999282360077,0.09809999912977219,0.3469999967784022,0.10499999785261017,0.06700000028140622
-0.0187226589769125,0.1278790980577469,9.926619529724121,-0.02319999970495701,0.13580000400543213,0.1078999936580658,0.05300000012305109,-0.0749999994190225,0.008999999863581633
-0.047242388129234314,0.12265974283218384,9.899056434631348,-0.052799999713897705,0.12559999525547028,0.07840000092983246,0.09000000197086964,0.14799999405106096,-0.043999998591942806
-0.055085793137550354,0.1241728737950325,9.920720100402832,-0.06199999898672104,0.1251000016927719,0.09809999912977219,-0.1719999981340164,-0.23099998593759313,-0.06099999926066736
-0.05398445948958397,0.11924082040786743,9.916975021362305,-0.0625,0.12539999186992645,0.09809999912977219,-0.3540000068627397,-0.1319999957758284,-0.09099999769425504
-0.037665579468011856,0.12669157981872559,9.920671463012695,-0.04309999942779541,0.13609999418258667,0.09809999912977219,-0.2680000011256249,-0.10100000161885533,0.0269999995907449
-0.040768466889858246,0.12028469145298004,9.919349670410156,-0.053199999034404755,0.12690000236034393,0.09809999912977219,-0.1610000051561373,-0.1319999957758284,0.004999999877891834
-0.05312254652380943,0.12664368748664856,9.914752960205078,-0.06319999694824219,0.13689999282360077,0.09809999912977219,0.0009999999964224499,-0.14900000311465958,-0.12400000330831876
-0.033279404044151306,0.12210428714752197,9.912492752075195,-0.04399999976158142,0.12680000066757202,0.09809999912977219,-0.19099999691961836,0.06700000028140622,0.014999999216793838
-0.03324109688401222,0.12097422033548355,9.901432037353516,-0.043699998408555984,0.12700000405311584,0.07849999517202377,-0.12499999903170415,0.012000000373951061,-0.09899999683187131
-0.03466803953051567,0.13299311697483063,9.920096397399902,-0.04360000044107437,0.13689999282360077,0.09809999912977219,0.28199999461387343,0.15999999609253868,0.07099999651516105
-0.02741839736700058,0.11920251697301865,9.900895118713379,-0.033299997448921204,0.12619999051094055,0.07840000092983246,0.023000000021936765,-0.09099999769425504,-0.10999999647985702
-0.048544835299253464,0.13480313122272491,9.92634105682373,-0.06279999762773514,0.14549998939037323,0.1078999936580658,0.08700000146050021,0.029999998433587676,0.012000000373951061
-0.019900605082511902,0.13006260991096497,9.8977632522583,-0.03319999948143959,0.13509999215602875,0.07840000092983246,0.06299999737754478,0.006000000186975531,-0.28600000418784144
-0.04315309226512909,0.1152951717376709,9.906957626342773,-0.052799999713897705,0.125,0.08829999715089798,0.21700000578955783,0.08299999855663877,-0.05600000063342052
-0.03808695822954178,0.12839625775814056,9.910433769226074,-0.04259999841451645,0.13409999012947083,0.08829999715089798,-0.5840000104171607,-0.035000000395887826,-0.03599999945432653
-0.04275086522102356,0.12637554109096527,9.897380828857422,-0.05249999836087227,0.1356000006198883,0.07840000092983246,0.10900000075647161,-0.22800001210765014,-0.08100000043976135
-0.03981078788638115,0.12368446588516235,9.917089462280273,-0.05299999937415123,0.12539999186992645,0.09809999912977219,-0.021000000237532696,0.029999998433587676,-0.3190000098019052
-0.05095818638801575,0.12916240096092224,9.924530982971191,-0.052799999713897705,0.13509999215602875,0.08829999715089798,0.07999999804626934,-0.13400000056281244,0.04500000098543482
-0.05095818638801575,0.12916240096092224,9.924530982971191,-0.06279999762773514,0.1347000002861023,0.1078999936580658,0.0269999995907449,0.024000000747902123,-0.1390000058601659
-0.03527137637138367,0.13233232498168945,9.907608032226562,-0.042399998754262924,0.1340000033378601,0.08829999715089798,-0.20200000323771067,0.03699999851276524,0.03699999851276524
-0.04031835496425629,0.12662453949451447,9.90535831451416,-0.05199999734759331,0.13419999182224274,0.08829999715089798,-0.08400000095013078,0.07999999804626934,-0.10299999973573276
-0.035558685660362244,0.13481271266937256,9.913814544677734,-0.05199999734759331,0.13419999182224274,0.08829999715089798,0.15900000036915327,-0.17899999487814064,-0.16500000138989213
-0.01997721940279007,0.11963346600532532,9.913546562194824,-0.03240000084042549,0.12389999628067017,0.09809999912977219,-0.06500000216452881,-0.05600000063342052,-0.0749999994190225
-0.05037400498986244,0.12658622860908508,9.914255142211914,-0.06189999729394913,0.13359999656677246,0.09809999912977219,-0.13100000005244303,-0.26000000865811523,-0.01400000015835513
-0.04092169553041458,0.13056060671806335,9.906076431274414,-0.05269999802112579,0.1339000016450882,0.08829999715089798,0.11200000126684104,-0.08299999855663877,-0.0269999995907449
-0.03289633244276047,0.12712253630161285,9.911286354064941,-0.0429999977350235,0.13329999148845673,0.08829999715089798,0.03999999902313467,-0.0749999994190225,-0.035000000395887826
-0.046323012560606,0.12823344767093658,9.899209976196289,-0.05289999768137932,0.13279999792575836,0.07840000092983246,-0.1079999983629796,-0.38000000239246595,-0.05900000114378995
-0.04083550348877907,0.13133633136749268,9.905731201171875,-0.053700000047683716,0.13289999961853027,0.08829999715089798,0.023000000021936765,0.06399999977103679,-0.038000000906257256
-0.03318363428115845,0.1377815306186676,9.900216102600098,-0.043699998408555984,0.14229999482631683,0.07840000092983246,0.4639999900023835,0.1400000015835513,-0.14099999730693671
-0.04132392257452011,0.12137644737958908,9.903836250305176,-0.05299999937415123,0.12129999697208405,0.08819999545812607,0.013000000266153095,-0.14600000260429016,-0.0009999999964224499
-0.047759536653757095,0.11768937855958939,9.913105010986328,-0.05329999700188637,0.12099999934434891,0.09809999912977219,-0.12100000279794933,-0.15399999507179982,-0.038000000906257256
-0.04502056911587715,0.1224011704325676,9.917913436889648,-0.053599998354911804,0.12119999527931213,0.09809999912977219,-0.10999999647985702,0.17599999436777122,-0.32299999269544677
-0.03158430755138397,0.12666285037994385,9.901595115661621,-0.043299999088048935,0.13109999895095825,0.07840000092983246,0.20299999896109608,0.008999999863581633,-0.08799999718388561
-0.0383838415145874,0.1196717768907547,9.909380912780762,-0.05299999937415123,0.12049999833106995,0.08819999545812607,-0.42500001004800736,0.03400000133744912,-0.1509999945614304
-0.04452257603406906,0.10785399377346039,9.912053108215332,-0.052799999713897705,0.11169999837875366,0.09809999912977219,-0.0749999994190225,0.0749999994190225,-0.18700000068586353
-0.03983951732516289,0.12083057314157486,9.905693054199219,-0.05249999836087227,0.12139999866485596,0.08819999545812607,0.21200000049220435,0.09300000248123906,-0.09099999769425504
-0.04429273307323456,0.14920665323734283,9.917664527893066,-0.05209999904036522,0.1500999927520752,0.09809999912977219,0.18799999640924894,0.22199999774669807,-0.08100000043976135
-0.034514810889959335,0.12378022819757462,9.90482234954834,-0.04169999808073044,0.1200999990105629,0.08819999545812607,0.1749999986443858,-0.1070000026395942,-0.12299999424472013
-0.0283186174929142,0.12786951661109924,9.912914276123047,-0.032099999487400055,0.12919999659061432,0.09799999743700027,-0.07999999804626934,-0.1939999974299878,0.0019999999928448997
-0.05161898955702782,0.12764926254749298,9.90366268157959,-0.06189999729394913,0.12919999659061432,0.08819999545812607,-0.17899999487814064,-0.03599999945432653,0.004999999877891834
-0.03350924700498581,0.1316140592098236,9.910175323486328,-0.04230000078678131,0.12939999997615814,0.08819999545812607,0.20999999570522035,0.019000000453128628,-0.27500001120996237
-0.05180094763636589,0.12770672142505646,9.924139022827148,-0.04209999740123749,0.12860000133514404,0.07840000092983246,0.05499999823992851,0.1070000026395942,-0.031999999885518396
-0.04268382489681244,0.13666102290153503,9.905367851257324,-0.061400000005960464,0.1281999945640564,0.1078999936580658,-0.05200000106461238,-0.2710000016359943,-0.13000000432905762
-0.04153461009263992,0.12799403071403503,9.908259391784668,-0.051500000059604645,0.1378999948501587,0.08819999545812607,-0.30799999014359963,-0.07300000130214508,-0.24899998899980968
-0.03187161311507225,0.12657664716243744,9.913891792297363,-0.042500000447034836,0.12879998981952667,0.09799999743700027,0.023000000021936765,0.20899999998183494,0.1070000026395942
-0.03047339990735054,0.1239238828420639,9.917702674865723,-0.042500000447034836,0.12879998981952667,0.09799999743700027,-0.09600000299160849,0.046999999102312236,-0.24899998899980968
-0.052385132759809494,0.1315470188856125,9.930248260498047,-0.06109999865293503,0.12860000133514404,0.1078999936580658,-0.09899999683187131,0.20899999998183494,0.01400000015835513
-0.03303998336195946,0.13085748255252838,9.923908233642578,-0.04079999774694443,0.12870000302791595,0.1078999936580658,-0.009999999755783667,-0.12100000279794933,-0.13400000056281244
-0.04668693244457245,0.14057794213294983,9.91344165802002,-0.05089999735355377,0.13830000162124634,0.09799999743700027,0.5519999871862691,0.007999999971379599,-0.019999999511567335
-0.0441969633102417,0.13847105205059052,9.926456451416016,-0.05069999769330025,0.13660000264644623,0.1078999936580658,-0.13799999679656727,-0.05600000063342052,-0.10199999734224074
-0.05294058471918106,0.11820653080940247,9.911046981811523,-0.06059999763965607,0.11710000038146973,0.08819999545812607,-0.10900000075647161,0.22100000202331266,-0.08100000043976135
-0.031143775209784508,0.12357911467552185,9.922615051269531,-0.040300000458955765,0.11719999462366104,0.10779999941587448,0.26500000061525547,0.1749999986443858,-0.09300000248123906
-0.049943044781684875,0.1222958192229271,9.920700073242188,-0.05939999967813492,0.11639999598264694,0.09799999743700027,-0.12100000279794933,0.49199997697888054,-0.08100000043976135
-0.03941813483834267,0.13428598642349243,9.901134490966797,-0.04809999838471413,0.13609999418258667,0.07840000092983246,-0.2519999895101791,0.046999999102312236,-0.13700000107318186
-0.04568136855959892,0.13445837795734406,9.909313201904297,-0.0478999987244606,0.13669998943805695,0.08819999545812607,0.22400000253368207,0.12599999475508955,0.1199999937343507
-0.04568136855959892,0.13712070882320404,9.910490989685059,-0.04739999771118164,0.13580000400543213,0.08819999545812607,-0.10100000161885533,0.03999999902313467,-0.0969999987149939
-0.04142926633358002,0.1235695406794548,9.89299488067627,-0.047199998050928116,0.1160999983549118,0.07840000092983246,-0.20200000323771067,-0.008999999863581633,0.014999999216793838
-0.0423007532954216,0.11847467720508575,9.917740821838379,-0.0471000000834465,0.11639999598264694,0.09799999743700027,-0.08799999718388561,0.11200000126684104,-0.10600000024610218
-0.02772485464811325,0.11884817481040955,9.921696662902832,-0.02709999866783619,0.11649999767541885,0.10779999941587448,-0.11099999887334903,-0.0329999989439571,-0.06099999926066736
-0.040203433483839035,0.1346116065979004,9.912760734558105,-0.046699997037649155,0.13609999418258667,0.09799999743700027,-0.04200000047506539,-0.05300000012305109,-0.1189999980109653
-0.04099830985069275,0.12153925001621246,9.899592399597168,-0.046799998730421066,0.11629999428987503,0.07840000092983246,-0.23199999500119176,-0.21999999295971404,-0.029999998433587676
-0.039561789482831955,0.11495041102170944,9.91620922088623,-0.047199998050928116,0.11669999361038208,0.09799999743700027,-0.015999999942759198,-0.05300000012305109,-0.11099999887334903
-0.0342370830476284,0.12186487019062042,9.915778160095215,-0.03739999979734421,0.11649999767541885,0.09799999743700027,0.1529999993484144,0,-0.043999998591942806
-0.042310334742069244,0.12532208859920502,9.897658348083496,-0.0471000000834465,0.12549999356269836,0.07840000092983246,-0.24500000610626807,-0.31699999167470794,-0.09399999820462447
-0.04016512632369995,0.12214259058237076,9.920652389526367,-0.0478999987244606,0.11620000004768372,0.09799999743700027,0.3559999983095105,-0.16800000190026157,-0.01700000066872456
-0.03715800866484642,0.11882901936769485,9.914131164550781,-0.04829999804496765,0.12469999492168427,0.07840000092983246,0.24399999704266945,-0.043999998591942806,-0.07699999753589991
-0.04118026793003082,0.1382986605167389,9.911612510681152,-0.03830000013113022,0.11419999599456787,0.09799999743700027,-0.049999999612681666,0.0039999999856897995,0.06299999737754478
-0.04817133769392967,0.1332804262638092,9.890341758728027,-0.04809999838471413,0.13289999961853027,0.08819999545812607,0.16500000138989213,-0.08899999957737763,-0.15599999985878385
-0.033423058688640594,0.1431158035993576,9.907426834106445,-0.03830000013113022,0.13210000097751617,0.08819999545812607,-0.17799999915475526,-0.2150000010025738,-0.11599999750059588
-0.04599740356206894,0.12361742556095123,9.902294158935547,-0.03830000013113022,0.13210000097751617,0.08819999545812607,0.07999999804626934,-0.029999998433587676,-0.05900000114378995
-0.039398983120918274,0.11745953559875488,9.92171573638916,-0.04859999939799309,0.11239999532699585,0.10779999941587448,0.3759999928184979,-0.08499999667351618,-0.09899999683187131
-0.03665044158697128,0.13406571745872498,9.908211708068848,-0.03889999911189079,0.12099999934434891,0.08819999545812607,-0.36399999077702017,-0.1620000008795227,-0.06299999737754478
-0.039724595844745636,0.1287793219089508,9.90579891204834,-0.04899999871850014,0.121799997985363,0.08819999545812607,-0.07099999651516105,0.03999999902313467,-0.09600000299160849
-0.037569813430309296,0.1332995742559433,9.910807609558105,-0.039000000804662704,0.1216999962925911,0.08819999545812607,-0.05099999867112037,0.14300000209392072,-0.0659999978879142
-0.038805220276117325,0.12087845802307129,9.908872604370117,-0.04829999804496765,0.11180000007152557,0.08819999545812607,0.2499999980634083,-0.07000000079177565,-0.10400000212922476
-0.04137180745601654,0.11453860998153687,9.914743423461914,-0.04829999804496765,0.10119999945163727,0.09799999743700027,0.24399999704266945,-0.31099999065396905,0.03899999996469596
-0.03369120880961418,0.13160447776317596,9.909438133239746,-0.03920000046491623,0.11989999562501907,0.08819999545812607,-0.05799999875029794,-0.01400000015835513,-0.18600000496247812
-0.038240186870098114,0.1278216391801834,9.909111976623535,-0.03920000046491623,0.11979999393224716,0.08819999545812607,-0.035000000395887826,0.03100000082707969,-0.05099999867112037
-0.04966532066464424,0.11246044188737869,9.913373947143555,-0.05859999731183052,0.09999999403953552,0.09799999743700027,0.05099999867112037,-0.05600000063342052,-0.1830000044521087
-0.040078938007354736,0.12258312851190567,9.918458938598633,-0.04879999905824661,0.10939999669790268,0.09799999743700027,0.019000000453128628,0.14399999781730613,0.021000000237532696
-0.03624821454286575,0.12566685676574707,9.918325424194336,-0.038599997758865356,0.11889999359846115,0.09799999743700027,0.19900000272734125,0.06700000028140622,-0.19499999315337319
-0.04064396768808365,0.11698069423437119,9.914504051208496,-0.04809999838471413,0.10839999467134476,0.09799999743700027,0.057000003026912535,0.06099999926066736,-0.10499999785261017
-0.031574733555316925,0.1330505758523941,9.927404403686523,-0.03799999877810478,0.11779999732971191,0.10779999941587448,-0.13300000483942703,0.22199999774669807,-0.0749999994190225
-0.041362229734659195,0.12820471823215485,9.916171073913574,-0.0471000000834465,0.11789999902248383,0.09799999743700027,0.08799999718388561,0.18199999538851008,-0.010999999647985701
-0.03085647150874138,0.11594640463590622,9.912530899047852,-0.03659999743103981,0.10759999603033066,0.09799999743700027,-0.3469999967784022,-0.27899999410350396,-0.0030000000934877653
-0.02625960297882557,0.1227555051445961,9.903548240661621,-0.027400000020861626,0.10819999873638153,0.08819999545812607,-0.0039999999856897995,0.13100000005244303,-0.2259999939804529
-0.04367023706436157,0.1358853131532669,9.90029239654541,-0.04649999737739563,0.12759999930858612,0.07840000092983246,0.28499999512424284,-0.18799999640924894,-0.0429999995335041
-0.04239652305841446,0.13660357892513275,9.907081604003906,-0.04690000042319298,0.1265999972820282,0.08819999545812607,0.37100000086135765,-0.08499999667351618,-0.06700000028140622
-0.05247132480144501,0.12843455374240875,9.907282829284668,-0.0568000003695488,0.11559999734163284,0.08819999545812607,-0.14900000311465958,0.06200000165415938,-0.014999999216793838
-0.051504068076610565,0.1271512657403946,9.898893356323242,-0.046699997037649155,0.10599999874830246,0.09799999743700027,-0.3510000063523703,0.12299999424472013,0.06700000028140622
-0.04608359560370445,0.12117534130811691,9.910184860229492,-0.05689999833703041,0.11549999564886093,0.07840000092983246,0.23900000508552924,-0.09399999820462447,-0.04600000004387353
-0.04158249497413635,0.12012188881635666,9.890907287597656,-0.046699997037649155,0.10639999806880951,0.08819999545812607,0.20200000323771067,-0.14399999781730613,-0.1189999980109653
-0.032005686312913895,0.12603077292442322,9.918363571166992,-0.03720000013709068,0.11459999531507492,0.09799999743700027,0.5099999800410971,-0.1830000044521087,-0.0969999987149939
-1.0284054279327393,0.920082151889801,10.926868438720703,-1.0379999876022339,0.9074999690055847,1.1080999374389648,3.92099986664005,7.242999827032798,9.743999950132611
0.5236214399337769,-0.3625108599662781,10.330875396728516,0.5115999579429626,-0.3682999908924103,0.5098999738693237,0.8179999968651231,1.764999962315279,6.5679999790039405
-0.07990887761116028,0.10019255429506302,10.185997009277344,-0.06199999898672104,0.07050000131130219,0.3725999891757965,-0.3989999878378547,-0.7729999892095818,-0.30700000776042746
-0.0835193321108818,0.13074256479740143,10.03927993774414,-0.0640999972820282,0.10099999606609344,0.2254999876022339,0.23900000508552924,-0.26900001018922354,-0.2740000021463637
-0.035482071340084076,0.12409625947475433,9.913202285766602,-0.015699999406933784,0.09039999544620514,0.09799999743700027,-0.0429999995335041,-0.1939999974299878,0.0329999989439571
-0.034802116453647614,0.13906480371952057,9.873429298400879,-0.016300000250339508,0.10999999940395355,0.04899999871850014,0.4519999879609058,0.13300000483942703,-0.12199999852133472
-0.028280310332775116,0.12127110362052917,9.881109237670898,-0.006099999882280827,0.08919999748468399,0.058799996972084045,-0.31800000073830653,0.05799999875029794,-0.09800000110848592
-0.043258439749479294,0.12345461547374725,9.915375709533691,-0.025499999523162842,0.08999999612569809,0.09799999743700027,0.12100000279794933,0.05600000063342052,-0.017999999727163266
-0.05533478781580925,0.13245682418346405,9.915711402893066,-0.035099998116493225,0.09939999878406525,0.09799999743700027,0.09099999769425504,0.06700000028140622,-0.1830000044521087
-0.036909010261297226,0.12008357793092728,9.906420707702637,-0.01529999915510416,0.0892999991774559,0.08819999545812607,-0.39200000443394367,-0.1749999986443858,0.09600000299160849
-0.028069620952010155,0.12220963090658188,9.908135414123535,-0.006000000052154064,0.09039999544620514,0.08819999545812607,-0.04900000055424296,0.04900000055424296,-0.18600000496247812
-0.03130657970905304,0.12735237181186676,9.91118049621582,-0.015599999576807022,0.10019999742507935,0.08819999545812607,-0.26600000967885407,0.22800001210765014,0.02800000031671026
-0.037052664905786514,0.12864524126052856,9.907024383544922,-0.014999999664723873,0.10080000013113022,0.08819999545812607,0.23199999500119176,-0.27599999359313454,-0.08899999957737763
-0.04554729536175728,0.12529335916042328,9.922807693481445,-0.025499999523162842,0.10009999573230743,0.10779999941587448,-0.1749999986443858,0.05099999867112037,-0.17599999436777122
-0.029276298359036446,0.11905886232852936,9.909887313842773,-0.01549999974668026,0.09070000052452087,0.08819999545812607,0.015999999942759198,-0.29999999767609,0.0019999999928448997
-0.0322355292737484,0.12934434413909912,9.901959419250488,-0.016300000250339508,0.10029999911785126,0.07840000092983246,-0.0009999999964224499,-0.14300000209392072,-0.05300000012305109
-0.04000232368707657,0.12765882909297943,9.910615921020508,-0.026499999687075615,0.10019999742507935,0.08819999545812607,0.34899998822517303,0.015999999942759198,-0.03100000082707969
-0.03854664787650108,0.12337800115346909,9.914294242858887,-0.026399999856948853,0.08940000087022781,0.09799999743700027,-0.0269999995907449,0.23699998695833197,0.0329999989439571
-0.041170693933963776,0.1220276728272438,9.91020393371582,-0.025699999183416367,0.0892999991774559,0.08819999545812607,0.18700000068586353,0.06099999926066736,-0.057000003026912535
-0.037071820348501205,0.11664550751447678,9.907781600952148,-0.015699999406933784,0.08869999647140503,0.08819999545812607,-0.5560000234406636,-0.3220000103122746,0.015999999942759198
-0.0430094376206398,0.1256093978881836,9.92739486694336,-0.016599999740719795,0.10019999742507935,0.08819999545812607,0.25599999908414717,-0.07600000181251451,0.008999999863581633
-0.031048007309436798,0.13095326721668243,9.908001899719238,-0.026499999687075615,0.09939999878406525,0.10779999941587448,0.149999998838045,0.019999999511567335,-0.013000000266153095
-0.042051758617162704,0.1264234185218811,9.90869140625,-0.026499999687075615,0.09910000115633011,0.08819999545812607,0.1719999981340164,0.26300000916848465,-0.19499999315337319
-0.0507187694311142,0.11654973775148392,9.910223960876465,-0.035499997437000275,0.08869999647140503,0.08819999545812607,0.06500000216452881,-0.007999999971379599,-0.1079999983629796
-0.03242706507444382,0.12355995923280716,9.91441822052002,-0.01589999906718731,0.08839999884366989,0.09799999743700027,0.3950000049443131,-0.010999999647985701,0.08100000043976135
-0.04281790181994438,0.1271321177482605,9.911937713623047,-0.025699999183416367,0.09719999879598618,0.08819999545812607,-0.1629999966029081,-0.1070000026395942,-0.05799999875029794
-0.04161122441291809,0.12510183453559875,9.909696578979492,-0.02589999884366989,0.09749999642372131,0.08819999545812607,-0.03899999996469596,-0.23399998644796255,-0.019999999511567335
-0.052145712077617645,0.11861833184957504,9.908709526062012,-0.03629999980330467,0.0876999944448471,0.08819999545812607,-0.16599999711327754,-0.06899999839828364,-0.21100000476881897
-0.0370909720659256,0.12355038523674011,9.9188232421875,-0.01679999940097332,0.08810000121593475,0.09799999743700027,0.1509999945614304,0.13100000005244303,0.0429999995335041
-0.03509899601340294,0.14388194680213928,9.910529136657715,-0.01640000008046627,0.1168999969959259,0.08819999545812607,0.37800001094569513,-0.11200000126684104,-0.0039999999856897995
-0.057901374995708466,0.13640247285366058,9.908221244812012,-0.04609999805688858,0.10610000044107437,0.08819999545812607,-0.048000001495804245,-0.08200000283325337,-0.1079999983629796
-0.04516422376036644,0.12820471823215485,9.902226448059082,-0.026599999517202377,0.09629999846220016,0.07840000092983246,-0.31099999065396905,-0.3190000098019052,-0.0659999978879142
-0.04458003491163254,0.13326126337051392,9.89130973815918,-0.027400000020861626,0.09699999541044235,0.06859999895095825,0.07099999651516105,0.008999999863581633,-0.13499999628619785
-0.04691677540540695,0.12072522938251495,9.905157089233398,-0.027400000020861626,0.08699999749660492,0.08819999545812607,-0.2379999960219306,0.09300000248123906,-0.13700000107318186
