Accelerometer_Gx,Accelerometer_Gy,Accelerometer_Gz,Accelerometer_X,Accelerometer_Y,Accelerometer_Z,Gyroscope_Z,Gyroscope_X,Gyroscope_Y
-0.05775772035121918,0.11631989479064941,9.94221019744873,-0.010499999858438969,-0.0016999999061226845,0.12809999287128448,-0.40400000647542134,-0.3139999911643385,0.3190000098019052
-0.05295974388718605,0.12840582430362701,9.924654960632324,-0.00139999995008111,0.007699999958276749,0.10849999636411667,-0.9639999861292001,-0.45400000608810304,-0.5200000173162305
-0.0462176688015461,0.12853990495204926,9.951614379882812,0.0066999997943639755,0.008700000122189522,0.1378999948501587,1.5550000333111247,0.10600000024610218,1.018999977699022
-0.04753926768898964,0.1169615387916565,9.948492050170898,0.006199999712407589,-0.00559999980032444,0.1281999945640564,-0.37200000992495624,0.19699999794035722,0.17400000292100043
-0.05607220530509949,0.11642523854970932,9.93299674987793,-0.003399999812245369,-0.0044999998062849045,0.11829999834299088,0.885999972859595,0.2259999939804529,0.10999999647985702
-0.05753745511174202,0.11915463209152222,9.936837196350098,-0.012399999424815178,-0.006599999964237213,0.11840000003576279,-0.3459999877148036,0.5009999785099888,-0.12199999852133472
-0.05791094899177551,0.13121181726455688,9.933370590209961,-0.010400000028312206,0.004299999680370092,0.11840000003576279,0.44800000506736415,0.28499999512424284,0.14499999354069154
-0.047098737210035324,0.13102029263973236,9.944220542907715,0.00989999994635582,0.0032999999821186066,0.1281999945640564,-0.5429999856551608,0.3950000049443131,0.29899998861249133
-0.04500141367316246,0.12777376174926758,9.933274269104004,0.0010999999940395355,0.004799999762326479,0.10859999805688858,-0.2150000010025738,-0.19900000272734125,-0.35199998873554245
-0.05681919306516647,0.1285877823829651,9.938321113586426,0.009800000116229057,0.00419999985024333,0.11840000003576279,-0.06299999737754478,0.3759999928184979,0.5420000032719886
-0.05596685782074928,0.1263372302055359,9.93625259399414,-0.0005999999702908099,0.004600000102072954,0.11840000003576279,-0.29999999767609,0.27200001069959295,-0.13400000056281244
-0.04646666720509529,0.1280898004770279,9.93015193939209,0.010499999858438969,0.005200000014156103,0.10859999805688858,-0.07999999804626934,-0.19000000119623298,0.14399999781730613
-0.04118026793003082,0.1285494863986969,9.940408706665039,0.009599999524652958,0.005200000014156103,0.11840000003576279,0.15500000413539844,-0.27200001069959295,-0.4169999909000712
-0.0585334450006485,0.11621455103158951,9.915730476379395,-0.010799999348819256,-0.004999999888241291,0.09869999438524246,-0.0539999991814898,-0.7660000058056707,-0.13700000107318186
-0.051149725914001465,0.13632585108280182,9.9356689453125,-0.0030999998562037945,0.014499999582767487,0.11829999834299088,-0.11599999750059588,-0.2259999939804529,-0.2929999875917525
-0.04742434620857239,0.11868536472320557,9.922452926635742,0.005799999926239252,-0.004799999762326479,0.10849999636411667,0.4319999934519184,-0.6300000004558742,-0.21899999723632863
-0.05630204826593399,0.130110502243042,9.92912769317627,-0.005499999970197678,0.0037999998312443495,0.10849999636411667,-0.19699999794035722,-0.6200000165415938,-0.30100000673968863
-0.045748405158519745,0.11865664273500443,9.942459106445312,0.0024999999441206455,-0.005399999674409628,0.12809999287128448,0.07099999651516105,-0.5459999861655302,-0.12499999903170415
-0.06491159647703171,0.1099417433142662,9.928485870361328,-0.018400000408291817,-0.015199999324977398,0.10849999636411667,0.09600000299160849,0.1079999983629796,-0.31800000073830653
-0.0517817959189415,0.1194419339299202,9.92585277557373,-0.008100000210106373,-0.005499999970197678,0.10849999636411667,-0.23300000406479038,0.45300002370493087,0.08100000043976135
-0.04047158360481262,0.11283393949270248,9.941473007202148,0.0030999998562037945,-0.014299999922513962,0.12809999287128448,0.031999999885518396,0.760999987168104,0.18600000496247812
-0.04333505406975746,0.1140884980559349,9.921782493591309,0.004900000058114529,-0.0139999995008111,0.10849999636411667,-0.48199999306460006,-0.2289999944908223,-0.0749999994190225
-0.059845466166734695,0.12514013051986694,9.92459774017334,-0.014999999664723873,0.0071000000461936,0.10849999636411667,0.21700000578955783,-0.5200000173162305,-0.18099999966512467
-0.044043734669685364,0.12056242674589157,9.93674087524414,0.0030999998562037945,-0.003000000026077032,0.11829999834299088,0.21800000151294321,0.3579999897562813,0.3770000018820965
-0.04855440929532051,0.12632766366004944,9.938867568969727,-0.005499999970197678,0.006199999712407589,0.11829999834299088,-0.18799999640924894,-0.25299999857377775,-0.24299998797907083
-0.05801629647612572,0.12281297147274017,9.929414749145508,-0.01589999906718731,-0.00279999990016222,0.10849999636411667,-0.12700000381868817,0.2639999915516568,0.12299999424472013
-0.05103480443358421,0.12232455611228943,9.922012329101562,-0.005200000014156103,-0.002300000051036477,0.10849999636411667,-0.5699999902484857,0.14900000311465958,-0.010999999647985701
-0.04847779497504234,0.11869494616985321,9.9213228225708,-0.004699999932199717,-0.000699999975040555,0.09869999438524246,0.13499999628619785,0.3409999957576634,-0.007999999971379599
-0.04784572497010231,0.1335294246673584,9.933465957641602,-0.003599999938160181,0.008700000122189522,0.11829999834299088,-0.05799999875029794,0.7500000208706514,0.3570000073731091
-0.04784572497010231,0.1335294246673584,9.933465957641602,0.005200000014156103,0.008999999612569809,0.11829999834299088,-0.05799999875029794,0.7500000208706514,0.3570000073731091
-0.05684792250394821,0.11744996160268784,9.94068717956543,-0.002099999925121665,-0.0005999999702908099,0.11829999834299088,0.3890000039235742,-0.6969999940671738,-0.3459999877148036
-0.051456183195114136,0.12943054735660553,9.92563247680664,-0.003700000001117587,0.008200000040233135,0.10849999636411667,-0.046999999102312236,0.04200000047506539,0.06299999737754478
-0.04998135194182396,0.12115617841482162,9.929376602172852,-0.003000000026077032,-0.0008999999845400453,0.11829999834299088,0.07900000232288394,-0.19999999845072666,0.08100000043976135
-0.04301901534199715,0.12635639309883118,9.932451248168945,0.008799999952316284,0.009399999864399433,0.11829999834299088,0.5240000002097721,-0.9219999789840281,-0.26600000967885407
-0.05102522671222687,0.11450988054275513,9.921380043029785,0.008799999952316284,0.009399999864399433,0.11829999834299088,-0.4500000231945614,-0.8989999572842449,-0.325000010822644
-0.06304412335157394,0.12310027331113815,9.923008918762207,-0.015699999406933784,-0.0008999999845400453,0.10849999636411667,-0.4769999744270334,-0.149999998838045,0.12299999424472013
-0.04403415694832802,0.11609963327646255,9.929328918457031,0.003499999875202775,0.00029999998514540493,0.10849999636411667,-1.082000041777633,-0.07099999651516105,-0.04900000055424296
-0.04590163379907608,0.12918154895305634,9.937315940856934,0.0032999999821186066,0.012999999336898327,0.11819999665021896,-0.5720000083756829,0.11599999750059588,0.16599999711327754
-0.05637866258621216,0.11905886232852936,9.924224853515625,-0.006099999882280827,0.004699999932199717,0.10839999467134476,-1.1529999649216212,-0.2680000011256249,-0.07199999890865307
-0.04142926633358002,0.1201506182551384,9.92656135559082,0.00279999990016222,0.008200000040233135,0.10839999467134476,-0.49000001221253614,0.08499999667351618,0.1180000022875799
-0.03646847978234291,0.13194924592971802,9.941387176513672,0.01269999984651804,0.01899999938905239,0.12799999117851257,-0.12700000381868817,-0.642000002497352,-0.5330000017408804
-0.06006573140621185,0.13643118739128113,9.926580429077148,-0.018299998715519905,0.02889999933540821,0.10839999467134476,0.2069999951948509,-1.2369999792119653,-0.6579999874323713
-0.043871354311704636,0.10793060809373856,9.920738220214844,-0.001999999862164259,-0.0011999999405816197,0.09860000014305115,0.9099999769425504,-0.06500000216452881,-0.12799999954207358
-0.043593622744083405,0.12285128235816956,9.927270889282227,-0.002099999925121665,0.0058999997563660145,0.10839999467134476,-0.1849999958988795,1.248999981253443,0.585999975183505
-0.04516422376036644,0.120399609208107,9.917837142944336,0.0015999999595806003,0.006300000008195639,0.09860000014305115,-1.3860000223472646,-0.08400000095013078,0.1079999983629796
-0.03772304207086563,0.12982319295406342,9.93774700164795,0.01119999960064888,0.019199999049305916,0.11819999665021896,0.28799999563461226,-0.9790000420419002,-0.6390000019869825
-0.05030696466565132,0.133902907371521,9.940505027770996,-0.010999999940395355,0.018199998885393143,0.11819999665021896,0.29399999665535115,1.2749999501027427,0.6789999910049573
-0.04509718343615532,0.12261185795068741,9.919178009033203,0.002199999988079071,0.007400000002235174,0.09860000014305115,-1.2119999927458376,-0.5819999922899634,-0.33900000431089256
-0.044321462512016296,0.12132856994867325,9.91593074798584,0.0005999999702908099,0.010499999858438969,0.09849999845027924,0.6230000170519632,0.0030000000934877653,-0.1610000051561373
-0.049828123301267624,0.12816640734672546,9.929550170898438,-0.008999999612569809,0.018199998885393143,0.10839999467134476,-1.403000043026309,0.3669999912873896,0.08400000095013078
-0.05364927276968956,0.12112744897603989,9.940265655517578,-0.008100000210106373,0.011500000022351742,0.11819999665021896,1.1490000353889325,0.15999999609253868,0.0859999990670082
-0.046313438564538956,0.1078156903386116,9.929923057556152,0.002099999925121665,-0.001500000013038516,0.10839999467134476,-0.559000023951033,-0.9479999478333279,-0.46000000710884187
-0.050555963069200516,0.11710519343614578,9.927366256713867,-0.010199999436736107,0.009599999524652958,0.10839999467134476,0.43699998540905866,1.8089999342267953,0.6339999833494159
-0.054587800055742264,0.12123279273509979,9.924732208251953,-0.005200000014156103,0.008299999870359898,0.10839999467134476,1.641000012367813,-1.1010000272230216,-0.5429999856551608
-0.056244585663080215,0.12777376174926758,9.92859172821045,0.010999999940395355,0.012899999506771564,0.10839999467134476,-1.4160000274509588,-0.13300000483942703,-0.2250000115972807
-0.04833414405584335,0.11918335407972336,9.919349670410156,-0.008799999952316284,0.016099998727440834,0.10839999467134476,0.8960000101347283,0.21899999723632863,0.09200000008774706
-0.055267754942178726,0.12638512253761292,9.915384292602539,-0.004399999976158142,0.007799999788403511,0.09860000014305115,0.8549999853727285,-0.9180000494513394,-0.5420000032719886
-0.05396530404686928,0.13391248881816864,9.924627304077148,-0.0037999998312443495,0.014999999664723873,0.09860000014305115,0.4100000074961602,-1.5380000126320803,-1.1599999483255323
-0.06812940537929535,0.11796710640192032,9.9168701171875,-0.030399998649954796,0.0013000000035390258,0.09860000014305115,-0.6080000145001161,-1.4569999454912528,-0.4070000069857908
-0.055009178817272186,0.1107940748333931,9.92841911315918,-0.014099999330937862,-0.0071000000461936,0.10839999467134476,-1.1680000208343213,-1.488000039699825,-0.5879999933107023
-0.04623682424426079,0.13199713826179504,9.929837226867676,-0.008200000040233135,0.01549999974668026,0.10839999467134476,-1.2340000320624487,-0.7579999866577346,-0.5249999825929442
-0.05272989720106125,0.11762233823537827,9.934433937072754,-0.019899999722838402,0.008999999612569809,0.11809999495744705,-1.5329999939945136,-1.725000026658157,-0.885999972859595
-0.03962882608175278,0.12992854416370392,9.922720909118652,-0.014599999412894249,0.02290000021457672,0.10830000042915344,0.05300000012305109,-1.8059999870772787,-0.8089999953340149
-0.05527732893824577,0.13633541762828827,9.916007995605469,-0.02969999983906746,0.03229999914765358,0.09849999845027924,0.7249999810436709,-1.5519999794399024,-0.9320000162591615
-0.04402458295226097,0.1222958192229271,9.936320304870605,-0.023399999365210533,0.010699999518692493,0.11809999495744705,1.5579999804606413,-0.09899999683187131,-0.03599999945432653
-0.04952166602015495,0.12611696124076843,9.930832862854004,-0.03309999778866768,0.016099998727440834,0.10839999467134476,0.6369999838597853,1.9159999702169226,0.7170000152565876
-0.04556644707918167,0.12374191731214523,9.928428649902344,-0.017799999564886093,0.004399999976158142,0.10839999467134476,-1.8179999891187564,0.747000020360282,0.47399997391666393
-0.04383304715156555,0.13089579343795776,9.935074806213379,-0.017799999564886093,0.004399999976158142,0.10839999467134476,-1.8179999891187564,0.747000020360282,0.47399997391666393
-0.06362830102443695,0.11877156049013138,9.9307279586792,-0.01549999974668026,0.01899999938905239,0.11809999495744705,0.5609999887173774,0.9490000369382059,0.4870000117021667
-0.056838348507881165,0.1348414421081543,9.924933433532715,-0.029500000178813934,0.028099998831748962,0.10830000042915344,-2.0340000258653554,0.5519999871862691,0.32700000226941484
-0.05795883387327194,0.11452902853488922,9.935334205627441,-0.03749999776482582,0.004100000020116568,0.11809999495744705,1.7670000338033292,-1.7949999674189732,-0.475000009660689
-0.05376419425010681,0.13160447776317596,9.922270774841309,-0.03219999745488167,0.018699999898672104,0.10830000042915344,-1.164999966963099,1.8380000636690232,0.6999999945775432
-0.054108958691358566,0.10998004674911499,9.913681030273438,-0.026799999177455902,0.002099999925121665,0.09849999845027924,0.8200000149923204,-1.931999901791089,-0.7810000083575178
-0.050536807626485825,0.12187444418668747,9.91674518585205,-0.03240000084042549,0.00930000003427267,0.09849999845027924,-1.7469999592530623,0.9899999549784999,0.46600000812958076
-0.05575616657733917,0.1328398883342743,9.930631637573242,-0.029600000008940697,0.023099999874830246,0.10830000042915344,1.7569999965281957,-0.08700000146050021,-0.1070000026395942
-0.03643975034356117,0.13439132273197174,9.927691459655762,-0.00989999994635582,0.027899999171495438,0.10830000042915344,-1.8179999891187564,-0.7570000042745624,-0.4870000117021667
-0.04249228909611702,0.12474748492240906,9.923477172851562,-0.02149999886751175,0.02290000021457672,0.10830000042915344,-0.5399999851447914,1.2249999771704876,0.6650000241971352
-0.055219866335392,0.1161092072725296,9.921265602111816,-0.02759999968111515,0.014299999922513962,0.09849999845027924,1.883999893625178,-0.21100000476881897,0.12100000279794933
-0.06518932431936264,0.12033258378505707,9.933294296264648,-0.0279999990016222,-0.0013000000035390258,0.10830000042915344,-1.883999893625178,-0.5320000193577081,-0.33000000277978425
-0.03976290300488472,0.12269805371761322,9.916074752807617,-0.022199999541044235,0.013399999588727951,0.09849999845027924,-1.4419999963002585,0.6480000035180908,0.2549999900205486
-0.05477933585643768,0.12683522701263428,9.913756370544434,-0.022199999541044235,0.013399999588727951,0.09849999845027924,-0.15200000362502902,1.031999962123672,0.5870000109275301
-0.04391923546791077,0.11606132239103317,9.922855377197266,-0.016999999061226845,0.017400000244379044,0.10819999873638153,0.8789999894556839,1.2880000412490984,0.5350000198680775
-0.05456864461302757,0.12403880059719086,9.928840637207031,-0.022499999031424522,0.014499999582767487,0.10830000042915344,0.9060000474098617,1.2849999873778761,0.7450000022330847
-0.035319264978170395,0.12745772302150726,9.924310684204102,0.00029999998514540493,0.02199999988079071,0.10830000042915344,1.0369999807612387,0.9620000213628558,0.739999983595518
-0.051312532275915146,0.11105264723300934,9.930373191833496,-0.01640000008046627,-0.0004999999655410647,0.10830000042915344,-0.0969999987149939,1.0449999465483217,0.7140000147462182
-0.04919605702161789,0.12016976624727249,9.917588233947754,-0.013399999588727951,0.00930000003427267,0.09849999845027924,-1.1550000364096713,1.0460000356531998,0.49000001221253614
-0.0433637797832489,0.11136868596076965,9.920853614807129,-0.0004999999655410647,0.0026000000070780516,0.09849999845027924,-1.4919999692325139,0.1319999957758284,-0.1930000017066024
-0.05187756195664406,0.1303211748600006,9.909984588623047,-0.009800000116229057,0.026599999517202377,0.08869999647140503,-1.0379999631444108,-0.6979999764503461,-0.5530000229302942
-0.05561251938343048,0.12066776305437088,9.917864799499512,-0.011299999430775642,0.019199999049305916,0.09849999845027924,0.7600000047849319,-0.2250000115972807,-0.29399999665535115
-0.06775590777397156,0.12046664953231812,9.926380157470703,-0.031300000846385956,0.016899999231100082,0.10830000042915344,0.4849999935749695,0.8930000096243589,0.5579999882070079
-0.06639600545167923,0.14094185829162598,9.921600341796875,-0.01889999955892563,0.03500000014901161,0.10830000042915344,-0.9089999945593782,-0.01700000066872456,-0.08799999718388561
-0.059366628527641296,0.1216733306646347,9.931474685668945,-0.018799999728798866,0.01769999973475933,0.11809999495744705,0.46600000812958076,-0.5219999820825748,-0.31800000073830653
-0.04572925344109535,0.133443221449852,9.911774635314941,-0.0005999999702908099,0.02589999884366989,0.08869999647140503,-0.3119999997175677,1.4969999878700804,0.19099999691961836
-0.03227383643388748,0.11441411077976227,9.908997535705566,0.012799999676644802,0.006799999624490738,0.08869999647140503,-0.33600000380052314,-0.8050000124404733,-0.49099999459570837
-0.04758715257048607,0.12345461547374725,9.91092300415039,0.0007999999797903001,0.017400000244379044,0.08869999647140503,0.5840000104171607,0.9860000254458112,0.5789999917795939
-0.0437181256711483,0.11490252614021301,9.926149368286133,0.003599999938160181,0.005799999926239252,0.10830000042915344,-0.11200000126684104,-0.9870000078289833,-0.3259999932058162
-0.05083369091153145,0.12031342089176178,9.929089546203613,-0.008799999952316284,0.015799999237060547,0.10830000042915344,-0.1509999945614304,1.1240000489228048,0.3540000068627397
-0.052011638879776,0.12658622860908508,9.939269065856934,-0.0052999998442828655,0.02589999884366989,0.11809999495744705,0.8579999858830979,-0.41199999894293104,-0.1509999945614304
-0.05811206251382828,0.12545616924762726,9.930622100830078,-0.01599999889731407,0.02369999885559082,0.10830000042915344,-1.1279999784554937,-0.4999999961268166,-0.38999998630674637
-0.042808327823877335,0.11057381331920624,9.92874526977539,0.002199999988079071,0.00699999975040555,0.10830000042915344,0.1610000051561373,0.6780000086217851,0.19200000598321698
-0.03860410675406456,0.1275918036699295,9.918707847595215,0.004100000020116568,0.025999998673796654,0.09849999845027924,0.8029999943132761,-0.10999999647985702,0.06299999737754478
-0.056407392024993896,0.1194227859377861,9.93184757232666,-0.0058999997563660145,0.023599999025464058,0.09849999845027924,-0.733000000191607,-0.26699999206202624,-0.49199997697888054
-0.05666596442461014,0.14172716438770294,9.91616153717041,-0.007499999832361937,0.013100000098347664,0.11809999495744705,-1.1889999710460544,0.14900000311465958,0.18400000017549412
-0.048880018293857574,0.10708785057067871,9.924530982971191,-0.007599999662488699,0.007899999618530273,0.10830000042915344,-0.8530000206063841,0.7110000142358488,0.019000000453128628
-0.05075707659125328,0.1356363147497177,9.918938636779785,-0.00559999980032444,0.03949999809265137,0.09849999845027924,-0.88700000860362,0.6660000065803073,0.321000001248676
-0.0457388311624527,0.12655749917030334,9.931417465209961,0.0058999997563660145,0.03189999982714653,0.11809999495744705,-0.3789999933288673,0.4999999961268166,0.3150000002279371
-0.06402094662189484,0.13093410432338715,9.91731071472168,-0.012000000104308128,0.03280000016093254,0.09849999845027924,-0.7080000137254794,0.6510000040284603,0.11500000177721047
-0.06810066848993301,0.11608047783374786,9.927040100097656,-0.02019999921321869,0.02449999935925007,0.10830000042915344,-1.423999993238042,-0.024000000747902123,-0.09800000110848592
-0.05287355184555054,0.12503479421138763,9.931110382080078,-0.0005999999702908099,0.03799999877810478,0.10819999873638153,-1.2340000320624487,-0.18400000017549412,-0.2909999961449817
-0.040701426565647125,0.11582189798355103,9.912589073181152,0.008599999360740185,0.031300000846385956,0.09839999675750732,-0.07099999651516105,-0.6029999958625494,-0.2570000081477458
-0.04034708812832832,0.1269884556531906,9.929118156433105,0.00699999975040555,0.04099999740719795,0.10819999873638153,0.23199999500119176,-0.19699999794035722,-0.1419999930303221
-0.06020938605070114,0.12000696361064911,9.921102523803711,-0.013100000098347664,0.030299998819828033,0.09839999675750732,0.5350000198680775,0.4810000106814279,0.26900001018922354
-0.044512998312711716,0.11312124133110046,9.912291526794434,0.007599999662488699,0.01889999955892563,0.09839999675750732,-0.859000021627123,-0.15200000362502902,-0.057000003026912535
-0.03148854151368141,0.12443144619464874,9.926886558532715,0.016999999061226845,0.030899999663233757,0.10819999873638153,0.11099999887334903,-0.21700000578955783,-0.08799999718388561
-0.05184883251786232,0.12445060908794403,9.928821563720703,-0.0031999999191612005,0.030299998819828033,0.10819999873638153,0.4010000059650519,0.5339999841240525,0.20800000425844953
-0.04487691447138786,0.13159491121768951,9.9222993850708,0.007999999448657036,0.03879999741911888,0.10819999873638153,-1.4689999475327304,-0.7739999715927539,-0.07900000232288394
-0.05784391239285469,0.11502702534198761,9.919301986694336,-0.013599999248981476,0.03269999846816063,0.09839999675750732,1.459999999362475,0.3559999983095105,0.2069999951948509
-0.053543925285339355,0.12623189389705658,9.918143272399902,-0.002899999963119626,0.03830000013113022,0.09839999675750732,-0.6089999968832882,-0.11200000126684104,-0.1629999966029081
-0.05369715392589569,0.11634862422943115,9.920969009399414,-0.0031999999191612005,0.029899999499320984,0.09839999675750732,-0.21299999621558977,0.7879999917614289,0.29800000622931916
-0.057834334671497345,0.11900140345096588,9.9317045211792,-0.010799999348819256,0.03019999898970127,0.11800000071525574,0.31800000073830653,0.1509999945614304,-0.07600000181251451
-0.045231256633996964,0.12734279036521912,9.928438186645508,0.009099999442696571,0.03889999911189079,0.10819999873638153,0.31800000073830653,0.3540000068627397,-0.046999999102312236
-0.047357309609651566,0.12438356876373291,9.921706199645996,0.010199999436736107,0.027899999171495438,0.10819999873638153,0.29800000622931916,-0.38400001196643396,-0.07799999992939192
-0.051484912633895874,0.13085748255252838,9.926886558532715,-0.00039999998989515007,0.03669999912381172,0.10819999873638153,-0.4300000020051476,-0.13300000483942703,0.18799999640924894
-0.044656649231910706,0.11937489360570908,9.922682762145996,0.008899999782443047,0.027799999341368675,0.10819999873638153,-0.3750000104353257,-0.0969999987149939,0.02600000053230619
-0.050393156707286835,0.12340673059225082,9.920317649841309,0.008599999360740185,0.03839999809861183,0.11800000071525574,0.4199999914104407,-0.128999995265459,0.14499999354069154
-0.050393156707286835,0.12340673059225082,9.920317649841309,-0.0009999999310821295,0.027499999850988388,0.09839999675750732,0.4199999914104407,-0.128999995265459,0.14499999354069154
-0.05810248479247093,0.12703633308410645,9.924760818481445,-0.010599999688565731,0.03449999913573265,0.10830000042915344,0.5829999746731356,0.07199999890865307,0.03999999902313467
-0.05086242035031319,0.1231098473072052,9.910721778869629,-0.0005999999702908099,0.02290000021457672,0.08869999647140503,1.3930000057511756,-0.18099999966512467,-0.08100000043976135
-0.03867114707827568,0.12567643821239471,9.9304780960083,0.008599999360740185,0.028599999845027924,0.10830000042915344,-0.26900001018922354,-0.13300000483942703,0.0859999990670082
-0.05582320690155029,0.11978669464588165,9.927576065063477,-0.001500000013038516,0.01939999870955944,0.10830000042915344,0.8290000165234287,0.7129999790021931,0.26600000967885407
-0.05609135702252388,0.12697888910770416,9.9173583984375,0.0005999999702908099,0.026399999856948853,0.09849999845027924,0.5249999825929442,-0.08299999855663877,0.37200000992495624
-0.059366628527641296,0.12824302911758423,9.92225170135498,-0.00930000003427267,0.02499999850988388,0.10830000042915344,-0.46000000710884187,-0.08899999957737763,0.22100000202331266
-0.05499960482120514,0.124402716755867,9.922825813293457,0.00009999999747378752,0.016300000250339508,0.10830000042915344,0.004999999877891834,0.1390000058601659,-0.046999999102312236
-0.041716571897268295,0.1329643875360489,9.915461540222168,0.008100000210106373,0.020800000056624413,0.09860000014305115,0.17599999436777122,0.26300000916848465,0.021000000237532696
-0.058590903878211975,0.13164278864860535,9.926206588745117,-0.010300000198185444,0.021199999377131462,0.10839999467134476,-0.40499998885859356,0.15900000036915327,-0.03599999945432653
-0.044963106513023376,0.11657846719026566,9.91086483001709,0.010099999606609344,0.013199999928474426,0.08869999647140503,0.29899998861249133,0.05799999875029794,-0.04600000004387353
-0.04802768677473068,0.1298614889383316,9.90589427947998,0.000699999975040555,0.02279999852180481,0.08869999647140503,0.017999999727163266,0.06299999737754478,0.28499999512424284
-0.05052723363041878,0.1292390078306198,9.925335884094238,0.0009999999310821295,0.023099999874830246,0.10839999467134476,-0.7219999805333015,-0.09300000248123906,-0.36800000035098823
-0.06009446457028389,0.12424948811531067,9.932182312011719,-0.008700000122189522,0.015599999576807022,0.11809999495744705,-1.1120000468813271,-0.5489999866758997,0.17899999487814064
-0.052806511521339417,0.1213189885020256,9.916955947875977,-0.00029999998514540493,0.018799999728798866,0.09849999845027924,0.7870000093782568,-0.16599999711327754,0.038000000906257256
-0.049205634742975235,0.12149137258529663,9.91572093963623,-0.000699999975040555,0.016499999910593033,0.09849999845027924,-1.3269999945230482,-0.37400000137172706,-0.010999999647985701
-0.05187756195664406,0.12357911467552185,9.914667129516602,-0.001500000013038516,0.019700000062584877,0.09849999845027924,1.151000000155277,0.4019999883482241,0.31600000929153577
-0.05333323776721954,0.11335108429193497,9.931053161621094,-0.00029999998514540493,0.006799999624490738,0.10830000042915344,-0.7170000152565876,0.5609999887173774,-0.2920000052085803
-0.045298296958208084,0.11701900511980057,9.916304588317871,0.010999999940395355,0.01860000006854534,0.09849999845027924,0.3579999897562813,-0.18900000547284757,0.1620000008795227
-0.05737464874982834,0.12201809883117676,9.922395706176758,0.000699999975040555,0.01759999990463257,0.10830000042915344,-0.4840000111917973,-0.20599999947146552,0.05799999875029794
-0.05208825320005417,0.12385684251785278,9.919608116149902,0.00009999999747378752,0.019099999219179153,0.09849999845027924,0.4019999883482241,0.4669999905127529,0.06200000165415938
-0.047855306416749954,0.14472469687461853,9.930219650268555,0.010999999940395355,0.04749999940395355,0.10830000042915344,0.9409999644294169,0.7739999715927539,0.12199999852133472
-0.0626801997423172,0.12898044288158417,9.913862228393555,-0.006399999838322401,0.025200000032782555,0.08869999647140503,0.26600000967885407,0.23000000355442093,0.041000001416626686
-0.04670608416199684,0.1181299164891243,9.916131973266602,-0.005699999630451202,0.024399999529123306,0.09860000014305115,-0.18900000547284757,0.3059999986968288,-0.21700000578955783
-0.04829583689570427,0.1173158809542656,9.912961959838867,0.012899999506771564,0.015599999576807022,0.09849999845027924,0.8269999983962315,0.46000000710884187,0.024999999806340833
-0.044187385588884354,0.14029064774513245,9.906497955322266,0.01489999983459711,0.03359999880194664,0.08879999816417694,0.29699999716572056,0.07600000181251451,0.08700000146050021
-0.04855440929532051,0.12524548172950745,9.921897888183594,0.0052999998442828655,0.02279999852180481,0.10839999467134476,0.4969999956164472,0.26500000061525547,0.18400000017549412
-0.041103653609752655,0.12234370410442352,9.917243003845215,0.015799999237060547,0.011599999852478504,0.09860000014305115,0.585999975183505,0.41300000800652964,0.2740000021463637
-0.0389871783554554,0.12911450862884521,9.928352355957031,0.016899999231100082,0.019600000232458115,0.10839999467134476,-0.08100000043976135,-0.5290000188473387,0.21100000476881897
-0.05428134277462959,0.13320380449295044,9.907207489013672,0.005399999674409628,0.01979999989271164,0.08879999816417694,0.7059999955982822,0.03599999945432653,-0.0329999989439571
-0.051101841032505035,0.14030979573726654,9.919655799865723,0.005399999674409628,0.027799999341368675,0.09860000014305115,0.8230000155026899,0.15500000413539844,0.19000000119623298
-0.05861963331699371,0.1126902848482132,9.922012329101562,-0.0038999998942017555,-0.0038999998942017555,0.10849999636411667,-1.15899996594236,0.06700000028140622,-0.06099999926066736
-0.04858314245939255,0.12776418030261993,9.901373863220215,0.0058999997563660145,0.018699999898672104,0.07899999618530273,-0.6939999935568044,-0.20200000323771067,0.03999999902313467
-0.06215347722172737,0.11569740623235703,9.927173614501953,-0.004299999680370092,0.010699999518692493,0.10839999467134476,0.8819999899660533,0.4489999874505363,0.08200000283325337
-0.05215528979897499,0.12814724445343018,9.929195404052734,0.0066999997943639755,0.01769999973475933,0.10839999467134476,-1.4539999983417362,0.08400000095013078,0.041000001416626686
-0.050536807626485825,0.1258200854063034,9.919628143310547,0.006899999920278788,0.0210999995470047,0.09860000014305115,-0.19799999366374263,0.15900000036915327,-0.11599999750059588
-0.05946239456534386,0.11618582159280777,9.902915954589844,-0.0023999998811632395,0.011699999682605267,0.08879999816417694,-0.3690000094145868,-0.32299999269544677,0.06800000267489824
-0.052480898797512054,0.1264234185218811,9.921026229858398,0.006399999838322401,0.022499999031424522,0.09860000014305115,-1.0040000285080277,-0.7339999825747792,0.02800000031671026
-0.061387334018945694,0.12659581005573273,9.915691375732422,-0.0052999998442828655,0.025100000202655792,0.09860000014305115,-0.1629999966029081,-0.3529999977991411,0.04200000047506539
-0.05689580738544464,0.12893255054950714,9.9356689453125,0.0032999999821186066,0.025499999523162842,0.11819999665021896,-0.2050000037480801,0.5260000183369693,0.007000000079177565
-0.048784252256155014,0.12519758939743042,9.903806686401367,0.0044999998062849045,0.02589999884366989,0.08869999647140503,-1.7539999426569735,-0.5960000124586383,-0.021000000237532696
-0.05812164023518562,0.12956462800502777,9.914255142211914,-0.006799999624490738,0.030499998480081558,0.09849999845027924,0.7429999841058874,0.8930000096243589,0.42200000953763794
-0.06268977373838425,0.12882721424102783,9.919646263122559,-0.004399999976158142,0.0284000001847744,0.09849999845027924,1.1639999845799267,0.2519999895101791,0.09399999820462447
-0.0471561960875988,0.12455594539642334,9.908374786376953,0.015799999237060547,0.02499999850988388,0.08879999816417694,-1.5769999659060299,-0.9510000017045502,-0.4870000117021667
-0.04390966147184372,0.12128067761659622,9.929740905761719,0.012799999676644802,0.019999999552965164,0.10830000042915344,-1.5599999452269855,-1.0269999434861052,-0.023000000021936765
-0.04320097714662552,0.11763191968202591,9.928265571594238,0.010300000198185444,0.023599999025464058,0.10830000042915344,-0.3139999911643385,0.4720000091503196,0.2609999910412874
-0.039044640958309174,0.10761457681655884,9.931684494018555,0.0017999999690800905,0.024299999698996544,0.08869999647140503,0.6179999984143966,0.15200000362502902,0.16800000190026157
-0.04293282330036163,0.1309245228767395,9.912579536437988,0.011500000022351742,0.031199999153614044,0.09849999845027924,-1.1910000425341045,0.9399999820462447,0.13300000483942703
-0.043679818511009216,0.1279844492673874,9.919791221618652,0.011500000022351742,0.031199999153614044,0.09849999845027924,-0.20800000425844953,-0.17700000343136985,0.08499999667351618
-0.058897361159324646,0.1205049604177475,9.931617736816406,-0.00559999980032444,0.025200000032782555,0.11809999495744705,-0.6039999782457216,-0.0269999995907449,-0.013000000266153095
-0.058763287961483,0.12974658608436584,9.925077438354492,-0.005699999630451202,0.03659999743103981,0.10830000042915344,-1.2299999958080543,0.9149999955801171,0.004999999877891834
-0.058763287961483,0.12974658608436584,9.925077438354492,-0.005699999630451202,0.03659999743103981,0.10830000042915344,-1.2299999958080543,0.9149999955801171,0.004999999877891834
-0.040892962366342545,0.12165417522192001,9.913681030273438,0.016300000250339508,0.029999999329447746,0.09839999675750732,-0.5780000093964218,0.1189999980109653,-0.3319999942265551
-0.04908113554120064,0.12885594367980957,9.924080848693848,0.0066999997943639755,0.041200000792741776,0.10819999873638153,-2.6860000656378404,-1.4230000108548697,-0.49600001323327503
-0.06390602886676788,0.12039003521203995,9.928275108337402,-0.008799999952316284,0.03999999910593033,0.10809999704360962,2.0629999418641716,0.8560000211167536,0.42500001004800736
-0.058849480003118515,0.13202586770057678,9.92041301727295,-0.0064999996684491634,0.04399999976158142,0.09839999675750732,-0.817000014481951,-0.6979999764503461,0.24299998797907083
-0.07013095915317535,0.1253795474767685,9.914992332458496,-0.018199998885393143,0.04600000008940697,0.09839999675750732,-0.4210000004740393,-0.34299998720443414,-0.5309999836136831
-0.05112099274992943,0.12518802285194397,9.922730445861816,0.00039999998989515007,0.04699999839067459,0.10819999873638153,1.8709999092005283,0.3999999969014533,0.5600000063342052
-0.05692454054951668,0.11588893830776215,9.918124198913574,0.0015999999595806003,0.031199999153614044,0.09839999675750732,-0.97699997055385,-0.8029999943132761,-0.48299997544777223
-0.0499909333884716,0.12111787497997284,9.921073913574219,-0.00019999999494757503,0.033399999141693115,0.09839999675750732,1.0509999475690606,0.838000018054537,0.30799999014359963
-0.06252697110176086,0.13212162256240845,9.90694808959961,-0.007699999958276749,0.04010000079870224,0.08859999477863312,-0.5690000078653135,-0.3100000082707969,-0.3750000104353257
-0.05739380419254303,0.11345642805099487,9.911707878112793,0.0010999999940395355,0.021900000050663948,0.08859999477863312,0.2379999960219306,0.2589999995945166,0.34899998822517303
-0.05431964993476868,0.13207374513149261,9.926350593566895,0.0017999999690800905,0.040699999779462814,0.10819999873638153,0.9060000474098617,-0.9759999881706778,0.11699999322398127
-0.05241386592388153,0.10982681810855865,9.92863941192627,-0.0016999999061226845,0.017500000074505806,0.10819999873638153,-0.7900000098886262,0.21100000476881897,-0.3139999911643385
-0.05416642129421234,0.12795571982860565,9.913708686828613,-0.00139999995008111,0.03830000013113022,0.09839999675750732,3.4809999340814746,1.6069999710097242,0.46900000863995017
-0.05739380419254303,0.12466129660606384,9.92593002319336,0.0023999998811632395,0.028299998492002487,0.10830000042915344,-2.906000031917128,-1.2890000236322705,-0.44800000506736415
-0.05739380419254303,0.12466129660606384,9.92593002319336,0.0023999998811632395,0.028299998492002487,0.10830000042915344,-2.906000031917128,-1.2890000236322705,-0.44800000506736415
-0.047242388129234314,0.13417106866836548,9.915567398071289,0.008700000122189522,0.045899998396635056,0.09839999675750732,-4.282999892650726,-1.221000047637799,-0.007000000079177565
-0.05017289146780968,0.12540829181671143,9.917577743530273,-0.004799999762326479,0.04910000041127205,0.09829999506473541,-0.7870000093782568,0.0009999999964224499,0.07999999804626934
-0.02537853829562664,0.13170024752616882,9.901019096374512,0.02449999935925007,0.05079999938607216,0.0786999985575676,0.49900001374364444,0.6919999754296072,0.7009999769607155
-0.05001965910196304,0.11361923068761826,9.913642883300781,-0.0010999999940395355,0.025100000202655792,0.09839999675750732,1.3010000256737484,1.4189999746004753,0.6200000165415938
-0.05938578024506569,0.11764149367809296,9.922348022460938,-0.0071000000461936,0.031199999153614044,0.10819999873638153,1.2069999741082709,1.0869999536934938,0.5399999851447914
-0.04723281040787697,0.1155250146985054,9.918478965759277,-0.0071000000461936,0.031199999153614044,0.10819999873638153,-1.2040000269587545,-0.0659999978879142,0.5440000213991859
-0.04723281040787697,0.1155250146985054,9.918478965759277,0.015799999237060547,0.027300000190734863,0.09849999845027924,-1.2040000269587545,-0.0659999978879142,0.5440000213991859
-0.06146394833922386,0.11518983542919159,9.931857109069824,-0.0038999998942017555,0.029999999329447746,0.11800000071525574,0.4889999764685111,1.0239999963365887,-0.2399999874687014
-0.052164867520332336,0.13018712401390076,9.918411254882812,0.008599999360740185,0.03830000013113022,0.09849999845027924,-3.2479999833775373,-1.0720000045024995,-0.11200000126684104
-0.050230350345373154,0.11591766774654388,9.929625511169434,0.00559999980032444,0.03720000013709068,0.10819999873638153,-2.483999995699064,-1.55099999705673,-0.6129999797768299
-0.05340985208749771,0.11905886232852936,9.912272453308105,0.005499999970197678,0.035499997437000275,0.09839999675750732,-0.06200000165415938,1.8579999247758783,0.7009999769607155
-0.048449065536260605,0.12174037098884583,9.920279502868652,0.00989999994635582,0.035499997437000275,0.09839999675750732,-3.5370000147561744,-2.16199990534551,-0.817000014481951
-0.05698200315237045,0.11737334728240967,9.921121597290039,0.0038999998942017555,0.044999998062849045,0.09829999506473541,4.29700007290196,0.1729999938574018,0.4270000014947782
-0.05698200315237045,0.11737334728240967,9.921121597290039,0.0038999998942017555,0.044999998062849045,0.09829999506473541,4.29700007290196,0.1729999938574018,0.4270000014947782
-0.052500054240226746,0.11428003758192062,9.9126558303833,0.004399999976158142,0.02319999970495701,0.09839999675750732,-0.6919999754296072,0.19499999315337319,-0.17400000292100043
-0.05322789400815964,0.12862609326839447,9.910232543945312,0.004900000058114529,0.044599998742341995,0.08859999477863312,1.2549999822741817,-0.1800000039417393,-0.13499999628619785
-0.055957283824682236,0.13079045712947845,9.918938636779785,0.004299999680370092,0.030700000002980232,0.09839999675750732,-1.3169999572479147,-0.11599999750059588,0.3369999861836953
-0.05464525893330574,0.1244218721985817,9.910386085510254,0.003999999724328518,0.04349999874830246,0.09839999675750732,-4.421000022849425,-0.08100000043976135,-0.3190000098019052
-0.04731900244951248,0.12326307594776154,9.924616813659668,0.01599999889731407,0.03839999809861183,0.10819999873638153,3.696999970828074,1.9580000840838003,0.6810000091321545
-0.0462176688015461,0.1178809106349945,9.9057035446167,0.021299999207258224,0.028099998831748962,0.08869999647140503,-3.11499997853811,-1.56399998148138,-0.7369999830851486
-0.04187937453389168,0.1231098473072052,9.904228210449219,0.016499999910593033,0.03749999776482582,0.08859999477863312,-3.426000049233359,-1.291999970781787,-0.11699999322398127
-0.053304508328437805,0.11216355860233307,9.914083480834961,0.003499999875202775,0.03579999879002571,0.09829999506473541,3.339000087793498,1.8799999640924894,0.8239999978858621
-0.06132987141609192,0.11313082277774811,9.927911758422852,-0.0010999999940395355,0.026499999687075615,0.10819999873638153,5.85299998187455,2.085999963563955,0.6510000040284603
-0.052854396402835846,0.11639650911092758,9.908940315246582,0.014299999922513962,0.020099999383091927,0.08869999647140503,3.1470000551298547,0.5949999767146132,-0.30799999014359963
-0.06109045073390007,0.12023680657148361,9.920729637145996,0.006099999882280827,0.011399999260902405,0.09860000014305115,-0.934999963408678,-0.7059999955982822,-0.8829999723492256
-0.05523902177810669,0.12586797773838043,9.920374870300293,0.013700000010430813,0.024000000208616257,0.09860000014305115,-3.246000018611193,-2.1920000171709098,-0.6630000060699379
-0.05546886473894119,0.129488006234169,9.912808418273926,0.00839999970048666,0.031599998474121094,0.08869999647140503,-6.172000125078588,-2.3889999617504145,-0.8399999828208814
-0.05546886473894119,0.129488006234169,9.912808418273926,0.004699999932199717,0.047199998050928116,0.09839999675750732,-6.172000125078588,-2.3889999617504145,-0.8399999828208814
-0.06377195566892624,0.14024275541305542,9.916017532348633,-0.011599999852478504,0.0737999975681305,0.0982000008225441,-4.923999912764906,-2.0539998869722105,-1.0280000325909833
-0.05229894071817398,0.13536816835403442,9.921073913574219,-0.007400000002235174,0.08699999749660492,0.0982000008225441,-0.08299999855663877,-2.4609999739992805,-0.8690000055414034
-0.05564124509692192,0.13547350466251373,9.906890869140625,-0.01489999983459711,0.08709999918937683,0.08829999715089798,-0.15599999985878385,-0.13600000534979648,0.1939999974299878
-0.041955988854169846,0.11480676382780075,9.914838790893555,-0.005399999674409628,0.05779999867081642,0.09809999912977219,6.767000101793201,2.583999941563574,0.5339999841240525
-0.04393838718533516,0.11499829590320587,9.90540599822998,0.001500000013038516,0.04879999905824661,0.08839999884366989,2.200000089679699,1.151999982538449,1.0760000407568941
-0.06267062574625015,0.12641385197639465,9.91723346710205,-0.014800000004470348,0.052400000393390656,0.09829999506473541,-8.545000368698247,-3.5720000384974355,-0.8519999848623591
-0.048899173736572266,0.12707464396953583,9.921609878540039,-0.014299999922513962,0.06929999589920044,0.10799999535083771,5.200999942102065,2.015999916081433,1.3260000121398758
-0.048899173736572266,0.12707464396953583,9.921609878540039,-0.014299999922513962,0.06929999589920044,0.10799999535083771,5.200999942102065,2.015999916081433,1.3260000121398758
-0.05816952511668205,0.12458468228578568,9.917607307434082,-0.019199999049305916,0.056599996984004974,0.09829999506473541,-9.082999855468165,-3.7489999085266734,-1.3870000047304367
-0.06354211270809174,0.1280898004770279,9.923151969909668,-0.029399998486042023,0.0811999961733818,0.1078999936580658,6.891999820680428,2.7230000541454458,0.5799999741627662
-0.054606951773166656,0.12178825587034225,9.907417297363281,-0.012999999336898327,0.07109999656677246,0.08829999715089798,8.091000255888439,3.4890000065902638,0.48199999306460006
-0.054606951773166656,0.12178825587034225,9.907417297363281,-0.012999999336898327,0.07109999656677246,0.08829999715089798,8.091000255888439,3.4890000065902638,0.48199999306460006
-0.0547410286962986,0.11934617161750793,9.90949535369873,-0.002199999988079071,0.05570000037550926,0.10809999704360962,7.424999608977896,3.8870000387253727,1.5879999855643354
-0.054616525769233704,0.12408668547868729,9.925593376159668,-0.012399999424815178,0.06929999589920044,0.08829999715089798,-4.54899990232958,-1.6249999740719407,-1.297999971802526
-0.04497268423438072,0.1231098473072052,9.913182258605957,0.003499999875202775,0.0608999989926815,0.0982000008225441,-6.881999996848706,-2.648000094747063,0.1199999937343507
-0.048401180654764175,0.1322173923254013,9.914101600646973,-0.013399999588727951,0.0892999991774559,0.09809999912977219,6.464999872546502,3.182000078871116,1.1479999462840547
-0.051168881356716156,0.12840582430362701,9.908576011657715,-0.003599999938160181,0.06909999996423721,0.08839999884366989,8.010000188747611,1.8750000521766286,0.4759999920438612
-0.04636131972074509,0.12888465821743011,9.936080932617188,0.010599999688565731,0.04969999939203262,0.11789999902248383,-4.016000114032111,-1.4449999434497751,-1.1240000489228048
-0.061674635857343674,0.1309245228767395,9.918612480163574,-0.012799999676644802,0.06039999797940254,0.0982000008225441,-7.734999697289973,-3.1789999182781874,-1.3300000483942704
-0.04729985073208809,0.12304281443357468,9.92863941192627,-0.0018999999156221747,0.07159999758005142,0.1078999936580658,-8.793000268593179,-3.5979997939033237,-0.9939999912328944
-0.05268201604485512,0.1356937736272812,9.910941123962402,-0.02149999886751175,0.11499999463558197,0.08819999545812607,-5.505999905054869,-3.054999968330722,-0.4300000020051476
-0.04376600682735443,0.12242989987134933,9.920144081115723,-0.020999999716877937,0.1119999960064888,0.09799999743700027,-5.256000040393593,0.5300000012305109,0.3240000017590454
-0.0658692792057991,0.11833102256059647,9.918986320495605,-0.03929999843239784,0.1241999939084053,0.09799999743700027,-9.340000237141881,-4.169999962361565,-0.5240000002097721
-0.0612628310918808,0.13258130848407745,9.919053077697754,-0.050599999725818634,0.15919999778270721,0.09809999912977219,-10.32399997765623,-4.615999789219174,-0.9659999508955445
-0.057690683752298355,0.13272495567798615,9.924177169799805,-0.06319999694824219,0.18699999153614044,0.10809999704360962,-10.7789998594058,-4.339000186768837,-1.339999978947698
-0.05493256449699402,0.1277162879705429,9.914053916931152,-0.06509999930858612,0.21599999070167542,0.09849999845027924,-4.323000041751259,-2.0100000217823997,-1.271000020570054
-0.06334099918603897,0.10690589249134064,9.919157981872559,-0.08100000023841858,0.20909999310970306,0.09869999438524246,9.108999824317465,3.6760001273380465,0.40299999741182274
-0.04820007085800171,0.1114836037158966,9.923218727111816,-0.062199998646974564,0.186599999666214,0.10830000042915344,6.845999777280861,3.157000092404988,1.1539999473047935
-0.051887139678001404,0.1242973804473877,9.909859657287598,-0.05329999700188637,0.17710000276565552,0.0885000005364418,-8.540999585391912,-1.4809999495742083,-0.23199999500119176
-0.051293376833200455,0.13607683777809143,9.904955863952637,-0.05719999969005585,0.21939998865127563,0.08869999647140503,1.8579999247758783,0.6960000116840017,-0.5350000198680775
-0.0457388311624527,0.12589670717716217,9.910970687866211,-0.04529999941587448,0.2037999927997589,0.08859999477863312,4.764999939076179,4.3120000220929535,1.0019999570199776
-0.0451354905962944,0.1129201278090477,9.92541217803955,-0.03179999813437462,0.1687999963760376,0.10809999704360962,-12.115000228985927,-4.0640001221980215,-0.8239999978858621
-0.0423007532954216,0.12791740894317627,9.918095588684082,-0.0414000004529953,0.21679998934268951,0.09849999845027924,8.760999978558024,0.6200000165415938,0.9759999881706778
-0.07279331237077713,0.12683522701263428,9.936243057250977,-0.06889999657869339,0.19209998846054077,0.11789999902248383,-4.953000042207133,-1.8170000067355843,-0.3559999983095105
-0.046198517084121704,0.13348153233528137,9.922213554382324,-0.04429999738931656,0.20489999651908875,0.10819999873638153,10.42200038564122,4.3979997877062305,0.7339999825747792
-0.045413218438625336,0.13233232498168945,9.924521446228027,-0.03199999779462814,0.17569999396800995,0.10799999535083771,-6.1639998391263875,-4.275999802525109,-1.0129999766782831
-0.05270116776227951,0.13662272691726685,9.938379287719727,-0.054899998009204865,0.18410000205039978,0.10809999704360962,2.8769999024749002,0.7930000103989956,-0.4229999919208101
-0.043995849788188934,0.14094185829162598,9.919905662536621,-0.056299999356269836,0.20799998939037323,0.11800000071525574,-10.083000167886915,-3.3959999374079586,-1.067999968248105
-0.05900270864367485,0.14023318886756897,9.921178817749023,-0.07279999554157257,0.22619999945163727,0.09849999845027924,-0.8960000101347283,-0.5560000234406636,0.7729999892095818
-0.04729027301073074,0.12446018308401108,9.922845840454102,-0.054499998688697815,0.20829999446868896,0.10839999467134476,5.860000072000167,1.5060000427620417,0.5420000032719886
-0.049799397587776184,0.12685438990592957,9.920614242553711,-0.05949999764561653,0.19939999282360077,0.09839999675750732,6.198000093927888,3.042999966289244,0.1400000015835513
-0.06419333815574646,0.12119448930025101,9.916438102722168,-0.061799999326467514,0.17399999499320984,0.0982000008225441,4.567999781053262,0.9539999488540668,-0.04900000055424296
-0.051149725914001465,0.13047441840171814,9.935103416442871,-0.04919999837875366,0.17059999704360962,0.11779999732971191,-1.4139999559629086,-1.7699999809528455,-1.0379999631444108
-0.05566040053963661,0.12816640734672546,9.918066024780273,-0.05379999801516533,0.17379999160766602,0.0982000008225441,-4.7819998530335175,-4.502000089990252,-0.6750000081114157
-0.06025726720690727,0.1237131878733635,9.917856216430664,-0.07580000162124634,0.17639999091625214,0.09829999506473541,-2.9119999262161613,-1.5769999659060299,-0.7420000017227153
-0.06239289417862892,0.1306946873664856,9.918785095214844,-0.0803999975323677,0.19449999928474426,0.09839999675750732,0.6609999879427407,1.0139999590614552,-0.44099999498302667
-0.05372588708996773,0.12297577410936356,9.91174602508545,-0.06799999624490738,0.18239998817443848,0.0885000005364418,8.147000123119726,-2.085999963563955,0.0019999999928448997
-0.06256527453660965,0.11659762263298035,9.9057035446167,-0.08320000022649765,0.15950000286102295,0.08839999884366989,2.076999908671994,0.7219999805333015,0.7620000229121291
-0.04685931280255318,0.11870452016592026,9.906258583068848,-0.061400000005960464,0.15320000052452087,0.08839999884366989,5.265000095285554,2.086999945947127,0.4590000247256697
-0.052002061158418655,0.13470736145973206,9.926445960998535,-0.06520000100135803,0.15770000219345093,0.1078999936580658,0.10400000212922476,-0.44500000455699473,0.5029999966371861
-0.05586151406168938,0.12384726852178574,9.921360969543457,-0.06639999896287918,0.1371999979019165,0.09809999912977219,-6.048000175131122,-2.8540000942185286,-0.5330000017408804
-0.0531991608440876,0.1333378702402115,9.913814544677734,-0.0729999989271164,0.16089999675750732,0.0982000008225441,-0.9759999881706778,-0.6320000185830715,0.03899999996469596
-0.04307647794485092,0.1252550631761551,9.924186706542969,-0.06469999998807907,0.16300000250339508,0.10799999535083771,-0.30799999014359963,-0.16800000190026157,0.2639999915516568
-0.048305410891771317,0.11774684488773346,9.924846649169922,-0.0746999979019165,0.15349999070167542,0.10799999535083771,-3.418999959107742,-4.020000043564799,-0.5059999971475555
-0.03877649083733559,0.1411334127187729,9.928572654724121,-0.07569999992847443,0.1818999946117401,0.10809999704360962,7.382000153058081,3.933000082124939,0.9299999447711114
-0.0569915771484375,0.12914323806762695,9.914590835571289,-0.0731000006198883,0.14880000054836273,0.09809999912977219,-9.906000084414266,1.0619999672273661,-0.49099999459570837
-0.04102703928947449,0.13252384960651398,9.908193588256836,-0.060499999672174454,0.171999990940094,0.08839999884366989,6.673999819167484,2.9160000691922616,0.4270000014947782
-0.04872678965330124,0.13347195088863373,9.91295337677002,-0.06209999695420265,0.15309999883174896,0.09809999912977219,-2.923999928257639,-1.653999996792463,-0.42500001004800736
-0.04630386084318161,0.12094549834728241,9.926772117614746,-0.056599996984004974,0.15079998970031738,0.10799999535083771,-6.032999799053305,2.31799993188472,0.049999999612681666
-0.04179318621754646,0.12170206755399704,9.9245023727417,-0.04999999701976776,0.16669999063014984,0.10799999535083771,-7.626999892360085,-2.7789999213767342,-0.369999991797759
-0.04663905128836632,0.12376108020544052,9.919187545776367,-0.04910000041127205,0.20080000162124634,0.10819999873638153,-4.690000193121207,-1.9659999431491777,0.0039999999856897995
-0.04113238677382469,0.12502521276474,9.906412124633789,-0.06300000101327896,0.20080000162124634,0.09849999845027924,4.50999994905563,-1.1430000343681936,0.22199999774669807
-0.05102522671222687,0.11722011864185333,9.917396545410156,-0.05790000036358833,0.18479999899864197,0.0885000005364418,3.966000141099856,1.4499999620873418,-0.08200000283325337
-0.050086699426174164,0.14437994360923767,9.918450355529785,-0.06650000065565109,0.17999999225139618,0.09809999912977219,-3.7760000732025567,-5.760000126135657,-0.22199999774669807
-0.047261543571949005,0.12835794687271118,9.912521362304688,-0.07419999688863754,0.17149999737739563,0.09829999506473541,-20.67100061734248,-8.21700017060225,-0.05499999823992851
-0.038642413914203644,0.11629116535186768,9.910481452941895,-0.09359999746084213,0.21059998869895935,0.08899999409914017,-12.951000015469855,-5.160000024061771,-0.49799997799961937
-0.050230350345373154,0.12840582430362701,9.900713920593262,-0.11729999631643295,0.25519999861717224,0.07970000058412552,13.434000257721891,4.857999794815072,-0.40400000647542134
-0.042664673179388046,0.1291336715221405,9.919474601745605,-0.09389999508857727,0.21769998967647552,0.09869999438524246,-6.898000141866284,-2.311000055202515,-0.39200000443394367
-0.053687579929828644,0.11659762263298035,9.929041862487793,-0.10979999601840973,0.22609999775886536,0.1087999939918518,-2.4100000186838533,-0.1939999974299878,-0.09600000299160849
-0.04622724652290344,0.13489890098571777,9.911564826965332,-0.10029999911785126,0.2523999810218811,0.0892999991774559,-2.3970000342592033,-2.6870000480210128,-0.0009999999964224499
-0.05120718851685524,0.11997823417186737,9.921696662902832,-0.11620000004768372,0.2377999871969223,0.10899999737739563,-14.813000083221834,-5.125999769260271,0.010999999647985701
-0.05578489974141121,0.1267586201429367,9.935237884521484,-0.1298999935388565,0.2874000072479248,0.11949999630451202,-12.115000228985927,-1.3930000057511756,-0.26200000010488605
-0.05739380419254303,0.11013327538967133,9.919655799865723,-0.13339999318122864,0.3001999855041504,0.1005999967455864,14.990999935634244,3.64399983730289,0.2259999939804529
-0.04971320182085037,0.12295661866664886,9.910970687866211,-0.12299999594688416,0.26809999346733093,0.08989999443292618,-0.44500000455699473,-0.6200000165415938,0.03400000133744912
-0.05295974388718605,0.13261961936950684,9.925374031066895,-0.12459999322891235,0.2784999907016754,0.10949999839067459,-16.780999564250532,-0.9810000068082445,-0.06899999839828364
-0.03241749107837677,0.13889242708683014,9.927346229553223,-0.10689999908208847,0.32760000228881836,0.11029999703168869,23.388000350302068,4.2479998689094645,0.08899999957737763
-0.05703946202993393,0.13336661458015442,9.93348503112793,-0.11449999362230301,0.25290000438690186,0.11889999359846115,-50.90799877108422,-3.1869999907869766,0.06299999737754478
-0.03476380929350853,0.13287818431854248,9.905932426452637,-0.10329999774694443,0.3912999927997589,0.09239999949932098,36.99999875288908,-7.319999964640937,-0.15699999558216926
-0.04218583181500435,0.11559205502271652,9.91940689086914,-0.13279999792575836,0.2793000042438507,0.10009999573230743,8.417000062331269,8.199999829758086,-0.09500000059811649
-0.053141701966524124,0.12643299996852875,9.911124229431152,-0.11699999868869781,0.2622999846935272,0.08959999680519104,37.541998169191686,0.18400000017549412,-0.2770000026567332
-0.05815994739532471,0.12150094658136368,9.911947250366211,-0.12600000202655792,0.16169999539852142,0.08869999647140503,-21.705000757675908,6.494999770928491,0.9320000162591615
-0.05637866258621216,0.11464395374059677,9.92607307434082,-0.09799999743700027,0.21050000190734863,0.10859999805688858,-17.761999144171956,5.463999791187991,-0.49199997697888054
-0.04757757484912872,0.11948023736476898,9.929807662963867,-0.07289999723434448,0.26809999346733093,0.10920000076293945,-5.555000109047364,-11.110999987034488,-0.48599997595814165
-0.047568000853061676,0.1251305490732193,9.91696548461914,-0.10300000011920929,0.2922999858856201,0.0997999981045723,24.911999969239506,-1.4119999911965644,-0.1319999957758284
-0.05808333307504654,0.12808021903038025,9.916716575622559,-0.1363999992609024,0.21480000019073486,0.09879999607801437,-17.0169996755474,3.8339999052001894,0.5209999996994026
-0.05588066950440407,0.12476664036512375,9.927173614501953,-0.1014999970793724,0.2076999992132187,0.09860000014305115,-15.844000062962333,-6.547000135513914,0.4229999919208101
-0.048851292580366135,0.12553277611732483,9.925565719604492,-0.09849999845027924,0.296099990606308,0.1096000000834465,-6.444000029056475,-1.242999980232704,-0.5270000007201415
-0.04964616894721985,0.12185529619455338,9.925776481628418,-0.10159999877214432,0.30309998989105225,0.10999999940395355,-18.337999242162883,3.307999993584926,0.24399999704266945
-0.049636587500572205,0.11959516257047653,9.922576904296875,-0.10159999877214432,0.30309998989105225,0.10999999940395355,-18.05299935376035,15.587000535062264,0.24599998848944027
-0.05186798423528671,0.12755349278450012,9.912483215332031,-0.05339999869465828,0.4107999801635742,0.10239999741315842,-16.48100058043065,-6.172999894018348,0.9829999715745888
-0.03923618048429489,0.12268847227096558,9.934529304504395,-0.06019999831914902,0.4449999928474426,0.12349999696016312,-15.489999896017036,5.36300007638372,0.9430000359174671
-0.05602432042360306,0.12899959087371826,9.913613319396973,-0.054899998009204865,0.49609997868537903,0.10529999434947968,-3.0939999216046714,6.691000160011646,0.8960000101347283
-0.04447469115257263,0.11493125557899475,9.911803245544434,-0.026499999687075615,0.4935999810695648,0.0957999974489212,7.951000160923394,-0.08100000043976135,-0.09000000197086964
-0.06235458701848984,0.1344487965106964,9.92406177520752,-0.04619999974966049,0.48739999532699585,0.1143999993801117,-3.3560000017508367,-11.610999716357039,-0.48599997595814165
-0.053735461086034775,0.12806107103824615,9.930181503295898,-0.06399999558925629,0.4843999743461609,0.11469999700784683,-9.795000118891451,2.0279999181229105,0.7009999769607155
-0.04068227484822273,0.12541785836219788,9.926714897155762,-0.04839999973773956,0.5098000168800354,0.11569999903440475,10.32700013824916,8.934000132497983,0.515999981061836
-0.05180094763636589,0.13523408770561218,9.921744346618652,-0.03359999880194664,0.4899999797344208,0.11449999362230301,-1.9940000902082335,-5.333999946941492,-0.941999946812589
-0.04638047516345978,0.11384908109903336,9.904075622558594,-0.03830000013113022,0.46469998359680176,0.09510000050067902,-7.608999782576163,0.2140000052791884,1.1949999720667932
-0.05796841159462929,0.11542925238609314,9.92176342010498,-0.05700000002980232,0.4964999854564667,0.11549999564886093,9.109999593257227,-8.040000087129599,-0.5780000093964218
-0.05416642129421234,0.12087845802307129,9.909658432006836,-0.06629999727010727,0.4732999801635742,0.09510000050067902,0.4429999864297975,6.242000172561109,0.6650000241971352
-0.053429003804922104,0.1272374540567398,9.918373107910156,-0.04899999871850014,0.4804999828338623,0.1046999990940094,-0.3750000104353257,-2.754999917293779,-0.8350000175441675
-0.05507621914148331,0.11138784140348434,9.912616729736328,-0.05639999732375145,0.46050000190734863,0.1046999990940094,1.36900000166822,5.4859998305046025,0.6009999777353522
-0.0510731115937233,0.13059890270233154,9.894843101501465,-0.041200000792741776,0.4749999940395355,0.08489999920129776,-5.910999813872183,-7.969000270707317,-0.14699999832767557
-0.05088157206773758,0.11743079870939255,9.922098159790039,-0.06560000032186508,0.4819999933242798,0.11499999463558197,-1.0259999611029331,-6.837999918215484,-0.9120000484306006
-0.04873637109994888,0.12875059247016907,9.903979301452637,-0.08190000057220459,0.4927999973297119,0.09549999982118607,4.393999858173542,5.396999904298397,-0.49900001374364444
-0.051791369915008545,0.138116717338562,9.916123390197754,-0.06700000166893005,0.48919999599456787,0.1046999990940094,-1.5049999536571637,0.6960000116840017,0.8200000149923204
-0.06173209846019745,0.1278216391801834,9.915193557739258,-0.07459999620914459,0.4820999801158905,0.10480000078678131,-3.816999991242851,-7.015999770627894,0.24299998797907083
-0.04398627579212189,0.13176728785037994,9.9178466796875,-0.07400000095367432,0.4910999834537506,0.10520000010728836,-0.78199999074069,-4.3459998500076304,-0.3349999947369245
-0.04933971166610718,0.11909716576337814,9.920709609985352,-0.08720000088214874,0.4822999835014343,0.09549999982118607,5.067000168322878,0.46600000812958076,-0.8570000034999258
-0.05872498080134392,0.1195664256811142,9.911831855773926,-0.09129999577999115,0.4723999798297882,0.10489999502897263,1.8549999776263617,-0.7729999892095818,-0.3280000113330135
-0.06684611737728119,0.11670296639204025,9.924933433532715,-0.10159999877214432,0.4505999982357025,0.11400000005960464,0.9680000223835946,-0.014999999216793838,-0.12700000381868817
-0.054894257336854935,0.11594640463590622,9.919693946838379,-0.09160000085830688,0.4465999901294708,0.10399999469518661,1.773000034824068,-3.2710000050773207,-0.8470000195856453
-0.05121676251292229,0.1245272234082222,9.9222993850708,-0.1014999970793724,0.4495999813079834,0.1136000007390976,0.49099999459570837,-1.7500000131242845,-0.6369999838597853
-0.049416325986385345,0.11601343750953674,9.919293403625488,-0.1054999977350235,0.4372999966144562,0.10379999876022339,-2.346000078943776,-0.02600000053230619,-0.22700000304405152
-0.04495352879166603,0.12451764196157455,9.909562110900879,-0.09549999982118607,0.4521999955177307,0.0940999984741211,-0.25400000763737635,2.8899998868995502,0.021999999295971403
-0.06173209846019745,0.13291651010513306,9.905597686767578,-0.10689999908208847,0.45159998536109924,0.0940999984741211,4.3979997877062305,4.075000141856328,-0.5960000124586383
-0.04564306139945984,0.11372458189725876,9.90575122833252,-0.07589999586343765,0.4186999797821045,0.09359999746084213,0.4459999869401669,-0.39299998681711584,-0.551000004803097
-0.054942142218351364,0.13166193664073944,9.91407299041748,-0.0867999941110611,0.4355999827384949,0.10329999774694443,-2.5030000878661585,-3.6280001191721354,0.33600000380052314
-0.06118621677160263,0.12463255971670151,9.92761516571045,-0.10499999672174454,0.44039997458457947,0.11329999566078186,-1.1039999743725382,4.493999804038052,0.8519999848623591
-0.05568913370370865,0.11765106767416,9.907341003417969,-0.08249999582767487,0.43230000138282776,0.09369999915361404,2.17499988977016,0.3469999967784022,-1.0239999963365887
-0.053352389484643936,0.12969869375228882,9.920317649841309,-0.08139999955892563,0.4348999857902527,0.10319999605417252,-2.528000074332286,-2.69499990708639,0.5870000109275301
-0.05801629647612572,0.12422076612710953,9.920623779296875,-0.09829999506473541,0.4307999908924103,0.10349999368190765,0.029999998433587676,-0.6339999833494159,-0.04500000098543482
-0.0670567974448204,0.12977531552314758,9.9168701171875,-0.10979999601840973,0.439300000667572,0.10339999943971634,-0.6170000160312243,1.3099999738440038,0.6059999963729188
-0.05291185900568962,0.12719914317131042,9.933724403381348,-0.08669999986886978,0.43959999084472656,0.12299999594688416,-2.1270000950476606,-2.101999895138121,-0.6660000065803073
-0.04919605702161789,0.11859917640686035,9.921782493591309,-0.09229999780654907,0.4342999756336212,0.11339999735355377,0.36499999984061876,1.0650000210985886,0.5020000142540139
-0.052567094564437866,0.1247762143611908,9.906249046325684,-0.08909999579191208,0.44189998507499695,0.09369999915361404,-1.6069999710097242,1.2600000009117485,0.27599999359313454
-0.04698381572961807,0.13097241520881653,9.919637680053711,-0.0754999965429306,0.44509997963905334,0.10359999537467957,-1.359999946776259,-2.197999911469943,-0.3770000018820965
-0.05446329712867737,0.12065818905830383,9.918699264526367,-0.09189999848604202,0.4382999837398529,0.10369999706745148,1.9460000820423227,0.5699999902484857,-1.041000017015633
-0.051389146596193314,0.12004527449607849,9.923727035522461,-0.09039999544620514,0.4323999881744385,0.11329999566078186,1.7140000069998516,1.970000086125278,0.28600000418784144
-0.04185064882040024,0.1250060647726059,9.914810180664062,-0.07490000128746033,0.43629997968673706,0.10329999774694443,-1.7380000110828069,-0.950000019321378,0.830999981289773
-0.056148819625377655,0.11172302812337875,9.919877052307129,-0.08699999749660492,0.4202999770641327,0.10339999943971634,-1.4210000460885255,-2.560999919863791,-0.37100000086135765
-0.05156152695417404,0.12916240096092224,9.914647102355957,-0.09380000084638596,0.44259998202323914,0.10359999537467957,-0.17799999915475526,-1.1089999930101049,-1.1980000259380155
-0.061483100056648254,0.13226526975631714,9.905367851257324,-0.09709999710321426,0.43209999799728394,0.09369999915361404,0.46000000710884187,0.23699998695833197,-0.8530000206063841
-0.0555742122232914,0.11881944537162781,9.913240432739258,-0.09829999506473541,0.429999977350235,0.10349999368190765,-0.4169999909000712,0.5470000219095553,-0.5080000152747527
-0.046935927122831345,0.12647131085395813,9.92574691772461,-0.0867999941110611,0.4396999776363373,0.11329999566078186,-0.6099999792664604,-1.0729999868856717,-0.4930000127229056
-0.046457089483737946,0.13073298335075378,9.915874481201172,-0.08949999511241913,0.44020000100135803,0.10349999368190765,-0.9659999508955445,-1.0650000210985886,-0.0039999999856897995
-0.059539008885622025,0.11925996840000153,9.918095588684082,-0.08949999511241913,0.44020000100135803,0.10349999368190765,-0.6639999884531101,-1.2449999449990485,0.1509999945614304
-0.041218578815460205,0.13006260991096497,9.897639274597168,-0.09519999474287033,0.4423999786376953,0.08399999886751175,1.6840000018961572,0.6149999979040272,-1.0729999868856717
-0.049943044781684875,0.1427614539861679,9.917166709899902,-0.10319999605417252,0.446399986743927,0.10339999943971634,-0.9409999644294169,-1.7479999416362346,0.22100000202331266
-0.05942408740520477,0.12008357793092728,9.907829284667969,-0.11749999970197678,0.42819997668266296,0.09369999915361404,-1.3500000162228314,-0.9080000121762061,1.2660000019324873
-0.05409938097000122,0.11773726344108582,9.930631637573242,-0.10979999601840973,0.4307999908924103,0.11339999735355377,0.5540000053134664,1.4179999922173032,0.33600000380052314
-0.05382165685296059,0.12037088721990585,9.916898727416992,-0.10509999841451645,0.4278999865055084,0.10349999368190765,0.7089999961086516,-0.775000007336779,-0.9810000068082445
-0.04258805885910988,0.12695972621440887,9.921590805053711,-0.09699999541044235,0.4348999857902527,0.11319999396800995,-1.0619999672273661,-0.3089999992071983,0.8269999983962315
-0.05594770610332489,0.11093772947788239,9.908853530883789,-0.10729999840259552,0.4169999957084656,0.09359999746084213,-0.49499997748924995,0.5410000208888165,-0.2929999875917525
-0.052787356078624725,0.12682566046714783,9.907081604003906,-0.1054999977350235,0.4368000030517578,0.09359999746084213,-0.6669999889634796,-0.8709999703077478,-0.128999995265459
-0.050555963069200516,0.12401007115840912,9.923218727111816,-0.10769999772310257,0.4276999831199646,0.11329999566078186,0.6249999818183075,-1.1260000136891493,0.13400000056281244
-0.04865017533302307,0.12265974283218384,9.92024040222168,-0.11079999804496765,0.424699991941452,0.10339999943971634,-0.2770000026567332,-0.4240000009844087,0.1400000015835513
-0.053946152329444885,0.12505394220352173,9.904850959777832,-0.11159999668598175,0.4339999854564667,0.09359999746084213,0.3059999986968288,0.08299999855663877,-0.733000000191607
-0.049512092024087906,0.12529335916042328,9.912503242492676,-0.11109999567270279,0.43199998140335083,0.10329999774694443,-0.2899999870813831,-0.8500000200960147,0.6739999723673906
-0.04768292233347893,0.13531069457530975,9.894909858703613,-0.10329999774694443,0.4414999783039093,0.08370000123977661,0.7069999779814543,1.0090000471455944,0.149999998838045
-0.05113057419657707,0.11701900511980057,9.921409606933594,-0.10999999940395355,0.4188999831676483,0.10319999605417252,-0.8979999749010726,0.13400000056281244,1.9179999349832668
-0.03757939115166664,0.12161586433649063,9.916898727416992,-0.08959999680519104,0.4205999970436096,0.10329999774694443,-1.249999963636615,-1.1000000448398495,-0.007000000079177565
-0.06271850317716599,0.12958377599716187,9.925833702087402,-0.12129999697208405,0.43230000138282776,0.11309999972581863,0.014999999216793838,-0.9740000234043334,-1.39700004200557
-0.05929001420736313,0.1168370470404625,9.922673225402832,-0.12379999458789825,0.4212999939918518,0.11309999972581863,0.9070000297930338,0.3570000073731091,-1.5620000167150356
-0.05069003626704216,0.13407529890537262,9.929712295532227,-0.11289999634027481,0.4372999966144562,0.11299999803304672,0.9860000254458112,0.0019999999928448997,-1.0470000180363719
-0.06035303324460983,0.134822279214859,9.924894332885742,-0.1224999949336052,0.4334999918937683,0.11289999634027481,-0.0539999991814898,0.817000014481951,-0.40299999741182274
-0.06059245765209198,0.12020807713270187,9.920336723327637,-0.10989999771118164,0.4324999749660492,0.10300000011920929,-0.017999999727163266,0.747000020360282,-0.2959999881021219
-0.039916131645441055,0.11628158390522003,9.919771194458008,-0.1013999953866005,0.4124999940395355,0.10300000011920929,0.25100000712700693,0.7849999912510595,0.9740000234043334
-0.05921339616179466,0.11605174094438553,9.930219650268555,-0.1184999942779541,0.4107999801635742,0.1127999946475029,0.5099999800410971,-0.606999978756091,-0.3499999972887716
-0.05377376824617386,0.12162545323371887,9.92099666595459,-0.11009999364614487,0.40829998254776,0.10289999842643738,-0.5739999731420273,0.8480000019688174,-1.339999978947698
-0.0533236600458622,0.12972743809223175,9.904850959777832,-0.11009999364614487,0.40829998254776,0.10289999842643738,0.45700000659847245,1.4139999559629086,0.5960000124586383
-0.05310339480638504,0.11929827928543091,9.917166709899902,-0.10359999537467957,0.40689998865127563,0.10279999673366547,0.36099999026665075,-0.24599998848944027,-2.8989999417915113
-0.04186980053782463,0.12407711148262024,9.895120620727539,-0.09449999779462814,0.4047999978065491,0.08309999853372574,-0.6320000185830715,-0.7849999912510595,-0.49600001323327503
-0.04543237388134003,0.12586797773838043,9.915960311889648,-0.09640000015497208,0.4152999818325043,0.10279999673366547,0.13300000483942703,0.4669999905127529,3.091999956838327
-0.05291185900568962,0.1367376446723938,9.90225601196289,-0.10439999401569366,0.4236999750137329,0.08309999853372574,0.2360000045751598,-0.007000000079177565,-3.276999899376354
-0.04452257603406906,0.11682746559381485,9.901633262634277,-0.09489999711513519,0.4032999873161316,0.08309999853372574,-0.7480000027434541,0.4089999984325616,1.4749999485534695
-0.050536807626485825,0.13832738995552063,9.905540466308594,-0.10359999537467957,0.42479997873306274,0.09290000051259995,0.0749999994190225,0.8029999943132761,-0.06500000216452881
-0.044867340475320816,0.13890200853347778,9.896394729614258,-0.09160000085830688,0.4244999885559082,0.08309999853372574,-0.23099998593759313,1.0499999651858885,-4.2349998844848145
-0.05339069664478302,0.1194227859377861,9.902925491333008,-0.09889999777078629,0.40549999475479126,0.09290000051259995,0.40299999741182274,0.59999999535218,5.540000159856369
-0.05385996401309967,0.12409625947475433,9.913833618164062,-0.09679999947547913,0.40449997782707214,0.10269999504089355,-0.6739999723673906,-0.8849999904764227,-5.893000130975084
-0.059941235929727554,0.1235695406794548,9.91549015045166,-0.10989999771118164,0.40639999508857727,0.10279999673366547,0.650000021645288,0.07900000232288394,7.190000120394438
-0.05547844246029854,0.1312788724899292,9.915806770324707,-0.09939999878406525,0.4147999882698059,0.10269999504089355,-0.4429999864297975,-0.5500000224199247,-6.370999820981025
-0.060151923447847366,0.11588893830776215,9.925938606262207,-0.1111999973654747,0.40609997510910034,0.11259999871253967,0.39399999588071444,0.5360000022512498,1.8589999071590504
-0.05891651660203934,0.12850159406661987,9.912569046020508,-0.1096000000834465,0.4147999882698059,0.10269999504089355,-0.19000000119623298,0.49900001374364444,-3.589000165898186
-0.06889554858207703,0.1249007135629654,9.91463851928711,-0.11829999834299088,0.4152999818325043,0.10269999504089355,-0.6669999889634796,-0.3259999932058162,-0.10199999734224074
-0.050249505788087845,0.12349291890859604,9.91620922088623,-0.09969999641180038,0.4074999988079071,0.10279999673366547,-0.6219999813079381,-0.6230000170519632,-0.9039999759218116
-0.048190489411354065,0.1350904405117035,9.914111137390137,-0.10130000114440918,0.4285999834537506,0.10279999673366547,0.09200000008774706,-0.3319999942265551,2.6909999775537017
-0.051006071269512177,0.13513831794261932,9.933513641357422,-0.10199999809265137,0.4283999800682068,0.1224999949336052,0.3499999972887716,0,1.129999943221838
-0.053802501410245895,0.12744814157485962,9.895695686340332,-0.10189999639987946,0.41769999265670776,0.08320000022649765,0.2740000021463637,0.4590000247256697,0.2379999960219306
-0.06396349519491196,0.13845188915729523,9.912492752075195,-0.1103999987244606,0.42669999599456787,0.10279999673366547,0.35899999881987993,-0.5039999790203582,-1.0419999993988052
-0.04713704437017441,0.13135547935962677,9.924234390258789,-0.11209999769926071,0.4059999883174896,0.09290000051259995,0.35199998873554245,0.8799999718388561,-0.26600000967885407
-0.05427176132798195,0.13289734721183777,9.917204856872559,-0.09789999574422836,0.41449999809265137,0.10269999504089355,-0.21200000049220435,0.34200000482126197,0.8209999973754926
-0.05287355184555054,0.12216175347566605,9.91789436340332,-0.09690000116825104,0.40529999136924744,0.10269999504089355,0.2810000122307012,1.0460000356531998,0.2360000045751598
-0.053112972527742386,0.12614570558071136,9.921016693115234,-0.09399999678134918,0.41429999470710754,0.10269999504089355,0.28699998657101367,-0.3310000118433829,0.515999981061836
-0.05808333307504654,0.1221521645784378,9.9141206741333,-0.09399999678134918,0.41429999470710754,0.10269999504089355,-0.4630000076192113,-1.0909999899478884,-0.12299999424472013
-0.042147524654865265,0.14099933207035065,9.911142349243164,-0.08779999613761902,0.4242999851703644,0.09290000051259995,0.30700000776042746,0.42200000953763794,-0.24099999653230003
-0.05232767015695572,0.12758222222328186,9.918249130249023,-0.09649999439716339,0.4136999845504761,0.10269999504089355,0.38699998579637696,0.6739999723673906,0.25299999857377775
-0.05775772035121918,0.12199893593788147,9.904601097106934,-0.10439999401569366,0.4027999937534332,0.09279999881982803,-0.7459999846162569,-0.8009999761860788,-0.13799999679656727
-0.05682877078652382,0.11975797265768051,9.922606468200684,-0.09679999947547913,0.4047999978065491,0.11249999701976776,0.5690000078653135,-0.30799999014359963,-0.09899999683187131
-0.050345271825790405,0.13074256479740143,9.918133735656738,-0.09779999405145645,0.41290000081062317,0.10260000079870224,0.28600000418784144,0.7170000152565876,0.5399999851447914
-0.05021119862794876,0.13685256242752075,9.896892547607422,-0.09600000083446503,0.421999990940094,0.08299999684095383,-0.15200000362502902,-0.5789999917795939,-0.4799999749374028
-0.05318000912666321,0.1382412165403366,9.92050838470459,-0.09759999811649323,0.42239999771118164,0.10260000079870224,0.22800001210765014,0.29800000622931916,0.6129999797768299
-0.05616797134280205,0.12624147534370422,9.915040016174316,-0.09679999947547913,0.41189998388290405,0.10260000079870224,0.0329999989439571,0.3860000034132048,-0.5339999841240525
-0.056790463626384735,0.12110830098390579,9.924962043762207,-0.09569999575614929,0.40199998021125793,0.11239999532699585,-0.007000000079177565,0.4300000020051476,0.4429999864297975
-0.05313212424516678,0.13061806559562683,9.910271644592285,-0.09439999610185623,0.41179999709129333,0.09279999881982803,0.16699999283666295,0.17700000343136985,-0.4759999920438612
-0.06106172129511833,0.134985089302063,9.918038368225098,-0.10379999876022339,0.4211999773979187,0.10260000079870224,-0.15500000413539844,-0.5679999721212884,0.11200000126684104
-0.03713885322213173,0.1337592601776123,9.919685363769531,-0.07589999586343765,0.41179999709129333,0.10260000079870224,-0.27200001069959295,-0.1189999980109653,0.2770000026567332
-0.06259401142597198,0.13487973809242249,9.920403480529785,-0.10559999942779541,0.42229998111724854,0.10260000079870224,0.4229999919208101,0.45700000659847245,0.0039999999856897995
-0.06260358542203903,0.1311926692724228,9.92176342010498,-0.10439999401569366,0.41130000352859497,0.11239999532699585,-0.009999999755783667,0.6669999889634796,-0.12499999903170415
-0.040251318365335464,0.1254657506942749,9.90170955657959,-0.08269999921321869,0.41130000352859497,0.08289999514818192,0.15800000464576788,0.06700000028140622,-0.38000000239246595
-0.04139095917344093,0.12779290974140167,9.915711402893066,-0.08259999752044678,0.4108999967575073,0.10249999910593033,0.024999999806340833,-0.407999989368963,-0.0539999991814898
-0.05369715392589569,0.1276971399784088,9.919655799865723,-0.09349999576807022,0.4107999801635742,0.10260000079870224,-0.838000018054537,-0.6200000165415938,-0.06899999839828364
-0.058830320835113525,0.12141475826501846,9.919100761413574,-0.10499999672174454,0.4032999873161316,0.10260000079870224,-0.07099999651516105,-0.2909999961449817,-0.05799999875029794
-0.05616797134280205,0.13153745234012604,9.908355712890625,-0.09600000083446503,0.4132999777793884,0.09279999881982803,-0.39200000443394367,-0.4519999879609058,-0.2780000117203318
-0.04469495639204979,0.12589670717716217,9.913421630859375,-0.08760000020265579,0.41439998149871826,0.08309999853372574,-0.39399999588071444,-0.15999999609253868,-0.3579999897562813
-0.053112972527742386,0.11323615908622742,9.920863151550293,-0.08799999952316284,0.4152999818325043,0.10269999504089355,-0.2639999915516568,0.43499999396228783,-0.21999999295971404
-0.04320097714662552,0.1363449990749359,9.908844947814941,-0.09950000047683716,0.39579999446868896,0.10269999504089355,0.5209999996994026,0.5399999851447914,-0.1930000017066024
-0.04837245121598244,0.12754391133785248,9.898127555847168,-0.09690000116825104,0.4145999848842621,0.08309999853372574,-0.09200000008774706,0.15599999985878385,0.08400000095013078
-0.04557602480053902,0.11431834101676941,9.924378395080566,-0.08649999648332596,0.3950999975204468,0.11249999701976776,-0.28799999563461226,0.0539999991814898,0.06700000028140622
-0.05040273442864418,0.12100294977426529,9.902925491333008,-0.09619999676942825,0.40549999475479126,0.09290000051259995,0.13300000483942703,0.04200000047506539,-0.28499999512424284
-0.054606951773166656,0.13527239859104156,9.91407299041748,-0.09609999507665634,0.424699991941452,0.10269999504089355,0,0.32700000226941484,0.08400000095013078
-0.058284446597099304,0.1191929429769516,9.905577659606934,-0.10499999672174454,0.4050999879837036,0.09290000051259995,-0.3510000063523703,-0.49799997799961937,-0.10199999734224074
-0.0664726197719574,0.13278242945671082,9.922040939331055,-0.1062999963760376,0.41579997539520264,0.11249999701976776,0.2259999939804529,0.09899999683187131,0.12199999852133472
-0.048592716455459595,0.13101071119308472,9.905416488647461,-0.09619999676942825,0.41499999165534973,0.09290000051259995,-0.23000000355442093,-0.515999981061836,-0.046999999102312236
-0.049636587500572205,0.13975435495376587,9.90900707244873,-0.0973999947309494,0.4253000020980835,0.09290000051259995,0.023000000021936765,0.11699999322398127,0.06800000267489824
-0.051360417157411575,0.13743674755096436,9.914800643920898,-0.09699999541044235,0.42499998211860657,0.10269999504089355,-0.1079999983629796,0.19799999366374263,-0.2360000045751598
-0.061052143573760986,0.13795390725135803,9.907675743103027,-0.1062999963760376,0.4251999855041504,0.09290000051259995,0.13300000483942703,0.012000000373951061,0.10400000212922476
-0.05421430245041847,0.12921027839183807,9.917195320129395,-0.09640000015497208,0.4147999882698059,0.10269999504089355,-0.43799999447265725,-0.14600000260429016,-0.0749999994190225
-0.04066311940550804,0.1252550631761551,9.911487579345703,-0.08699999749660492,0.41609999537467957,0.09290000051259995,-0.08299999855663877,-0.02800000031671026,0.14799999405106096
-0.060056157410144806,0.12980404496192932,9.90754222869873,-0.10659999400377274,0.41599997878074646,0.09290000051259995,-0.035000000395887826,0.0859999990670082,0.03899999996469596
-0.055986013263463974,0.12370361387729645,9.918171882629395,-0.09649999439716339,0.4059999883174896,0.10269999504089355,0.16400000566650674,-0.16400000566650674,0.08799999718388561
-0.044062890112400055,0.12092633545398712,9.924559593200684,-0.08709999918937683,0.40549999475479126,0.11249999701976776,-0.06099999926066736,0.1610000051561373,0.08100000043976135
-0.05903143808245659,0.1230906993150711,9.927422523498535,-0.10619999468326569,0.40539997816085815,0.11249999701976776,-0.10600000024610218,-0.18900000547284757,-0.12199999852133472
-0.06833051145076752,0.11489295214414597,9.919522285461426,-0.11659999936819077,0.39579999446868896,0.10269999504089355,-0.22800001210765014,-0.5390000027616192,-0.26000000865811523
-0.05851428955793381,0.12360785156488419,9.906785011291504,-0.10809999704360962,0.4057999849319458,0.09290000051259995,-0.11400000605382507,-0.4070000069857908,-0.06800000267489824
-0.049445051699876785,0.12888465821743011,9.913719177246094,-0.10809999704360962,0.4057999849319458,0.09290000051259995,-0.11400000605382507,-0.4070000069857908,-0.06800000267489824
-0.049445051699876785,0.12888465821743011,9.913719177246094,-0.09939999878406525,0.41579997539520264,0.10269999504089355,-0.23900000508552924,-0.5020000142540139,-0.20999999570522035
-0.05362053960561752,0.13405613601207733,9.923602104187012,-0.10080000013113022,0.4163999855518341,0.11259999871253967,0.01700000066872456,0.04500000098543482,0.0019999999928448997
-0.06581181287765503,0.11786176264286041,9.911372184753418,-0.1103999987244606,0.40619999170303345,0.09290000051259995,-0.06399999977103679,0.14600000260429016,-0.09999999922536333
-0.056790463626384735,0.12625104188919067,9.89375114440918,-0.10019999742507935,0.41579997539520264,0.10269999504089355,-0.06399999977103679,-0.048000001495804245,-0.14699999832767557
-0.04779784381389618,0.11851298809051514,9.9222993850708,-0.10040000081062317,0.4165000021457672,0.08309999853372574,-0.04600000004387353,-0.06099999926066736,0.009999999755783667
-0.05263412743806839,0.1245272234082222,9.906143188476562,-0.1005999967455864,0.41609999537467957,0.09290000051259995,-0.048000001495804245,0.05799999875029794,-0.06399999977103679
-0.048707637935876846,0.12187444418668747,9.896998405456543,-0.1005999967455864,0.41609999537467957,0.09290000051259995,0.1189999980109653,0.19699999794035722,-0.06099999926066736
-0.057901374995708466,0.12489113956689835,9.9126558303833,-0.1096000000834465,0.4153999984264374,0.10269999504089355,-0.05600000063342052,-0.1509999945614304,0.17400000292100043
-0.06200982257723808,0.105689637362957,9.92810344696045,-0.10999999940395355,0.3958999812602997,0.11249999701976776,-0.1749999986443858,0.17700000343136985,-0.1849999958988795
-0.06071695312857628,0.1227555051445961,9.912272453308105,-0.10949999839067459,0.40609997510910034,0.10269999504089355,0.257999990530918,-0.010999999647985701,0.16400000566650674
-0.05374504253268242,0.12432610243558884,9.910615921020508,-0.09969999641180038,0.40529999136924744,0.09290000051259995,-0.23199999500119176,0.43999998591942807,0.02800000031671026
-0.057901374995708466,0.11760319024324417,9.919178009033203,-0.10809999704360962,0.4059000015258789,0.10269999504089355,0.004999999877891834,0.14499999354069154,0.009999999755783667
-0.05222232639789581,0.13059890270233154,9.911813735961914,-0.09789999574422836,0.4152999818325043,0.09290000051259995,0.0329999989439571,0.1849999958988795,0.07199999890865307
-0.05121676251292229,0.11275732517242432,9.899162292480469,-0.09719999879598618,0.3950999975204468,0.08309999853372574,0.11099999887334903,0.2680000011256249,-0.2050000037480801
-0.04232948645949364,0.1359906643629074,9.916572570800781,-0.08669999986886978,0.42409998178482056,0.10269999504089355,-0.12400000330831876,-0.012000000373951061,-0.041000001416626686
-0.054492030292749405,0.13394121825695038,9.913900375366211,-0.09640000015497208,0.41429999470710754,0.10269999504089355,0.0329999989439571,-0.17899999487814064,-0.08299999855663877
-0.051484912633895874,0.11631989479064941,9.923295974731445,-0.09690000116825104,0.4039999842643738,0.11249999701976776,0.02800000031671026,0.029999998433587676,0.04200000047506539
-0.053610965609550476,0.12168290466070175,9.909648895263672,-0.09669999778270721,0.4034999907016754,0.09279999881982803,-0.23099998593759313,-0.128999995265459,0.11699999322398127
-0.051149725914001465,0.12622231245040894,9.91441822052002,-0.09709999710321426,0.4138000011444092,0.10269999504089355,-0.2069999951948509,-0.07199999890865307,0.15800000464576788
-0.05077622830867767,0.13277284801006317,9.918305397033691,-0.09719999879598618,0.41429999470710754,0.10269999504089355,-0.0329999989439571,-0.02899999937514897,-0.06299999737754478
-0.0491769015789032,0.12944012880325317,9.899544715881348,-0.09719999879598618,0.4138999879360199,0.08309999853372574,0.10100000161885533,-0.23300000406479038,0.13100000005244303
-0.043469127267599106,0.1269884556531906,9.916199684143066,-0.08810000121593475,0.41339999437332153,0.10269999504089355,-0.14799999405106096,-0.26300000916848465,0.13799999679656727
-0.054137688130140305,0.12243947386741638,9.930133819580078,-0.09839999675750732,0.40389999747276306,0.11249999701976776,0.17899999487814064,-0.14300000209392072,0.017999999727163266
-0.05502833053469658,0.11724884808063507,9.910433769226074,-0.09879999607801437,0.4032000005245209,0.09279999881982803,-0.0329999989439571,-0.1620000008795227,0.038000000906257256
-0.05229894071817398,0.11924082040786743,9.915356636047363,-0.09910000115633011,0.40289998054504395,0.10260000079870224,-0.17100000241063099,0.3310000118433829,-0.12700000381868817
-0.05159026011824608,0.1235695406794548,9.910807609558105,-0.0982000008225441,0.4032999873161316,0.09279999881982803,0.41499999945330046,0.16400000566650674,-0.03599999945432653
-0.04414907842874527,0.1307138353586197,9.914149284362793,-0.09769999980926514,0.4017999768257141,0.09279999881982803,0.18400000017549412,0.325000010822644,-0.10400000212922476
-0.05365884676575661,0.13387417793273926,9.915270805358887,-0.08709999918937683,0.41110000014305115,0.10260000079870224,-0.26900001018922354,0.14600000260429016,-0.01400000015835513
-0.050603847950696945,0.1271704137325287,9.919991493225098,-0.09779999405145645,0.41130000352859497,0.10260000079870224,0.09099999769425504,0.22800001210765014,0.02800000031671026
-0.054185573011636734,0.11372458189725876,9.904573440551758,-0.09669999778270721,0.3919000029563904,0.09279999881982803,-0.46600000812958076,-0.25599999908414717,0.02600000053230619
-0.054683566093444824,0.12554235756397247,9.909265518188477,-0.09669999778270721,0.3919000029563904,0.09279999881982803,0.6709999718570212,0.19799999366374263,0.07399999702553048
-0.05646485090255737,0.14075033366680145,9.90207290649414,-0.09690000116825104,0.42089998722076416,0.08299999684095383,-0.11099999887334903,0.4459999869401669,0.11400000605382507
-0.05647442862391472,0.13362517952919006,9.931435585021973,-0.09569999575614929,0.41119998693466187,0.12219999730587006,-0.024999999806340833,-0.08100000043976135,0.07099999651516105
-0.061339445412158966,0.12691184878349304,9.910309791564941,-0.10559999942779541,0.4107999801635742,0.09279999881982803,-0.03100000082707969,-0.04600000004387353,-0.08400000095013078
-0.0558040551841259,0.12178825587034225,9.912196159362793,-0.0957999974489212,0.40059998631477356,0.10260000079870224,-0.2140000052791884,-0.10100000161885533,0.07399999702553048
-0.0549708716571331,0.1137341558933258,9.906420707702637,-0.09600000083446503,0.3912999927997589,0.09279999881982803,0.03599999945432653,0.021000000237532696,-0.03100000082707969
-0.054827217012643814,0.11036311835050583,9.90661334991455,-0.09589999914169312,0.39069998264312744,0.09269999712705612,0.19499999315337319,0.18799999640924894,-0.13600000534979648
-0.05793968215584755,0.1269214153289795,9.909610748291016,-0.10509999841451645,0.40959998965263367,0.09269999712705612,-0.12400000330831876,-0.25400000763737635,-0.18900000547284757
-0.049847278743982315,0.13341449201107025,9.91566276550293,-0.09600000083446503,0.4096999764442444,0.10249999910593033,-0.15599999985878385,-0.21200000049220435,0.048000001495804245
-0.04491522163152695,0.12155841290950775,9.919818878173828,-0.08669999986886978,0.4001999795436859,0.10249999910593033,-0.6590000231763964,-0.14900000311465958,-0.18900000547284757
-0.051456183195114136,0.13268665969371796,9.91451358795166,-0.09699999541044235,0.41179999709129333,0.10260000079870224,-0.13100000005244303,-0.006000000186975531,0.2140000052791884
-0.056742578744888306,0.12389514595270157,9.923419952392578,-0.09690000116825104,0.40219998359680176,0.11239999532699585,0.03400000133744912,-0.031999999885518396,-0.06399999977103679
-0.06630980968475342,0.120275117456913,9.903212547302246,-0.10669999569654465,0.40149998664855957,0.09279999881982803,-0.01400000015835513,0.29800000622931916,-0.08799999718388561
-0.05543055757880211,0.10438719391822815,9.913383483886719,-0.09600000083446503,0.38179999589920044,0.10260000079870224,-0.10499999785261017,-0.04900000055424296,-0.05799999875029794
-0.04832456633448601,0.1360481083393097,9.915806770324707,-0.09600000083446503,0.42080000042915344,0.10260000079870224,-0.04500000098543482,0.20099999417411205,0.05900000114378995
-0.04641878232359886,0.12776418030261993,9.92154312133789,-0.08549999445676804,0.4105999767780304,0.10260000079870224,-0.3119999997175677,-0.26200000010488605,0.12299999424472013
-0.06678865104913712,0.12007400393486023,9.914207458496094,-0.10569999366998672,0.40129998326301575,0.10260000079870224,-0.24599998848944027,-0.19799999366374263,0.02899999937514897
-0.05007712170481682,0.12197978794574738,9.909735679626465,-0.09640000015497208,0.4017999768257141,0.09279999881982803,0.07999999804626934,0.27500001120996237,0.09399999820462447
-0.05302678048610687,0.12599247694015503,9.927902221679688,-0.09559999406337738,0.41119998693466187,0.11239999532699585,0.18099999966512467,0.31999999218507735,0.13400000056281244
-0.05893566831946373,0.12597331404685974,9.92247200012207,-0.10439999401569366,0.4104999899864197,0.11239999532699585,-0.23900000508552924,-0.04600000004387353,-0.21999999295971404
-0.04462791979312897,0.1214434877038002,9.91152572631836,-0.08489999920129776,0.40119999647140503,0.09279999881982803,-0.05499999823992851,-0.11400000605382507,0
-0.05488467961549759,0.1297178566455841,9.91566276550293,-0.09489999711513519,0.4007999897003174,0.10260000079870224,-0.1620000008795227,-0.11599999750059588,0.0019999999928448997
-0.046294283121824265,0.1331750750541687,9.911497116088867,-0.08460000157356262,0.40950000286102295,0.09269999712705612,0.29399999665535115,0.1419999930303221,-0.06800000267489824
-0.05372588708996773,0.14285722374916077,9.911947250366211,-0.09399999678134918,0.41830000281333923,0.09269999712705612,-0.23399998644796255,-0.3310000118433829,0.02899999937514897
-0.054846372455358505,0.11117714643478394,9.908835411071777,-0.09399999678134918,0.41830000281333923,0.09269999712705612,-0.041000001416626686,0.33600000380052314,0.0969999987149939
-0.0528448186814785,0.12926773726940155,9.903529167175293,-0.0940999984741211,0.4088999927043915,0.09269999712705612,-0.5209999996994026,-0.2289999944908223,-0.09300000248123906
-0.045939940959215164,0.12758222222328186,9.910951614379883,-0.08489999920129776,0.4099999964237213,0.09269999712705612,0.0039999999856897995,0.15800000464576788,-0.024999999806340833
-0.05106353387236595,0.1300721913576126,9.917348861694336,-0.0940999984741211,0.40950000286102295,0.10249999910593033,0.06899999839828364,0.012000000373951061,0.08299999855663877
-0.04002147540450096,0.11567824333906174,9.914111137390137,-0.08419999480247498,0.39890000224113464,0.10249999910593033,0.1180000022875799,0.03100000082707969,-0.04200000047506539
-0.05666596442461014,0.12780249118804932,9.913469314575195,-0.09369999915361404,0.40779998898506165,0.10249999910593033,-0.29399999665535115,0.17100000241063099,-0.0329999989439571
-0.053304508328437805,0.12565727531909943,9.90072250366211,-0.093299999833107,0.4081999957561493,0.08289999514818192,0.007000000079177565,0.26200000010488605,-0.048000001495804245
-0.04566221684217453,0.1252550631761551,9.913622856140137,-0.08269999921321869,0.40799999237060547,0.10249999910593033,0.015999999942759198,0.21100000476881897,-0.08799999718388561
-0.04956955462694168,0.11766064167022705,9.910893440246582,-0.09179999679327011,0.3974999785423279,0.09259999543428421,0.0749999994190225,-0.008999999863581633,0.07300000130214508
-0.0449056476354599,0.11724884808063507,9.921897888183594,-0.08190000057220459,0.3967999815940857,0.11219999939203262,-0.10100000161885533,-0.02899999937514897,-0.09300000248123906
-0.04372769966721535,0.11945150792598724,9.910778045654297,-0.08190000057220459,0.39640000462532043,0.09259999543428421,0.07799999992939192,-0.3600000078834786,0.1509999945614304
-0.047194503247737885,0.11312124133110046,9.922730445861816,-0.08259999752044678,0.3861999809741974,0.11219999939203262,0.06800000267489824,-0.1749999986443858,-0.007000000079177565
-0.04294240102171898,0.13796348869800568,9.903395652770996,-0.08299999684095383,0.4147000014781952,0.09259999543428421,-0.2469999975530389,-0.19900000272734125,0.05300000012305109
-0.052452173084020615,0.13110649585723877,9.901690483093262,-0.093299999833107,0.40529999136924744,0.0828000009059906,-0.08499999667351618,-0.16899999762364695,-0.01700000066872456
-0.044608764350414276,0.12074437737464905,9.899660110473633,-0.08379999548196793,0.39499998092651367,0.0828000009059906,0.06399999977103679,-0.07600000181251451,0.0539999991814898
-0.044608764350414276,0.12074437737464905,9.899660110473633,-0.08379999548196793,0.39499998092651367,0.0828000009059906,0.06399999977103679,-0.07600000181251451,0.0539999991814898
-0.056742578744888306,0.13118310272693634,9.935171127319336,-0.09389999508857727,0.4039999842643738,0.12199999392032623,-0.1319999957758284,-0.20299999896109608,0.13000000432905762
-0.053448159247636795,0.12264058738946915,9.907282829284668,-0.09439999610185623,0.39419999718666077,0.0925000011920929,-0.128999995265459,-0.22800001210765014,-0.06200000165415938
-0.04852567985653877,0.11155064404010773,9.911678314208984,-0.0949999988079071,0.38449999690055847,0.09259999543428421,0.10199999734224074,0.08899999957737763,-0.05200000106461238
-0.06025726720690727,0.1095874011516571,9.919512748718262,-0.10439999401569366,0.38359999656677246,0.1022999957203865,-0.021999999295971403,0.10199999734224074,-0.03699999851276524
-0.051810525357723236,0.12091676145792007,9.903979301452637,-0.08429999649524689,0.3928999900817871,0.1022999957203865,-0.1419999930303221,0.09000000197086964,0.024000000747902123
-0.05618712678551674,0.12026554346084595,9.921466827392578,-0.09380000084638596,0.39239999651908875,0.0925000011920929,-0.12700000381868817,-0.26300000916848465,-0.02899999937514897
-0.04997177794575691,0.12558066844940186,9.904218673706055,-0.0940999984741211,0.40209999680519104,0.0925000011920929,-0.24599998848944027,-0.13600000534979648,0.04500000098543482
-0.06557239592075348,0.1258200854063034,9.919560432434082,-0.10419999808073044,0.4023999869823456,0.1022999957203865,-0.013000000266153095,-0.3860000034132048,-0.09000000197086964
-0.04441722854971886,0.1316523551940918,9.912760734558105,-0.10419999808073044,0.4023999869823456,0.1022999957203865,0.15699999558216926,-0.04900000055424296,-0.0659999978879142
-0.03950433060526848,0.12566685676574707,9.919666290283203,-0.08569999784231186,0.40119999647140503,0.1022999957203865,-0.23699998695833197,0.15500000413539844,-0.2140000052791884
-0.05898355320096016,0.1151706799864769,9.890763282775879,-0.10480000078678131,0.39169999957084656,0.07289999723434448,-0.11599999750059588,0.049999999612681666,-0.03400000133744912
-0.0447811484336853,0.1330888867378235,9.909285545349121,-0.08489999920129776,0.4010999798774719,0.0925000011920929,-0.1070000026395942,-0.11299999699022645,-0.13000000432905762
-0.052758630365133286,0.11710519343614578,9.907781600952148,-0.09489999711513519,0.39089998602867126,0.0925000011920929,-0.15399999507179982,0.09099999769425504,-0.013000000266153095
-0.05292143300175667,0.11851298809051514,9.908509254455566,-0.09439999610185623,0.39069998264312744,0.09239999949932098,-0.19499999315337319,0.3029999981864594,-0.0749999994190225
-0.05336196720600128,0.10842860490083694,9.903404235839844,-0.09359999746084213,0.38099998235702515,0.09239999949932098,0.12299999424472013,0.13000000432905762,0.017999999727163266
-0.042837053537368774,0.10798807442188263,9.918622016906738,-0.08329999446868896,0.3799999952316284,0.1021999940276146,0.02800000031671026,-0.024000000747902123,-0.15699999558216926
-0.05547844246029854,0.12034215778112411,9.918737411499023,-0.09309999644756317,0.38909998536109924,0.1021999940276146,-0.49799997799961937,-0.25299999857377775,0.10400000212922476
-0.04236779361963272,0.12896127998828888,9.905665397644043,-0.08389999717473984,0.3999999761581421,0.09239999949932098,-0.08400000095013078,-0.14900000311465958,-0.14499999354069154
-0.05167644843459129,0.12313857674598694,9.923927307128906,-0.09399999678134918,0.38979998230934143,0.1119999960064888,-0.04200000047506539,-0.010999999647985701,0.05799999875029794
-0.07136636227369308,0.11391611397266388,9.908623695373535,-0.11339999735355377,0.37939998507499695,0.09239999949932098,-0.10199999734224074,0.008999999863581633,-0.09099999769425504
-0.06650134176015854,0.11182837933301926,9.906881332397461,-0.10339999943971634,0.3789999783039093,0.09239999949932098,-1.4689999475327304,-0.2289999944908223,0.13400000056281244
-0.05163814127445221,0.1335294246673584,9.915529251098633,-0.0940999984741211,0.40230000019073486,0.1022999957203865,0.1930000017066024,0.19000000119623298,-0.13000000432905762
-0.050393156707286835,0.12269805371761322,9.900693893432617,-0.09349999576807022,0.39159998297691345,0.08269999921321869,-0.1199999937343507,-0.22800001210765014,-0.0749999994190225
-0.0510731115937233,0.1258009374141693,9.905616760253906,-0.094200000166893,0.40139999985694885,0.0925000011920929,-0.26000000865811523,-0.4310000110687462,0.08499999667351618
-0.04603571072220802,0.1358661651611328,9.90410327911377,-0.08529999852180481,0.4114999771118164,0.0925000011920929,-0.22299999347008345,-0.0030000000934877653,-0.18199999538851008
-0.03688985854387283,0.13207374513149261,9.919733047485352,-0.07539999485015869,0.4018999934196472,0.1022999957203865,-0.05200000106461238,0.16999999334703236,0.031999999885518396
-0.043545741587877274,0.1300051510334015,9.910893440246582,-0.09439999610185623,0.39159998297691345,0.11209999769926071,-0.024000000747902123,0.06500000216452881,0
-0.050536807626485825,0.13137462735176086,9.915404319763184,-0.08449999988079071,0.40129998326301575,0.0925000011920929,-0.024999999806340833,-0.0009999999964224499,-0.16800000190026157
-0.05388868972659111,0.11653058975934982,9.921045303344727,-0.09389999508857727,0.40059998631477356,0.1022999957203865,0.09999999922536333,-0.23099998593759313,-0.03599999945432653
-0.05114014819264412,0.13500423729419708,9.92198371887207,-0.09429999440908432,0.409199982881546,0.1119999960064888,-0.4280000105583768,-0.05300000012305109,-0.04500000098543482
-0.06123410537838936,0.12991896271705627,9.899065971374512,-0.10419999808073044,0.4000999927520752,0.08259999752044678,-0.021000000237532696,0.06200000165415938,0.004999999877891834
-0.06185659393668175,0.12765882909297943,9.93118667602539,-0.10379999876022339,0.39959999918937683,0.121799997985363,0.27599999359313454,0.22100000202331266,0.1419999930303221
-0.0624503567814827,0.12433568388223648,9.908910751342773,-0.10300000011920929,0.3885999917984009,0.09239999949932098,-0.20599999947146552,-0.17599999436777122,0.26000000865811523
-0.06087975949048996,0.13488933444023132,9.910433769226074,-0.10339999943971634,0.40829998254776,0.09239999949932098,-0.18199999538851008,0.11699999322398127,0.07399999702553048
-0.040605660527944565,0.12686395645141602,9.924263000488281,-0.08329999446868896,0.3982999920845032,0.1119999960064888,-0.27899999410350396,-0.03999999902313467,-0.14799999405106096
-0.05827486887574196,0.11987289786338806,9.9299898147583,-0.10289999842643738,0.3888999819755554,0.1119999960064888,0.006000000186975531,-0.03100000082707969,-0.006000000186975531
-0.05347689241170883,0.12752476334571838,9.91032886505127,-0.09299999475479126,0.3978999853134155,0.09239999949932098,0.2039999946844815,-0.19999999845072666,0.04900000055424296
-0.0509486123919487,0.12955503165721893,9.924530982971191,-0.09349999576807022,0.3968999981880188,0.11189999431371689,-0.19999999845072666,-0.10199999734224074,-0.04600000004387353
-0.062028978019952774,0.12320561707019806,9.916946411132812,-0.10339999943971634,0.38679999113082886,0.10209999978542328,0.18099999966512467,-0.19000000119623298,0.08499999667351618
-0.038661569356918335,0.1266341209411621,9.902543067932129,-0.08419999480247498,0.39569997787475586,0.09229999780654907,-0.041000001416626686,0.08100000043976135,-0.16599999711327754
-0.045231256633996964,0.12419202923774719,9.907320976257324,-0.08379999548196793,0.3852999806404114,0.09229999780654907,0.14499999354069154,0.21299999621558977,0
-0.051551952958106995,0.13217909634113312,9.92994213104248,-0.09299999475479126,0.39419999718666077,0.11189999431371689,0.3059999986968288,0.07999999804626934,0.03100000082707969
-0.0498855859041214,0.12556152045726776,9.902294158935547,-0.09259999543428421,0.3928999900817871,0.08240000158548355,-0.11599999750059588,-0.2800000031671026,-0.029999998433587676
-0.0453844889998436,0.12618400156497955,9.920729637145996,-0.08339999616146088,0.3926999866962433,0.10199999809265137,-0.11200000126684104,-0.06099999926066736,0.14300000209392072
-0.0649307444691658,0.13028287887573242,9.904630661010742,-0.10289999842643738,0.39229997992515564,0.09219999611377716,0.21299999621558977,-0.012000000373951061,0.0009999999964224499
-0.056388236582279205,0.12745772302150726,9.902772903442383,-0.09299999475479126,0.39089998602867126,0.09219999611377716,-0.15999999609253868,0.38300000290283537,0.09500000059811649
-0.05829402059316635,0.11849382519721985,9.909189224243164,-0.10159999877214432,0.38109999895095825,0.09219999611377716,0.04900000055424296,0.26699999206202624,-0.16400000566650674
-0.05221274867653847,0.13445837795734406,9.91500186920166,-0.0908999964594841,0.4000999927520752,0.10189999639987946,0.19099999691961836,0.049999999612681666,0.07600000181251451
-0.052385132759809494,0.12328223139047623,9.921935081481934,-0.09059999883174896,0.37929999828338623,0.11169999837875366,-0.3089999992071983,-0.13600000534979648,-0.05900000114378995
-0.0421762578189373,0.11318828165531158,9.902714729309082,-0.0810999944806099,0.3698999881744385,0.09209999442100525,-0.1180000022875799,0.2469999975530389,-0.1400000015835513
-0.04220498725771904,0.12224794179201126,9.916534423828125,-0.0802999958395958,0.37959998846054077,0.10189999639987946,-0.006000000186975531,0.10600000024610218,0.19499999315337319
-0.04937801882624626,0.11520898342132568,9.913776397705078,-0.08959999680519104,0.37880000472068787,0.09209999442100525,-0.015999999942759198,-0.15200000362502902,-0.07300000130214508
-0.04833414405584335,0.1191929429769516,9.90087604522705,-0.08899999409914017,0.3797999918460846,0.10189999639987946,-0.029999998433587676,-0.2770000026567332,-0.024999999806340833
-0.05002924054861069,0.12870271503925323,9.921724319458008,-0.08980000019073486,0.38839998841285706,0.11169999837875366,-0.20899999998183494,0.09600000299160849,0
-0.05742253363132477,0.12128067761659622,9.898185729980469,-0.08940000087022781,0.37869998812675476,0.08229999989271164,0.08799999718388561,-0.0039999999856897995,0.006000000186975531
-0.04701254144310951,0.11105264723300934,9.91490650177002,-0.0794999971985817,0.36789998412132263,0.10189999639987946,-0.22299999347008345,-0.04900000055424296,0.08499999667351618
-0.04388092830777168,0.11250832676887512,9.907761573791504,-0.0794999971985817,0.36809998750686646,0.09209999442100525,-0.06299999737754478,0.17599999436777122,-0.08499999667351618
-0.049157749861478806,0.11637736111879349,9.915778160095215,-0.08869999647140503,0.3772999942302704,0.10179999470710754,-0.1749999986443858,-0.019000000453128628,-0.024000000747902123
-0.059730544686317444,0.11968135833740234,9.912914276123047,-0.09839999675750732,0.37709999084472656,0.10179999470710754,-0.23399998644796255,0.15399999507179982,-0.12700000381868817
-0.036267369985580444,0.11535263806581497,9.919646263122559,-0.06839999556541443,0.3771999776363373,0.10179999470710754,0.031999999885518396,-0.03999999902313467,0.0429999995335041
-0.040299203246831894,0.11821610480546951,9.897801399230957,-0.07819999754428864,0.37619999051094055,0.08219999819993973,-0.13400000056281244,-0.017999999727163266,-0.26900001018922354
-0.05087199807167053,0.1209838017821312,9.9178466796875,-0.08789999783039093,0.37610000371932983,0.10179999470710754,-0.09800000110848592,-0.17100000241063099,0.09200000008774706
-0.05707776919007301,0.12666285037994385,9.908835411071777,-0.08810000121593475,0.3852999806404114,0.09200000017881393,0.22700000304405152,-0.15900000036915327,0.03699999851276524
-0.047778692096471786,0.12487198412418365,9.909582138061523,-0.0786999985575676,0.38419997692108154,0.09200000017881393,-0.39699999639108385,-0.21899999723632863,0.049999999612681666
-0.045911211520433426,0.11360965669155121,9.912004470825195,-0.07909999787807465,0.3651999831199646,0.10179999470710754,0.06099999926066736,-0.20299999896109608,-0.19600000221697184
-0.05772899091243744,0.1131691262125969,9.930401802062988,-0.09919999539852142,0.3644999861717224,0.11159999668598175,0.019999999511567335,0.22800001210765014,0.07199999890865307
-0.048209644854068756,0.13041695952415466,9.908317565917969,-0.08859999477863312,0.38359999656677246,0.09189999848604202,-0.10299999973573276,-0.007999999971379599,-0.1180000022875799
-0.051341261714696884,0.11076535284519196,9.90361499786377,-0.08839999884366989,0.3633999824523926,0.09189999848604202,0.007999999971379599,0.26000000865811523,0.006000000186975531
-0.03916914016008377,0.11509406566619873,9.909303665161133,-0.07769999653100967,0.3726999759674072,0.09189999848604202,-0.04900000055424296,0.1079999983629796,0.14399999781730613
-0.052174441516399384,0.12157756090164185,9.922414779663086,-0.08709999918937683,0.37209999561309814,0.11149999499320984,0.007999999971379599,0.17599999436777122,0.03699999851276524
-0.054396264255046844,0.11805330216884613,9.909141540527344,-0.08639999479055405,0.37119999527931213,0.09189999848604202,0.15900000036915327,0.17799999915475526,0.11500000177721047
-0.0464475117623806,0.12020807713270187,9.911592483520508,-0.07589999586343765,0.370199978351593,0.09179999679327011,0.0969999987149939,0.01400000015835513,0.04500000098543482
-0.04842991381883621,0.1202559694647789,9.907044410705566,-0.08549999445676804,0.36910000443458557,0.09179999679327011,0.1180000022875799,-0.0539999991814898,-0.13499999628619785
-0.047002967447042465,0.1221713274717331,9.910490989685059,-0.07569999992847443,0.36800000071525574,0.09179999679327011,0.42200000953763794,0.0859999990670082,0.28199999461387343
-0.05742253363132477,0.11330319941043854,9.90890121459961,-0.08509999513626099,0.37610000371932983,0.1014999970793724,-0.11200000126684104,0.08299999855663877,0.06700000028140622
-0.06450936943292618,0.12331096827983856,9.896815299987793,-0.08479999750852585,0.35589998960494995,0.0916999951004982,0.006000000186975531,-0.14099999730693671,-0.05200000106461238
-0.05572744086384773,0.12386641651391983,9.90721607208252,-0.08449999988079071,0.3642999827861786,0.0916999951004982,-0.14099999730693671,0.1529999993484144,0.05900000114378995
-0.029659369960427284,0.11993992328643799,9.909600257873535,-0.06430000066757202,0.3637999892234802,0.0916999951004982,0.01400000015835513,0.04200000047506539,-0.26500000061525547
-0.04445553570985794,0.11702857911586761,9.908921241760254,-0.0738999992609024,0.36319997906684875,0.09160000085830688,0.0009999999964224499,-0.021000000237532696,-0.2069999951948509
-0.04572925344109535,0.11793837696313858,9.892276763916016,-0.07369999587535858,0.3621000051498413,0.07199999690055847,0.004999999877891834,0.09800000110848592,0.19200000598321698
-0.019297266378998756,0.18297447264194489,10.142470359802246,-0.05379999801516533,0.43050000071525574,0.3367999792098999,-0.024999999806340833,-0.40499998885859356,-0.07699999753589991
0.07394252717494965,0.17067785561084747,9.78641414642334,0.013899999670684338,0.4104999899864197,-0.025999998673796654,0.03999999902313467,0.23699998695833197,-0.046999999102312236
-0.13608641922473907,0.07110778987407684,9.734910011291504,-0.17159999907016754,0.31189998984336853,-0.07499999552965164,-0.19499999315337319,0.014999999216793838,-0.05499999823992851
0.01597411371767521,0.15613067150115967,10.074896812438965,-0.04399999976158142,0.40039998292922974,0.26809999346733093,0.10499999785261017,-0.29899998861249133,0.16599999711327754
-0.09203311055898666,0.09657251834869385,9.840590476989746,-0.12319999933242798,0.3409000039100647,0.02290000021457672,-0.09600000299160849,-0.057000003026912535,-0.1509999945614304
-0.01318726222962141,0.14264653623104095,9.9188232421875,-0.04479999840259552,0.3797999918460846,0.1013999953866005,0.13100000005244303,-0.21100000476881897,-0.048000001495804245
-0.07825209200382233,0.13057975471019745,9.903653144836426,-0.11389999836683273,0.369299978017807,0.09149999916553497,-0.12299999424472013,-0.24599998848944027,-0.0030000000934877653
-0.06234501302242279,0.1303211748600006,9.93838882446289,-0.09489999711513519,0.3691999912261963,0.12099999934434891,-0.07000000079177565,0.12799999954207358,-0.01400000015835513
-0.050086699426174164,0.13502338528633118,9.911813735961914,-0.08460000157356262,0.37860000133514404,0.09149999916553497,0.08299999855663877,0.007999999971379599,-0.2140000052791884
-0.05681919306516647,0.12276508659124374,9.915011405944824,-0.08449999988079071,0.35830000042915344,0.10130000114440918,0.30100000673968863,0.1189999980109653,-0.010999999647985701
-0.04727111756801605,0.11085154116153717,9.927997589111328,-0.07419999688863754,0.34709998965263367,0.11109999567270279,0.09000000197086964,-0.15500000413539844,-0.024000000747902123
-0.05253836140036583,0.13903608918190002,9.920297622680664,-0.08419999480247498,0.3757999837398529,0.10130000114440918,0.1800000039417393,-0.08799999718388561,0.14399999781730613
-0.05456864461302757,0.11553459614515305,9.930746078491211,-0.0843999981880188,0.35519999265670776,0.11099999397993088,-0.05900000114378995,-0.04900000055424296,0.06500000216452881
-0.05668511986732483,0.13301226496696472,9.913335800170898,-0.0843999981880188,0.3646000027656555,0.10119999945163727,-0.0039999999856897995,0.09099999769425504,0.008999999863581633
-0.04877467826008797,0.11780429631471634,9.910577774047852,-0.07419999688863754,0.37379997968673706,0.10119999945163727,0.09800000110848592,0.10199999734224074,-0.006000000186975531
-0.04877467826008797,0.11780429631471634,9.910577774047852,-0.08349999785423279,0.353300005197525,0.09139999747276306,0.13000000432905762,-0.08799999718388561,-0.0539999991814898
-0.06582139432430267,0.107107013463974,9.931608200073242,-0.0835999995470047,0.352400004863739,0.11099999397993088,0.15699999558216926,-0.1199999937343507,0.12100000279794933
-0.053831230849027634,0.11737334728240967,9.90878677368164,-0.08399999886751175,0.3511999845504761,0.09129999577999115,-0.05799999875029794,0.23499999551156117,-0.1419999930303221
-0.05281608924269676,0.12297577410936356,9.917740821838379,-0.08329999446868896,0.35089999437332153,0.10109999775886536,-0.15800000464576788,-0.3089999992071983,-0.03699999851276524
-0.05348646640777588,0.11508448421955109,9.919934272766113,-0.08410000056028366,0.35099998116493225,0.10109999775886536,-0.4199999914104407,-0.17799999915475526,-0.11599999750059588
-0.041457995772361755,0.11655931919813156,9.926513671875,-0.07459999620914459,0.351500004529953,0.11099999397993088,-0.0429999995335041,-0.21899999723632863,0.05999999686717535
-0.10734643042087555,0.07779240608215332,9.799007415771484,-0.14379999041557312,0.31200000643730164,-0.006599999964237213,-0.1620000008795227,-0.07399999702553048,-0.10999999647985702
-0.07791689783334732,0.13481271266937256,10.083487510681152,-0.11449999362230301,0.3709999918937683,0.2678999900817871,0.15699999558216926,-0.04200000047506539,0.10900000075647161
0.027255592867732048,0.16958609223365784,9.89179801940918,-0.03610000014305115,0.3991999924182892,0.07169999927282333,-0.07600000181251451,0.06700000028140622,-0.19000000119623298
-0.1249869093298912,0.07782112807035446,9.820651054382324,-0.16269999742507935,0.3098999857902527,0.003000000026077032,-0.20899999998183494,0.19000000119623298,0.07699999753589991
0.00849462766200304,0.15262556076049805,10.027558326721191,-0.04439999908208847,0.37860000133514404,0.21879999339580536,0.17599999436777122,-0.004999999877891834,-0.15399999507179982
-0.0708492174744606,0.11998781561851501,9.903308868408203,-0.10319999605417252,0.3482999801635742,0.09129999577999115,-0.05799999875029794,0.07199999890865307,0.14499999354069154
-0.053706735372543335,0.10410946607589722,9.92646598815918,-0.08329999446868896,0.32829999923706055,0.11089999973773956,0.05300000012305109,-0.09099999769425504,-0.03400000133744912
-0.045221682637929916,0.12972743809223175,9.902983665466309,-0.07360000163316727,0.3569999933242798,0.09119999408721924,0.1390000058601659,0.1800000039417393,0.24899998899980968
-0.041812337934970856,0.11364796757698059,9.911114692687988,-0.07289999723434448,0.33649998903274536,0.09119999408721924,-0.048000001495804245,0.08799999718388561,-0.043999998591942806
-0.043708544224500656,0.12487198412418365,9.923065185546875,-0.07259999960660934,0.35569998621940613,0.11079999804496765,-0.2899999870813831,0.09899999683187131,0.1400000015835513
-0.07934384047985077,0.11685619503259659,9.88890552520752,-0.11140000075101852,0.34630000591278076,0.07159999758005142,0.013000000266153095,0.007000000079177565,-0.16500000138989213
-0.03168965503573418,0.12708422541618347,9.929348945617676,-0.06229999661445618,0.3554999828338623,0.11079999804496765,-0.22800001210765014,-0.09999999922536333,-0.05200000106461238
-0.07142382860183716,0.10642705857753754,9.94718074798584,-0.10170000046491623,0.3360999822616577,0.13040000200271606,-0.1719999981340164,0.10999999647985702,0.07199999890865307
-0.0324653722345829,0.1256093978881836,9.91076946258545,-0.06199999898672104,0.3555999994277954,0.09119999408721924,0.07300000130214508,-0.049999999612681666,-0.13799999679656727
-0.0765569880604744,0.11139741539955139,9.939596176147461,-0.10119999945163727,0.3352999985218048,0.12060000002384186,-0.15999999609253868,0.15699999558216926,-0.08100000043976135
-0.04170699417591095,0.11654016375541687,9.917970657348633,-0.07129999995231628,0.3450999855995178,0.10099999606609344,0.03999999902313467,0.09500000059811649,-0.05499999823992851
-0.05562209337949753,0.1239238828420639,9.912857055664062,-0.08069999516010284,0.34450000524520874,0.10099999606609344,-0.015999999942759198,0.049999999612681666,-0.06399999977103679
-0.039964016526937485,0.11599428206682205,9.929520606994629,-0.0705999955534935,0.343999981880188,0.11079999804496765,0.07999999804626934,-0.29800000622931916,0.0019999999928448997
-0.06971915066242218,0.11692323535680771,9.892487525939941,-0.10089999437332153,0.3432999849319458,0.07149999588727951,0.20899999998183494,-0.012000000373951061,0.03899999996469596
-0.0629291981458664,0.12473791092634201,9.91740608215332,-0.0810999944806099,0.33239999413490295,0.09109999984502792,-0.046999999102312236,0.10299999973573276,0.07000000079177565
-0.06362830102443695,0.11835017800331116,9.939739227294922,-0.09030000120401382,0.3414999842643738,0.12049999833106995,-0.021999999295971403,0.01700000066872456,0.08499999667351618
-0.04673481732606888,0.11792880296707153,9.893904685974121,-0.07050000131130219,0.3409000039100647,0.08129999786615372,-0.09300000248123906,0.02899999937514897,-0.04600000004387353
-0.0516572967171669,0.13224612176418304,9.907456398010254,-0.08009999990463257,0.35040000081062317,0.09109999984502792,0.27899999410350396,0.2469999975530389,0.14300000209392072
-0.04627513140439987,0.12336842715740204,9.926081657409668,-0.06949999928474426,0.3393999934196472,0.11059999465942383,-0.2399999874687014,-0.08200000283325337,0.10600000024610218
-0.05826529487967491,0.11394484341144562,9.92912769317627,-0.0892999991774559,0.32979997992515564,0.11059999465942383,-0.008999999863581633,0.2399999874687014,-0.024999999806340833
-0.050393156707286835,0.11920251697301865,9.911171913146973,-0.0786999985575676,0.3391999900341034,0.09099999815225601,0.1189999980109653,0.1079999983629796,0.17799999915475526
-0.0555742122232914,0.13720691204071045,9.9356689453125,-0.07829999923706055,0.3579999804496765,0.12039999663829803,-0.007000000079177565,0.08799999718388561,-0.03699999851276524
-0.050603847950696945,0.12153925001621246,9.929961204528809,-0.0778999999165535,0.337799996137619,0.11059999465942383,-0.13799999679656727,-0.10299999973573276,-0.01400000015835513
-0.03839341551065445,0.11620496958494186,9.930219650268555,-0.0681999996304512,0.3375999927520752,0.11059999465942383,0.24200000559589865,0.08200000283325337,0.05099999867112037
-0.0486980639398098,0.11601343750953674,9.90873908996582,-0.07759999483823776,0.33640000224113464,0.0908999964594841,0.021999999295971403,0.08700000146050021,-0.015999999942759198
-0.054137688130140305,0.12009315192699432,9.913681030273438,-0.07719999551773071,0.33559998869895935,0.1006999984383583,0.017999999727163266,-0.0859999990670082,0.03699999851276524
-0.050393156707286835,0.11406934261322021,9.909658432006836,-0.07729999721050262,0.32510000467300415,0.0908999964594841,0.0749999994190225,0.038000000906257256,-0.11400000605382507
-0.04199429601430893,0.11026735603809357,9.925565719604492,-0.06729999929666519,0.32420000433921814,0.11050000041723251,-0.2929999875917525,0.17700000343136985,-0.038000000906257256
-0.04980897158384323,0.13429556787014008,9.921026229858398,-0.07649999856948853,0.3537999987602234,0.1006999984383583,-0.04600000004387353,-0.05200000106461238,-0.03599999945432653
-0.06893385201692581,0.12681607902050018,9.914752960205078,-0.09609999507665634,0.3434000015258789,0.1006999984383583,-0.23499999551156117,-0.1189999980109653,0.02899999937514897
-0.05516240745782852,0.11981543153524399,9.929414749145508,-0.07660000026226044,0.3335999846458435,0.11050000041723251,-0.12400000330831876,0.0659999978879142,0.1390000058601659
-0.06092764809727669,0.11113884299993515,9.92330551147461,-0.08609999716281891,0.32349997758865356,0.11050000041723251,0.0039999999856897995,0.2770000026567332,-0.1070000026395942
-0.040394969284534454,0.11277647316455841,9.911487579345703,-0.06549999862909317,0.3228999972343445,0.0908999964594841,-0.5410000208888165,0.0659999978879142,-0.07199999890865307
-0.056598927825689316,0.13102029263973236,9.922443389892578,-0.07499999552965164,0.3431999981403351,0.11050000041723251,-0.06299999737754478,0.19499999315337319,0.26600000967885407
-0.04865017533302307,0.13216951489448547,9.910988807678223,-0.07429999858140945,0.34279999136924744,0.0908999964594841,-0.1729999938574018,0.26600000967885407,-0.10999999647985702
-0.05861963331699371,0.13220782577991486,9.913891792297363,-0.08320000022649765,0.3427000045776367,0.1006999984383583,-0.0019999999928448997,0.19900000272734125,0.03100000082707969
-0.05338112264871597,0.1190875917673111,9.90442943572998,-0.07270000129938126,0.3321000039577484,0.09079999476671219,0.29399999665535115,-0.12299999424472013,-0.06899999839828364
-0.053256623446941376,0.11170387268066406,9.913575172424316,-0.06309999525547028,0.3208000063896179,0.1005999967455864,-0.05099999867112037,0.11599999750059588,-0.01700000066872456
-0.05938578024506569,0.10946290194988251,9.920355796813965,-0.08159999549388885,0.31929999589920044,0.1005999967455864,-0.28799999563461226,-0.12599999475508955,0.0030000000934877653
-0.06000826880335808,0.12401007115840912,9.920720100402832,-0.08179999887943268,0.32919999957084656,0.1005999967455864,0.017999999727163266,0.021999999295971403,0.038000000906257256
-0.054252609610557556,0.12980404496192932,9.911544799804688,-0.07180000096559525,0.33820000290870667,0.09070000052452087,-0.23900000508552924,0.021000000237532696,-0.2360000045751598
-0.05073792114853859,0.12780249118804932,9.920279502868652,-0.07159999758005142,0.3384000062942505,0.1005999967455864,0.22700000304405152,-0.22299999347008345,-0.1939999974299878
-0.06322608143091202,0.11088027060031891,9.915069580078125,-0.08179999887943268,0.31759998202323914,0.10049999505281448,0.10400000212922476,0.024999999806340833,0.012000000373951061
-0.06782294809818268,0.10731769353151321,9.91064453125,-0.09129999577999115,0.3165999948978424,0.09070000052452087,0.08200000283325337,-0.0539999991814898,-0.021999999295971403
-0.06123410537838936,0.12190317362546921,9.905914306640625,-0.08150000125169754,0.3252999782562256,0.09070000052452087,-0.019000000453128628,0.11099999887334903,0.19000000119623298
