Accelerometer_Gx,Accelerometer_Gy,Accelerometer_Gz,Accelerometer_X,Accelerometer_Y,Accelerometer_Z,Gyroscope_Z,Gyroscope_X,Gyroscope_Y
-0.04637089744210243,0.1311543732881546,9.92972183227539,0.009999999776482582,0.003599999938160181,0.10859999805688858,-0.10600000024610218,0.041000001416626686,0.048000001495804245
-0.05436753109097481,0.11736376583576202,9.924741744995117,0.00019999999494757503,-0.0044999998062849045,0.10849999636411667,2.645999916537307,2.0070000746328835,0.739999983595518
-0.05843767523765564,0.12522631883621216,9.936894416809082,-0.003999999724328518,-0.0005999999702908099,0.11840000003576279,1.6650000164507686,1.0969999909686272,1.1599999483255323
-0.044848185032606125,0.11616666615009308,9.93703842163086,0.017099998891353607,-0.013299999758601189,0.1184999942779541,-2.044000063140489,-2.262000064653432,-0.7290000172980654
-0.04824795201420784,0.11833102256059647,9.932278633117676,0.00019999999494757503,-0.006199999712407589,0.11840000003576279,0.42899999294154895,-0.07199999890865307,0.1749999986443858
-0.04081634804606438,0.12685438990592957,9.94874095916748,0.008899999782443047,0.0031999999191612005,0.1281999945640564,-0.33600000380052314,-0.39200000443394367,0.19999999845072666
-0.06392518430948257,0.11165598779916763,9.930086135864258,-0.002699999837204814,-0.004699999932199717,0.10849999636411667,-0.03400000133744912,0.008999999863581633,0.21100000476881897
-0.03254198655486107,0.1336730718612671,9.944843292236328,0.01589999906718731,0.0071000000461936,0.12809999287128448,-0.08100000043976135,0.04600000004387353,-0.07699999753589991
-0.0347159244120121,0.13416148722171783,9.923458099365234,0.012799999676644802,0.0139999995008111,0.10849999636411667,-0.1749999986443858,0.1939999974299878,0.25100000712700693
-0.05560293793678284,0.11078450083732605,9.92851448059082,-0.006099999882280827,-0.0139999995008111,0.10849999636411667,0.24899998899980968,0.3310000118433829,0.06299999737754478
-0.06494033336639404,0.12661495804786682,9.934375762939453,-0.014499999582767487,0.005399999674409628,0.11829999834299088,-0.363000008393848,-0.21999999295971404,-0.26300000916848465
-0.07060021907091141,0.1237993836402893,9.947400093078613,-0.02419999986886978,-0.003000000026077032,0.12809999287128448,0.19000000119623298,0.19600000221697184,0.44099999498302667
-0.04412034898996353,0.13089579343795776,9.943790435791016,0.006000000052154064,0.0064999996684491634,0.12809999287128448,-0.07900000232288394,-0.29800000622931916,-0.3559999983095105
-0.05886863172054291,0.11922166496515274,9.937967300415039,-0.013799999840557575,-0.002699999837204814,0.11829999834299088,-0.18900000547284757,-0.551000004803097,0.2549999900205486
-0.0427795946598053,0.11045889556407928,9.933064460754395,0.0044999998062849045,-0.011599999852478504,0.11829999834299088,0.10299999973573276,0.5489999866758997,0.26500000061525547
-0.06478710472583771,0.12955503165721893,9.915874481201172,-0.012899999506771564,0.007799999788403511,0.09869999438524246,0.40499998885859356,0.67699997287776,0.3529999977991411
-0.052806511521339417,0.11779472231864929,9.922922134399414,-0.0011999999405816197,-0.0026000000070780516,0.10849999636411667,0.47899999255423065,0.30799999014359963,0.06899999839828364
-0.04890875145792961,0.11059296131134033,9.937593460083008,-0.00009999999747378752,-0.013399999588727951,0.11829999834299088,-0.1620000008795227,0.25599999908414717,-0.12700000381868817
-0.05032612010836601,0.13334745168685913,9.925000190734863,0.000699999975040555,0.0066999997943639755,0.10849999636411667,0.08400000095013078,0.12299999424472013,-0.25400000763737635
-0.051666874438524246,0.11554417759180069,9.94225788116455,0.0011999999405816197,-0.003000000026077032,0.12809999287128448,-0.21899999723632863,-0.14600000260429016,-0.13600000534979648
-0.046313438564538956,0.12197021394968033,9.932662010192871,0.010499999858438969,-0.002099999925121665,0.11829999834299088,0.36399999077702017,0.3029999981864594,-0.05499999823992851
-0.0554497092962265,0.1250060647726059,9.934260368347168,0.00139999995008111,0.006799999624490738,0.11829999834299088,-0.13000000432905762,0.20599999947146552,0.20099999417411205
-0.032905906438827515,0.1197771206498146,9.922443389892578,0.021399999037384987,-0.0023999998811632395,0.10849999636411667,0.26300000916848465,0.5530000229302942,0.22100000202331266
-0.051906291395425797,0.13436259329319,9.93082332611084,0.0030999998562037945,0.016300000250339508,0.10849999636411667,0.3759999928184979,0.9970000451041168,0.19499999315337319
-0.04500141367316246,0.11214441061019897,9.932910919189453,0.01529999915510416,-0.0139999995008111,0.11840000003576279,0.1319999957758284,0.22700000304405152,0.2810000122307012
-0.06289089471101761,0.11075577139854431,9.922988891601562,-0.003700000001117587,-0.0142000000923872,0.10859999805688858,-0.9759999881706778,-0.8149999963547537,-0.37100000086135765
-0.04770207777619362,0.1292581707239151,9.920355796813965,0.013599999248981476,0.007799999788403511,0.09869999438524246,-0.21899999723632863,-0.4510000055777336,-0.13700000107318186
-0.04765418916940689,0.13228443264961243,9.920584678649902,0.01209999993443489,0.00839999970048666,0.09869999438524246,0.5979999772249827,0.49000001221253614,0.7299999996812375
-0.058092910796403885,0.12271720170974731,9.932901382446289,-0.006300000008195639,-0.002899999963119626,0.11840000003576279,-0.8650000226478619,-0.9359999457918502,-0.3150000002279371
-0.06322608143091202,0.1139640063047409,9.917539596557617,-0.008899999782443047,-0.010199999436736107,0.09869999438524246,0.48199999306460006,0.8249999802690342,0.010999999647985701
-0.053735461086034775,0.11203905940055847,9.919014930725098,0.012999999336898327,0.007899999618530273,0.09869999438524246,0.3349999947369245,0.3130000087811663,-0.023000000021936765
-0.05951985716819763,0.11880028247833252,9.942018508911133,0.002199999988079071,-0.010599999688565731,0.09869999438524246,-0.6859999744088683,-0.128999995265459,-0.012000000373951061
-0.03984909504652023,0.12243947386741638,9.917683601379395,0.012299999594688416,0.00019999999494757503,0.09869999438524246,0.7889999741446011,0.7870000093782568,0.5110000157851222
-0.03619075566530228,0.13655570149421692,9.925518035888672,0.024000000208616257,0.01769999973475933,0.10849999636411667,-1.1709999679838379,-0.815999978737926,-0.4630000076192113
-0.043564897030591965,0.11678916215896606,9.91659164428711,0.024000000208616257,0.01769999973475933,0.10849999636411667,0.4630000076192113,0.4100000074961602,0.5549999876966385
-0.060429647564888,0.12443144619464874,9.926312446594238,-0.0072999997064471245,0.0004999999655410647,0.10849999636411667,1.1839999524084877,1.6369999761134186,-0.02600000053230619
-0.057499147951602936,0.11614751070737839,9.92541217803955,-0.002899999963119626,-0.0026000000070780516,0.10859999805688858,-0.49799997799961937,-0.9329999986423336,-0.49900001374364444
-0.047002967447042465,0.11884817481040955,9.91179370880127,0.013899999670684338,-0.0011999999405816197,0.08889999985694885,-1.3279999769062203,-1.290999988398615,-0.3529999977991411
-0.048161763697862625,0.12411541491746902,9.919225692749023,0.00039999998989515007,0.002300000051036477,0.09869999438524246,-0.5240000002097721,-0.12199999852133472,0.37400000137172706
-0.0524904802441597,0.11888648569583893,9.929357528686523,0,0.0038999998942017555,0.10849999636411667,-0.11099999887334903,1.1370000333474548,0.47899999255423065
-0.05613924190402031,0.12964123487472534,9.944987297058105,0.0024999999441206455,0.013899999670684338,0.12809999287128448,1.1879999886628823,1.8109998989931397,0.635000019093441
-0.04731900244951248,0.1201506182551384,9.938054084777832,0.017099998891353607,0.0007999999797903001,0.11829999834299088,1.181000005258971,1.5560000156942968,0.433000002515517
-0.06205770745873451,0.11846510320901871,9.924492835998535,0.0015999999595806003,-0.0023999998811632395,0.10859999805688858,1.4919999692325139,1.7010000225752016,0.6410000201141798
-0.05689580738544464,0.12424948811531067,9.927336692810059,0.01589999906718731,-0.006399999838322401,0.10859999805688858,1.4499999620873418,1.4050000077926532,0.642000002497352
-0.041553765535354614,0.11925996840000153,9.931042671203613,0.02969999983906746,-0.010799999348819256,0.10869999974966049,0.5300000012305109,0.9949999736160666,0.7849999912510595
-0.04858314245939255,0.12395261228084564,9.927241325378418,0.02199999988079071,-0.012000000104308128,0.10869999974966049,-0.6750000081114157,-0.3989999878378547,-0.03100000082707969
-0.04438849911093712,0.1335677206516266,9.920489311218262,0.030299998819828033,-0.00029999998514540493,0.09889999777078629,-1.8539999952431896,-1.8520000304768451,-0.3559999983095105
-0.03708139434456825,0.11178048700094223,9.924118995666504,0.03460000082850456,-0.014699999243021011,0.10859999805688858,-0.6960000116840017,-1.2830000226115317,-0.642000002497352
-0.04945463314652443,0.10843818634748459,9.919235229492188,0.011099999770522118,-0.012600000016391277,0.09879999607801437,2.7319998955939955,1.673999964621024,0.7009999769607155
-0.0471561960875988,0.10762415081262589,9.932863235473633,0.025699999183416367,-0.020800000056624413,0.1184999942779541,0.07399999702553048,-0.11299999699022645,0.43999998591942807
-0.05815994739532471,0.13426682353019714,9.928869247436523,0.005399999674409628,0.008499999530613422,0.10869999974966049,-1.6220000269224244,-2.6689999382370906,-0.669999989473849
-0.05811206251382828,0.13584700226783752,9.922136306762695,-0.001999999862164259,0.012999999336898327,0.10859999805688858,2.1890000700213936,2.474999940807103,0.4510000055777336
-0.056694693863391876,0.13596193492412567,9.911429405212402,0.014099999330937862,0.00699999975040555,0.08909999579191208,-1.5099999722947304,-1.494000040720564,-0.09200000008774706
-0.0584089420735836,0.11392569541931152,9.907139778137207,0,-0.01809999905526638,0.08899999409914017,1.829000008777062,1.1750000042382323,-0.12400000330831876
-0.05338112264871597,0.12228624522686005,9.920154571533203,0.013199999928474426,-0.013799999840557575,0.09889999777078629,2.542000041140108,2.1869998918116376,0.26000000865811523
-0.05031654238700867,0.12328223139047623,9.925440788269043,0.010300000198185444,-0.008299999870359898,0.09879999607801437,-2.7889999586518677,-2.3679999048169753,-0.627999982328677
-0.05666596442461014,0.12981361150741577,9.92002010345459,0.009399999864399433,0.0023999998811632395,0.09879999607801437,1.913000023067406,2.1880000876382213,0.9649999685123724
-0.03973417356610298,0.12836752831935883,9.926043510437012,0.024899998679757118,-0.002699999837204814,0.10869999974966049,0.9990000098704611,1.1469999639008823,-0.07099999651516105
-0.05139872431755066,0.12308112531900406,9.939739227294922,0.018400000408291817,-0.015399999916553497,0.11859999597072601,-3.0339999113972826,-2.724000036528618,-1.0859999713103217
-0.05341942980885506,0.12510183453559875,9.923736572265625,0.011599999852478504,0.0016999999061226845,0.10859999805688858,-0.6029999958625494,-0.3240000017590454,0.7380000188291737
-0.05483679473400116,0.1354639232158661,9.92579460144043,0.010499999858438969,0.013199999928474426,0.10859999805688858,1.670000035088335,2.498999944890058,1.4050000077926532
-0.056838348507881165,0.12041877210140228,9.91713809967041,0.017099998891353607,-0.010799999348819256,0.09889999777078629,3.4179999767245697,3.267000075544632,0.6819999915153268
-0.052308518439531326,0.12176909297704697,9.920595169067383,0.025699999183416367,-0.020099999383091927,0.09910000115633011,1.2079999564914432,1.4119999911965644,-0.10299999973573276
-0.057690683752298355,0.12760137021541595,9.934232711791992,0.019999999552965164,-0.013799999840557575,0.11879999935626984,0.6059999963729188,-0.0749999994190225,-0.5889999756938744
-0.04666777700185776,0.12930604815483093,9.919962882995605,0.03909999877214432,-0.015099999494850636,0.09919999539852142,0.23399998644796255,-0.5309999836136831,-0.6579999874323713
-0.04967489466071129,0.11704772710800171,9.941165924072266,0.027499999850988388,-0.025299999862909317,0.12860000133514404,0.7739999715927539,0.004999999877891834,-0.7720000068264096
-0.0539078451693058,0.13749422132968903,9.917577743530273,0.02719999849796295,-0.007599999662488699,0.09919999539852142,1.7159999717661958,1.1639999845799267,-0.1189999980109653
-0.057384226471185684,0.1142321527004242,9.907896041870117,0.029999999329447746,-0.04149999842047691,0.08940000087022781,3.1629999867040213,3.3550000193676643,0.6919999754296072
-0.04054819792509079,0.1249007135629654,9.922903060913086,0.04969999939203262,-0.031300000846385956,0.10929999500513077,2.56899999237258,3.4919999537397803,1.1579999835591879
-0.047970227897167206,0.11711476743221283,9.935976028442383,0.04769999906420708,-0.04690000042319298,0.11919999867677689,-0.4709999734062945,0.0030000000934877653,0.5960000124586383
-0.05227978900074959,0.10798807442188263,9.905607223510742,0.047199998050928116,-0.054999999701976776,0.08980000019073486,-3.2700000226941484,-3.210999994869932,-0.8390000004377092
-0.05649358406662941,0.12958377599716187,9.925565719604492,0.03790000081062317,-0.025999998673796654,0.10920000076293945,1.5819999845435966,-0.057000003026912535,-0.41300000800652964
-0.04572925344109535,0.12469002604484558,9.931253433227539,0.0471000000834465,-0.029899999499320984,0.11899999529123306,3.269000040310976,3.352000072218148,1.3289999592893924
-0.04395754262804985,0.11732546240091324,9.92656135559082,0.0568000003695488,-0.049300000071525574,0.10949999839067459,-3.004000013015294,-2.968000006890861,-0.5390000027616192
-0.05698200315237045,0.1106504276394844,9.913288116455078,0.03929999843239784,-0.05139999836683273,0.09950000047683716,0.33300000329015367,0.941999946812589,-0.4229999919208101
-0.04718492925167084,0.12141475826501846,9.92046070098877,0.05119999870657921,-0.041999999433755875,0.09950000047683716,-0.5470000219095553,0.2920000052085803,0.656000022666027
-0.03822103515267372,0.1319875419139862,9.916812896728516,0.06109999865293503,-0.03019999898970127,0.09950000047683716,1.4900000044661694,-0.7209999981501293,-0.40400000647542134
-0.04918648302555084,0.10258675366640091,9.91877555847168,0.039000000804662704,-0.06319999694824219,0.09950000047683716,-2.325000022010337,-0.04500000098543482,0.4649999723855557
-0.05014416202902794,0.12181698530912399,9.919991493225098,0.04169999808073044,-0.043699998408555984,0.09950000047683716,-3.85500017557704,-2.5520000784152415,-1.2069999741082709
-0.051647718995809555,0.12313857674598694,9.906085968017578,0.034299999475479126,-0.03269999846816063,0.08949999511241913,2.1689999954711268,1.6419999947509851,1.4319999590251251
-0.058332327753305435,0.1334240734577179,9.911774635314941,0.034299999475479126,-0.03269999846816063,0.08949999511241913,1.9079998977081336,1.3219999758854815,-0.09999999922536333
-0.06564901024103165,0.1322365403175354,9.908231735229492,0.031599998474121094,-0.03309999778866768,0.08969999849796295,-1.8490000833273288,-2.8379999492009507,-1.0419999993988052
-0.038508340716362,0.12918154895305634,9.93135929107666,0.041999999433755875,-0.026999998837709427,0.11899999529123306,-2.103000090964705,-1.4129999735797365,0.28499999512424284
-0.04902367293834686,0.12609781324863434,9.918642044067383,0.0284000001847744,-0.02159999869763851,0.09919999539852142,1.0559999662066273,2.379999906858453,0.9719999519162833
-0.05014416202902794,0.11262324452400208,9.914283752441406,0.03439999744296074,-0.043699998408555984,0.09929999709129333,1.7689999985696734,3.056999933097066,1.1529999649216212
-0.04947378486394882,0.11566866934299469,9.915998458862305,0.04230000078678131,-0.03839999809861183,0.09939999878406525,2.157999975812821,1.3740000203057867,0.43600000302588643
-0.05099649727344513,0.11257535964250565,9.916936874389648,0.04559999704360962,-0.053599998354911804,0.09959999471902847,1.3569999996267423,1.8449999403512285,0.41300000800652964
-0.07059064507484436,0.12174037098884583,9.934366226196289,0.031199999153614044,-0.04749999940395355,0.1193000003695488,2.735000056186924,1.0239999963365887,0.1319999957758284
-0.05641696974635124,0.13454455137252808,9.922682762145996,0.05289999768137932,-0.03399999812245369,0.1096000000834465,3.276999899376354,1.6439999595173296,0.40599999792219216
-0.05315127968788147,0.12808021903038025,9.915510177612305,0.0568000003695488,-0.052400000393390656,0.09999999403953552,1.7620000151657624,1.8189999715019287,0.7949999751653399
-0.05777687579393387,0.13853809237480164,9.921064376831055,0.051500000059604645,-0.04690000042319298,0.10009999573230743,0.26300000916848465,1.1539999473047935,0.754000003764193
-0.05564124509692192,0.12410584092140198,9.919254302978516,0.06390000134706497,-0.06669999659061432,0.10009999573230743,-2.0499999574395216,-0.885999972859595,-0.13000000432905762
-0.06481582671403885,0.1345062553882599,9.924616813659668,0.05079999938607216,-0.040300000458955765,0.10979999601840973,-1.1790000404926269,-1.939999974299878,-0.35499998924591186
-0.04268382489681244,0.11622412502765656,9.936760902404785,0.06529999524354935,-0.056599996984004974,0.11949999630451202,1.6379999584965907,0.33000000277978425,-0.5099999800410971
-0.055057063698768616,0.1276971399784088,9.930947303771973,0.055799998342990875,-0.05069999769330025,0.10969999432563782,0.5979999772249827,1.3680000192850479,0.8669999874142063
-0.03979163244366646,0.1262127310037613,9.92994213104248,0.06870000064373016,-0.051899999380111694,0.10979999601840973,-1.3709999664345645,-1.6460000310053797,-0.2770000026567332
-0.052643708884716034,0.13346238434314728,9.927797317504883,0.05389999970793724,-0.047599997371435165,0.10969999432563782,0.9970000451041168,0.927999980004767,-0.1800000039417393
-0.04377558454871178,0.1317385584115982,9.918095588684082,0.06599999964237213,-0.05009999871253967,0.09989999979734421,-0.9370000348967281,0.33900000431089256,0.4810000106814279
-0.05946239456534386,0.1344487965106964,9.925498008728027,0.04659999907016754,-0.03759999945759773,0.10969999432563782,0.28499999512424284,-0.9000000463891228,-0.3049999896332302
-0.042837053537368774,0.12047622352838516,9.93407917022705,0.06319999694824219,-0.057499997317790985,0.11949999630451202,0.08100000043976135,0.5540000053134664,0.44099999498302667
-0.048353299498558044,0.12037088721990585,9.91992473602295,0.05429999902844429,-0.05719999969005585,0.09989999979734421,-0.26500000061525547,-0.11400000605382507,-0.23199999500119176
-0.05391742289066315,0.12683522701263428,9.920805931091309,0.033900000154972076,-0.04619999974966049,0.11939999461174011,-1.2770000215907928,-1.5550000333111247,-0.09899999683187131
-0.059108052402734756,0.12251608818769455,9.929108619689941,0.04820000007748604,-0.04179999977350235,0.09969999641180038,2.2500000626119543,0.6470000211349186,0.4169999909000712
-0.05718311294913292,0.12683522701263428,9.928668022155762,0.04699999839067459,-0.045899998396635056,0.1096000000834465,-1.5329999939945136,-1.4619999641288195,-0.1509999945614304
-0.04998135194182396,0.12824302911758423,9.91625690460205,0.042500000447034836,-0.041200000792741776,0.09959999471902847,-0.5429999856551608,0.8840000080932506,0.6660000065803073
-0.046600744128227234,0.1345062553882599,9.916438102722168,0.05429999902844429,-0.029500000178813934,0.09959999471902847,0.6949999759399766,1.2900000060154428,0.3669999912873896
-0.04542279615998268,0.1330888867378235,9.91954231262207,0.05779999867081642,-0.041099999099969864,0.09969999641180038,0.5829999746731356,0.3999999969014533,0.019000000453128628
-0.04547068104147911,0.13828909397125244,9.917070388793945,0.05829999968409538,-0.03229999914765358,0.09969999641180038,0.36399999077702017,-0.08799999718388561,-0.3139999911643385
-0.048468220978975296,0.11955685168504715,9.923640251159668,0.04779999703168869,-0.05249999836087227,0.10949999839067459,-0.37400000137172706,-0.9320000162591615,-0.4190000090272685
-0.05362053960561752,0.1260882467031479,9.923112869262695,0.04479999840259552,-0.041200000792741776,0.10949999839067459,-0.851000002479187,-0.9120000484306006,-0.3190000098019052
-0.050412312150001526,0.12876015901565552,9.926206588745117,0.04189999774098396,-0.03849999979138374,0.10939999669790268,-0.41300000800652964,-1.0090000471455944,-0.149999998838045
-0.05726930499076843,0.1354064792394638,9.915087699890137,0.03830000013113022,-0.02709999866783619,0.09950000047683716,-0.6269999999455048,-0.14499999354069154,-0.04500000098543482
-0.05798756331205368,0.13977350294589996,9.933073043823242,0.027799999341368675,-0.025200000032782555,0.11909999698400497,0.5429999856551608,0.7480000027434541,-0.07799999992939192
-0.04569094628095627,0.13097241520881653,9.913661003112793,0.04910000041127205,-0.03619999811053276,0.09950000047683716,1.3829999684760421,0.2699999925723957,0.10499999785261017
-0.04556644707918167,0.1344870924949646,9.92198371887207,0.04939999803900719,-0.029899999499320984,0.10939999669790268,0.257999990530918,0.9320000162591615,0.4810000106814279
-0.05162856727838516,0.11976754665374756,9.92825698852539,0.04179999977350235,-0.04989999905228615,0.10939999669790268,-0.6330000009662436,-1.0350000159948942,0.019000000453128628
-0.041007883846759796,0.13603854179382324,9.91894817352295,0.04800000041723251,-0.0279999990016222,0.09959999471902847,-0.8600000040102952,-0.2259999939804529,-0.3349999947369245
-0.05713523179292679,0.11973881721496582,9.928275108337402,0.037299998104572296,-0.04519999772310257,0.10929999500513077,2.3889999617504145,0.21299999621558977,0.20800000425844953
-0.04633259028196335,0.12005484849214554,9.916448593139648,0.04729999974370003,-0.05139999836683273,0.09959999471902847,-2.028999900506083,-0.25400000763737635,-0.014999999216793838
-0.06603208184242249,0.1123167872428894,9.92318058013916,0.02669999934732914,-0.055299997329711914,0.10929999500513077,1.5159999733154692,-0.008999999863581633,-0.14499999354069154
-0.0420709103345871,0.12282254546880722,9.932202339172363,0.045899998396635056,-0.049300000071525574,0.11919999867677689,-1.109999975393277,0.46199997187518627,0.15800000464576788
-0.05952943116426468,0.1276971399784088,9.91304874420166,0.027400000020861626,-0.0357000008225441,0.09950000047683716,-0.44699999600376555,-0.7690000063160402,-0.046999999102312236
-0.047242388129234314,0.11925996840000153,9.911497116088867,0.04490000009536743,-0.044099997729063034,0.08969999849796295,0.5540000053134664,0.7500000208706514,0.03699999851276524
-0.06244077906012535,0.12122321873903275,9.929769515991211,0.026999998837709427,-0.04519999772310257,0.10929999500513077,-0.4169999909000712,-0.21800000151294321,-0.1180000022875799
-0.04151545837521553,0.13380713760852814,9.924080848693848,0.04569999873638153,-0.033900000154972076,0.10929999500513077,-0.566000007354944,-0.325000010822644,0.2250000115972807
-0.03357628732919693,0.11811075359582901,9.923965454101562,0.05429999902844429,-0.04189999774098396,0.10920000076293945,1.0780000055232384,0.3540000068627397,0.13400000056281244
-0.057029884308576584,0.1296316534280777,9.9126558303833,0.035499997437000275,-0.05480000004172325,0.10929999500513077,-0.6170000160312243,-1.0480000004195442,-0.09600000299160849
-0.049732357263565063,0.10547894984483719,9.91272258758545,0.03150000050663948,-0.052400000393390656,0.09939999878406525,-1.3469999623516091,-0.3600000078834786,0.39699999639108385
-0.056953269988298416,0.12553277611732483,9.912704467773438,0.03019999898970127,-0.02879999950528145,0.09939999878406525,-0.0009999999964224499,0.15999999609253868,0.3339999856733259
-0.04842033237218857,0.12339715659618378,9.914456367492676,0.030399998649954796,-0.03830000013113022,0.09939999878406525,1.3240000473735316,0.9920000264665501,0.407999989368963
-0.04357447102665901,0.11643481254577637,9.917856216430664,0.042899999767541885,-0.041999999433755875,0.09939999878406525,1.261999965678093,1.3469999623516091,0.2729999930827651
-0.05067088454961777,0.12282254546880722,9.925095558166504,0.03610000014305115,-0.04470000043511391,0.10929999500513077,0.7789999902303206,0.021000000237532696,0.031999999885518396
-0.04369897022843361,0.1214626356959343,9.9215726852417,0.04559999704360962,-0.04649999737739563,0.10929999500513077,-0.5549999876966385,0.0539999991814898,-0.06299999737754478
-0.05186798423528671,0.12059114873409271,9.919953346252441,0.0357000008225441,-0.04470000043511391,0.09950000047683716,-0.33300000329015367,-0.42599999243117953,0.1610000051561373
-0.04582501947879791,0.11549629271030426,9.914925575256348,0.04399999976158142,-0.04349999874830246,0.09950000047683716,-0.18400000017549412,-0.17799999915475526,-0.02899999937514897
-0.06068822368979454,0.12457510083913803,9.908308029174805,0.023599999025464058,-0.03280000016093254,0.08959999680519104,0.5500000224199247,0.2839999860606442,0.07199999890865307
-0.05078580603003502,0.1253795474767685,9.912636756896973,0.033799998462200165,-0.033799998462200165,0.09950000047683716,-0.05600000063342052,-0.09500000059811649,0.10999999647985702
-0.04793192073702812,0.12734279036521912,9.92220401763916,0.026899999007582664,-0.026799999177455902,0.10909999907016754,0.6330000009662436,-0.10900000075647161,0.25299999857377775
-0.05290227755904198,0.11532390862703323,9.924080848693848,0.027699999511241913,-0.039400000125169754,0.10920000076293945,-0.7759999897199512,0.49199997697888054,-0.0269999995907449
-0.055392250418663025,0.1274673044681549,9.920489311218262,0.02979999966919422,-0.028199998661875725,0.09929999709129333,1.7409999582323235,0.7579999866577346,0.26500000061525547
-0.047884032130241394,0.11470141261816025,9.905426025390625,0.03269999846816063,-0.053700000047683716,0.08969999849796295,-1.2989999541856982,0.010999999647985701,-0.2929999875917525
-0.04106534644961357,0.12650004029273987,9.919618606567383,0.042899999767541885,-0.03139999881386757,0.09939999878406525,-0.019999999511567335,0.6380000196038104,0.03899999996469596
-0.05756618455052376,0.1309245228767395,9.905233383178711,0.025299999862909317,-0.031599998474121094,0.08959999680519104,0.2570000081477458,-0.3750000104353257,0.407999989368963
-0.05365884676575661,0.14057794213294983,9.914437294006348,0.034299999475479126,-0.022699998691678047,0.09939999878406525,0.5769999736523967,0.3119999997175677,-0.31800000073830653
-0.05172433331608772,0.1304648369550705,9.925057411193848,0.03519999980926514,-0.034199997782707214,0.10929999500513077,-0.3770000018820965,-0.31099999065396905,-0.1419999930303221
-0.05660850554704666,0.11508448421955109,9.91821002960205,0.02449999935925007,-0.042799998074769974,0.09950000047683716,0.22800001210765014,0.26300000916848465,0.34200000482126197
-0.05660850554704666,0.11508448421955109,9.91821002960205,0.0348999984562397,-0.043299999088048935,0.09950000047683716,0.09999999922536333,0.5909999938210717,-0.06899999839828364
-0.061530981212854385,0.1237131878733635,9.932844161987305,0.02669999934732914,-0.04349999874830246,0.11909999698400497,-0.7919999746549705,-0.12700000381868817,0.0269999995907449
-0.054961297661066055,0.12808021903038025,9.934146881103516,0.03610000014305115,-0.03139999881386757,0.11909999698400497,0.10199999734224074,0.8489999843519896,0.2519999895101791
-0.06164590269327164,0.12433568388223648,9.911343574523926,0.02850000001490116,-0.04129999876022339,0.10929999500513077,-0.4240000009844087,0.3849999943496062,-0.3759999928184979
-0.04462791979312897,0.1253603994846344,9.907838821411133,0.0502999983727932,-0.031700000166893005,0.08969999849796295,1.1500000177721048,0.4679999728959251,0.05600000063342052
-0.046198517084121704,0.126567080616951,9.921294212341309,0.05130000039935112,-0.034699998795986176,0.09950000047683716,0.29699999716572056,0.711999996619021,-0.2379999960219306
-0.04069185256958008,0.113983154296875,9.931790351867676,0.05309999734163284,-0.054899998009204865,0.11919999867677689,-0.5900000114378995,-0.5069999795307276,-0.0539999991814898
-0.04099830985069275,0.1333187222480774,9.924578666687012,0.051500000059604645,-0.033399999141693115,0.10929999500513077,-1.291999970781787,0.4649999723855557,-0.07799999992939192
-0.05277778208255768,0.13016794621944427,9.917837142944336,0.042799998074769974,-0.029199998825788498,0.09950000047683716,1.2280000310417098,0.8849999904764227,-0.07099999651516105
-0.05909847468137741,0.11627200990915298,9.934212684631348,0.0348999984562397,-0.04169999808073044,0.11909999698400497,1.2520000351246652,0.6410000201141798,0.5179999991890332
-0.05521029233932495,0.13193008303642273,9.921140670776367,0.04619999974966049,-0.03519999980926514,0.09959999471902847,0.6900000106632628,0.5889999756938744,0.2770000026567332
-0.04873637109994888,0.12574347853660583,9.908968925476074,0.04749999940395355,-0.03680000081658363,0.08980000019073486,-0.9099999769425504,0.6519999864116324,0.3310000118433829
-0.04792233929038048,0.10992259532213211,9.926589965820312,0.04910000041127205,-0.053700000047683716,0.10939999669790268,-0.7320000178084348,-0.9519999840877224,0.06500000216452881
-0.05265328288078308,0.10816045105457306,9.919349670410156,0.045899998396635056,-0.05119999870657921,0.09950000047683716,-1.939999974299878,-1.2530000175078375,-0.2729999930827651
-0.05073792114853859,0.12127110362052917,9.932125091552734,0.04259999841451645,-0.0364999994635582,0.11899999529123306,-0.257999990530918,0.04200000047506539,-0.03599999945432653
-0.05882074683904648,0.1250922530889511,9.929779052734375,0.03269999846816063,-0.025699999183416367,0.10920000076293945,0.9839999539577611,-0.37100000086135765,0.11599999750059588
-0.03877649083733559,0.11486422270536423,9.922682762145996,0.050999999046325684,-0.04779999703168869,0.10920000076293945,0.5020000142540139,0.3049999896332302,0.13100000005244303
-0.041601650416851044,0.12272677570581436,9.93451976776123,0.051500000059604645,-0.03909999877214432,0.11909999698400497,-0.5549999876966385,-1.640000029984641,0.29699999716572056
-0.0527203232049942,0.1144619956612587,9.91989517211914,0.036399997770786285,-0.04699999839067459,0.09939999878406525,-0.45700000659847245,-1.2389999439783097,-0.13000000432905762
-0.039753325283527374,0.13564589619636536,9.914332389831543,0.0429999977350235,-0.016300000250339508,0.09929999709129333,0.7709999710823845,-0.7680000239328679,0.15500000413539844
-0.0469263531267643,0.13939042389392853,9.926705360412598,0.0405999980866909,-0.018199998885393143,0.10920000076293945,1.3260000121398758,0.9070000297930338,0.05799999875029794
-0.05617754906415939,0.12228624522686005,9.927231788635254,0.03309999778866768,-0.041200000792741776,0.10920000076293945,-3.203999904744315,-0.8570000034999258,-0.34299998720443414
-0.07388506084680557,0.12249693274497986,9.918181419372559,0.010900000110268593,-0.03219999745488167,0.09929999709129333,1.3899999518799533,1.6030000414770356,0.321000001248676
-0.05464525893330574,0.13086706399917603,9.925651550292969,0.03529999777674675,-0.026499999687075615,0.10920000076293945,-0.30799999014359963,-1.0259999611029331,-0.16500000138989213
-0.04024174064397812,0.12635639309883118,9.918603897094727,0.042399998754262924,-0.025599999353289604,0.09929999709129333,-2.2390000429536485,-2.091000088923227,-0.09300000248123906
-0.05941450968384743,0.13442964851856232,9.914820671081543,0.02669999934732914,-0.029099998995661736,0.09919999539852142,0.6219999813079381,-0.19600000221697184,0.18199999538851008
-0.053065087646245956,0.11415553838014603,9.918660163879395,0.029099998995661736,-0.04429999738931656,0.09929999709129333,-0.4679999728959251,0.3660000089042174,-0.031999999885518396
-0.061818286776542664,0.1328398883342743,9.907331466674805,0.029099998995661736,-0.04429999738931656,0.09929999709129333,-0.5179999991890332,-0.41499999945330046,0.03100000082707969
-0.05272989720106125,0.12163502722978592,9.9054536819458,0.02889999933540821,-0.03139999881386757,0.08940000087022781,-0.9370000348967281,-0.49099999459570837,-0.1180000022875799
-0.0513029545545578,0.13174813985824585,9.918057441711426,0.027400000020861626,-0.01889999955892563,0.09919999539852142,-1.5260000105906026,-0.7939999927821677,-0.13100000005244303
-0.06031472608447075,0.13241849839687347,9.92869758605957,0.015199999324977398,-0.014599999412894249,0.10889999568462372,-1.599000005222641,1.8140000595860677,-0.05099999867112037
-0.05282566323876381,0.10855311155319214,9.915567398071289,0.029899999499320984,-0.02969999983906746,0.09910000115633011,1.9450000996591503,1.751999977890629,-0.038000000906257256
-0.05713523179292679,0.12386641651391983,9.916324615478516,0.035099998116493225,-0.025699999183416367,0.09919999539852142,1.9629999959996611,0.6510000040284603,0.4630000076192113
-0.04241567477583885,0.12401007115840912,9.908585548400879,0.046299997717142105,-0.030299998819828033,0.08949999511241913,0.07799999992939192,-0.3499999972887716,0.5519999871862691
-0.05337154492735863,0.12859736382961273,9.906536102294922,0.03529999777674675,-0.020499998703598976,0.08949999511241913,-2.9290000536169116,-1.0530000190571107,-0.3510000063523703
-0.05866751819849014,0.11535263806581497,9.916380882263184,0.022499999031424522,-0.022199999541044235,0.09910000115633011,-2.125999899221077,-1.359999946776259,-0.3890000039235742
-0.05521029233932495,0.11615709215402603,9.91838264465332,0.0284000001847744,-0.016200000420212746,0.0989999994635582,1.1359999442425768,0.635000019093441,0.12599999475508955
-0.06421248614788055,0.12067734450101852,9.918171882629395,0.020399998873472214,-0.019600000232458115,0.09910000115633011,1.1570000011760158,0.5050000147643833,0.21200000049220435
-0.05675215646624565,0.1232343539595604,9.918027877807617,0.031300000846385956,-0.022199999541044235,0.09910000115633011,-0.39299998681711584,-0.4390000035362559,0.11500000177721047
-0.052030790597200394,0.13501381874084473,9.908231735229492,0.029899999499320984,-0.001500000013038516,0.0892999991774559,0.06899999839828364,-0.9790000420419002,-0.0019999999928448997
-0.06107129529118538,0.12428779900074005,9.91463851928711,0.01730000041425228,-0.0210999995470047,0.09910000115633011,0.5679999721212884,0.4139999903897018,0.4199999914104407
-0.04552813991904259,0.11798626184463501,9.920087814331055,0.03790000081062317,-0.022599998861551285,0.09910000115633011,-0.6639999884531101,-0.17799999915475526,-0.05499999823992851
-0.053237468004226685,0.11943235993385315,9.918612480163574,0.027400000020861626,-0.020499998703598976,0.09910000115633011,0.3019999891228608,0.31800000073830653,0.1800000039417393
-0.051599834114313126,0.12016976624727249,9.92003059387207,0.0279999990016222,-0.0210999995470047,0.09910000115633011,-0.4190000090272685,-0.29699999716572056,0.05499999823992851
-0.06061160936951637,0.12453679740428925,9.918257713317871,0.01719999872148037,-0.009999999776482582,0.09910000115633011,0.3750000104353257,0.7179999976397599,0.15599999985878385
-0.0659937709569931,0.12595416605472565,9.919981956481934,0.01899999938905239,-0.010999999940395355,0.09910000115633011,-1.7130000246166794,-0.7249999810436709,-0.046999999102312236
-0.06222051382064819,0.13158532977104187,9.927260398864746,0.016899999231100082,-0.006199999712407589,0.1087999939918518,2.75099998776109,0.6089999968832882,0.4759999920438612
-0.052758630365133286,0.12978488206863403,9.915998458862305,0.02850000001490116,-0.014599999412894249,0.09910000115633011,0.2929999875917525,0.9140000131969449,0.09800000110848592
-0.06085103377699852,0.11970050632953644,9.926158905029297,0.02070000022649765,-0.02499999850988388,0.10899999737739563,-1.4330000481300031,-0.43600000302588643,-0.22800001210765014
-0.05377376824617386,0.11779472231864929,9.904304504394531,0.029199998825788498,-0.01119999960064888,0.10889999568462372,0.26500000061525547,-0.16500000138989213,0.05200000106461238
-0.05618712678551674,0.12084972113370895,9.919465065002441,0.026799999177455902,-0.016599999740719795,0.0989999994635582,2.8499999512424283,1.9509999939581835,0.3280000113330135
-0.05867709219455719,0.12566685676574707,9.915452003479004,0.026799999177455902,-0.016599999740719795,0.0989999994635582,4.171000158188149,1.5269999929737748,0.3950000049443131
-0.05158068239688873,0.12000696361064911,9.923112869262695,0.03610000014305115,-0.03519999980926514,0.10920000076293945,3.3070000112017537,1.0309999797404998,0.30100000673968863
-0.04603571072220802,0.12185529619455338,9.920087814331055,0.04859999939799309,-0.044199999421834946,0.09950000047683716,3.034999893780455,0.23499999551156117,0.27500001120996237
-0.0477403849363327,0.12687353789806366,9.921638488769531,0.04910000041127205,-0.042500000447034836,0.10939999669790268,-1.0230000139534166,0.9190000318345116,-0.3240000017590454
-0.042166680097579956,0.11676043272018433,9.89620304107666,0.05139999836683273,-0.04939999803900719,0.07999999821186066,0.6059999963729188,1.8469999051175727,0.2810000122307012
-0.05552632361650467,0.1256955862045288,9.926445960998535,0.0471000000834465,-0.04129999876022339,0.10949999839067459,4.121999954195655,2.387999979367242,0.6440000206245492
-0.05560293793678284,0.12985192239284515,9.922348022460938,0.05260000005364418,-0.050999999046325684,0.10969999432563782,4.757000080010801,1.8329999383097506,0.7309999820644097
-0.0430094376206398,0.12148179858922958,9.925066947937012,0.06709999591112137,-0.07360000163316727,0.10999999940395355,0.05799999875029794,-1.6880000381505518,-0.05200000106461238
-0.04781699925661087,0.13241849839687347,9.925756454467773,0.06229999661445618,-0.06369999796152115,0.10989999771118164,-6.054000069430155,-1.690000002916896,-0.6330000009662436
-0.04686889424920082,0.12341630458831787,9.912704467773438,0.05739999935030937,-0.056699998676776886,0.0997999981045723,-0.16599999711327754,0.5939999943314411,0.21299999621558977
-0.05826529487967491,0.11756487935781479,9.93681812286377,0.039400000125169754,-0.0559999980032444,0.11939999461174011,6.054999838369915,0.9750000057875057,0.4669999905127529
-0.05080495774745941,0.11881944537162781,9.919569969177246,0.05130000039935112,-0.07019999623298645,0.10009999573230743,-5.500000010755836,-1.667999963600285,-0.6480000035180908
-0.057642798870801926,0.12597331404685974,9.918038368225098,0.056299999356269836,-0.054899998009204865,0.1096000000834465,-1.7850000368655456,-2.959999934382072,0.1629999966029081
-0.051647718995809555,0.12502521276474,9.9158353805542,0.044199999421834946,-0.05169999971985817,0.09989999979734421,-4.509000180115869,-0.017999999727163266,0.19900000272734125
-0.051647718995809555,0.12502521276474,9.9158353805542,0.04559999704360962,-0.04659999907016754,0.0997999981045723,-4.509000180115869,-0.017999999727163266,0.19900000272734125
-0.04752969369292259,0.11946108937263489,9.907732963562012,0.05509999766945839,-0.04230000078678131,0.08969999849796295,2.9829999560818554,-1.070000039736155,0.4179999999636699
-0.044043734669685364,0.12305238842964172,9.919675827026367,0.052299998700618744,-0.04919999837875366,0.09959999471902847,-0.2469999975530389,2.713000016870313,-0.17899999487814064
-0.04683058708906174,0.10961613059043884,9.922701835632324,0.04519999772310257,-0.04399999976158142,0.10909999907016754,8.250999998516926,3.9559998903813107,1.0139999590614552
-0.04900452122092247,0.12703633308410645,9.912693977355957,0.04600000008940697,-0.046799998730421066,0.0997999981045723,1.5070000251452138,5.814999797540361,0.0749999994190225
-0.06123410537838936,0.11782345920801163,9.919197082519531,0.05379999801516533,-0.06109999865293503,0.09999999403953552,-9.351000256800187,-2.5079999997820193,-0.9920000264665501
-0.06123410537838936,0.11782345920801163,9.919197082519531,0.05379999801516533,-0.06109999865293503,0.09999999403953552,-9.351000256800187,-2.5079999997820193,-0.9920000264665501
-0.060630764812231064,0.13040737807750702,9.908384323120117,0.047599997371435165,-0.028599999845027924,0.08980000019073486,-0.5459999861655302,-3.992999878888916,-0.10299999973573276
-0.04907156154513359,0.11434707790613174,9.916112899780273,0.046299997717142105,-0.04649999737739563,0.09950000047683716,8.472000160622798,1.55099999705673,0.5470000219095553
-0.04890875145792961,0.11607089638710022,9.911582946777344,0.06749999523162842,-0.058399997651576996,0.09019999951124191,3.606999848795285,7.855999913531334,0.5870000109275301
-0.04907156154513359,0.11834059655666351,9.9143705368042,0.09139999747276306,-0.06929999589920044,0.10049999505281448,3.231000069420199,8.364000355692909,0.30400000725005805
-0.05559336394071579,0.1457590013742447,9.92766284942627,0.09139999747276306,-0.06929999589920044,0.10049999505281448,3.231000069420199,8.364000355692909,0.30400000725005805
-0.05720226839184761,0.13164278864860535,9.902504920959473,0.11109999567270279,-0.04739999771118164,0.11069999635219574,-0.8119999958443843,5.697000168778752,0.690999993046435
-0.0577002614736557,0.13325169682502747,9.920604705810547,0.12389999628067017,-0.0608999989926815,0.09119999408721924,-0.8119999958443843,5.697000168778752,0.690999993046435
-0.06041049584746361,0.1254657506942749,9.908490180969238,0.15429998934268951,-0.0697999969124794,0.09209999442100525,9.182000032392915,11.05699965768272,1.1430000343681936
-0.053065087646245956,0.1305510252714157,9.924760818481445,0.15429998934268951,-0.0697999969124794,0.09209999442100525,5.400999833831086,4.232999919718471,1.1389999981137993
-0.06931692361831665,0.12878888845443726,9.921821594238281,0.1875,-0.11059999465942383,0.1136000007390976,-6.383000036465914,-12.965999964660849,-0.8359999999273398
-0.05429091677069664,0.10665690153837204,9.916304588317871,0.17109999060630798,-0.11229999363422394,0.10249999910593033,-6.183000144736893,-4.720999860442957,-1.17199995036701
-0.06517017632722855,0.10713573545217514,9.913115501403809,0.1477999985218048,-0.0949999988079071,0.10189999639987946,5.6169998705776845,9.451999971604458,0.6309999828390465
-0.06475836783647537,0.11996866017580032,9.925555229187012,0.17299999296665192,-0.10019999742507935,0.11249999701976776,6.067000053854805,-0.7859999736342317,0.5029999966371861
-0.056838348507881165,0.1195664256811142,9.915328025817871,0.18949998915195465,-0.10869999974966049,0.1030999943614006,10.393000256198992,10.034000390781245,1.3279999769062203
-0.056838348507881165,0.1195664256811142,9.915328025817871,0.15950000286102295,-0.09879999607801437,0.1021999940276146,10.393000256198992,10.034000390781245,1.3279999769062203
-0.04601655527949333,0.11712434142827988,9.921131134033203,0.19599999487400055,-0.12690000236034393,0.10339999943971634,-11.20899954124583,-10.650999553038822,-1.2230000124041431
-0.05078580603003502,0.1364694982767105,9.907608032226562,0.15639999508857727,-0.07620000094175339,0.09229999780654907,5.40299979859743,10.933000134622079,1.501000024124475
-0.04604528844356537,0.12422076612710953,9.913451194763184,0.19529999792575836,-0.11019999533891678,0.10300000011920929,-9.433999861820535,-11.798999819487994,-1.2389999439783097
-0.06025726720690727,0.12530294060707092,9.938791275024414,0.1387999951839447,-0.07090000063180923,0.12119999527931213,10.52600026103842,12.41199990598653,1.8789999817093173
-0.05086242035031319,0.1194227859377861,9.919368743896484,0.17759999632835388,-0.10559999942779541,0.10269999504089355,-8.324000206592377,-4.550000098156164,-1.466000000383214
-0.03734954819083214,0.12668199837207794,9.901058197021484,0.18410000205039978,-0.07259999960660934,0.08240000158548355,-2.795000066394312,-5.812000063834256,-0.1849999958988795
-0.03777092695236206,0.12444102764129639,9.923927307128906,0.16749998927116394,-0.07440000027418137,0.11129999905824661,11.606999786824352,12.356999807695003,2.4719999936575863
-0.053496044129133224,0.12423991411924362,9.92923355102539,0.1808999925851822,-0.10589999705553055,0.11259999871253967,3.244000053844849,3.36600003902597,0.3559999983095105
-0.04590163379907608,0.12861651182174683,9.91228199005127,0.20029999315738678,-0.10569999366998672,0.10329999774694443,-11.609000178477519,-17.11499922975874,-2.3049999474600704
-0.05682877078652382,0.12110830098390579,9.909993171691895,0.14899998903274536,-0.08720000088214874,0.09200000017881393,-8.23500028038617,-3.807000167411129,-0.627999982328677
-0.06041049584746361,0.12372276932001114,9.902839660644531,0.12809999287128448,-0.06430000066757202,0.09129999577999115,-2.1509998856872046,-4.469999799955096,1.0869999536934938
-0.044704534113407135,0.12262143939733505,9.914676666259766,0.1348000019788742,-0.05819999799132347,0.10080000013113022,2.2730000843117373,1.1750000042382323,2.14899992092086
-0.05774814635515213,0.12060073018074036,9.916399955749512,0.11769999563694,-0.06419999897480011,0.10089999437332153,6.806999824006912,13.228999813746775,2.3629999929011145
-0.058207832276821136,0.13073298335075378,9.923210144042969,0.17729999125003815,-0.06539999693632126,0.11189999431371689,5.716999816442195,3.118999908070799,2.5009999096564024
-0.047951072454452515,0.11578359454870224,9.91992473602295,0.16449999809265137,-0.08869999647140503,0.11229999363422394,10.889000055988856,5.99100011207325,2.856000058984873
-0.05952943116426468,0.11847467720508575,9.912445068359375,0.1898999959230423,-0.12809999287128448,0.10349999368190765,-12.937999604158382,-9.562999937127273,-0.7140000147462182
-0.046840161085128784,0.12376108020544052,9.920958518981934,0.1662999987602234,-0.09179999679327011,0.10199999809265137,-15.7680005480676,-6.75800004690124,-2.197999911469943
-0.04045243188738823,0.12255439907312393,9.92530632019043,0.1662999987602234,-0.09179999679327011,0.10199999809265137,11.517999860618147,5.7790000048593395,-0.5699999902484857
-0.050038814544677734,0.11324574053287506,9.913891792297363,0.14839999377727509,-0.07979999482631683,0.1013999953866005,11.991999621091399,7.475000008796974,2.2799999609939428
-0.04542279615998268,0.11794795095920563,9.925354957580566,0.17790000140666962,-0.10260000079870224,0.11229999363422394,-12.606000330303342,-2.1829999622789487,0.43799999447265725
-0.055057063698768616,0.13600023090839386,9.923822402954102,0.1614999920129776,-0.04820000007748604,0.11149999499320984,-5.69299981235924,-5.226999910951365,-1.9020000034091005
-0.04661989584565163,0.1331942230463028,9.912014961242676,0.15649999678134918,-0.041999999433755875,0.10109999775886536,15.524999492871473,3.388000078342581,1.6160000259016853
-0.05427176132798195,0.12173078954219818,9.920872688293457,0.15639999508857727,-0.09939999878406525,0.1021999940276146,-20.174999110005324,-3.5019999910149138,-1.1630000021967546
-0.056646812707185745,0.12271720170974731,9.92815113067627,0.14739999175071716,-0.05079999938607216,0.11089999973773956,16.717000691727513,3.6340000134711685,1.0280000325909833
-0.05824613943696022,0.13031160831451416,9.925469398498535,0.1468999981880188,-0.08649999648332596,0.11189999431371689,-15.313999581484147,-4.574000102239119,-1.0369999807612387
-0.05832275375723839,0.11647312343120575,9.91523265838623,0.1339000016450882,-0.054099999368190765,0.10109999775886536,16.387000101978348,3.214999924402621,0.5249999825929442
-0.04073973372578621,0.12709380686283112,9.924492835998535,0.16169999539852142,-0.08889999985694885,0.11189999431371689,-12.071000150352704,-0.39399999588071444,-1.2960000070361817
-0.051906291395425797,0.1362588107585907,9.92874526977539,0.1501999944448471,-0.041600000113248825,0.11109999567270279,-4.709999840784651,-3.3070000112017537,0.7029999950879127
-0.04950251430273056,0.1174212247133255,9.911602973937988,0.14169999957084656,-0.04969999939203262,0.09109999984502792,5.152000164996394,2.0409999025475605,0.5739999731420273
-0.05350561812520027,0.12347377091646194,9.915298461914062,0.14669999480247498,-0.06359999626874924,0.10130000114440918,2.3429999183508476,2.657999918578785,-0.7390000012123459
-0.06223009154200554,0.11670296639204025,9.914533615112305,0.1437000036239624,-0.06969999521970749,0.1014999970793724,-9.454000363257625,-4.9900000307147385,-0.4070000069857908
-0.042166680097579956,0.1303403526544571,9.907637596130371,0.14909999072551727,-0.033799998462200165,0.09099999815225601,-1.5519999794399024,-3.933000082124939,0.8480000019688174
-0.04704127460718155,0.11830229312181473,9.925871849060059,0.1363999992609024,-0.038599997758865356,0.11029999703168869,8.726000381703585,3.816999991242851,1.0640000387154163
-0.051858410239219666,0.13139379024505615,9.916629791259766,0.13519999384880066,-0.04959999769926071,0.10099999606609344,14.101999588738309,0.18400000017549412,0.8909999914971617
-0.04964616894721985,0.12057200074195862,9.911947250366211,0.13509999215602875,-0.09779999405145645,0.09189999848604202,13.813999539742843,-0.40599999792219216,0.6949999759399766
-0.05204036831855774,0.13759955763816833,9.919503211975098,0.13349999487400055,-0.11580000072717667,0.10260000079870224,14.266000114673131,3.9669999100396165,0.6059999963729188
-0.06070737913250923,0.1269022673368454,9.906957626342773,0.1340000033378601,-0.16429999470710754,0.09399999678134918,12.124999625930826,5.11200001589586,0.08200000283325337
-0.056100934743881226,0.13392207026481628,9.902216911315918,0.1589999943971634,-0.2011999934911728,0.10520000010728836,15.732000328499756,3.247000000994365,0.7620000229121291
-0.03937982767820358,0.12609781324863434,9.932470321655273,0.16619999706745148,-0.23849999904632568,0.08699999749660492,-6.383999805405675,-2.9630000949750004,0.6709999718570212
-0.05047934874892235,0.13500423729419708,9.926092147827148,0.15479999780654907,-0.2443999946117401,0.11679999530315399,2.5180000370571527,0.06800000267489824,-0.4190000090272685
-0.05052723363041878,0.13947661221027374,9.921869277954102,0.15449999272823334,-0.25049999356269836,0.11699999868869781,6.139000066103671,3.0819999195631937,-0.09099999769425504
-0.06036261469125748,0.14341269433498383,9.910414695739746,0.15449999272823334,-0.25049999356269836,0.11699999868869781,7.3499998630229255,8.64200015396983,0.815999978737926
-0.05194459855556488,0.12030384689569473,9.914264678955078,0.1834999918937683,-0.3050999939441681,0.10929999500513077,-14.137000039366393,-6.444000029056475,-0.3529999977991411
-0.04506845027208328,0.12093590945005417,9.913814544677734,0.17509999871253967,-0.2655999958515167,0.10729999840259552,3.961999784680344,-8.04199962500912,-0.5960000124586383
-0.061291564255952835,0.11448115110397339,9.920433044433594,0.13300000131130219,-0.28540000319480896,0.10719999670982361,-0.7360000007019765,0.149999998838045,0.7889999741446011
-0.048161763697862625,0.11578359454870224,9.9213228225708,0.14259999990463257,-0.2726999819278717,0.1070999950170517,-1.7289999561908458,-0.8540000029895564,-0.8750000065621423
-0.06947973370552063,0.11132080107927322,9.906009674072266,0.11999999731779099,-0.27629998326301575,0.09699999541044235,-3.7099999552527234,3.7379998888683676,0.8989999572842449
-0.04768292233347893,0.12835794687271118,9.902830123901367,0.15770000219345093,-0.24689999222755432,0.09679999947547913,-16.28000006598822,-7.026999790286199,-0.6149999979040272
-0.0511784553527832,0.12230540066957474,9.8967866897583,0.1282999962568283,-0.21130000054836273,0.08500000089406967,14.417999998236242,7.375000062932465,1.151999982538449
-0.05016331374645233,0.1123359426856041,9.921897888183594,0.1477999985218048,-0.259799987077713,0.1160999983549118,-4.225000060653093,0.1400000015835513,-0.9510000017045502
-0.054894257336854935,0.12614570558071136,9.913067817687988,0.1477999985218048,-0.22769999504089355,0.10589999705553055,-9.87200025649959,3.3550000193676643,-0.30100000673968863
-0.05890693888068199,0.11651142686605453,9.918057441711426,0.14790000021457672,-0.20629999041557312,0.10499999672174454,3.6410001035967854,2.35699988515867,0.5709999726316578
-0.06378152966499329,0.12402922660112381,9.914542198181152,0.15299999713897705,-0.2141999900341034,0.10539999604225159,10.490999810410335,19.503000703229866,0.38100001145606455
-0.04903325065970421,0.12230540066957474,9.909380912780762,0.21549999713897705,-0.24219998717308044,0.09779999405145645,7.000000052497138,6.4579997824208855,-0.23199999500119176
-0.05874413251876831,0.1287984699010849,9.912128448486328,0.22280000150203705,-0.2506999969482422,0.10869999974966049,-8.325999744471897,-2.8629999356670783,-1.6170000082848577
-0.06087018549442291,0.12575304508209229,9.929367065429688,0.21459999680519104,-0.22699999809265137,0.11739999800920486,-18.79200020874634,9.859999614127878,-0.7480000027434541
-0.04473326355218887,0.13951492309570312,9.932058334350586,0.2638999819755554,-0.15860000252723694,0.12619999051094055,-20.397999663764363,-11.942000075045966,-0.5459999861655302
-0.04890875145792961,0.11454818397760391,9.917903900146484,0.2248999923467636,-0.13840000331401825,0.10439999401569366,-25.072999480807752,10.146999894183582,-0.6050000139897467
-0.0591176301240921,0.13549266755580902,9.90873908996582,0.24219998717308044,-0.039799999445676804,0.09399999678134918,-23.323999770231758,-18.279000068112314,-0.690999993046435
-0.04137180745601654,0.12136687338352203,9.92330551147461,0.2110999971628189,0.004900000058114529,0.11129999905824661,6.769000066559546,-1.0419999993988052,0.40400000647542134
-0.0537833496928215,0.1137341558933258,9.921562194824219,0.19769999384880066,-0.023000000044703484,0.10159999877214432,8.64799962138204,0.2150000010025738,0.7849999912510595
-0.059653930366039276,0.12304281443357468,9.907695770263672,0.18789999186992645,-0.02979999966919422,0.09219999611377716,-9.24899991928251,8.18700027222026,-0.5290000188473387
-0.05647442862391472,0.11988247185945511,9.915260314941406,0.16599999368190765,-0.010499999858438969,0.09129999577999115,7.7400002495360685,7.7079999595009125,0.14300000209392072
-0.06216305121779442,0.12026554346084595,9.917520523071289,0.20829999446868896,-0.006000000052154064,0.10209999978542328,8.281999665838676,-1.2369999792119653,0.5330000017408804
-0.04829583689570427,0.12109872698783875,9.913507461547852,0.21400000154972076,-0.028599999845027924,0.1021999940276146,-36.9820012044261,-10.716999670988656,-0.4489999874505363
-0.052547939121723175,0.12446975708007812,9.92210865020752,0.18039999902248383,0.08529999852180481,0.11029999703168869,27.92499961025994,23.36300015039253,0.6149999979040272
-0.05921339616179466,0.12749603390693665,9.929961204528809,0.22589999437332153,0.028199998661875725,0.11209999769926071,1.0520000366739386,4.7169999309102675,-0.536999984634422
-0.057786453515291214,0.12049538642168045,9.921524047851562,0.23809999227523804,0.015599999576807022,0.10269999504089355,33.07899888624903,26.7129996175141,0.5219999820825748
-0.04067269712686539,0.11797668784856796,9.918660163879395,0.33009999990463257,-0.07479999959468842,0.1062999963760376,-30.80000040174214,0.7099999784918237,-0.18600000496247812
-0.04964616894721985,0.1285494863986969,9.91899585723877,0.321399986743927,0.019199999049305916,0.10509999841451645,5.755000000776384,-15.932999135394892,0.39200000443394367
-0.046313438564538956,0.12662453949451447,9.92678165435791,0.28129997849464417,0.001500000013038516,0.11339999735355377,6.654999940443801,19.376000165802648,0.3369999861836953
-0.0509486123919487,0.10750923305749893,9.925182342529297,0.31700000166893005,-0.033900000154972076,0.1151999980211258,-24.5890003233896,-29.904999733660347,-0.4549999884712752
-0.03658340126276016,0.11537178605794907,9.918363571166992,0.2540000081062317,0.04309999942779541,0.10199999809265137,21.425999482911934,10.445999962837352,0.30700000776042746
-0.04909071326255798,0.11981543153524399,9.912579536437988,0.2620999813079834,-0.015399999916553497,0.10339999943971634,6.011999955563278,9.330999755363097,0.5300000012305109
-0.04583459720015526,0.12489113956689835,9.927250862121582,0.29659998416900635,-0.022099999710917473,0.11419999599456787,-21.88000044949539,-29.185999380111447,0.05300000012305109
-0.050843264907598495,0.12193191051483154,9.918488502502441,0.19609999656677246,0.03539999946951866,0.10109999775886536,-5.538999964029785,-65.34900284644506,-0.6290000180727021
-0.05014416202902794,0.12040919810533524,9.915567398071289,0.03889999911189079,0.0486999973654747,0.09849999845027924,-1.8659999972846673,-56.98700032108439,-1.0509999475690606
-0.058523863554000854,0.11953770369291306,9.925029754638672,-0.12729999423027039,0.053700000047683716,0.10830000042915344,2.1329999893466938,-36.041999834997675,-0.5339999841240525
-0.04016512632369995,0.12300451099872589,9.924751281738281,-0.20659999549388885,0.04779999703168869,0.1096000000834465,7.837000034807651,4.727999950568574,-0.9589999674916334
-0.05237555876374245,0.14163139462471008,9.918516159057617,-0.20349998772144318,0.04580000042915344,0.09969999641180038,8.757000049025335,17.93900008141825,-0.8480000019688174
-0.046006981283426285,0.13091494143009186,9.91779899597168,-0.13840000331401825,0.008899999782443047,0.09919999539852142,3.2009999575947985,-44.03400076773501,-0.9610000389796836
-0.058993130922317505,0.13302184641361237,9.909534454345703,-0.26330000162124634,0.0011999999405816197,0.09119999408721924,-8.11300029520505,-45.779998610170786,-1.7409999582323235
-0.044493842869997025,0.11928870528936386,9.925153732299805,-0.3685999810695648,0.013399999588727951,0.11409999430179596,-7.118999877085332,-41.07700014017222,0.12100000279794933
-0.06354211270809174,0.11179006099700928,9.913900375366211,-0.5,0.023000000044703484,0.10869999974966049,-3.053000003564377,-6.58499989296128,1.702999987341546
-0.050249505788087845,0.12565727531909943,9.926025390625,-0.5073999762535095,0.0510999970138073,0.11919999867677689,8.251999767456686,30.915000296797643,1.34099996133087
-0.041716571897268295,0.11971008032560349,9.921083450317383,-0.4016000032424927,0.01599999889731407,0.1054999977350235,3.167999898619882,5.180000098612038,-1.3020000080569205
-0.05121676251292229,0.12248735874891281,9.908116340637207,-0.39809998869895935,0.027799999341368675,0.09529999643564224,2.373000030176248,12.408999745393603,1.5610000343318635
-0.048880018293857574,0.12150094658136368,9.919685363769531,-0.4132999777793884,0.027899999171495438,0.1054999977350235,-9.052000188146417,-5.294999993667543,-1.2989999541856982
-0.06372407078742981,0.1250922530889511,9.92825698852539,-0.4364999830722809,0.062199998646974564,0.11559999734163284,3.206000082954071,10.439999641651497,1.5589999628438134
-0.05322789400815964,0.12643299996852875,9.906124114990234,-0.3969999849796295,0.05350000038743019,0.0949999988079071,3.595000060197219,16.601999089124718,-0.6269999999455048
-0.050364427268505096,0.10919474810361862,9.903624534606934,-0.3504999876022339,0.023899998515844345,0.09339999407529831,-4.022000008331144,-8.784999555754155,0.4229999919208101
-0.04157291725277901,0.12561897933483124,9.90851879119873,-0.3635999858379364,0.054499998688697815,0.0940999984741211,2.259999886443676,4.576999835945224,-0.4190000090272685
-0.04971320182085037,0.11888648569583893,9.908910751342773,-0.35979998111724854,0.03830000013113022,0.09369999915361404,8.050000337848145,6.1500000857619765,1.067999968248105
-0.04111323133111,0.110899418592453,9.91504955291748,-0.3321000039577484,0.0064999996684491634,0.1030999943614006,-3.1069999060293214,-4.153000048404227,-0.1620000008795227
-0.05255751311779022,0.1193365827202797,9.907139778137207,-0.3536999821662903,0.025699999183416367,0.09359999746084213,-2.626000055430452,1.0150000481663333,-0.7309999820644097
-0.04426399990916252,0.13037864863872528,9.911381721496582,-0.34039998054504395,0.04169999808073044,0.09339999407529831,6.667000155928691,4.988999834888155,1.0669999858649328
-0.04967489466071129,0.13230359554290771,9.917607307434082,-0.33550000190734863,0.023399999365210533,0.10289999842643738,2.3710000654099037,0.9599999498748056,0.627999982328677
-0.04718492925167084,0.12268847227096558,9.91576862335205,-0.3220999836921692,0.0071000000461936,0.10289999842643738,-3.6939998102351455,-5.468999916547264,-0.9889999725953277
-0.03588429465889931,0.1269214153289795,9.919397354125977,-0.3261999785900116,0.026899999007582664,0.10319999605417252,-2.0129999689319162,-2.8139999451179953,-0.7339999825747792
-0.05713523179292679,0.11629116535186768,9.92438793182373,-0.35349997878074646,0.023099999874830246,0.11319999396800995,-2.9249999106408113,-3.8119998658835783,-0.1189999980109653
-0.046294283121824265,0.11912590265274048,9.922663688659668,-0.35179999470710754,0.029999999329447746,0.11339999735355377,-1.1200000126684104,-0.14699999832767557,-0.4669999905127529
-0.05073792114853859,0.13895946741104126,9.918842315673828,-0.3610000014305115,0.05260000005364418,0.10359999537467957,-0.06299999737754478,-2.9449999851910778,-0.17400000292100043
-0.059251703321933746,0.12081141769886017,9.928112983703613,-0.37779998779296875,0.03309999778866768,0.1136000007390976,0.6440000206245492,-3.1860000084038043,-0.21200000049220435
-0.04594951868057251,0.1272757649421692,9.923535346984863,-0.3658999800682068,0.04099999740719795,0.11389999836683273,-1.355000034860398,1.6969999863208072,0.15399999507179982
-0.05133168399333954,0.12868355214595795,9.917061805725098,-0.36949998140335083,0.045099999755620956,0.10379999876022339,-0.8639999869038368,3.672999966745118,-0.04200000047506539
-0.058217406272888184,0.13095326721668243,9.918219566345215,-0.3693999946117401,0.04699999839067459,0.10349999368190765,1.8539999952431896,4.979999779996194,-0.6609999879427407
-0.0710982158780098,0.13833697140216827,9.913230895996094,-0.3646000027656555,0.05159999802708626,0.1030999943614006,3.308999975968098,3.774999877375973,-0.739999983595518
-0.06010403856635094,0.11565909534692764,9.921600341796875,-0.3434000015258789,0.02279999852180481,0.11259999871253967,2.213000074104349,-4.81299994724209,0.2469999975530389
-0.05538267642259598,0.1380305141210556,9.906545639038086,-0.34579998254776,0.03619999811053276,0.09339999407529831,-5.27600011494386,-1.031999962123672,1.543000031269647
-0.052356403321027756,0.12806107103824615,9.923334121704102,-0.3479999899864197,0.04270000010728836,0.11299999803304672,-2.991000028590644,6.942999989439267,0.2810000122307012
-0.043756432831287384,0.12576262652873993,9.920671463012695,-0.3351999819278717,0.04879999905824661,0.10300000011920929,-2.031000078715839,3.2399999108687485,0.1719999981340164
-0.055650826543569565,0.12342588603496552,9.906929016113281,-0.3351999819278717,0.04879999905824661,0.10300000011920929,-2.031000078715839,3.2399999108687485,0.1719999981340164
-0.05211698263883591,0.11744996160268784,9.909323692321777,-0.34929999709129333,0.04039999842643738,0.093299999833107,0.5939999943314411,6.9789997821202885,0.97699997055385
-0.040845081210136414,0.11292970180511475,9.919628143310547,-0.31709998846054077,0.02879999950528145,0.10249999910593033,2.8759999200917283,0.8080000129508427,-0.7570000042745624
-0.054635681211948395,0.11830229312181473,9.909839630126953,-0.3240000009536743,0.03150000050663948,0.09259999543428421,2.1339999717298657,3.674000162571702,0.4759999920438612
-0.0492822490632534,0.12921027839183807,9.907761573791504,-0.31299999356269836,0.03539999946951866,0.09239999949932098,-3.1860000084038043,0.927999980004767,0.7039999774710849
-0.05813121795654297,0.1195472776889801,9.922021865844727,-0.31939998269081116,0.034299999475479126,0.11180000007152557,2.283999890526631,-3.7740001084362125,-0.17100000241063099
-0.056905388832092285,0.1425124704837799,9.912406921386719,-0.3190000057220459,0.047599997371435165,0.1022999957203865,0.33300000329015367,4.820999806307467,-0.6200000165415938
-0.05161898955702782,0.12315773963928223,9.919666290283203,-0.30329999327659607,0.026799999177455902,0.10189999639987946,-2.666999973470746,3.9579998551476554,1.5109999546779025
-0.05974011868238449,0.1260690838098526,9.914619445800781,-0.3027999997138977,0.0429999977350235,0.10159999877214432,0.23199999500119176,-5.976000162882256,-0.25100000712700693
-0.04678269848227501,0.11508448421955109,9.92143726348877,-0.2985999882221222,0.03240000084042549,0.10199999809265137,2.080000069264922,0.39599998732748526,-0.9440000183006392
-0.04810430109500885,0.14224430918693542,9.906957626342773,-0.30649998784065247,0.04609999805688858,0.09219999611377716,-0.09099999769425504,-1.5039999712739915,-1.2679999666988317
-0.060582879930734634,0.13110649585723877,9.91446590423584,-0.31949999928474426,0.036399997770786285,0.10209999978542328,0.815999978737926,1.0030000461248556,0.16899999762364695
-0.04116111248731613,0.11899182200431824,9.912808418273926,-0.29600000381469727,0.024000000208616257,0.10199999809265137,-0.06099999926066736,-4.664999993211668,-0.8750000065621423
-0.05046019330620766,0.12343546003103256,9.901844024658203,-0.31610000133514404,0.024000000208616257,0.08269999921321869,-1.3649999654138256,2.7159999640198293,-0.6110000150104855
-0.05787264183163643,0.13583743572235107,9.924991607666016,-0.31759998202323914,0.047199998050928116,0.11180000007152557,-0.9970000451041168,1.8650000149014951,-0.6159999802871993
-0.04881298542022705,0.12165417522192001,9.915863990783691,-0.3018999993801117,0.03019999898970127,0.10179999470710754,1.781000000611151,-4.114999864070038,-0.9790000420419002
-0.04665820300579071,0.1284441351890564,9.903863906860352,-0.3024999797344208,0.0348999984562397,0.09239999949932098,2.6069999632633576,-3.887999807665133,2.0710000143729608
-0.05026865750551224,0.11592724919319153,9.915681838989258,-0.32349997758865356,0.01719999872148037,0.10260000079870224,3.6280001191721354,-0.5429999856551608,2.339999971201331
-0.06333142518997192,0.12912409007549286,9.90584659576416,-0.33379998803138733,0.018400000408291817,0.09279999881982803,2.609999910412874,1.1769999690045767,0.8549999853727285
-0.057930104434490204,0.12497732788324356,9.9138822555542,-0.32979997992515564,0.011299999430775642,0.10260000079870224,0.10199999734224074,0.3660000089042174,-1.5049999536571637
-0.054185573011636734,0.11618582159280777,9.928601264953613,-0.3181000053882599,0.0009999999310821295,0.11239999532699585,-1.9149999878337503,-1.083000024160805,-0.4319999934519184
-0.028548462316393852,0.12859736382961273,9.920498847961426,-0.290800005197525,0.01599999889731407,0.10260000079870224,-1.339999978947698,-0.3759999928184979,1.0269999434861052
-0.04064396768808365,0.13062764704227448,9.913268089294434,-0.3107999861240387,0.020399998873472214,0.10249999910593033,0.4630000076192113,-1.7000000401920294,-0.34899998822517303
-0.0539078451693058,0.11784260720014572,9.931387901306152,-0.31039997935295105,0.021800000220537186,0.10249999910593033,-1.034000033611722,-2.574999886671613,-0.08899999957737763
-0.04599740356206894,0.12150094658136368,9.922701835632324,-0.3203999996185303,0.013399999588727951,0.11259999871253967,-0.9670000400004224,-0.4969999956164472,-0.37299999230812847
-0.05212656036019325,0.12566685676574707,9.90971565246582,-0.33069998025894165,0.02579999901354313,0.09299999475479126,0.33600000380052314,-2.6500000595134074,-0.07799999992939192
-0.05234682559967041,0.1202559694647789,9.903298377990723,-0.33799999952316284,0.01489999983459711,0.09319999814033508,3.5360000323730025,0.19000000119623298,0.620999998924766
-0.04567179083824158,0.12366530299186707,9.90463924407959,-0.3269999921321869,0.006399999838322401,0.093299999833107,0.3879999948599756,0.18099999966512467,2.283999890526631
-0.04138138145208359,0.13310803472995758,9.923985481262207,-0.32569998502731323,0.01529999915510416,0.1127999946475029,-3.512000028290047,-1.222000030020971,-1.5360000478657359
-0.05588066950440407,0.11971008032560349,9.90416145324707,-0.33799999952316284,0.014999999664723873,0.09319999814033508,1.6449999419005017,0.03999999902313467,-0.041000001416626686
-0.03993528336286545,0.11795752495527267,9.913402557373047,-0.3271999955177307,0.010400000028312206,0.10300000011920929,-1.1709999679838379,4.838000147151629,0.019999999511567335
0.004050989169627428,0.15802688896656036,9.905808448791504,-0.28209999203681946,0.053199999034404755,0.09269999712705612,0.18799999640924894,-1.4820000386790861,1.6439999595173296
-0.10216537117958069,0.11103349924087524,9.896930694580078,-0.3730999827384949,0.0037999998312443495,0.08299999684095383,-1.2809999511234815,0.15500000413539844,0.007000000079177565
-0.030492553487420082,0.12676818668842316,9.90090560913086,-0.30320000648498535,0.026899999007582664,0.08289999514818192,0.02800000031671026,-0.7889999741446011,0.4070000069857908
-0.06140648573637009,0.12483368068933487,9.91184139251709,-0.33390000462532043,0.026799999177455902,0.09279999881982803,0.4010000059650519,-0.19600000221697184,0.6080000145001161
-0.0322355292737484,0.1310490220785141,9.919397354125977,-0.3042999804019928,0.025699999183416367,0.10260000079870224,0.5579999882070079,0.32299999269544677,-0.0749999994190225
-0.08793424069881439,0.13066595792770386,9.906229019165039,-0.361299991607666,0.023899998515844345,0.09269999712705612,0.5279999831033136,0.5390000027616192,-1.2770000215907928
-0.04185064882040024,0.12041877210140228,9.93077564239502,-0.3100999891757965,0.01269999984651804,0.11229999363422394,0.3750000104353257,0.6009999777353522,-0.585999975183505
-0.047098737210035324,0.1375899761915207,9.9136323928833,-0.3075999915599823,0.031199999153614044,0.10239999741315842,-0.18199999538851008,1.674999947004196,-1.751999977890629
-0.045202530920505524,0.12712253630161285,9.907695770263672,-0.30219998955726624,0.021699998527765274,0.0925000011920929,0.9879999902121556,1.9250000251088837,0.35199998873554245
-0.04909071326255798,0.11367669701576233,9.906862258911133,-0.305899977684021,-0.0005999999702908099,0.09229999780654907,-0.2150000010025738,0.3310000118433829,-1.3870000047304367
-0.06047753617167473,0.13066595792770386,9.917980194091797,-0.3138999938964844,0.01939999870955944,0.10209999978542328,-0.4229999919208101,-1.3709999664345645,-3.4439999455738697
-0.0578247606754303,0.12862609326839447,9.912416458129883,-0.31709998846054077,0.02019999921321869,0.1021999940276146,-0.8759999889453145,-2.9689999892740335,3.5499999991808244
-0.04836287349462509,0.12129025906324387,9.904754638671875,-0.3154999911785126,0.013100000098347664,0.09259999543428421,0.5050000147643833,2.077999891055166,2.3419999359676757
-0.05631162226200104,0.12716084718704224,9.919349670410156,-0.3098999857902527,0.021699998527765274,0.1021999940276146,-0.07699999753589991,-0.09399999820462447,-5.0289999839886885
-0.05272989720106125,0.1301966905593872,9.9133939743042,-0.3100000023841858,0.02149999886751175,0.1021999940276146,0.035000000395887826,-1.3289999592893924,0.06500000216452881
-0.047548845410346985,0.13364432752132416,9.925066947937012,-0.3238999843597412,0.011599999852478504,0.0925000011920929,0.10999999647985702,-1.472000001403953,-4.203999790276242
-0.054329223930835724,0.12125195562839508,9.916380882263184,-0.3025999963283539,0.019899999722838402,0.11209999769926071,0.049999999612681666,0.8009999761860788,5.171000043720077
-0.05115929991006851,0.12028469145298004,9.89794635772705,-0.314300000667572,0.00969999935477972,0.0828000009059906,-0.041000001416626686,1.3380000141813537,-6.290999949666781
-0.06560112535953522,0.12196063250303268,9.926360130310059,-0.32019999623298645,0.009399999864399433,0.11209999769926071,0.14300000209392072,-0.5500000224199247,9.256999778347886
-0.06283342838287354,0.1280514895915985,9.913565635681152,-0.3222000002861023,0.019500000402331352,0.1022999957203865,0.09000000197086964,-0.8840000080932506,2.0430000807573165
-0.04386177286505699,0.12234370410442352,9.922318458557129,-0.30480000376701355,0.009599999524652958,0.11219999939203262,-0.17700000343136985,1.9360000447671892,4.210999880401859
-0.050508078187704086,0.11569740623235703,9.915797233581543,-0.3093999922275543,0.010400000028312206,0.1021999940276146,0.4300000020051476,0.14499999354069154,-8.084000165762822
-0.05162856727838516,0.11179006099700928,9.91828727722168,-0.30879998207092285,-0.0010999999940395355,0.1021999940276146,-0.3669999912873896,-1.4869999505949472,5.245999789675048
-0.05187756195664406,0.12887509167194366,9.908699989318848,-0.31299999356269836,0.019899999722838402,0.0925000011920929,-0.4720000091503196,-0.7739999715927539,-2.2099999135114206
-0.059347473084926605,0.11797668784856796,9.920048713684082,-0.32510000467300415,0.011299999430775642,0.10239999741315842,0.16599999711327754,0.3439999962680328,6.270999875116514
-0.04608359560370445,0.1449066549539566,9.918171882629395,-0.30480000376701355,0.04079999774694443,0.10239999741315842,0.4270000014947782,1.040000034632461,-0.09800000110848592
-0.055765748023986816,0.12683522701263428,9.907761573791504,-0.3118000030517578,0.019999999552965164,0.0925000011920929,0.5350000198680775,-1.2509999460197874,-0.6960000116840017
-0.05352477356791496,0.11920251697301865,9.91380500793457,-0.31520000100135803,0.008599999360740185,0.10239999741315842,0.22100000202331266,0.44699999600376555,-1.5870000031811633
-0.05692454054951668,0.12460383772850037,9.923784255981445,-0.3138999938964844,0.01769999973475933,0.11219999939203262,0.16800000190026157,0.18700000068586353,-0.6990000121943711
-0.05045061931014061,0.13022541999816895,9.927653312683105,-0.3132999837398529,0.017099998891353607,0.11219999939203262,-0.2680000011256249,-1.3509999986060035,-2.9650000597413446
-0.047309424728155136,0.13014879822731018,9.91779899597168,-0.30660000443458557,0.01759999990463257,0.10239999741315842,-0.19200000598321698,-0.30100000673968863,-0.08499999667351618
-0.06201940029859543,0.1329069286584854,9.90060806274414,-0.3270999789237976,0.01809999905526638,0.08289999514818192,0.0749999994190225,0.6690000070906769,0.1529999993484144
-0.05658935010433197,0.12822386622428894,9.917014122009277,-0.31540000438690186,0.017899999395012856,0.10239999741315842,0.5909999938210717,1.1389999981137993,-0.14900000311465958
-0.052672434598207474,0.12838667631149292,9.926187515258789,-0.3122999966144562,0.016300000250339508,0.11219999939203262,0.2800000031671026,-0.06899999839828364,0.6590000231763964
-0.06977660953998566,0.12883678078651428,9.90710163116455,-0.3321000039577484,0.01549999974668026,0.09259999543428421,0.03100000082707969,-0.7149999971293904,0.39299998681711584
-0.05073792114853859,0.12302365899085999,9.920729637145996,-0.3141999840736389,0.00559999980032444,0.10239999741315842,0.12799999954207358,0.7879999917614289,-0.8789999894556839
-0.04684973880648613,0.12864524126052856,9.914830207824707,-0.30219998955726624,0.014999999664723873,0.10239999741315842,0.1620000008795227,1.3579999820099147,0.9380000172799003
-0.052567094564437866,0.13636414706707,9.91975212097168,-0.3082999885082245,0.02449999935925007,0.1022999957203865,0.09899999683187131,-0.6919999754296072,0.37299999230812847
-0.06165548413991928,0.13240893185138702,9.913603782653809,-0.32009997963905334,0.014399999752640724,0.1022999957203865,-0.0429999995335041,-0.7209999981501293,-0.43499999396228783
-0.05582320690155029,0.1286548227071762,9.919014930725098,-0.3025999963283539,0.004699999932199717,0.11219999939203262,0.0659999978879142,0.5679999721212884,-0.2519999895101791
-0.06603208184242249,0.13584700226783752,9.912646293640137,-0.31279999017715454,0.014800000004470348,0.10239999741315842,-0.5200000173162305,1.2069999741082709,0.4319999934519184
-0.05067088454961777,0.12740983068943024,9.913642883300781,-0.32099997997283936,0.024399999529123306,0.1022999957203865,0.1749999986443858,-0.3999999969014533,-0.2899999870813831
-0.0585334450006485,0.11703815311193466,9.921648025512695,-0.3188000023365021,0.005699999630451202,0.11209999769926071,0.2069999951948509,-0.6939999935568044,0.37100000086135765
-0.04945463314652443,0.13541604578495026,9.915844917297363,-0.3188000023365021,0.005699999630451202,0.11209999769926071,-0.08499999667351618,0.7309999820644097,0.17799999915475526
-0.05246174708008766,0.13208331167697906,9.922979354858398,-0.3093000054359436,0.015099999494850636,0.11209999769926071,0.3669999912873896,-0.22400000253368207,-0.3240000017590454
-0.057642798870801926,0.11950897425413132,9.912674903869629,-0.3197000026702881,0.004299999680370092,0.1022999957203865,-0.15800000464576788,-0.5080000152747527,-0.008999999863581633
-0.055248599499464035,0.11782345920801163,9.905990600585938,-0.31129997968673706,0.004699999932199717,0.0925000011920929,-0.1930000017066024,-0.7450000022330847,0.27500001120996237
-0.060937222093343735,0.12401964515447617,9.908892631530762,-0.3231000006198883,0.0052999998442828655,0.09259999543428421,0.07099999651516105,1.4479999973209974,0.27899999410350396
-0.04918648302555084,0.13645991683006287,9.91010856628418,-0.30889999866485596,0.024699999019503593,0.0925000011920929,0.363000008393848,0.536999984634422,-0.08100000043976135
-0.04851610213518143,0.11865664273500443,9.902092933654785,-0.3075999915599823,0.00419999985024333,0.08259999752044678,0.5939999943314411,-0.6450000030077214,-0.16699999283666295
-0.050201620906591415,0.11710519343614578,9.911104202270508,-0.3093000054359436,0.0026000000070780516,0.0925000011920929,0.4390000035362559,0.5799999741627662,-0.16899999762364695
-0.05218401923775673,0.14392025768756866,9.923487663269043,-0.307699978351593,0.030799999833106995,0.11209999769926071,0.17400000292100043,0.969999987149939,-0.1419999930303221
-0.057029884308576584,0.12649045884609222,9.916352272033691,-0.3050000071525574,0.010699999518692493,0.1021999940276146,0.19099999691961836,-0.4889999764685111,-0.08400000095013078
-0.06476794183254242,0.12785036861896515,9.920758247375488,-0.31630000472068787,0.010099999606609344,0.1021999940276146,0.5399999851447914,0.5080000152747527,-0.13100000005244303
-0.04815218225121498,0.12815682590007782,9.916476249694824,-0.30379998683929443,0.008799999952316284,0.1021999940276146,-0.23900000508552924,0.09099999769425504,0.09399999820462447
-0.053256623446941376,0.13079045712947845,9.919293403625488,-0.3034999966621399,0.009399999864399433,0.1021999940276146,-0.04500000098543482,0.01700000066872456,0.10199999734224074
-0.053256623446941376,0.13079045712947845,9.919293403625488,-0.3034999966621399,0.009399999864399433,0.1021999940276146,-0.04500000098543482,0.01700000066872456,0.10199999734224074
-0.046246398240327835,0.12222878634929657,9.923410415649414,-0.29350000619888306,-0.00019999999494757503,0.1119999960064888,-0.012000000373951061,0.2140000052791884,0.03400000133744912
-0.03608540818095207,0.12260227650403976,9.911200523376465,-0.28279998898506165,-0.00009999999747378752,0.09229999780654907,-0.07099999651516105,0.48299997544777223,0.1070000026395942
-0.042530596256256104,0.13204501569271088,9.913202285766602,-0.2915000021457672,0.009800000116229057,0.10209999978542328,-0.40499998885859356,0.043999998591942806,0.1620000008795227
-0.05616797134280205,0.11330319941043854,9.908853530883789,-0.3010999858379364,-0.008599999360740185,0.09229999780654907,0.019999999511567335,-0.5780000093964218,-0.046999999102312236
-0.04927267134189606,0.13844232261180878,9.925756454467773,-0.3026999831199646,0.02070000022649765,0.11189999431371689,0.12299999424472013,0.0659999978879142,0.04200000047506539
-0.06218220666050911,0.12980404496192932,9.918373107910156,-0.31209999322891235,0.010499999858438969,0.10209999978542328,-0.33300000329015367,-0.6510000040284603,-0.1180000022875799
-0.0611383356153965,0.13137462735176086,9.91380500793457,-0.3042999804019928,-0.007999999448657036,0.1119999960064888,-0.03899999996469596,-0.013000000266153095,-0.16800000190026157
-0.04677312448620796,0.11774684488773346,9.893692970275879,-0.31360000371932983,0.01119999960064888,0.1021999940276146,-0.12199999852133472,0.4579999889816446,0.035000000395887826
-0.04395754262804985,0.12643299996852875,9.911248207092285,-0.29249998927116394,0.011699999682605267,0.09229999780654907,0.3770000018820965,0.20899999998183494,0.09200000008774706
-0.05436753109097481,0.1283004730939865,9.914149284362793,-0.30169999599456787,0.010599999688565731,0.10209999978542328,-0.3369999861836953,-0.17799999915475526,-0.10299999973573276
-0.05283524468541145,0.1361343115568161,9.91073989868164,-0.30219998955726624,0.02149999886751175,0.09229999780654907,0.27200001069959295,-0.1199999937343507,0.09500000059811649
-0.06050626188516617,0.13654610514640808,9.909687042236328,-0.31219998002052307,0.020899999886751175,0.09229999780654907,-0.02800000031671026,0.3399999866940647,0.08200000283325337
-0.04706043004989624,0.12989981472492218,9.883398056030273,-0.29170000553131104,0.011099999770522118,0.07270000129938126,0.16899999762364695,-0.03999999902313467,-0.2150000010025738
-0.05396530404686928,0.12267889082431793,9.906814575195312,-0.30149999260902405,0.0008999999845400453,0.09229999780654907,0.031999999885518396,-0.5399999851447914,0.10100000161885533
-0.050986919552087784,0.12201809883117676,9.923659324645996,-0.30300000309944153,0.0007999999797903001,0.1119999960064888,-0.3130000087811663,-0.43999998591942807,-0.009999999755783667
-0.06176082789897919,0.11932700872421265,9.902935981750488,-0.3140999972820282,0.0017999999690800905,0.09239999949932098,0.13000000432905762,0.35199998873554245,-0.0969999987149939
-0.050651729106903076,0.12783122062683105,9.913172721862793,-0.3033999800682068,0.011299999430775642,0.1021999940276146,0.25400000763737635,-0.2379999960219306,0.05999999686717535
-0.04113238677382469,0.11900140345096588,9.914743423461914,-0.29420000314712524,0.0007999999797903001,0.1021999940276146,0.16899999762364695,0.03599999945432653,-0.046999999102312236
-0.07064810395240784,0.1290666162967682,9.909859657287598,-0.32330000400543213,0.010099999606609344,0.09239999949932098,-0.008999999863581633,0.21299999621558977,-0.07600000181251451
-0.0447811484336853,0.11818736791610718,9.910319328308105,-0.2929999828338623,0.00029999998514540493,0.09229999780654907,-0.27599999359313454,-0.41499999945330046,-0.149999998838045
-0.06285258382558823,0.1181299164891243,9.890935897827148,-0.31379997730255127,0.0011999999405816197,0.07279999554157257,-0.010999999647985701,-0.321000001248676,0.12499999903170415
-0.05652231350541115,0.13195881247520447,9.921294212341309,-0.30480000376701355,0.010999999940395355,0.1021999940276146,0.06899999839828364,-0.19900000272734125,-0.06299999737754478
-0.05678088590502739,0.12899000942707062,9.91838264465332,-0.3050999939441681,0.010799999348819256,0.1021999940276146,0.07099999651516105,-0.22700000304405152,0.12299999424472013
-0.0629291981458664,0.13107775151729584,9.914484977722168,-0.31540000438690186,0.010599999688565731,0.1021999940276146,0.08799999718388561,-0.1830000044521087,-0.02800000031671026
-0.05625416338443756,0.11795752495527267,9.907743453979492,-0.3057999908924103,0.0005999999702908099,0.09239999949932098,0.2959999881021219,-0.12100000279794933,0.0030000000934877653
-0.0541568398475647,0.12224794179201126,9.901728630065918,-0.3061999976634979,-0.00019999999494757503,0.08259999752044678,0.18799999640924894,0.17700000343136985,-0.128999995265459
-0.04551856219768524,0.12095507234334946,9.915711402893066,-0.29589998722076416,-0.000699999975040555,0.1021999940276146,0.128999995265459,0.22199999774669807,0.21299999621558977
-0.046696510165929794,0.13325169682502747,9.920614242553711,-0.295199990272522,0.008700000122189522,0.1021999940276146,-0.05799999875029794,0.5480000042927274,-0.08200000283325337
-0.048257529735565186,0.12397176027297974,9.917502403259277,-0.3034999966621399,-0.0007999999797903001,0.1021999940276146,-0.16400000566650674,0.09200000008774706,0.07999999804626934
-0.040586505085229874,0.11325531452894211,9.913919448852539,-0.29319998621940613,-0.010199999436736107,0.1021999940276146,-0.3789999933288673,-0.25100000712700693,0.01400000015835513
-0.05717353895306587,0.12820471823215485,9.894047737121582,-0.2938999831676483,0.010499999858438969,0.08259999752044678,-0.10100000161885533,-0.13600000534979648,0.10299999973573276
-0.04736688733100891,0.11899182200431824,9.923467636108398,-0.30320000648498535,0.009599999524652958,0.08259999752044678,0.049999999612681666,-0.3540000068627397,0.14399999781730613
-0.05687665566802025,0.12295661866664886,9.888426780700684,-0.3042999804019928,0,0.07279999554157257,0.1319999957758284,0.17799999915475526,-0.08899999957737763
-0.05046019330620766,0.1392563432455063,9.912760734558105,-0.3037000000476837,0.019299998879432678,0.1021999940276146,0.06200000165415938,-0.06899999839828364,-0.0329999989439571
-0.04498226195573807,0.13431471586227417,9.90046501159668,-0.3037000000476837,0.019299998879432678,0.1021999940276146,0.04500000098543482,0.3369999861836953,-0.1419999930303221
-0.04718492925167084,0.11422257125377655,9.907580375671387,-0.2928999960422516,-0.010400000028312206,0.09239999949932098,0.031999999885518396,0.5249999825929442,0.149999998838045
-0.05680004134774208,0.1388828605413437,9.905089378356934,-0.3012000024318695,0.01889999955892563,0.09229999780654907,-0.02600000053230619,-0.010999999647985701,0.046999999102312236
-0.04947378486394882,0.13172897696495056,9.90890121459961,-0.3008999824523926,0.009099999442696571,0.09229999780654907,0.1620000008795227,0.6750000081114157,0.024999999806340833
-0.060247693210840225,0.12311942875385284,9.905003547668457,-0.30879998207092285,-0.0009999999310821295,0.09229999780654907,0.1749999986443858,0.21999999295971404,0.031999999885518396
-0.061387334018945694,0.12645216286182404,9.910778045654297,-0.30809998512268066,0.008200000040233135,0.09219999611377716,0.03899999996469596,0.12700000381868817,0.07900000232288394
-0.05047934874892235,0.12090718746185303,9.896575927734375,-0.29760000109672546,-0.0015999999595806003,0.08240000158548355,0.6609999879427407,0.26600000967885407,-0.1199999937343507
-0.04729985073208809,0.13229399919509888,9.89321517944336,-0.28700000047683716,0.006300000008195639,0.08240000158548355,0.04600000004387353,-0.0039999999856897995,0.1509999945614304
-0.056196700781583786,0.11659762263298035,9.896585464477539,-0.2963999807834625,-0.003499999875202775,0.08240000158548355,-0.31699999167470794,-0.30400000725005805,0.12100000279794933
-0.047002967447042465,0.11586020886898041,9.905597686767578,-0.2874000072479248,-0.0026000000070780516,0.09219999611377716,0.08100000043976135,-0.13799999679656727,0.03400000133744912
-0.05827486887574196,0.11699984967708588,9.90731143951416,-0.30699998140335083,-0.002899999963119626,0.09219999611377716,0.1749999986443858,0.5219999820825748,-0.10199999734224074
-0.05428134277462959,0.11827356368303299,9.906708717346191,-0.29589998722076416,-0.0032999999821186066,0.09219999611377716,-0.13700000107318186,-0.0269999995907449,0.1620000008795227
-0.063973069190979,0.12674903869628906,9.905348777770996,-0.30539998412132263,0.006799999624490738,0.09219999611377716,0.0659999978879142,-0.2780000117203318,-0.09999999922536333
-0.0607839934527874,0.1252550631761551,9.912349700927734,-0.3060999810695648,0.006599999964237213,0.10199999809265137,0.2289999944908223,0.49799997799961937,0.23199999500119176
-0.044254425913095474,0.12472832947969437,9.9042387008667,-0.28509998321533203,0.006000000052154064,0.09219999611377716,-0.4089999984325616,-0.31600000929153577,0.041000001416626686
-0.047864880412817,0.11826398223638535,9.909523963928223,-0.2858999967575073,-0.0023999998811632395,0.09219999611377716,-0.03999999902313467,0.29699999716572056,0.05900000114378995
-0.0540323443710804,0.11862790584564209,9.918746948242188,-0.29499998688697815,-0.002300000051036477,0.10199999809265137,-0.23199999500119176,-0.3600000078834786,0.014999999216793838
-0.051197610795497894,0.13472650945186615,9.89931583404541,-0.29589998722076416,0.017899999395012856,0.08240000158548355,-0.1319999957758284,0.5849999928003328,0.007999999971379599
-0.05957731604576111,0.11947066336870193,9.895063400268555,-0.30399999022483826,-0.0013000000035390258,0.08229999989271164,0.17599999436777122,-0.07000000079177565,0.041000001416626686
-0.05346731096506119,0.13584700226783752,9.884231567382812,-0.2938999831676483,0.017799999564886093,0.07249999791383743,-0.03899999996469596,-0.27899999410350396,0.08899999957737763
-0.05250963196158409,0.1478850543498993,9.888771057128906,-0.2946999967098236,0.027699999511241913,0.07249999791383743,-0.2150000010025738,0.3409999957576634,0.1830000044521087
-0.05114014819264412,0.12576262652873993,9.906900405883789,-0.2840999960899353,0.008599999360740185,0.09209999442100525,-0.06299999737754478,-0.29899998861249133,0.10100000161885533
-0.050488926470279694,0.13255257904529572,9.902389526367188,-0.2929999828338623,0.008299999870359898,0.09209999442100525,-0.010999999647985701,-0.3669999912873896,-0.09099999769425504
-0.04401500150561333,0.11756487935781479,9.8967866897583,-0.2936999797821045,0.008499999530613422,0.08229999989271164,-0.23199999500119176,-0.2639999915516568,-0.029999998433587676
-0.049224790185689926,0.13252384960651398,9.90661334991455,-0.2953000068664551,0.00930000003427267,0.09219999611377716,0.19000000119623298,-0.029999998433587676,0.07399999702553048
-0.0550953708589077,0.12480494379997253,9.903739929199219,-0.29499998688697815,0.008799999952316284,0.09219999611377716,-0.4930000127229056,-0.2250000115972807,-0.012000000373951061
-0.048305410891771317,0.12408668547868729,9.90237045288086,-0.2954999804496765,0.00039999998989515007,0.08229999989271164,-0.035000000395887826,0.13499999628619785,-0.021000000237532696
-0.06213432177901268,0.1276971399784088,9.895033836364746,-0.3044999837875366,0.010300000198185444,0.08229999989271164,0.3100000082707969,0.20599999947146552,0.14799999405106096
-0.058236561715602875,0.12478578835725784,9.903557777404785,-0.30379998683929443,0.009399999864399433,0.09209999442100525,-0.3059999986968288,-0.13300000483942703,-0.024999999806340833
-0.0625557005405426,0.13774320483207703,9.904831886291504,-0.30410000681877136,0.02019999921321869,0.09209999442100525,-0.17899999487814064,-0.3369999861836953,0.29999999767609
-0.06613742560148239,0.10673351585865021,9.905923843383789,-0.30480000376701355,-0.008700000122189522,0.09209999442100525,-0.006000000186975531,-0.024000000747902123,-0.010999999647985701
-0.0612628310918808,0.11261367052793503,9.913288116455078,-0.3044999837875366,-0.008599999360740185,0.10189999639987946,0.07399999702553048,0.3890000039235742,0.0329999989439571
-0.060554150491952896,0.11753614991903305,9.898558616638184,-0.30329999327659607,0.0008999999845400453,0.08229999989271164,-0.0039999999856897995,0.3860000034132048,0.05600000063342052
-0.05586151406168938,0.12575304508209229,9.909208297729492,-0.2924000024795532,0.010699999518692493,0.09209999442100525,-0.15399999507179982,-0.10900000075647161,-0.10100000161885533
-0.05014416202902794,0.120734803378582,9.885878562927246,-0.2920999825000763,0.00139999995008111,0.07239999622106552,0.21200000049220435,0.16899999762364695,0.02899999937514897
-0.05551674962043762,0.12116575986146927,9.903874397277832,-0.29159998893737793,0.0008999999845400453,0.09200000017881393,-0.12400000330831876,-0.024999999806340833,-0.1719999981340164
-0.0614926740527153,0.12319604307413101,9.903050422668457,-0.3009999990463257,0.0011999999405816197,0.09200000017881393,0.014999999216793838,0.515999981061836,-0.02899999937514897
-0.05649358406662941,0.12339715659618378,9.905789375305176,-0.2897000014781952,0.0011999999405816197,0.09200000017881393,-0.07900000232288394,0.2899999870813831,0.031999999885518396
-0.051743488758802414,0.11881944537162781,9.911151885986328,-0.2888000011444092,0.00139999995008111,0.09200000017881393,-0.19499999315337319,0.21999999295971404,-0.019000000453128628
-0.04296155646443367,0.12492944300174713,9.915691375732422,-0.2782000005245209,0.011899999342858791,0.10170000046491623,-0.09099999769425504,0.02800000031671026,0.18400000017549412
-0.04783615097403526,0.12389514595270157,9.905041694641113,-0.2777000069618225,0.002300000051036477,0.09189999848604202,0.49799997799961937,0.3540000068627397,0.05900000114378995
-0.05372588708996773,0.12438356876373291,9.89566707611084,-0.2863999903202057,0.0008999999845400453,0.08209999650716782,-0.18799999640924894,-0.08899999957737763,-0.21100000476881897
-0.05057511478662491,0.12954546511173248,9.905866622924805,-0.2865000069141388,0.011299999430775642,0.09189999848604202,-0.01400000015835513,0.28499999512424284,-0.1729999938574018
-0.06731537729501724,0.14284765720367432,9.904850959777832,-0.3051999807357788,0.0210999995470047,0.09189999848604202,0.0429999995335041,0.19900000272734125,0.038000000906257256
-0.05301720276474953,0.1232151910662651,9.904621124267578,-0.28450000286102295,0.01119999960064888,0.09189999848604202,-0.07199999890865307,-0.06399999977103679,0.18900000547284757
-0.044043734669685364,0.1438244730234146,9.90011978149414,-0.2736999988555908,0.030899999663233757,0.0819999948143959,-0.28600000418784144,-0.05600000063342052,-0.14600000260429016
-0.04094085097312927,0.11580274999141693,9.920202255249023,-0.2736999988555908,0.002300000051036477,0.10159999877214432,0.2570000081477458,-0.11299999699022645,0.09899999683187131
-0.05317043140530586,0.1329069286584854,9.88585090637207,-0.28369998931884766,0.011399999260902405,0.0722000002861023,-0.31800000073830653,-0.4240000009844087,-0.03699999851276524
-0.04881298542022705,0.12376108020544052,9.903979301452637,-0.2847999930381775,0.0026000000070780516,0.09189999848604202,-0.1400000015835513,-0.15699999558216926,0.06299999737754478
-0.060841452330350876,0.13598108291625977,9.902235984802246,-0.2944999933242798,0.022499999031424522,0.0819999948143959,-0.14799999405106096,-0.19200000598321698,-0.06700000028140622
-0.04792233929038048,0.11786176264286041,9.900225639343262,-0.2849999964237213,0.0032999999821186066,0.0819999948143959,-0.09000000197086964,-0.046999999102312236,-0.08200000283325337
-0.07408617436885834,0.13736972212791443,9.906143188476562,-0.3042999804019928,0.023099999874830246,0.09179999679327011,-0.2780000117203318,-0.1070000026395942,0.1719999981340164
-0.04368939250707626,0.12362699955701828,9.919628143310547,-0.2750000059604645,0.004299999680370092,0.10159999877214432,0.1849999958988795,-0.2499999980634083,0.1939999974299878
-0.06132029369473457,0.12277466803789139,9.89543628692627,-0.295199990272522,0.0037999998312443495,0.0819999948143959,-0.18199999538851008,0.057000003026912535,-0.14300000209392072
-0.050364427268505096,0.11499829590320587,9.918593406677246,-0.28509998321533203,0.00419999985024333,0.10159999877214432,-0.023000000021936765,0.07699999753589991,0.37200000992495624
-0.06056372448801994,0.11842679232358932,9.902083396911621,-0.2945999801158905,0.004399999976158142,0.0819999948143959,-0.12199999852133472,-0.3980000054546825,-0.1390000058601659
-0.04686889424920082,0.13660357892513275,9.906420707702637,-0.2759000062942505,0.024299999698996544,0.09189999848604202,-0.012000000373951061,-0.04200000047506539,0.03999999902313467
-0.06028600037097931,0.14020445942878723,9.910347938537598,-0.29510000348091125,0.024299999698996544,0.09179999679327011,-0.13100000005244303,0.05099999867112037,-0.07699999753589991
-0.054137688130140305,0.12006442993879318,9.902007102966309,-0.28459998965263367,0.0050999997183680534,0.0819999948143959,-0.2259999939804529,-0.07799999992939192,0.2770000026567332
-0.05441541597247124,0.12828132510185242,9.911295890808105,-0.28459998965263367,0.01549999974668026,0.09179999679327011,0.10299999973573276,0.12400000330831876,0.10299999973573276
-0.04742434620857239,0.13483186066150665,9.904487609863281,-0.27399998903274536,0.02499999850988388,0.09179999679327011,-0.11299999699022645,-0.16999999334703236,-0.0039999999856897995
-0.055583786219358444,0.12416329979896545,9.92041301727295,-0.28380000591278076,0.00559999980032444,0.10159999877214432,0.38699998579637696,0.22299999347008345,0.01700000066872456
-0.05290227755904198,0.13371138274669647,9.897255897521973,-0.28299999237060547,0.014399999752640724,0.0819999948143959,-0.07900000232288394,-0.18700000068586353,0.0039999999856897995
-0.044445961713790894,0.11839806288480759,9.90487003326416,-0.2732999920845032,0.004799999762326479,0.09179999679327011,0.1390000058601659,0.023000000021936765,-0.14499999354069154
-0.05091987922787666,0.12043792009353638,9.90513801574707,-0.2825999855995178,0.0044999998062849045,0.09179999679327011,-0.049999999612681666,0.17799999915475526,0.05099999867112037
-0.05646485090255737,0.1308000385761261,9.920058250427246,-0.2815999984741211,0.014399999752640724,0.10159999877214432,-0.18199999538851008,0.05999999686717535,-0.08700000146050021
-0.0631590411067009,0.13475525379180908,9.903949737548828,-0.2906999886035919,-0.004600000102072954,0.0916999951004982,0.046999999102312236,0.24500000610626807,0.031999999885518396
-0.03888183459639549,0.12739068269729614,9.911640167236328,-0.2897000014781952,0.024899998679757118,0.0916999951004982,0.03400000133744912,0.17700000343136985,-0.03999999902313467
-0.050086699426174164,0.12138602137565613,9.915298461914062,-0.27799999713897705,0.0050999997183680534,0.1014999970793724,0.11400000605382507,0.009999999755783667,0.21100000476881897
-0.04802768677473068,0.12816640734672546,9.906669616699219,-0.2777999937534332,0.014599999412894249,0.0916999951004982,0.0659999978879142,0.006000000186975531,-0.09999999922536333
-0.05703946202993393,0.12301408499479294,9.91456127166748,-0.27730000019073486,0.004600000102072954,0.1014999970793724,0.30700000776042746,0.03999999902313467,0.019000000453128628
-0.0584089420735836,0.13621091842651367,9.913900375366211,-0.28689998388290405,0.023399999365210533,0.1014999970793724,-0.19699999794035722,-0.24899998899980968,0.07000000079177565
-0.06173209846019745,0.11853213608264923,9.912224769592285,-0.2874000072479248,0.0044999998062849045,0.1014999970793724,0.37400000137172706,0.07900000232288394,0.04500000098543482
-0.050345271825790405,0.14116212725639343,9.909648895263672,-0.27730000019073486,0.02319999970495701,0.0916999951004982,0.024999999806340833,0.18799999640924894,0.0329999989439571
-0.04893748089671135,0.12562856078147888,9.908585548400879,-0.27619999647140503,0.013299999758601189,0.09160000085830688,-0.11200000126684104,-0.15200000362502902,0.012000000373951061
-0.05294058471918106,0.1252359002828598,9.916438102722168,-0.2760999798774719,0.013599999248981476,0.1013999953866005,0.013000000266153095,-0.07900000232288394,-0.03899999996469596
-0.051484912633895874,0.12632766366004944,9.906000137329102,-0.2757999897003174,0.013499999418854713,0.09160000085830688,-0.09600000299160849,-0.1849999958988795,-0.24800000661663751
-0.04888959974050522,0.12625104188919067,9.925488471984863,-0.27619999647140503,0.013799999840557575,0.1111999973654747,0.01400000015835513,-0.09099999769425504,0.17599999436777122
-0.0607839934527874,0.1370536834001541,9.896968841552734,-0.2856000065803528,0.023599999025464058,0.08179999887943268,0.023000000021936765,0.13499999628619785,-0.0009999999964224499
-0.0590122826397419,0.12744814157485962,9.898683547973633,-0.28459998965263367,0.013700000010430813,0.08179999887943268,0.03400000133744912,-0.1189999980109653,0.1629999966029081
-0.049751508980989456,0.1380496621131897,9.914131164550781,-0.27469998598098755,0.02329999953508377,0.1013999953866005,-0.18099999966512467,0.0429999995335041,-0.06399999977103679
-0.05406107380986214,0.12910494208335876,9.903969764709473,-0.27399998903274536,0.0139999995008111,0.09160000085830688,0.15500000413539844,-0.02800000031671026,0.17599999436777122
-0.06511270999908447,0.12659581005573273,9.915336608886719,-0.28369998931884766,0.013599999248981476,0.1013999953866005,-0.29399999665535115,-0.5870000109275301,-0.11599999750059588
-0.053352389484643936,0.12518802285194397,9.918536186218262,-0.2750999927520752,0.014299999922513962,0.1013999953866005,0.004999999877891834,-0.024999999806340833,0.0659999978879142
-0.045623909682035446,0.1276300996541977,9.911678314208984,-0.26479998230934143,0.0142000000923872,0.09160000085830688,0.024000000747902123,0.14900000311465958,-0.07600000181251451
-0.06111918389797211,0.14231134951114655,9.916007995605469,-0.28349998593330383,0.023899998515844345,0.1013999953866005,0.01700000066872456,-0.08700000146050021,0.14699999832767557
-0.05300762504339218,0.11670296639204025,9.918755531311035,-0.2733999788761139,0.004299999680370092,0.1013999953866005,-0.3660000089042174,-0.03100000082707969,0.02899999937514897
-0.04956955462694168,0.1336539089679718,9.922720909118652,-0.2732999920845032,0.015199999324977398,0.1111999973654747,-0.3529999977991411,0.05099999867112037,-0.06500000216452881
-0.055181559175252914,0.1252359002828598,9.906488418579102,-0.27300000190734863,0.016099998727440834,0.09149999916553497,-0.12400000330831876,-0.08100000043976135,-0.041000001416626686
-0.05243301764130592,0.1249007135629654,9.91948413848877,-0.2824999988079071,0.026200000196695328,0.10130000114440918,-0.029999998433587676,0.2039999946844815,0.019000000453128628
-0.06182786449790001,0.12614570558071136,9.924741744995117,-0.2719999849796295,0.01589999906718731,0.10130000114440918,-0.08200000283325337,-0.17599999436777122,-0.16999999334703236
-0.04746265336871147,0.13137462735176086,9.907857894897461,-0.2807999849319458,0.01599999889731407,0.11109999567270279,-0.12299999424472013,0.0969999987149939,-0.09800000110848592
-0.04533660411834717,0.13124056160449982,9.912320137023926,-0.26080000400543213,0.016499999910593033,0.10130000114440918,-0.049999999612681666,0.05300000012305109,-0.029999998433587676
-0.06060203164815903,0.1331942230463028,9.914657592773438,-0.27969998121261597,0.016599999740719795,0.10130000114440918,-0.15800000464576788,-0.15699999558216926,-0.06500000216452881
-0.056129664182662964,0.13003389537334442,9.926484107971191,-0.2700999975204468,0.017099998891353607,0.11109999567270279,0.14399999781730613,0.17100000241063099,0.013000000266153095
-0.06254612654447556,0.11971008032560349,9.923583030700684,-0.27889999747276306,0.006799999624490738,0.11099999397993088,0.05499999823992851,0.0659999978879142,0.13499999628619785
-0.04386177286505699,0.14057794213294983,9.89936351776123,-0.25849997997283936,0.026200000196695328,0.08159999549388885,0.004999999877891834,0.10600000024610218,0.024000000747902123
-0.05761406943202019,0.12831005454063416,9.91162109375,-0.27730000019073486,0.01640000008046627,0.09139999747276306,0.13700000107318186,-0.1830000044521087,-0.009999999755783667
-0.04677312448620796,0.13410401344299316,9.908968925476074,-0.25759997963905334,0.02579999901354313,0.09139999747276306,-0.15500000413539844,-0.12599999475508955,-0.13300000483942703
-0.05088157206773758,0.1200261265039444,9.914244651794434,-0.26759999990463257,0.006599999964237213,0.10119999945163727,-0.1419999930303221,0.03599999945432653,0.16999999334703236
-0.051810525357723236,0.13431471586227417,9.918536186218262,-0.2669000029563904,0.026599999517202377,0.10119999945163727,-0.2259999939804529,-0.09000000197086964,-0.09300000248123906
-0.05685750022530556,0.1099608987569809,9.915223121643066,-0.2669999897480011,-0.001999999862164259,0.10119999945163727,-0.07999999804626934,-0.0329999989439571,0.12299999424472013
-0.05052723363041878,0.12651918828487396,9.901317596435547,-0.26639997959136963,0.01759999990463257,0.08150000125169754,-0.008999999863581633,-0.023000000021936765,0.057000003026912535
-0.053448159247636795,0.1358182728290558,9.918851852416992,-0.26600000262260437,0.027400000020861626,0.10109999775886536,0.2250000115972807,-0.0269999995907449,-0.03699999851276524
-0.056244585663080215,0.1093575581908226,9.919349670410156,-0.26579999923706055,-0.0024999999441206455,0.10119999945163727,-0.1849999958988795,-0.2140000052791884,0.1849999958988795
-0.052049946039915085,0.1297178566455841,9.911372184753418,-0.2660999894142151,0.01759999990463257,0.09129999577999115,0.10499999785261017,-0.03100000082707969,0.23399998644796255
-0.05092945694923401,0.13487015664577484,9.926982879638672,-0.26600000262260437,0.02709999866783619,0.11099999397993088,0.2050000037480801,0.0019999999928448997,0.13799999679656727
-0.04792233929038048,0.13468821346759796,9.914647102355957,-0.26579999923706055,0.026599999517202377,0.10119999945163727,-0.15999999609253868,-0.06200000165415938,-0.20800000425844953
-0.06033388152718544,0.1412195861339569,9.905444145202637,-0.27549999952316284,0.02709999866783619,0.09129999577999115,-0.15800000464576788,0.07000000079177565,0.08499999667351618
-0.05149449035525322,0.1285877823829651,9.914380073547363,-0.26489999890327454,0.01769999973475933,0.10109999775886536,-0.012000000373951061,-0.07000000079177565,-0.20800000425844953
-0.057307612150907516,0.107231505215168,9.917339324951172,-0.2645999789237976,-0.0017999999690800905,0.10109999775886536,0.0539999991814898,-0.02600000053230619,0.07399999702553048
-0.06708553433418274,0.11576443910598755,9.924578666687012,-0.28380000591278076,0.007699999958276749,0.11089999973773956,0.3089999992071983,0.12400000330831876,0.1390000058601659
-0.057451263070106506,0.12091676145792007,9.930554389953613,-0.2635999917984009,0.00699999975040555,0.11089999973773956,-0.19600000221697184,-0.16899999762364695,-0.03999999902313467
-0.045700524002313614,0.12697888910770416,9.904889106750488,-0.25349998474121094,0.01769999973475933,0.09129999577999115,0.05300000012305109,0.06099999926066736,0.1070000026395942
-0.06009446457028389,0.12453679740428925,9.920096397399902,-0.27239999175071716,0.01759999990463257,0.10109999775886536,0.07399999702553048,-0.021000000237532696,-0.12700000381868817
-0.05462610721588135,0.12911450862884521,9.912254333496094,-0.2620999813079834,0.01730000041425228,0.10109999775886536,-0.05099999867112037,-0.09899999683187131,0.017999999727163266
-0.04633259028196335,0.13107775151729584,9.919857025146484,-0.25200000405311584,0.017400000244379044,0.10109999775886536,-0.021999999295971403,0.4070000069857908,-0.0019999999928448997
-0.05625416338443756,0.12377065420150757,9.916888236999512,-0.2603999972343445,0.007699999958276749,0.10099999606609344,0.16699999283666295,-0.0429999995335041,0.15800000464576788
-0.05986462160944939,0.12354081124067307,9.910663604736328,-0.2700999975204468,0.007199999876320362,0.09119999408721924,-0.3259999932058162,-0.015999999942759198,-0.05200000106461238
-0.04682100564241409,0.1182352602481842,9.91894817352295,-0.2502000033855438,0.008200000040233135,0.10099999606609344,-0.149999998838045,0.07099999651516105,0.0030000000934877653
-0.050393156707286835,0.12003570050001144,9.919713973999023,-0.25929999351501465,0.008599999360740185,0.10099999606609344,-0.149999998838045,0.0749999994190225,-0.16699999283666295
-0.047998953610658646,0.13181516528129578,9.926321983337402,-0.2587999999523163,0.018799999728798866,0.11079999804496765,0.06800000267489824,0.0030000000934877653,0.15500000413539844
-0.05698200315237045,0.1362779587507248,9.909687042236328,-0.2581999897956848,0.028299998492002487,0.09119999408721924,-0.009999999755783667,-0.13499999628619785,-0.13000000432905762
-0.069182850420475,0.1275918036699295,9.90894889831543,-0.2775000035762787,0.01850000023841858,0.09119999408721924,-0.046999999102312236,-0.11599999750059588,0.08100000043976135
-0.05372588708996773,0.12976573407649994,9.918813705444336,-0.25769999623298645,0.01860000006854534,0.10099999606609344,0.03400000133744912,0.12599999475508955,-0.13700000107318186
-0.04326801374554634,0.1279653012752533,9.929108619689941,-0.24699999392032623,0.01850000023841858,0.11069999635219574,-0.06200000165415938,-0.08899999957737763,0.031999999885518396
-0.05639781430363655,0.1189631000161171,9.912291526794434,-0.2565000057220459,0.008799999952316284,0.10089999437332153,-0.3220000103122746,-0.07000000079177565,0.11699999322398127
-0.06408798694610596,0.1356937736272812,9.921034812927246,-0.2662000060081482,0.02929999865591526,0.10089999437332153,-0.19000000119623298,-0.12199999852133472,-0.024000000747902123
-0.04639962688088417,0.13216951489448547,9.907369613647461,-0.24629999697208405,0.019999999552965164,0.09109999984502792,0.09800000110848592,-0.015999999942759198,0.01700000066872456
-0.0651797503232956,0.1188385933637619,9.923544883728027,-0.2654999792575836,0.00989999994635582,0.11069999635219574,0.10400000212922476,0.09300000248123906,0.05999999686717535
-0.05009627714753151,0.12734279036521912,9.915135383605957,-0.2547999918460846,0.019299998879432678,0.10089999437332153,0.09000000197086964,0.16599999711327754,-0.06500000216452881
-0.04961743578314781,0.12980404496192932,9.920872688293457,-0.2538999915122986,0.019099999219179153,0.10089999437332153,-0.0859999990670082,-0.010999999647985701,0.2250000115972807
-0.049157749861478806,0.12532208859920502,9.926733016967773,-0.25360000133514404,0.01939999870955944,0.11069999635219574,0.024999999806340833,0.09099999769425504,-0.07999999804626934
-0.04931097850203514,0.1202559694647789,9.925670623779297,-0.25279998779296875,0.009499999694526196,0.11059999465942383,-0.05600000063342052,-0.021000000237532696,-0.16500000138989213
-0.0598263144493103,0.1186087504029274,9.928658485412598,-0.2621999979019165,0.009599999524652958,0.11059999465942383,0.01700000066872456,0.22700000304405152,0.10400000212922476
-0.04431188479065895,0.12632766366004944,9.932029724121094,-0.24149999022483826,0.01939999870955944,0.12039999663829803,0.2150000010025738,0.06500000216452881,0.14799999405106096
-0.051006071269512177,0.12022723257541656,9.9010009765625,-0.2410999983549118,0.009099999442696571,0.09099999815225601,-0.1180000022875799,0.0039999999856897995,0.029999998433587676
-0.06410714983940125,0.12031342089176178,9.926360130310059,-0.2505999803543091,0.008599999360740185,0.0811999961733818,-0.1830000044521087,0.11599999750059588,-0.07999999804626934
-0.04582501947879791,0.12405795603990555,9.917109489440918,-0.2599000036716461,0.008899999782443047,0.11059999465942383,0.06899999839828364,0.11299999699022645,-0.03599999945432653
-0.061243679374456406,0.12373234331607819,9.918832778930664,-0.23969998955726624,0.009499999694526196,0.10080000013113022,-0.0659999978879142,-0.16699999283666295,0.02600000053230619
-0.05127422511577606,0.11040142923593521,9.922988891601562,-0.2483999878168106,-0.00029999998514540493,0.11050000041723251,0.12599999475508955,0.09899999683187131,-0.03400000133744912
-0.06080314517021179,0.12283211946487427,9.911717414855957,-0.2572999894618988,0.008999999612569809,0.0908999964594841,-0.01700000066872456,0.041000001416626686,0.07199999890865307
-0.0644519105553627,0.13779109716415405,9.901766777038574,-0.2565000057220459,0.028599999845027924,0.0810999944806099,0.21999999295971404,0.06099999926066736,0.03100000082707969
-0.05841852352023125,0.12272677570581436,9.930937767028809,-0.25599998235702515,0.00839999970048666,0.11050000041723251,-0.3540000068627397,-0.20099999417411205,-0.035000000395887826
-0.052806511521339417,0.12228624522686005,9.925163269042969,-0.24650000035762787,0.009499999694526196,0.11050000041723251,-0.035000000395887826,-0.29500000571894974,-0.06700000028140622
-0.04372769966721535,0.13207374513149261,9.91336441040039,-0.23709999024868011,0.01939999870955944,0.1006999984383583,0.04200000047506539,0.08100000043976135,-0.019999999511567335
-0.045508988201618195,0.1286739856004715,9.928878784179688,-0.23629999160766602,0.019299998879432678,0.11050000041723251,-0.08100000043976135,-0.10499999785261017,0.021999999295971403
-0.05229894071817398,0.12111787497997284,9.922386169433594,-0.2458999902009964,0.00969999935477972,0.11050000041723251,-0.2800000031671026,-0.031999999885518396,-0.03599999945432653
-0.0451354905962944,0.12582966685295105,9.910433769226074,-0.23589999973773956,0.02019999921321869,0.0908999964594841,0.06700000028140622,-0.08899999957737763,-0.05300000012305109
-0.05276820436120033,0.13468821346759796,9.913738250732422,-0.24539999663829803,0.02979999966919422,0.1006999984383583,0.0039999999856897995,0.05200000106461238,0.2150000010025738
-0.04390966147184372,0.12311942875385284,9.920433044433594,-0.23489999771118164,0.010099999606609344,0.1006999984383583,0.1319999957758284,0.07199999890865307,-0.11099999887334903
-0.05811206251382828,0.1306946873664856,9.927671432495117,-0.25380000472068787,0.019500000402331352,0.11050000041723251,0.15399999507179982,0.14399999781730613,0.015999999942759198
-0.054894257336854935,0.11537178605794907,9.903413772583008,-0.24300000071525574,0.00930000003427267,0.09079999476671219,-0.3579999897562813,0.10400000212922476,0.01400000015835513
-0.05706819146871567,0.12350250035524368,9.930994987487793,-0.24229998886585236,0.010300000198185444,0.1103999987244606,0.05900000114378995,0.023000000021936765,-0.03100000082707969
-0.06401137262582779,0.1294688582420349,9.914456367492676,-0.2514999806880951,0.019899999722838402,0.1005999967455864,0.1189999980109653,-0.08100000043976135,0.021000000237532696
-0.04163037985563278,0.12566685676574707,9.912254333496094,-0.23149999976158142,0.019500000402331352,0.1005999967455864,-0.29399999665535115,-0.04900000055424296,-0.03999999902313467
-0.05784391239285469,0.126567080616951,9.920202255249023,-0.250900000333786,0.020399998873472214,0.1005999967455864,-0.24200000559589865,-0.03999999902313467,0.09899999683187131
-0.059041015803813934,0.13297396898269653,9.912148475646973,-0.2506999969482422,0.0210999995470047,0.1005999967455864,-0.03599999945432653,0.0539999991814898,-0.0659999978879142
-0.05294058471918106,0.14450444281101227,9.920106887817383,-0.2401999980211258,0.040699999779462814,0.1005999967455864,-0.1800000039417393,-0.2499999980634083,-0.04500000098543482
-0.06087975949048996,0.12668199837207794,9.913700103759766,-0.23070000112056732,0.02159999869763851,0.1005999967455864,-0.0659999978879142,-0.04600000004387353,-0.10600000024610218
-0.0472806952893734,0.12522631883621216,9.919474601745605,-0.2296999990940094,0.022299999371170998,0.10049999505281448,-0.07199999890865307,-0.12299999424472013,-0.06200000165415938
-0.060132771730422974,0.12669157981872559,9.922999382019043,-0.249099999666214,0.022499999031424522,0.11029999703168869,-0.16699999283666295,-0.19699999794035722,0.008999999863581633
-0.048994943499565125,0.11653058975934982,9.934873580932617,-0.2395000010728836,0.013100000098347664,0.1200999990105629,0.18700000068586353,-0.13600000534979648,0.046999999102312236
-0.04755842313170433,0.12197978794574738,9.926321983337402,-0.2296999990940094,0.012600000016391277,0.11029999703168869,0.1509999945614304,0.009999999755783667,0.008999999863581633
-0.04877467826008797,0.14023318886756897,9.912435531616211,-0.23899999260902405,0.031700000166893005,0.10049999505281448,-0.01700000066872456,0.024000000747902123,-0.07900000232288394
-0.05125506967306137,0.12231498211622238,9.921792030334473,-0.23839999735355377,0.012199999764561653,0.11029999703168869,0.13799999679656727,-0.04600000004387353,0.17899999487814064
-0.05227021127939224,0.12302365899085999,9.921849250793457,-0.23839999735355377,0.012199999764561653,0.11029999703168869,-0.11099999887334903,0.021000000237532696,-0.10999999647985702
-0.06381026655435562,0.14546211063861847,9.915681838989258,-0.24729999899864197,0.0414000004529953,0.10049999505281448,0.16699999283666295,0.2770000026567332,0.023000000021936765
-0.05111141875386238,0.1328398883342743,9.919761657714844,-0.2361999899148941,0.021299999207258224,0.10049999505281448,0.019000000453128628,0.25299999857377775,0.06099999926066736
-0.06474879384040833,0.11903971433639526,9.924665451049805,-0.2449999898672104,0.011500000022351742,0.11029999703168869,-0.010999999647985701,0.0429999995335041,0.17100000241063099
-0.04933971166610718,0.12554235756397247,9.917864799499512,-0.234499990940094,0.021299999207258224,0.10040000081062317,-0.16899999762364695,0.14600000260429016,-0.24299998797907083
-0.048784252256155014,0.10899363458156586,9.921658515930176,-0.2336999922990799,0.002099999925121665,0.11019999533891678,-0.07099999651516105,-0.13700000107318186,0.0019999999928448997
-0.05811206251382828,0.14135366678237915,9.92371654510498,-0.2433999925851822,0.031700000166893005,0.11019999533891678,0.03699999851276524,-0.06099999926066736,0.021999999295971403
-0.061933208256959915,0.1295933574438095,9.92215633392334,-0.24300000071525574,0.021699998527765274,0.11019999533891678,-0.06700000028140622,0.12299999424472013,0.03699999851276524
-0.05122634023427963,0.12595416605472565,9.905616760253906,-0.23229999840259552,0.021800000220537186,0.09059999883174896,0.1610000051561373,-0.031999999885518396,-0.21800000151294321
-0.05723099783062935,0.1206294521689415,9.915336608886719,-0.23189999163150787,0.011500000022351742,0.10040000081062317,-0.24899998899980968,0.14699999832767557,0.07699999753589991
-0.04495352879166603,0.12850159406661987,9.915892601013184,-0.22129999101161957,0.02199999988079071,0.10040000081062317,-0.14699999832767557,0.19900000272734125,-0.014999999216793838
-0.05202121287584305,0.1301966905593872,9.927892684936523,-0.23019999265670776,0.022499999031424522,0.11009999364614487,0.019999999511567335,0.009999999755783667,0.07000000079177565
-0.04518337547779083,0.12983275949954987,9.927125930786133,-0.21979999542236328,0.022299999371170998,0.11009999364614487,0.08299999855663877,-0.14900000311465958,0.04900000055424296
-0.06370491534471512,0.15146678686141968,9.918066024780273,-0.23919999599456787,0.04169999808073044,0.10029999911785126,0.03599999945432653,-0.09099999769425504,-0.02800000031671026
-0.052998051047325134,0.12444102764129639,9.907934188842773,-0.22899998724460602,0.01209999993443489,0.09049999713897705,-0.2800000031671026,0.35199998873554245,0.19000000119623298
-0.045154642313718796,0.1337784081697464,9.913690567016602,-0.21779999136924744,0.022699998691678047,0.10029999911785126,-0.15800000464576788,0.10400000212922476,0.04200000047506539
-0.06128198653459549,0.13214077055454254,9.904075622558594,-0.23649999499320984,0.023099999874830246,0.09049999713897705,0.008999999863581633,0.05300000012305109,-0.1180000022875799
-0.048353299498558044,0.12201809883117676,9.925383567810059,-0.22599999606609344,0.013199999928474426,0.11009999364614487,-0.19499999315337319,0.19099999691961836,-0.16999999334703236
-0.04901409521698952,0.1367184966802597,9.907158851623535,-0.23489999771118164,0.033299997448921204,0.09039999544620514,0.8050000124404733,0.1800000039417393,-0.013000000266153095
-0.05388868972659111,0.1179000735282898,9.9019775390625,-0.2238999903202057,0.033399999141693115,0.09039999544620514,-0.09600000299160849,0.24299998797907083,0.18900000547284757
-0.06892427802085876,0.13754209876060486,9.896347045898438,-0.24149999022483826,0.03139999881386757,0.08060000091791153,-0.006000000186975531,0.041000001416626686,-0.08700000146050021
-0.052595820277929306,0.13551181554794312,9.915557861328125,-0.24149999022483826,0.03139999881386757,0.08060000091791153,0.14300000209392072,-0.008999999863581633,0.09500000059811649
-0.06265147030353546,0.11809160560369492,9.902303695678711,-0.23029999434947968,0.011399999260902405,0.08060000091791153,-0.024999999806340833,-0.05799999875029794,0.08700000146050021
-0.06756436824798584,0.13999375700950623,9.910309791564941,-0.23959998786449432,0.03099999949336052,0.09039999544620514,-0.2519999895101791,-0.1180000022875799,-0.0030000000934877653
-0.05582320690155029,0.1349659413099289,9.898884773254395,-0.2198999971151352,0.031700000166893005,0.08049999922513962,-0.24800000661663751,0.1509999945614304,-0.02600000053230619
-0.05951027572154999,0.12175951898097992,9.900522232055664,-0.2287999987602234,0.01269999984651804,0.08049999922513962,-0.2250000115972807,-0.02600000053230619,0.06200000165415938
-0.04933971166610718,0.11765106767416,9.897122383117676,-0.21859999001026154,0.013399999588727951,0.08049999922513962,0,0.029999998433587676,-0.05499999823992851
-0.05858132615685463,0.12380895763635635,9.896173477172852,-0.22769999504089355,0.013399999588727951,0.08049999922513962,0.12799999954207358,-0.07300000130214508,-0.08299999855663877
-0.05560293793678284,0.11663593351840973,9.901652336120605,-0.21739999949932098,0.012999999336898327,0.08049999922513962,0.10400000212922476,-0.23099998593759313,0.0429999995335041
-0.05530606210231781,0.12342588603496552,9.90372085571289,-0.2175999879837036,0.01269999984651804,0.09030000120401382,-0.3319999942265551,-0.16599999711327754,-0.043999998591942806
-0.05480806529521942,0.13526281714439392,9.895101547241211,-0.2175999879837036,0.03319999948143959,0.08049999922513962,-0.2150000010025738,-0.2519999895101791,0.09899999683187131
-0.05388868972659111,0.1232343539595604,9.881742477416992,-0.21789999306201935,0.0142000000923872,0.0608999989926815,0.11599999750059588,0.09600000299160849,0.1620000008795227
-0.05227978900074959,0.12380895763635635,9.883235931396484,-0.21679998934268951,0.013899999670684338,0.06079999729990959,-0.15399999507179982,0.14799999405106096,-0.12199999852133472
-0.06114790961146355,0.11518025398254395,9.89291763305664,-0.22579999268054962,0.014299999922513962,0.0803999975323677,-0.283000003677472,-0.1529999993484144,0.0009999999964224499
-0.05850471183657646,0.12575304508209229,9.890724182128906,-0.2256999909877777,0.024899998679757118,0.0705999955534935,-0.08799999718388561,0.11200000126684104,0.006000000186975531
-0.05295974388718605,0.13802093267440796,9.878705978393555,-0.21480000019073486,0.03480000048875809,0.06079999729990959,0.2810000122307012,0.03899999996469596,-0.03599999945432653
