Accelerometer_Gx,Accelerometer_Gy,Accelerometer_Gz,Accelerometer_X,Accelerometer_Y,Accelerometer_Z,Gyroscope_Z,Gyroscope_X,Gyroscope_Y
-0.04002147540450096,0.1259637326002121,9.944489479064941,0.0007999999797903001,-0.003499999875202775,0.12809999287128448,1.9980000197409222,0.3570000073731091,0.46900000863995017
-0.038402996957302094,0.12990938127040863,9.947956085205078,0.0011999999405816197,0.0004999999655410647,0.1281999945640564,1.36900000166822,0.07699999753589991,0.7489999851266264
-0.0325898751616478,0.13195881247520447,9.935324668884277,0.009999999776482582,-0.0026000000070780516,0.11840000003576279,-2.7610000250362234,-1.041000017015633,-0.7209999981501293
-0.056790463626384735,0.10368809103965759,9.943540573120117,-0.012299999594688416,-0.022699998691678047,0.12809999287128448,0.2469999975530389,0.0749999994190225,0.06099999926066736
-0.049512092024087906,0.10926178842782974,9.94798469543457,-0.011500000022351742,-0.011799999512732029,0.12809999287128448,-0.17700000343136985,-0.04900000055424296,-0.1319999957758284
-0.03111504577100277,0.1201506182551384,9.953012466430664,0.0064999996684491634,-0.0010999999940395355,0.1378999948501587,0.5039999790203582,0.43999998591942807,0.16599999711327754
-0.05572744086384773,0.12147221714258194,9.947850227355957,-0.01119999960064888,-0.0013000000035390258,0.12809999287128448,-0.6110000150104855,0.13300000483942703,-0.19999999845072666
-0.054846372455358505,0.1179000735282898,9.942363739013672,-0.010099999606609344,0.0010999999940395355,0.12809999287128448,0.5099999800410971,0.031999999885518396,0.06800000267489824
-0.03584598749876022,0.1047319546341896,9.952132225036621,0.009800000116229057,-0.018799999728798866,0.1378999948501587,-0.28199999461387343,-0.31099999065396905,-0.043999998591942806
-0.0482192225754261,0.10930009186267853,9.938972473144531,-0.010300000198185444,-0.007199999876320362,0.11819999665021896,0.7159999795125626,-0.21200000049220435,0.06899999839828364
-0.04035666212439537,0.12201809883117676,9.955540657043457,-0.000699999975040555,0.001500000013038516,0.1378999948501587,-0.012000000373951061,0.43699998540905866,-0.17700000343136985
-0.050249505788087845,0.11501745134592056,9.938982009887695,-0.008899999782443047,0.002099999925121665,0.11819999665021896,-0.4420000040466253,-0.24299998797907083,-0.2469999975530389
-0.05791094899177551,0.12624147534370422,9.944307327270508,-0.018799999728798866,0.013399999588727951,0.12799999117851257,0.05099999867112037,-0.321000001248676,0.2499999980634083
-0.03517561033368111,0.11762233823537827,9.94274616241455,0.00989999994635582,0.003499999875202775,0.12799999117851257,0.1419999930303221,-0.3860000034132048,-0.01400000015835513
-0.05212656036019325,0.10483730584383011,9.928466796875,-0.010400000028312206,-0.016099998727440834,0.10839999467134476,0.33900000431089256,0.648999985901263,0.2259999939804529
-0.05909847468137741,0.12837709486484528,9.951958656311035,-0.018199998885393143,0.012600000016391277,0.1378999948501587,0.06899999839828364,0.4510000055777336,0.14399999781730613
-0.03711012750864029,0.12930604815483093,9.930133819580078,0.012600000016391277,0.012299999594688416,0.10839999467134476,0.25400000763737635,0.37100000086135765,-0.09500000059811649
-0.03241749107837677,0.11443326622247696,9.946634292602539,0.013700000010430813,-0.007799999788403511,0.12809999287128448,-0.15800000464576788,0.2959999881021219,-0.03599999945432653
-0.05043146386742592,0.11470141261816025,9.950522422790527,-0.004999999888241291,-0.007199999876320362,0.1378999948501587,-0.9930000088497223,-0.3119999997175677,-0.31600000929153577
-0.04698381572961807,0.12219047546386719,9.957934379577637,0.0037999998312443495,0.00559999980032444,0.13779999315738678,-0.29999999767609,0.024999999806340833,-0.1610000051561373
-0.03984909504652023,0.1068771630525589,9.954237937927246,0.0037999998312443495,-0.0032999999821186066,0.13779999315738678,-0.13000000432905762,0.23699998695833197,-0.18700000068586353
-0.03180457651615143,0.11291055381298065,9.93588924407959,0.014099999330937862,-0.00279999990016222,0.11819999665021896,0.12299999424472013,0.6320000185830715,0.1529999993484144
-0.04673481732606888,0.13404656946659088,9.94859790802002,0.0058999997563660145,0.006599999964237213,0.147599995136261,0.24800000661663751,0.11400000605382507,0.32700000226941484
-0.03803907707333565,0.11490252614021301,9.943033218383789,0.006000000052154064,0.015699999406933784,0.12799999117851257,-0.29800000622931916,-0.4669999905127529,-0.3510000063523703
-0.0354246087372303,0.1278599500656128,9.966716766357422,0.014699999243021011,-0.0023999998811632395,0.12799999117851257,0.2909999961449817,0.5609999887173774,0.3439999962680328
-0.049253515899181366,0.1183597594499588,9.946682929992676,-0.004900000058114529,0.006899999920278788,0.12799999117851257,0.21200000049220435,-0.16999999334703236,-0.06899999839828364
-0.04993347078561783,0.11618582159280777,9.943779945373535,-0.005499999970197678,0.006199999712407589,0.12799999117851257,0.07099999651516105,-0.5939999943314411,-0.19000000119623298
-0.05232767015695572,0.12129025906324387,9.94918155670166,-0.007199999876320362,0.0058999997563660145,0.12799999117851257,0.38999998630674637,1.304999955206437,0.36499999984061876
-0.05841852352023125,0.1116272583603859,9.943991661071777,-0.012999999336898327,-0.0050999997183680534,0.12799999117851257,-0.7969999932925372,-1.0979999733517993,-0.4199999914104407
-0.042051758617162704,0.11388739198446274,9.939566612243652,0.0038999998942017555,-0.0032999999821186066,0.11819999665021896,0.4709999734062945,0.44699999600376555,0.4519999879609058
-0.03255156800150871,0.12671072781085968,9.952446937561035,0.014800000004470348,0.01489999983459711,0.13779999315738678,-0.19000000119623298,-0.8620000221374924,-0.27899999410350396
-0.049349285662174225,0.1294688582420349,9.954957008361816,-0.0071000000461936,0.015199999324977398,0.13779999315738678,0.6720000076010463,-0.009999999755783667,0.21899999723632863
-0.036573827266693115,0.10788273066282272,9.939432144165039,0.012299999594688416,-0.006199999712407589,0.11819999665021896,0.627999982328677,0.48299997544777223,0.1079999983629796
-0.04707958176732063,0.11156979948282242,9.932690620422363,0.0038999998942017555,-0.008200000040233135,0.11829999834299088,-0.2740000021463637,-0.9320000162591615,-0.38999998630674637
-0.04163995757699013,0.1080646887421608,9.961631774902344,0.0015999999595806003,-0.007499999832361937,0.1476999968290329,0.35199998873554245,0.1390000058601659,0.20299999896109608
-0.048947058618068695,0.11434707790613174,9.976369857788086,-0.007799999788403511,-0.00839999970048666,0.1574999988079071,0.8110000134612122,1.1659999493462712,0.19499999315337319
-0.05698200315237045,0.11838848888874054,9.950321197509766,-0.004600000102072954,-0.000699999975040555,0.1378999948501587,0.4780000101710585,0.5209999996994026,-0.024000000747902123
-0.04009808972477913,0.12914323806762695,9.96451473236084,0.0064999996684491634,0.007699999958276749,0.1476999968290329,-0.24200000559589865,-0.5750000088860524,-0.41499999945330046
-0.03914998471736908,0.13708241283893585,9.966975212097168,0.004699999932199717,0.018199998885393143,0.1476999968290329,-0.7239999986604987,-0.7879999917614289,-0.4939999951060778
-0.0611383356153965,0.11721053719520569,9.958404541015625,-0.016699999570846558,0.00029999998514540493,0.1378999948501587,-0.4709999734062945,-1.2929999531649594,-0.325000010822644
-0.05964435264468193,0.11741165071725845,9.95508098602295,-0.020099999383091927,0.001500000013038516,0.1378999948501587,-0.8949999743907032,-1.18700000627971,-0.4810000106814279
-0.051101841032505035,0.1172967329621315,9.943971633911133,-0.013399999588727951,0.003999999724328518,0.12799999117851257,-0.7279999815540403,-1.4410000139170864,-0.4199999914104407
-0.04244440793991089,0.12119448930025101,9.949335098266602,-0.007400000002235174,0.0058999997563660145,0.12799999117851257,-0.49199997697888054,-1.3430000328189202,-0.4870000117021667
-0.03928406164050102,0.11637736111879349,9.940189361572266,-0.011299999430775642,0.007400000002235174,0.11819999665021896,-0.40599999792219216,-0.8680000231582313,-0.5179999991890332
-0.051082685589790344,0.1116272583603859,9.956584930419922,-0.023000000044703484,-0.00139999995008111,0.13779999315738678,0.2839999860606442,0.6540000045388297,-0.30400000725005805
-0.04132392257452011,0.12793655693531036,9.939059257507324,-0.01119999960064888,0.01719999872148037,0.11819999665021896,1.2280000310417098,1.821999918651445,0.5969999948418105
-0.047165773808956146,0.11405019462108612,9.937870979309082,-0.006000000052154064,-0.005699999630451202,0.11819999665021896,0.08400000095013078,0.4579999889816446,0.4229999919208101
-0.04018428176641464,0.11401188373565674,9.960213661193848,-0.014399999752640724,-0.0058999997563660145,0.147599995136261,0.49799997799961937,0.49000001221253614,-0.19099999691961836
-0.062028978019952774,0.10921390354633331,9.962560653686523,-0.009200000204145908,-0.0031999999191612005,0.147599995136261,0.8039999766964482,1.1759999866214046,0.7279999815540403
-0.030502131208777428,0.10630255937576294,9.9569673538208,0.0052999998442828655,-0.0064999996684491634,0.13779999315738678,-0.9790000420419002,-1.8390000460521954,-0.6300000004558742
-0.05286397039890289,0.11039185523986816,9.955531120300293,-0.01899999938905239,-0.0037999998312443495,0.13779999315738678,1.670000035088335,1.9149999878337503,0.6219999813079381
-0.03908294811844826,0.11035354435443878,9.94990062713623,-0.0037999998312443495,-0.008299999870359898,0.12799999117851257,-1.5680000177357747,-2.0300000963326665,-0.5759999912692245
-0.039964016526937485,0.11935574561357498,9.951336860656738,-0.009800000116229057,0.006300000008195639,0.13779999315738678,0.606999978756091,2.0830000164144384,0.7789999902303206
-0.04736688733100891,0.11190499365329742,9.939059257507324,-0.004699999932199717,-0.004799999762326479,0.11819999665021896,-0.9299999447711114,-1.7409999582323235,-0.9140000131969449
-0.03781880810856819,0.12389514595270157,9.948904037475586,0.00039999998989515007,0.007499999832361937,0.12799999117851257,0.23300000406479038,0.6459999853908935,0.6889999749192377
-0.0453844889998436,0.11254663020372391,9.95149040222168,-0.007400000002235174,-0.00279999990016222,0.13779999315738678,1.5740000187565135,1.2720000029532261,0.24500000610626807
-0.056292470544576645,0.11776599287986755,9.947822570800781,-0.013599999248981476,0.0026000000070780516,0.12799999117851257,-1.5339999763776857,-2.1729999250038152,-0.9599999498748056
-0.03348051756620407,0.12456552684307098,9.955914497375488,-0.0004999999655410647,0.017099998891353607,0.13779999315738678,-0.8329999994169703,-0.6249999818183075,0.36399999077702017
-0.0528448186814785,0.11996866017580032,9.961833000183105,-0.02149999886751175,0.00930000003427267,0.147599995136261,1.732000010062068,2.052999904589038,0.9099999769425504
-0.053448159247636795,0.11809160560369492,9.939298629760742,-0.015699999406933784,0.0044999998062849045,0.11819999665021896,1.8109998989931397,1.41000002643022,0.3879999948599756
-0.048468220978975296,0.12970826029777527,9.935295104980469,-0.011699999682605267,0.00930000003427267,0.11829999834299088,0.22400000253368207,-0.20800000425844953,-0.4879999940853389
-0.03517561033368111,0.12120406329631805,9.956220626831055,0.007400000002235174,-0.0010999999940395355,0.1378999948501587,-0.8029999943132761,-1.1740000218550601,-0.9459999830669835
-0.04547068104147911,0.1119624450802803,9.952543258666992,-0.005799999926239252,-0.00839999970048666,0.1378999948501587,-1.1409999628801435,-2.2370000781873043,-0.67699997287776
-0.046294283121824265,0.11901097744703293,9.960731506347656,-0.010999999940395355,0.003999999724328518,0.147599995136261,-1.1430000343681936,-2.0719999967561327,-0.9800000244250723
-0.05414726585149765,0.11512279510498047,9.951872825622559,-0.02630000002682209,0.0071000000461936,0.13779999315738678,-0.6140000155208549,-1.9169999526000947,-0.9579999851084613
-0.05691496282815933,0.1309436857700348,9.953606605529785,-0.031300000846385956,0.01850000023841858,0.13769999146461487,0.03699999851276524,-0.7510000032538235,-0.669999989473849
-0.04492479935288429,0.12329180538654327,9.948492050170898,-0.02329999953508377,0.008599999360740185,0.12789998948574066,2.0300000963326665,0.796000010909365,-0.04200000047506539
-0.03687070310115814,0.11204864084720612,9.96374797821045,-0.010799999348819256,-0.007400000002235174,0.147599995136261,1.899000056259584,2.5180000370571527,0.941999946812589
-0.053553506731987,0.12492944300174713,9.951279640197754,-0.02419999986886978,0.007499999832361937,0.1378999948501587,-0.6939999935568044,1.040000034632461,0.7110000142358488
-0.035558685660362244,0.11791922152042389,9.969618797302246,-0.0015999999595806003,-0.00039999998989515007,0.1574999988079071,-2.241999990103165,-2.169999977854299,-0.7029999950879127
-0.05221274867653847,0.10694419592618942,9.955713272094727,-0.026899999007582664,-0.003999999724328518,0.13779999315738678,0.3029999981864594,-0.2710000016359943,-0.4229999919208101
-0.02872084453701973,0.11098561435937881,9.969637870788574,-0.007799999788403511,0.004799999762326479,0.12799999117851257,1.8079999518436232,2.2250000761458266,0.9469999654501557
-0.047386039048433304,0.11994951218366623,9.955589294433594,0.008899999782443047,-0.010400000028312206,0.1574999988079071,-2.0359999906316997,-1.837000081285851,-0.5390000027616192
-0.04495352879166603,0.11884817481040955,9.969609260559082,-0.010400000028312206,-0.0011999999405816197,0.1574999988079071,-1.038999945527583,-1.278000003973965,-0.07300000130214508
-0.051245495676994324,0.13258130848407745,9.9485502243042,-0.023599999025464058,0.011399999260902405,0.12799999117851257,1.375000002688959,0.726000016787696,-0.16400000566650674
-0.047884032130241394,0.11470141261816025,9.951327323913574,-0.021399999037384987,-0.011899999342858791,0.1378999948501587,-2.491000085824681,-1.4950000231037361,-0.2469999975530389
-0.051504068076610565,0.12201809883117676,9.952485084533691,-0.02579999901354313,0.005499999970197678,0.13779999315738678,2.6919999599368736,1.300000043290576,0.6050000139897467
-0.029726408421993256,0.1129201278090477,9.949249267578125,-0.002899999963119626,-0.010599999688565731,0.12809999287128448,-1.089000025181544,-2.3989999990255475,-0.6080000145001161
-0.052950166165828705,0.11512279510498047,9.947372436523438,-0.02879999950528145,0.002099999925121665,0.12799999117851257,-0.9190000318345116,-0.6399999843701547,0.07799999992939192
-0.044493842869997025,0.12163502722978592,9.941012382507324,-0.020600000396370888,0.004600000102072954,0.12799999117851257,1.8490000833273288,1.725000026658157,0.5110000157851222
-0.042549751698970795,0.12598289549350739,9.958892822265625,-0.015699999406933784,0.00930000003427267,0.1378999948501587,-0.3499999972887716,0.35499998924591186,-0.3890000039235742
-0.05718311294913292,0.1206294521689415,9.962042808532715,-0.02410000003874302,0.0005999999702908099,0.147599995136261,-1.9919999119984775,-1.3810000037096979,-0.8329999994169703
-0.051389146596193314,0.11437579989433289,9.966497421264648,-0.02719999849796295,-0.004299999680370092,0.147599995136261,-1.0280000325909833,-1.472000001403953,0.048000001495804245
-0.04392881318926811,0.12724703550338745,9.959745407104492,-0.021199999377131462,0.017999999225139618,0.13779999315738678,-1.1980000259380155,-0.46999999102312234,0.07000000079177565
-0.03936067596077919,0.11559205502271652,9.961257934570312,-0.022199999541044235,0.011399999260902405,0.14749999344348907,0.41600000851689906,0.46000000710884187,0.5600000063342052
-0.03905421867966652,0.10913728922605515,9.959994316101074,-0.020800000056624413,0.00039999998989515007,0.14749999344348907,-0.0969999987149939,0.44399999549339614,0.5410000208888165
-0.0494067445397377,0.11914505064487457,9.954879760742188,-0.028999999165534973,0.010499999858438969,0.13769999146461487,0.8879999909867923,0.7600000047849319,0.5789999917795939
-0.04564306139945984,0.11354261636734009,9.966142654418945,-0.017099998891353607,-0.00139999995008111,0.147599995136261,-0.7939999927821677,-0.13100000005244303,0.03100000082707969
-0.04410119727253914,0.13235147297382355,9.964102745056152,-0.01730000041425228,0.02029999904334545,0.14749999344348907,-1.3419999437140424,-0.9320000162591615,0
-0.05450160428881645,0.11407892405986786,9.966841697692871,-0.029399998486042023,0.004299999680370092,0.14749999344348907,-1.4210000460885255,-1.4780000024246918,-0.5219999820825748
-0.04665820300579071,0.10926178842782974,9.954248428344727,-0.023399999365210533,0.008100000210106373,0.13769999146461487,-0.3379999952472939,-0.4769999744270334,-0.43699998540905866
-0.04566221684217453,0.1312980204820633,9.959121704101562,-0.02459999918937683,0.028699999675154686,0.13759998977184296,1.731000027678896,1.2299999958080543,0.30400000725005805
-0.031766269356012344,0.11168472468852997,9.954726219177246,-0.011599999852478504,0.004799999762326479,0.13769999146461487,0.48199999306460006,0.7029999950879127,0.7489999851266264
-0.06208643689751625,0.13422852754592896,9.964303970336914,-0.03889999911189079,0.03280000016093254,0.14749999344348907,-1.271000020570054,-0.9810000068082445,-0.5870000109275301
-0.027696125209331512,0.11293928325176239,9.959707260131836,-0.002099999925121665,0.0066999997943639755,0.13769999146461487,1.403000043026309,0.6949999759399766,0.2289999944908223
-0.05661807954311371,0.12732364237308502,9.974656105041504,-0.03920000046491623,0.00279999990016222,0.13769999146461487,-0.16800000190026157,-0.19799999366374263,-0.3559999983095105
-0.041697416454553604,0.12627018988132477,9.981292724609375,-0.019500000402331352,0.02449999935925007,0.1670999974012375,0.2140000052791884,0.2499999980634083,0.5050000147643833
-0.04113238677382469,0.13089579343795776,9.949124336242676,-0.01860000006854534,0.02369999885559082,0.12789998948574066,-0.2909999961449817,-0.6230000170519632,-0.2780000117203318
-0.049588706344366074,0.12655749917030334,9.933963775634766,-0.029899999499320984,0.024399999529123306,0.11809999495744705,-0.7059999955982822,0.03100000082707969,0.29399999665535115
-0.05042188614606857,0.12361742556095123,9.981972694396973,-0.029600000008940697,0.016300000250339508,0.1670999974012375,1.2830000226115317,0.7849999912510595,0.24299998797907083
-0.05416642129421234,0.12389514595270157,9.951786994934082,-0.026899999007582664,0.012199999764561653,0.13769999146461487,-1.131000032326716,-0.8840000080932506,-0.32299999269544677
-0.05172433331608772,0.12397176027297974,9.951671600341797,-0.02879999950528145,0.014800000004470348,0.13769999146461487,0,0.2140000052791884,0.4109999898793324
-0.032455798238515854,0.12262143939733505,9.95468807220459,-0.00839999970048666,0.014699999243021011,0.13769999146461487,1.2280000310417098,1.0710000221193274,0.23099998593759313
-0.052758630365133286,0.0977504625916481,9.959659576416016,-0.024899998679757118,-0.008299999870359898,0.13769999146461487,0.4310000110687462,0.5630000068445746,-0.16699999283666295
-0.05255751311779022,0.11771810799837112,9.953423500061035,-0.023099999874830246,0.00989999994635582,0.13769999146461487,-0.6549999869220019,-0.5470000219095553,-0.3439999962680328
-0.04013639688491821,0.1194227859377861,9.971083641052246,-0.014800000004470348,0.011899999342858791,0.15729999542236328,-1.032999944506844,-1.0069999756575443,-0.37800001094569513
-0.04243483021855354,0.13190136849880219,9.9698486328125,-0.016999999061226845,0.024000000208616257,0.15729999542236328,-0.7290000172980654,-0.9510000017045502,0.017999999727163266
-0.031670499593019485,0.11925039440393448,9.952695846557617,-0.009599999524652958,0.016099998727440834,0.13769999146461487,-0.6330000009662436,-0.817000014481951,0.043999998591942806
-0.05528690665960312,0.10765288770198822,9.98025894165039,-0.031300000846385956,0.007899999618530273,0.1670999974012375,-0.7969999932925372,0.0429999995335041,-0.11200000126684104
-0.047596730291843414,0.12162545323371887,9.958040237426758,-0.021199999377131462,0.01979999989271164,0.13759998977184296,-1.0979999733517993,-0.6819999915153268,-0.15200000362502902
-0.0383838415145874,0.10850521922111511,9.942229270935059,-0.023099999874830246,0.013299999758601189,0.12780000269412994,-0.9239999437503725,-0.8560000211167536,-0.08299999855663877
-0.04699338972568512,0.1169615387916565,9.953184127807617,-0.024899998679757118,0.025200000032782555,0.13759998977184296,-0.6799999733881295,-0.9910000440833778,-0.44399999549339614
-0.070265032351017,0.10907024890184402,9.945629119873047,-0.0568000003695488,0.017099998891353607,0.12780000269412994,0.44099999498302667,-0.29800000622931916,0.05099999867112037
-0.030559591948986053,0.13048399984836578,9.960855484008789,-0.018199998885393143,0.03529999777674675,0.14739999175071716,0.7840000088678873,0.4939999951060778,-0.023000000021936765
-0.056273315101861954,0.11028650403022766,9.976274490356445,-0.03619999811053276,0.013399999588727951,0.15719999372959137,0.3879999948599756,0.42200000953763794,0.2609999910412874
-0.032925061881542206,0.1324472278356552,9.945734024047852,-0.015099999494850636,0.031700000166893005,0.12780000269412994,-1.9069999153249613,-1.270000038186882,-0.2780000117203318
-0.06291962414979935,0.10894575715065002,9.975833892822266,-0.04729999974370003,0.016499999910593033,0.15719999372959137,0.6219999813079381,0.5399999851447914,0.04500000098543482
-0.044043734669685364,0.11573570966720581,9.958395004272461,-0.025999998673796654,0.024399999529123306,0.13759998977184296,0.24200000559589865,0.0969999987149939,0.26500000061525547
-0.049330130219459534,0.12979446351528168,9.952275276184082,-0.03529999777674675,0.033399999141693115,0.13759998977184296,-0.70500001321511,-0.6029999958625494,-0.23099998593759313
-0.03595133125782013,0.1146918386220932,9.94128131866455,-0.04649999737739563,0.035099998116493225,0.15719999372959137,0.1729999938574018,-0.44099999498302667,-0.2740000021463637
-0.047213658690452576,0.10564175248146057,9.959390640258789,-0.01599999889731407,0.013700000010430813,0.12780000269412994,0.08100000043976135,0.3119999997175677,0.26900001018922354
-0.03192907199263573,0.09966582804918289,9.97140884399414,-0.015799999237060547,0.003000000026077032,0.15719999372959137,0.3600000078834786,0.0539999991814898,-0.13400000056281244
-0.051791369915008545,0.11322658509016037,9.96882438659668,-0.03500000014901161,0.011699999682605267,0.14739999175071716,0.046999999102312236,0.15399999507179982,-0.15200000362502902
-0.046198517084121704,0.1259254366159439,9.950809478759766,-0.020499998703598976,0.025999998673796654,0.13769999146461487,0.3890000039235742,0.21800000151294321,-0.0009999999964224499
-0.027332207188010216,0.12348334491252899,9.954621315002441,-0.0007999999797903001,0.015699999406933784,0.13769999146461487,-0.18400000017549412,0.01700000066872456,-0.16699999283666295
-0.06519889831542969,0.11454818397760391,9.950934410095215,-0.040300000458955765,0.00699999975040555,0.13769999146461487,-0.11099999887334903,-0.21200000049220435,0.14099999730693671
-0.04023216664791107,0.11617624759674072,9.961851119995117,-0.02159999869763851,0.01759999990463257,0.14749999344348907,0.15500000413539844,-0.3879999948599756,0.05499999823992851
-0.04151545837521553,0.1129201278090477,9.956747055053711,-0.02290000021457672,0.007699999958276749,0.13769999146461487,0.5780000093964218,0.3860000034132048,0.08899999957737763
-0.05377376824617386,0.12989981472492218,9.96821117401123,-0.031700000166893005,0.025999998673796654,0.14749999344348907,0.6739999723673906,0.8720000060517729,0.19799999366374263
-0.05751830339431763,0.1247762143611908,9.95910358428955,-0.03889999911189079,0.02410000003874302,0.13769999146461487,1.0569999485897996,0.4840000111917973,-0.048000001495804245
-0.04369897022843361,0.11949940025806427,9.954708099365234,-0.018199998885393143,0.011899999342858791,0.13769999146461487,1.1140000116476716,-0.17700000343136985,0.18400000017549412
-0.048496946692466736,0.11632947623729706,9.942841529846191,-0.0284000001847744,0.008999999612569809,0.12789998948574066,0.02800000031671026,-0.3570000073731091,0.38300000290283537
-0.043306320905685425,0.12232455611228943,9.953242301940918,-0.019600000232458115,0.008999999612569809,0.13769999146461487,0.9190000318345116,0.5399999851447914,0.1800000039417393
-0.0536780022084713,0.12184570729732513,9.957590103149414,-0.027799999341368675,0.006599999964237213,0.13779999315738678,0.2740000021463637,-0.02899999937514897,0.29800000622931916
-0.04244440793991089,0.11659762263298035,9.952485084533691,-0.01809999905526638,0.005799999926239252,0.13779999315738678,-0.5620000244614024,-0.325000010822644,-0.1400000015835513
-0.046600744128227234,0.12751518189907074,9.965021133422852,-0.018699999898672104,0.016899999231100082,0.147599995136261,0.2289999944908223,0.1749999986443858,0.1620000008795227
-0.045959096401929855,0.12965081632137299,9.942784309387207,-0.018199998885393143,0.016300000250339508,0.12799999117851257,0.041000001416626686,-0.18600000496247812,0.041000001416626686
-0.043804313987493515,0.10203130543231964,9.951403617858887,-0.01549999974668026,-0.010599999688565731,0.13779999315738678,-0.024999999806340833,-0.3669999912873896,0.1180000022875799
-0.04701254144310951,0.11907801777124405,9.948713302612305,-0.016899999231100082,0.008499999530613422,0.12789998948574066,0.3860000034132048,-0.1830000044521087,-0.3890000039235742
-0.041697416454553604,0.1126902848482132,9.94825267791748,-0.017799999564886093,-0.002699999837204814,0.12799999117851257,0.14600000260429016,0.11200000126684104,0.04900000055424296
-0.051791369915008545,0.11322658509016037,9.95523452758789,-0.022599998861551285,-0.002300000051036477,0.13779999315738678,-0.3770000018820965,0.7969999932925372,-0.16899999762364695
-0.054587800055742264,0.11235509812831879,9.94455623626709,-0.02149999886751175,-0.0016999999061226845,0.12799999117851257,-0.8200000149923204,-0.5780000093964218,0.06800000267489824
-0.05026865750551224,0.12756305932998657,9.97110366821289,-0.023899998515844345,-0.009599999524652958,0.1573999971151352,0.8789999894556839,-0.4500000231945614,0.11500000177721047
-0.048353299498558044,0.10564175248146057,9.968804359436035,-0.02579999901354313,0.017099998891353607,0.1573999971151352,0.7840000088678873,0.7170000152565876,0.15399999507179982
-0.03520434349775314,0.10957781970500946,9.949918746948242,-0.0279999990016222,0,0.14749999344348907,-0.2039999946844815,0.37100000086135765,-0.18900000547284757
-0.045413218438625336,0.1164827048778534,9.942085266113281,-0.016200000420212746,0.008100000210106373,0.12799999117851257,-0.7320000178084348,-0.02899999937514897,-0.0859999990670082
-0.055440135300159454,0.10470323264598846,9.970595359802246,-0.02630000002682209,-0.009499999694526196,0.1573999971151352,-1.1980000259380155,-0.536999984634422,-0.2499999980634083
-0.04317224398255348,0.120275117456913,9.953328132629395,-0.01809999905526638,0.013100000098347664,0.13769999146461487,-0.024000000747902123,-0.013000000266153095,0.17400000292100043
-0.06415502727031708,0.12634681165218353,9.965654373168945,-0.031599998474121094,0.019500000402331352,0.147599995136261,1.0919999723310605,0.7290000172980654,0.09300000248123906
-0.041553765535354614,0.12469960004091263,9.95556926727295,-0.011399999260902405,0.01730000041425228,0.13779999315738678,0.29800000622931916,0.20800000425844953,0.08499999667351618
-0.04691677540540695,0.10008721053600311,9.953520774841309,-0.011799999512732029,-0.012399999424815178,0.13779999315738678,-0.10499999785261017,-0.18199999538851008,-0.24599998848944027
-0.044350191950798035,0.11929827928543091,9.936013221740723,-0.012999999336898327,0.007799999788403511,0.11819999665021896,0.22800001210765014,0.5930000119482689,-0.06399999977103679
-0.049445051699876785,0.1130254715681076,9.948569297790527,-0.021800000220537186,-0.002300000051036477,0.12799999117851257,1.34099996133087,0.6320000185830715,-0.014999999216793838
-0.05384080857038498,0.12707464396953583,9.967071533203125,-0.02029999904334545,0.013299999758601189,0.147599995136261,1.1329999970930602,-0.7089999961086516,0.2839999860606442
-0.04452257603406906,0.11194329708814621,9.953500747680664,-0.012600000016391277,-0.008700000122189522,0.13779999315738678,1.0799999702895828,0.6720000076010463,0.10100000161885533
-0.055267754942178726,0.115984708070755,9.967109680175781,-0.020800000056624413,-0.0016999999061226845,0.1476999968290329,0.7650000234224985,0.5069999795307276,0.18400000017549412
-0.03161304071545601,0.10711658746004105,9.96287727355957,-0.00009999999747378752,-0.013499999418854713,0.1476999968290329,-0.03699999851276524,0.08700000146050021,0.14600000260429016
-0.04053862392902374,0.11497914046049118,9.961181640625,-0.008100000210106373,-0.002699999837204814,0.1476999968290329,0.7969999932925372,0.6600000055595685,-0.04500000098543482
-0.04971320182085037,0.11248917132616043,9.953367233276367,-0.016200000420212746,-0.015099999494850636,0.1378999948501587,0.9070000297930338,0.5059999971475555,0.3399999866940647
-0.03556825965642929,0.11412680894136429,9.957130432128906,0.004100000020116568,-0.017099998891353607,0.1379999965429306,-0.8960000101347283,-1.0059999932743722,0.06399999977103679
-0.03464888781309128,0.10585244745016098,9.951202392578125,0.0009999999310821295,-0.014599999412894249,0.1378999948501587,-0.7519999856369958,0.04900000055424296,-0.4070000069857908
-0.034208353608846664,0.10840945690870285,9.958308219909668,0.0008999999845400453,-0.012600000016391277,0.1378999948501587,1.6030000414770356,1.3730000379226146,0.4849999935749695
-0.032858025282621384,0.10908941179513931,9.962953567504883,0.0044999998062849045,-0.016899999231100082,0.1477999985218048,-1.2460000341039263,0.1509999945614304,0.0019999999928448997
-0.045796290040016174,0.12094549834728241,9.946605682373047,-0.004900000058114529,-0.0031999999191612005,0.12809999287128448,0.07199999890865307,0.28600000418784144,-0.24200000559589865
-0.04694550856947899,0.11462479829788208,9.950780868530273,-0.004399999976158142,-0.013100000098347664,0.1378999948501587,-0.6759999904945878,0.5979999772249827,0.2570000081477458
-0.03691859170794487,0.12151052057743073,9.952083587646484,0.006899999920278788,-0.00139999995008111,0.1378999948501587,-0.8909999914971617,-0.8050000124404733,0.03899999996469596
-0.0388626828789711,0.11751700192689896,9.942267417907715,-0.0050999997183680534,0.0008999999845400453,0.1476999968290329,0.1189999980109653,0.5729999907588551,0.09000000197086964
-0.04267425090074539,0.12244904786348343,9.941683769226074,-0.0044999998062849045,0.0013000000035390258,0.12799999117851257,-1.521999974336208,-1.0859999713103217,-0.048000001495804245
-0.06807194650173187,0.12219047546386719,9.964734077453613,-0.03519999980926514,0.004600000102072954,0.147599995136261,1.0549999838234552,0.43600000302588643,0.37299999230812847
-0.053112972527742386,0.10041281580924988,9.957830429077148,-0.014499999582767487,-0.01769999973475933,0.13779999315738678,1.7240000442749848,0.6609999879427407,0.13499999628619785
-0.04959828034043312,0.11201032996177673,9.953012466430664,-0.012799999676644802,-0.012600000016391277,0.1378999948501587,-1.877999999326145,-0.6889999749192377,-0.3849999943496062
-0.0486980639398098,0.11730630695819855,9.964600563049316,-0.014699999243021011,0.002300000051036477,0.147599995136261,-2.1239999344547322,-1.3419999437140424,-0.32700000226941484
-0.041084498167037964,0.12008357793092728,9.964369773864746,-0.008999999612569809,0.008799999952316284,0.147599995136261,-0.21100000476881897,-0.49600001323327503,0.2150000010025738
-0.057240575551986694,0.11397358030080795,9.944374084472656,-0.020099999383091927,-0.00029999998514540493,0.12789998948574066,1.1120000468813271,0.2680000011256249,0.41499999945330046
-0.0466773584485054,0.11336066573858261,9.94690227508545,-0.009499999694526196,-0.003399999812245369,0.12799999117851257,0.5069999795307276,-0.29800000622931916,0.041000001416626686
-0.03628652170300484,0.1192120909690857,9.976523399353027,-0.0004999999655410647,0.004999999888241291,0.1573999971151352,-0.2839999860606442,1.4259999580043863,0.10600000024610218
-0.04453215003013611,0.11689449846744537,9.964897155761719,-0.006399999838322401,0.005799999926239252,0.147599995136261,-0.754000003764193,-0.40299999741182274,0.1180000022875799
-0.039322368800640106,0.1367568075656891,9.950733184814453,-0.007699999958276749,0.027699999511241913,0.13779999315738678,-0.43999998591942807,-0.6780000086217851,-0.06299999737754478
-0.044398076832294464,0.11247959733009338,9.953184127807617,-0.00930000003427267,-0.0005999999702908099,0.13779999315738678,-1.5680000177357747,0.851000002479187,0.01400000015835513
-0.033423058688640594,0.12388557195663452,9.947563171386719,0.00279999990016222,0.013399999588727951,0.12789998948574066,-1.2799999687403094,-1.2379999615951374,-0.25299999857377775
-0.03730166330933571,0.11222102493047714,9.946557998657227,-0.0004999999655410647,0.00699999975040555,0.12789998948574066,-2.839999913967295,-1.731000027678896,-0.4799999749374028
-0.05243301764130592,0.1183597594499588,9.957963943481445,-0.024799998849630356,0.02459999918937683,0.13759998977184296,-0.2770000026567332,0.2680000011256249,-0.3100000082707969
-0.04978981614112854,0.10677181929349899,9.959074020385742,-0.023899998515844345,0.015599999576807022,0.13759998977184296,2.4330000403836363,1.6439999595173296,0.5889999756938744
-0.04723281040787697,0.12341630458831787,9.946969985961914,-0.010099999606609344,0.019500000402331352,0.12789998948574066,-2.5650000628398915,-1.952999958724528,-0.13400000056281244
-0.04907156154513359,0.12553277611732483,9.94748592376709,-0.025200000032782555,0.03629999980330467,0.12780000269412994,-0.747000020360282,0.038000000906257256,-0.11500000177721047
-0.037004780024290085,0.11500786989927292,9.941089630126953,-0.005399999674409628,0.0284000001847744,0.12780000269412994,0.5819999922899634,-0.03699999851276524,0.407999989368963
-0.04368939250707626,0.12245862931013107,9.95802116394043,-0.01529999915510416,0.02669999934732914,0.13759998977184296,-1.2729999853363985,-0.78199999074069,-0.019000000453128628
-0.0427795946598053,0.1205049604177475,9.960261344909668,-0.01759999990463257,0.030499998480081558,0.14739999175071716,1.1599999483255323,1.6460000310053797,0.33600000380052314
-0.050651729106903076,0.11144530028104782,9.938628196716309,-0.023399999365210533,0.017799999564886093,0.11800000071525574,-1.089000025181544,-0.24500000610626807,-0.3190000098019052
-0.04826710373163223,0.12533167004585266,9.947994232177734,-0.024000000208616257,0.040300000458955765,0.12780000269412994,0.2800000031671026,0.24500000610626807,0.3770000018820965
-0.03644932433962822,0.1356937736272812,9.952437400817871,-0.02329999953508377,0.029600000008940697,0.13759998977184296,0.39200000443394367,-0.475000009660689,0.4769999744270334
-0.04720408096909523,0.09675447642803192,9.934174537658691,-0.0058999997563660145,0.05719999969005585,0.13750000298023224,0.39200000443394367,-0.475000009660689,0.4769999744270334
-0.03644932433962822,0.12272677570581436,9.948951721191406,-0.017099998891353607,0.016599999740719795,0.11789999902248383,-0.31600000929153577,0.4510000055777336,-0.3690000094145868
-0.0430094376206398,0.12185529619455338,9.962140083312988,-0.010400000028312206,0.029199998825788498,0.14739999175071716,-2.7529999525274347,-3.0049999953984665,-0.2929999875917525
-0.04773080348968506,0.11367669701576233,9.940141677856445,-0.01860000006854534,0.026799999177455902,0.11789999902248383,-2.3230000572439926,-1.5980000228394688,-0.18400000017549412
-0.038508340716362,0.12139560282230377,9.933830261230469,-0.02290000021457672,0.042799998074769974,0.11779999732971191,0.06899999839828364,0.5969999948418105,0.4310000110687462
-0.049109868705272675,0.11929827928543091,9.955263137817383,-0.030799999833106995,0.042500000447034836,0.13750000298023224,0.4270000014947782,0.3690000094145868,0.2810000122307012
-0.03784754127264023,0.12336842715740204,9.964179039001465,-0.010199999436736107,0.04129999876022339,0.14729999005794525,1.7190000256374183,2.2250000761458266,0.2050000037480801
-0.03678451478481293,0.12288958579301834,9.95407485961914,-0.003999999724328518,0.036399997770786285,0.13750000298023224,3.4809999340814746,2.4330000403836363,0.4769999744270334
-0.044350191950798035,0.11368627101182938,9.947189331054688,-0.0071000000461936,0.016899999231100082,0.12780000269412994,2.219999950786554,0.7200000157669572,0.6239999994351354
-0.0408833883702755,0.1144619956612587,9.960453987121582,-0.0050999997183680534,0.010699999518692493,0.14749999344348907,-0.10100000161885533,2.037999955398044,0.3529999977991411
-0.04784572497010231,0.117066890001297,9.944268226623535,0.0010999999940395355,0.02070000022649765,0.12789998948574066,0.9999999922536332,0.1749999986443858,-0.1390000058601659
-0.05528690665960312,0.1228800043463707,9.943483352661133,-0.008200000040233135,0.018199998885393143,0.12789998948574066,-3.0469998958219326,-1.9850000353162722,0.021000000237532696
-0.036123715341091156,0.11831187456846237,9.948664665222168,0.006000000052154064,0.026399999856948853,0.12780000269412994,-3.4160000119582254,-1.7639999799321067,-0.7900000098886262
-0.05364927276968956,0.11934617161750793,9.94172191619873,-0.018299998715519905,0.0357000008225441,0.12770000100135803,2.883999992600517,2.0409999025475605,-0.05900000114378995
-0.04708915948867798,0.10992259532213211,9.956756591796875,-0.002899999963119626,0.017799999564886093,0.13759998977184296,1.9250000251088837,1.6549999791756351,0.7570000042745624
-0.05903143808245659,0.12754391133785248,9.9415864944458,-0.017400000244379044,0.03139999881386757,0.12789998948574066,-4.5339999531385855,-2.572999921905269,-0.7369999830851486
-0.04897578805685043,0.1256093978881836,9.949344635009766,-0.013700000010430813,0.04209999740123749,0.12780000269412994,4.02099981250456,0.78199999074069,0.3579999897562813
-0.05407065153121948,0.12515929341316223,9.951528549194336,-0.011500000022351742,0.03099999949336052,0.13769999146461487,0.7630000052953013,-0.39200000443394367,0.18099999966512467
-0.047864880412817,0.11936531960964203,9.943981170654297,-0.002699999837204814,0.01899999938905239,0.12789998948574066,-0.6459999853908935,-2.4139999482165417,-0.4179999999636699
-0.03959051892161369,0.11124418675899506,9.955157279968262,-0.00930000003427267,0.010799999348819256,0.13769999146461487,1.0079999580407164,-0.33600000380052314,0.6300000004558742
-0.05322789400815964,0.11882901936769485,9.957685470581055,-0.020099999383091927,0.017400000244379044,0.13769999146461487,1.1959999544499653,1.8059999870772787,-0.3029999981864594
-0.042904093861579895,0.12269805371761322,9.948406219482422,-0.0058999997563660145,0.014499999582767487,0.12789998948574066,-3.9570000862078945,-0.9779999529370222,-0.29699999716572056
-0.03943729028105736,0.1309436857700348,9.959074020385742,-0.008599999360740185,0.03500000014901161,0.13759998977184296,5.5969997960274185,2.2179999860202098,0.8549999853727285
-0.04352658987045288,0.11364796757698059,9.939279556274414,-0.0024999999441206455,0,0.11819999665021896,-5.123999804493926,-2.3189999142678923,-0.739999983595518
-0.06860824674367905,0.0995413288474083,9.941912651062012,-0.0284000001847744,0.013899999670684338,0.13759998977184296,6.174000089844932,2.3769999597089364,0.6290000180727021
-0.048947058618068695,0.1216733306646347,9.961785316467285,-0.04490000009536743,0.008599999360740185,0.12780000269412994,5.030000179815272,3.3550000193676643,0.5249999825929442
-0.038470033556222916,0.11226890236139297,9.938924789428711,-0.0004999999655410647,-0.010099999606609344,0.11829999834299088,1.0129999766782831,1.55099999705673,-0.4759999920438612
-0.04935886338353157,0.1327153891324997,9.956891059875488,-0.006000000052154064,0.006599999964237213,0.1378999948501587,-3.7630000887779067,-0.8889999733699644,-0.9709999695331112
-0.04310520738363266,0.13552139699459076,9.941912651062012,0.00139999995008111,0.026599999517202377,0.12799999117851257,-7.081000119637966,-3.202999922361143,-0.6080000145001161
-0.04710831493139267,0.11724884808063507,9.943551063537598,-0.008299999870359898,0.02879999950528145,0.12780000269412994,-6.355999871790031,-1.8959998956666557,-0.6059999963729188
-0.04382346570491791,0.11303505301475525,9.959601402282715,-0.012799999676644802,0.0340999998152256,0.13750000298023224,-7.173999548490037,-3.4380000512748365,-0.7039999774710849
-0.06042007356882095,0.1231098473072052,9.954870223999023,-0.04169999808073044,0.06350000202655792,0.13729999959468842,-7.977000129772694,-3.4650000025073084,-0.9329999986423336
-0.05650315806269646,0.11134953051805496,9.957916259765625,-0.04129999876022339,0.07530000060796738,0.13729999959468842,-7.013999805861549,-4.177000052487182,-0.7680000239328679
-0.045863326638936996,0.12232455611228943,9.935237884521484,-0.042899999767541885,0.10419999808073044,0.11759999394416809,-3.149000019896199,-0.2259999939804529,-0.7889999741446011
-0.04616020992398262,0.12151052057743073,9.944977760314941,-0.04339999705553055,0.1136000007390976,0.1273999959230423,5.997000006372283,3.4339999082987362,0.22100000202331266
-0.03985866904258728,0.12743857502937317,9.957274436950684,-0.035099998116493225,0.1087999939918518,0.1371999979019165,5.893000130975084,2.283999890526631,1.2249999771704876
-0.049464207142591476,0.12150094658136368,9.959083557128906,-0.03849999979138374,0.08249999582767487,0.13729999959468842,-7.306999553329463,-3.9830000550571945,-0.21200000049220435
-0.05682877078652382,0.11317870020866394,9.93784236907959,-0.049300000071525574,0.09239999949932098,0.11759999394416809,-2.1119999324132546,0.9930000088497223,-1.0789999879064105
-0.0362577885389328,0.1012938842177391,9.93064022064209,-0.026799999177455902,0.08810000121593475,0.10779999941587448,8.653999942567896,3.475000039782442,1.2520000351246652
-0.051791369915008545,0.12293747067451477,9.951528549194336,-0.035599999129772186,0.08069999516010284,0.13729999959468842,-6.562999853644668,-4.733999844867607,-1.0969999909686272
-0.05298847332596779,0.11909716576337814,9.935784339904785,-0.046799998730421066,0.09609999507665634,0.11759999394416809,2.534999951014491,3.118999908070799,0.21100000476881897
-0.05668511986732483,0.12026554346084595,9.9386568069458,-0.038100000470876694,0.08879999816417694,0.11759999394416809,3.547000052031308,-0.3019999891228608,0.3559999983095105
-0.050441041588783264,0.13043610751628876,9.939566612243652,-0.03879999741911888,0.08859999477863312,0.11769999563694,4.360000030258864,4.288000018009998,-0.1729999938574018
-0.043679818511009216,0.12611696124076843,9.927173614501953,-0.017099998891353607,0.0762999951839447,0.1078999936580658,-8.56999971483414,-3.4760000221656138,-0.5309999836136831
-0.05156152695417404,0.13149912655353546,9.944364547729492,-0.03749999776482582,0.10239999741315842,0.1273999959230423,7.81000029701859,5.572000023004702,1.0419999993988052
-0.045250412076711655,0.11912590265274048,9.946624755859375,-0.0142000000923872,0.07349999994039536,0.1274999976158142,-8.176000252561956,-2.670999903003435,-1.080999952672755
-0.03718674182891846,0.11460564285516739,9.950943946838379,-0.011599999852478504,0.08569999784231186,0.13729999959468842,-2.0619999594809997,-3.291000079627587,0.1729999938574018
-0.04569094628095627,0.12837709486484528,9.957418441772461,-0.030299998819828033,0.11059999465942383,0.1371999979019165,10.978999751134822,5.457000127949198,1.1260000136891493
-0.040078938007354736,0.11167514324188232,9.95322322845459,-0.02499999850988388,0.06059999763965607,0.14710000157356262,3.3689999861754867,2.942000038041561,-0.20299999896109608
-0.036985624581575394,0.12145306169986725,9.945744514465332,0,0.07779999822378159,0.1274999976158142,-11.133000026351098,-7.190999889334198,-1.249999963636615
-0.048401180654764175,0.11348515748977661,9.963671684265137,-0.03909999877214432,0.0982000008225441,0.14710000157356262,-2.215000038870693,-4.2739998377587645,-0.22800001210765014
-0.05102522671222687,0.11266155540943146,9.940016746520996,-0.05069999769330025,0.1039000004529953,0.11759999394416809,-0.3220000103122746,1.7569999965281957,0.39200000443394367
-0.053735461086034775,0.11911632865667343,9.954429626464844,-0.04580000042915344,0.11419999599456787,0.1371999979019165,0.0749999994190225,-2.806000086052618,0.7459999846162569
-0.047031696885824203,0.1257147490978241,9.93736457824707,-0.044499997049570084,0.1233999952673912,0.11759999394416809,-4.313999986859298,-4.6059999653874515,0.19499999315337319
-0.04064396768808365,0.10514376312494278,9.93900203704834,-0.055399999022483826,0.10399999469518661,0.11769999563694,-7.608000013636402,-1.731000027678896,-0.3339999856733259
-0.051810525357723236,0.13487015664577484,9.945656776428223,-0.0697999969124794,0.16359999775886536,0.12759999930858612,-10.886999664335688,-6.861000153358678,-1.0359999983780663
-0.04831499233841896,0.13463075459003448,9.953692436218262,-0.08839999884366989,0.19290000200271606,0.13759998977184296,-10.29800000880693,-5.651999894318946,-1.1260000136891493
-0.05678088590502739,0.12907619774341583,9.950799942016602,-0.10359999537467957,0.21079999208450317,0.1378999948501587,2.4879999252317524,2.6919999599368736,-0.29699999716572056
-0.03383485972881317,0.12033258378505707,9.93425178527832,-0.0754999965429306,0.19269999861717224,0.11819999665021896,9.433999861820535,5.6429998394269845,0.9089999945593782
-0.047855306416749954,0.1160038635134697,9.947447776794434,-0.07149999588727951,0.16949999332427979,0.12770000100135803,0.34800000584200086,-1.7959999498021453,0.3130000087811663
-0.052452173084020615,0.13052229583263397,9.958748817443848,-0.085999995470047,0.1777999997138977,0.13750000298023224,-5.034999878287722,-0.9810000068082445,-0.9029999935386394
-0.05210740491747856,0.12837709486484528,9.962608337402344,-0.08839999884366989,0.19099999964237213,0.14739999175071716,11.517000091678385,7.4939998875206575,0.9389999996630725
-0.05028781294822693,0.11667423695325851,9.945198059082031,-0.06759999692440033,0.14899998903274536,0.12759999930858612,-5.516999924713175,-5.149999773343226,-0.4139999903897018
-0.050201620906591415,0.11146445572376251,9.936588287353516,-0.08320000022649765,0.15559999644756317,0.11789999902248383,2.8899998868995502,5.017000195390622,-0.3339999856733259
-0.04757757484912872,0.11586020886898041,9.942937850952148,-0.06109999865293503,0.15789999067783356,0.12759999930858612,-4.6189999498121015,-5.884000076083122,0.03999999902313467
-0.03598963841795921,0.11822567880153656,9.944441795349121,-0.06709999591112137,0.16990000009536743,0.12770000100135803,6.575000069129557,6.028000100580855,0.28799999563461226
-0.051408298313617706,0.12150094658136368,9.934491157531738,-0.07000000029802322,0.15129999816417694,0.11779999732971191,-4.76100000954349,-4.055000067306061,-0.9250000328552505
-0.051839254796504974,0.12540829181671143,9.961506843566895,-0.08079999685287476,0.1735999882221222,0.14729999005794525,10.417999602334886,6.824999933790834,0.6390000019869825
-0.04787445813417435,0.11574528366327286,9.940084457397461,-0.04969999939203262,0.13109999895095825,0.11769999563694,-5.821999887665978,-0.7769999721031233,-0.8470000195856453
-0.047031696885824203,0.11286266893148422,9.93872356414795,-0.05139999836683273,0.1347000002861023,0.11769999563694,-8.129000013335805,-4.129999813261032,-0.32299999269544677
-0.043469127267599106,0.12446975708007812,9.925115585327148,-0.0819999948143959,0.17599999904632568,0.13750000298023224,7.764999595671961,4.646999883427746,0.3379999952472939
-0.05371630936861038,0.12751518189907074,9.940534591674805,-0.053999997675418854,0.14010000228881836,0.11769999563694,2.6319999497294853,2.8029999254596896,-0.014999999216793838
-0.04031835496425629,0.10180145502090454,9.939422607421875,-0.053999997675418854,0.14010000228881836,0.11769999563694,-9.54799998793628,-2.17499988977016,-0.4510000055777336
-0.046323012560606,0.120734803378582,9.932652473449707,-0.03529999777674675,0.10199999809265137,0.11759999394416809,-9.785999637112667,-4.487000140799259,-1.129999943221838
-0.052739474922418594,0.11614751070737839,9.951757431030273,-0.062199998646974564,0.17019999027252197,0.13750000298023224,-5.045000129006266,-5.115999945428549,-0.6540000045388297
-0.055890243500471115,0.12042834609746933,9.937000274658203,-0.07609999924898148,0.1834999918937683,0.11800000071525574,-10.930999742968911,-4.711999805550995,-0.690999993046435
-0.03871902823448181,0.12373234331607819,9.946394920349121,-0.07889999449253082,0.21279999613761902,0.12809999287128448,-6.453000083948436,-5.943999872847099,-0.6590000231763964
-0.05357265844941139,0.13155660033226013,9.946624755859375,-0.10679999738931656,0.2418999969959259,0.12849999964237213,-10.70899981192328,-3.244000053844849,-0.4169999909000712
-0.050843264907598495,0.12296620011329651,9.941309928894043,-0.11429999768733978,0.25699999928474426,0.12889999151229858,-6.067000053854805,-0.30100000673968863,-0.5960000124586383
-0.05180094763636589,0.1145673394203186,9.952582359313965,-0.11490000039339066,0.2630999982357025,0.1388999968767166,5.331999982175148,5.36399984532348,0.04200000047506539
-0.043852198868989944,0.13381673395633698,9.949075698852539,-0.09009999781847,0.26729997992515564,0.12879998981952667,5.642000070487224,1.508000007528386,0.6889999749192377
-0.03796246275305748,0.13068510591983795,9.954832077026367,-0.07580000162124634,0.25110000371932983,0.13830000162124634,-4.258999888567771,1.3589999643930868,-0.24099999653230003
-0.04874594509601593,0.11746910959482193,9.947447776794434,-0.0908999964594841,0.25360000133514404,0.12870000302791595,-2.9070000143003005,0.8769999713284867,-0.3259999932058162
-0.05144660547375679,0.11905886232852936,9.938838958740234,-0.08859999477863312,0.259799987077713,0.11889999359846115,5.520999854245863,8.565999785301452,0.5440000213991859
-0.048880018293857574,0.12003570050001144,9.92590045928955,-0.06480000168085098,0.24379999935626984,0.1087999939918518,-14.789999421191816,-6.58499989296128,-0.39200000443394367
-0.04981854930520058,0.12364615499973297,9.928582191467285,-0.08259999752044678,0.28349998593330383,0.10949999839067459,5.65399985908529,-5.102999961003899,0.2039999946844815
-0.05176264047622681,0.10808383673429489,9.941893577575684,-0.09619999676942825,0.2572999894618988,0.12889999151229858,-5.010999874204766,-5.346000162426382,-0.19799999366374263
-0.05289270356297493,0.11346600204706192,9.944172859191895,-0.11239999532699585,0.2718999981880188,0.12929999828338623,8.063999664325731,7.334999913831931,0.2259999939804529
-0.04104619100689888,0.11341812461614609,9.940878868103027,-0.08469999581575394,0.2516999840736389,0.12879998981952667,-11.612000339070446,-0.1930000017066024,-0.4590000247256697
-0.06472006440162659,0.12352165579795837,9.93508529663086,-0.10449999570846558,0.2924000024795532,0.11949999630451202,8.882999963739145,2.79400008401114,0.37400000137172706
-0.04781699925661087,0.12694057822227478,9.940917015075684,-0.07699999958276749,0.27699998021125793,0.12879998981952667,-4.882999994724612,-3.2649998973348757,-0.38000000239246595
-0.041525036096572876,0.12733322381973267,9.93823528289795,-0.08559999614953995,0.28949999809265137,0.1193000003695488,8.236999818265692,-0.19799999366374263,0.7299999996812375
-0.041343074291944504,0.12778332829475403,9.933609962463379,-0.08590000122785568,0.26319998502731323,0.11889999359846115,4.03399979692921,4.125999883728343,-0.021000000237532696
-0.03569275885820389,0.11489295214414597,9.942400932312012,-0.06589999794960022,0.23309999704360962,0.12849999964237213,5.36300007638372,1.1479999462840547,-0.11099999887334903
-0.04675397276878357,0.11370542645454407,9.937986373901367,-0.08209999650716782,0.24689999222755432,0.1184999942779541,-3.3890000607257535,-5.945000068673684,-0.30400000725005805
-0.03990655392408371,0.1261935830116272,9.941022872924805,-0.08009999990463257,0.23240000009536743,0.11869999766349792,-9.702000263152557,-7.444000341475226,-0.05499999823992851
-0.056531891226768494,0.11857043951749802,9.946049690246582,-0.09609999507665634,0.2603999972343445,0.12870000302791595,-6.61900014776278,5.7409998205251505,-0.017999999727163266
-0.05405149981379509,0.11972924321889877,9.934884071350098,-0.11449999362230301,0.2945999801158905,0.11969999969005585,-12.126000248644232,-7.891000364159417,-0.1719999981340164
-0.03801034390926361,0.11572613567113876,9.94930648803711,-0.11620000004768372,0.32690000534057617,0.13040000200271606,-12.451000286147304,-9.264999637413265,-0.22100000202331266
-0.04563348367810249,0.12556152045726776,9.941635131835938,-0.1509999930858612,0.36980000138282776,0.131400004029274,-17.778999485016115,3.198000010445282,-0.13000000432905762
-0.04666777700185776,0.11738292127847672,9.94063949584961,-0.14180000126361847,0.4075999855995178,0.12289999425411224,13.886999747818294,4.417999862256497,0.26699999206202624
-0.04782657325267792,0.1298423409461975,9.953912734985352,-0.12780000269412994,0.37359997630119324,0.1410999894142151,3.3339999624342256,-6.061000159555772,0.019000000453128628
-0.04416823014616966,0.12681607902050018,9.949267387390137,-0.14190000295639038,0.3646000027656555,0.13120000064373016,-16.220000269224244,-4.118999793602726,-0.06700000028140622
-0.049445051699876785,0.12687353789806366,9.941749572753906,-0.16259999573230743,0.40779998898506165,0.13249999284744263,-2.5790000296477134,-1.712000042233507,0.1620000008795227
-0.049416325986385345,0.11523772031068802,9.936464309692383,-0.16679999232292175,0.40389999747276306,0.12289999425411224,16.930000140994363,3.1169999433044544,0.20599999947146552
-0.06099468097090721,0.11249874532222748,9.930468559265137,-0.16759999096393585,0.3465999960899353,0.11169999837875366,-12.569000341795736,-12.744000033615217,-0.21200000049220435
-0.043354205787181854,0.11005666106939316,9.94375228881836,-0.18679998815059662,0.38419997692108154,0.13289999961853027,24.814999330194276,12.146999665247437,0.3029999981864594
-0.0543866828083992,0.10890744626522064,9.937651634216309,-0.16699999570846558,0.32359999418258667,0.12109999358654022,-14.49000043737193,-12.462000305805608,-0.4100000074961602
-0.04368939250707626,0.1235695406794548,9.929577827453613,-0.1907999962568283,0.3718999922275543,0.11270000040531158,30.544001496555477,-4.408000038424776,0.3690000094145868
-0.045959096401929855,0.11841721087694168,9.936310768127441,-0.20229999721050262,0.287200003862381,0.12079999595880508,-5.969000072756639,-19.15499914992313,-0.4590000247256697
-0.059586890041828156,0.12017935514450073,9.945667266845703,-0.27379998564720154,0.3024999797344208,0.13189999759197235,13.535999741465924,-13.656000188767523,0.5399999851447914
-0.05064215511083603,0.11847467720508575,9.954524993896484,-0.30539998412132263,0.259799987077713,0.1419999897480011,-27.41499963021884,-11.776999780171383,-0.29399999665535115
-0.03914998471736908,0.11161768436431885,9.947707176208496,-0.3231000006198883,0.31459999084472656,0.13419999182224274,-11.00700011163729,-14.890000220829972,-0.6679999713466518
-0.03783796355128288,0.1297370046377182,9.945656776428223,-0.3531999886035919,0.36319997906684875,0.13619999587535858,30.597000349420192,-5.646999768959674,-0.4709999734062945
-0.04148672893643379,0.11897267401218414,9.940150260925293,-0.334199994802475,0.2685999870300293,0.12370000034570694,-23.347000432261776,10.487999649817407,0.4579999889816446
-0.04485776275396347,0.11993034929037094,9.928333282470703,-0.334199994802475,0.2685999870300293,0.12370000034570694,-8.180999951034403,-17.33499962292485,-0.24299998797907083
-0.04485776275396347,0.11993034929037094,9.928333282470703,-0.3009999990463257,0.33949998021125793,0.11429999768733978,-8.180999951034403,-17.33499962292485,-0.24299998797907083
-0.03457227349281311,0.13674722611904144,9.94438362121582,-0.3317999839782715,0.37770000100135803,0.1356000006198883,10.416999833395124,-27.85500041655106,-0.6510000040284603
-0.04008851200342178,0.12145306169986725,9.94971752166748,-0.41689997911453247,0.32850000262260437,0.13759998977184296,6.396000020890564,-26.723999637172405,-0.6650000241971352
-0.05141787603497505,0.12212344259023666,9.932546615600586,-0.49869999289512634,0.3098999857902527,0.13050000369548798,0.257999990530918,-0.1390000058601659,-0.4679999728959251
-0.03818272799253464,0.11702857911586761,9.949823379516602,-0.49799999594688416,0.30809998512268066,0.13040000200271606,-0.9299999447711114,-34.14600079310467,-0.5530000229302942
-0.053994037210941315,0.12662453949451447,9.940408706665039,-0.689799964427948,0.3042999804019928,0.14100000262260437,-7.500999977646274,4.267000174519971,-0.12299999424472013
-0.06294835358858109,0.12196063250303268,9.949563980102539,-0.6863999962806702,0.3139999806880951,0.15029999613761902,-10.061000128570305,22.675000317939023,0.6390000019869825
-0.042837053537368774,0.11947066336870193,9.923602104187012,-0.6031999588012695,0.34059998393058777,0.1273999959230423,8.923999881779439,20.967999440569436,-0.5530000229302942
-0.050584692507982254,0.1328207403421402,9.934557914733887,-0.554099977016449,0.3249000012874603,0.13339999318122864,10.52600026103842,-2.9359999302991167,-0.7290000172980654
-0.04209006577730179,0.1290091723203659,9.937115669250488,-0.551800012588501,0.2915000021457672,0.1331000030040741,-5.463999791187991,-19.67399961174301,-0.36800000035098823
-0.05522944778203964,0.12115617841482162,9.93238353729248,-0.6069999933242798,0.2937999963760376,0.13580000400543213,-7.3239998941736255,6.577000033895902,0.6519999864116324
-0.04563348367810249,0.10952993482351303,9.93860912322998,-0.5774999856948853,0.30309998989105225,0.13509999215602875,8.710999578738944,12.995000094103077,-0.42599999243117953
-0.06584054231643677,0.12648089230060577,9.946232795715332,-0.5600000023841858,0.2979999780654907,0.14239999651908875,-3.6850001822300076,-9.07199983580986,-0.6290000180727021
-0.04762545973062515,0.10890744626522064,9.932546615600586,-0.5634999871253967,0.2874000072479248,0.1340000033378601,8.69999955908064,6.664999764275524,-0.16500000138989213
-0.0412377305328846,0.13680468499660492,9.927279472351074,-0.5414000153541565,0.2890999913215637,0.1224999949336052,-6.950999848504644,6.38199984063933,0.3280000113330135
-0.045058876276016235,0.1272757649421692,9.934969902038574,-0.524399995803833,0.29510000348091125,0.13169999420642853,7.268000026942337,8.797999967065628,-0.38699998579637696
-0.05001965910196304,0.11465353518724442,9.9346923828125,-0.5085999965667725,0.2547000050544739,0.13009999692440033,-7.114000178612883,-7.1279999319772935,0.559000023951033
-0.057384226471185684,0.1234641969203949,9.939289093017578,-0.5264999866485596,0.2831999957561493,0.13130000233650208,5.926999958889761,-10.959999872411139,-0.7690000063160402
-0.031268272548913956,0.12493901699781418,9.932116508483887,-0.5351999998092651,0.2757999897003174,0.13249999284744263,4.3459998500076304,6.089999862111177,-0.23099998593759313
-0.03928406164050102,0.11135910451412201,9.928783416748047,-0.5248000025749207,0.24199999868869781,0.12139999866485596,-3.149000019896199,2.0279999181229105,0.6089999968832882
-0.040586505085229874,0.1220468282699585,9.946270942687988,-0.5182999968528748,0.25859999656677246,0.14079999923706055,-2.3490000260932926,-11.147999975542094,0.10600000024610218
-0.035769373178482056,0.1269022673368454,9.940945625305176,-0.5374000072479248,0.27399998903274536,0.14239999651908875,4.78699997839279,-5.873000056424817,-0.7380000188291737
-0.04074931517243385,0.11748826503753662,9.9403715133667,-0.5616999864578247,0.2502000033855438,0.1331000030040741,4.097999950112699,2.75099998776109,-0.559000023951033
-0.04003105312585831,0.10904151946306229,9.943589210510254,-0.5526999831199646,0.22839999198913574,0.14229999482631683,0.14399999781730613,8.503999596884308,0.3240000017590454
-0.043660663068294525,0.1310490220785141,9.941941261291504,-0.524899959564209,0.2467999905347824,0.14079999923706055,0.15399999507179982,2.917000051575434,0.8080000129508427
-0.049847278743982315,0.12454637140035629,9.93735408782959,-0.526199996471405,0.2457999885082245,0.12079999595880508,1.6599999978132018,-1.080999952672755,-0.043999998591942806
-0.05707776919007301,0.11661677807569504,9.927471160888672,-0.5059999823570251,0.22439999878406525,0.11959999799728394,1.1419999452633156,4.868999814473378,0.19900000272734125
-0.053926996886730194,0.12836752831935883,9.950752258300781,-0.4912000000476837,0.2303999960422516,0.14829999208450317,2.9300000360000835,6.296000075026054,-0.128999995265459
-0.03758896514773369,0.12067734450101852,9.93931770324707,-0.4912000000476837,0.2303999960422516,0.14829999208450317,-0.6110000150104855,-5.398000100124981,-0.6429999848805241
-0.045202530920505524,0.122276671230793,9.933744430541992,-0.47209998965263367,0.21159999072551727,0.1281999945640564,-2.6539999890460964,-4.027000133690416,0.3139999911643385
-0.04339251294732094,0.11842679232358932,9.930679321289062,-0.48159998655319214,0.218299999833107,0.11889999359846115,-1.5550000333111247,0.43499999396228783,0.7990000114197344
-0.05492299050092697,0.1016482263803482,9.924760818481445,-0.4887999892234802,0.20239999890327454,0.11879999935626984,1.9500000115750113,5.564999932879085,0.06899999839828364
-0.0601998046040535,0.11614751070737839,9.937450408935547,-0.4819999933242798,0.21599999070167542,0.12780000269412994,2.5190000194403246,-2.852999898391945,-1.0449999465483217
-0.03877649083733559,0.11412680894136429,9.944010734558105,-0.4697999954223633,0.19769999384880066,0.13779999315738678,-3.6500001584887465,-5.008999909438422,0.3029999981864594
-0.0626801997423172,0.11876197904348373,9.936100006103516,-0.5,0.21570000052452087,0.12860000133514404,0.9359999457918502,0,0.3310000118433829
-0.040797196328639984,0.11229763925075531,9.931867599487305,-0.4790000021457672,0.20269998908042908,0.12849999964237213,0.39399999588071444,-3.9850000198235387,-0.035000000395887826
-0.04962701350450516,0.11656889319419861,9.93064022064209,-0.4983999729156494,0.21089999377727509,0.11909999698400497,1.6770000184922462,-2.251000044995126,-0.1719999981340164
-0.055267754942178726,0.11963346600532532,9.941414833068848,-0.5031999945640564,0.20569999516010284,0.1388999968767166,-1.6849999842793295,1.4489999797041697,-0.2770000026567332
-0.04189852997660637,0.12338758260011673,9.941654205322266,-0.48749998211860657,0.2101999968290329,0.1386999934911728,1.7279999738076737,3.3199999956264037,-0.0859999990670082
-0.03809653967618942,0.12267889082431793,9.931560516357422,-0.4684000015258789,0.20549999177455902,0.12839999794960022,-1.9059999329417892,3.2349999989528873,0.4270000014947782
-0.05125506967306137,0.13052229583263397,9.949756622314453,-0.4777999818325043,0.2199999988079071,0.13779999315738678,3.683999986403424,-4.2140000409947875,-0.5810000099067912
-0.05046019330620766,0.11175175756216049,9.940084457397461,-0.48799997568130493,0.18959999084472656,0.1282999962568283,3.500000026248569,2.9869998856145443,-0.7630000052953013
-0.03725377470254898,0.12136687338352203,9.926187515258789,-0.45889997482299805,0.1891999989748001,0.11800000071525574,-0.9910000440833778,1.352999963372348,0.7919999746549705
-0.06733452528715134,0.11152191460132599,9.948942184448242,-0.4925999939441681,0.18199999630451202,0.13740000128746033,-1.890999983750795,-3.6520001232550907,0.985000043062639
-0.0460931695997715,0.12175951898097992,9.93669319152832,-0.4705999791622162,0.19589999318122864,0.12799999117851257,1.9679999079155222,-4.544999972796891,-1.248999981253443
-0.058332327753305435,0.12578178942203522,9.944451332092285,-0.5013999938964844,0.1995999962091446,0.13819999992847443,2.6429999693877906,1.9240000427257116,-0.8650000226478619
-0.05768110603094101,0.11890563368797302,9.94090747833252,-0.49480000138282776,0.18199999630451202,0.1378999948501587,0.8239999978858621,-0.2920000052085803,0.09600000299160849
-0.03481169044971466,0.1240483745932579,9.929645538330078,-0.4648999869823456,0.17919999361038208,0.11819999665021896,1.3810000037096979,1.7759999819735846,-0.11500000177721047
-0.04910028725862503,0.1289038211107254,9.935908317565918,-0.47769999504089355,0.1841999888420105,0.12770000100135803,1.0489999828027163,-2.8979999594083394,-0.01400000015835513
-0.04569094628095627,0.110439732670784,9.925718307495117,-0.49309998750686646,0.17139999568462372,0.13769999146461487,1.2869999521442204,1.1990000083211878,-0.07999999804626934
-0.04866933077573776,0.11541967839002609,9.936616897583008,-0.4681999981403351,0.15850000083446503,0.11779999732971191,1.5490000322903859,-2.4830000133158916,-0.5939999943314411
-0.05452075973153114,0.11699984967708588,9.924196243286133,-0.4790000021457672,0.15950000286102295,0.11779999732971191,-1.6530000144092907,-1.0499999651858885,-0.4319999934519184
-0.05701073259115219,0.1140884980559349,9.943904876708984,-0.4790000021457672,0.15950000286102295,0.11779999732971191,-0.830999981289773,1.8030000399277621,1.1490000353889325
-0.05189671739935875,0.10511502623558044,9.93637752532959,-0.47529998421669006,0.1460999995470047,0.1274999976158142,1.5860000207979912,2.1819999798957768,-0.3220000103122746
-0.056455276906490326,0.13260045647621155,9.932670593261719,-0.468099981546402,0.17069999873638153,0.12719999253749847,1.3140000100983982,-0.2150000010025738,-1.0979999733517993
-0.051312532275915146,0.11189541220664978,9.942124366760254,-0.4673999845981598,0.1469999998807907,0.13689999282360077,-1.980999892340172,-2.9390000908920446,0.18099999966512467
-0.04178360849618912,0.11722969263792038,9.930440902709961,-0.4643999934196472,0.16179999709129333,0.11759999394416809,-0.29800000622931916,1.660999980196374,0.8099999777171871
-0.04852567985653877,0.12424948811531067,9.929530143737793,-0.46789997816085815,0.1623999923467636,0.11729999631643295,0.920999996600856,-0.6889999749192377,-0.8470000195856453
-0.05337154492735863,0.11514194309711456,9.947946548461914,-0.4682999849319458,0.15969999134540558,0.13699999451637268,-0.11500000177721047,-0.10499999785261017,-0.2069999951948509
-0.05240428447723389,0.13339534401893616,9.936607360839844,-0.4672999978065491,0.16929998993873596,0.12709999084472656,0.7269999991708681,-0.7140000147462182,-0.5200000173162305
-0.0405290462076664,0.1237131878733635,9.92989444732666,-0.45829999446868896,0.15699999034404755,0.11729999631643295,-0.4500000231945614,-0.3139999911643385,0.5840000104171607
-0.048046842217445374,0.11890563368797302,9.937172889709473,-0.46769997477531433,0.15789999067783356,0.12709999084472656,0.690999993046435,-0.024000000747902123,-0.5979999772249827
-0.05966350436210632,0.11761276423931122,9.92908000946045,-0.4763999879360199,0.15529999136924744,0.11729999631643295,1.193000007300449,-1.018999977699022,0.4590000247256697
-0.05021119862794876,0.11234551668167114,9.930363655090332,-0.46779999136924744,0.14229999482631683,0.11729999631643295,0.08799999718388561,2.6860000656378404,1.090000007564716
-0.05564124509692192,0.11868536472320557,9.923879623413086,-0.459199994802475,0.15160000324249268,0.1168999969959259,-1.3029999904400926,-1.1899999534292265,0.5949999767146132
-0.048209644854068756,0.13052229583263397,9.943933486938477,-0.4611999988555908,0.16459999978542328,0.13660000264644623,0.9829999715745888,-1.8069999694604508,-1.521999974336208
-0.04201345145702362,0.12446975708007812,9.928926467895508,-0.4551999866962433,0.15150000154972076,0.11719999462366104,1.0489999828027163,2.205999983978732,-0.5249999825929442
-0.05211698263883591,0.12919111549854279,9.931196212768555,-0.4569999873638153,0.15760000050067902,0.1265999972820282,0.09200000008774706,1.8549999776263617,0.7110000142358488
-0.043306320905685425,0.11070788651704788,9.936290740966797,-0.4415999948978424,0.13750000298023224,0.12639999389648438,-0.5179999991890332,-0.363000008393848,1.3879999871136088
-0.041170693933963776,0.12289915978908539,9.939460754394531,-0.4413999915122986,0.148499995470047,0.12639999389648438,0.3379999952472939,-0.7990000114197344,0.7579999866577346
-0.04961743578314781,0.11203905940055847,9.93251895904541,-0.4521999955177307,0.13750000298023224,0.12639999389648438,-0.1070000026395942,-1.4619999641288195,-0.05099999867112037
-0.042856208980083466,0.11782345920801163,9.92966365814209,-0.44529998302459717,0.14720000326633453,0.11669999361038208,0.7360000007019765,1.631999957475852,-1.1149999940308437
-0.04752011597156525,0.11307335644960403,9.921170234680176,-0.4390999972820282,0.13459999859333038,0.10659999400377274,0.06099999926066736,-0.9839999539577611,-0.7170000152565876
-0.036458905786275864,0.11431834101676941,9.92357349395752,-0.44029998779296875,0.15359999239444733,0.11649999767541885,-0.3339999856733259,-0.5089999976579249,0.36499999984061876
-0.05879201367497444,0.13204501569271088,9.929444313049316,-0.45579999685287476,0.15559999644756317,0.11629999428987503,0.15399999507179982,-1.6059999886265521,-1.661999962579546
-0.05176264047622681,0.10628340393304825,9.94487190246582,-0.44929999113082886,0.13499999046325684,0.13609999418258667,-0.3310000118433829,-1.2729999853363985,-1.011999994295111
-0.04054819792509079,0.11733503639698029,9.934529304504395,-0.44929999113082886,0.13499999046325684,0.13609999418258667,-0.19600000221697184,0.9200000142176837,2.4200000559589867
-0.05462610721588135,0.13233232498168945,9.938225746154785,-0.4487999975681305,0.15549999475479126,0.12629999220371246,0.9370000348967281,2.289000015885904,-0.1849999958988795
-0.054137688130140305,0.11713392287492752,9.927623748779297,-0.4424999952316284,0.14309999346733093,0.11620000004768372,-0.1610000051561373,-1.4259999580043863,-2.9160000691922616
-0.043354205787181854,0.11438538134098053,9.938167572021484,-0.436599999666214,0.13339999318122864,0.12619999051094055,-0.2570000081477458,-0.26000000865811523,3.4939999185061246
-0.061741672456264496,0.11584105342626572,9.931608200073242,-0.4569000005722046,0.14429999887943268,0.12619999051094055,0.03699999851276524,0.9519999840877224,-0.19799999366374263
-0.04204218462109566,0.13075213134288788,9.93997859954834,-0.4343999922275543,0.15399999916553497,0.12610000371932983,0.007000000079177565,1.3810000037096979,-4.066000086964366
-0.036200329661369324,0.12603077292442322,9.93877124786377,-0.4212999939918518,0.15359999239444733,0.125900000333786,-0.08400000095013078,0.8949999743907032,4.134999938620305
-0.04985685646533966,0.12209471315145493,9.924464225769043,-0.438400000333786,0.1445000022649765,0.11599999666213989,-0.12700000381868817,-1.319000028735965,-4.47099999578168
-0.03809653967618942,0.12270762771368027,9.916563034057617,-0.42239999771118164,0.14429999887943268,0.10639999806880951,0.3789999933288673,-0.49199997697888054,5.379999990341059
-0.05578489974141121,0.11524729430675507,9.920652389526367,-0.4432999789714813,0.14389999210834503,0.10639999806880951,0.37299999230812847,-0.4169999909000712,-6.418000060207175
-0.06225882098078728,0.11340854316949844,9.92574691772461,-0.4544999897480011,0.13210000097751617,0.11629999428987503,-0.029999998433587676,1.067999968248105,-0.5429999856551608
-0.04733815789222717,0.11555375158786774,9.914063453674316,-0.43230000138282776,0.14190000295639038,0.10639999806880951,-0.45300002370493087,-0.6819999915153268,-2.081000051648094
-0.054798487573862076,0.12453679740428925,9.923429489135742,-0.4439999759197235,0.15279999375343323,0.11620000004768372,0.02899999937514897,-1.4909999868493415,1.4780000024246918
-0.07126101851463318,0.12709380686283112,9.923908233642578,-0.46769997477531433,0.15279999375343323,0.11639999598264694,0.6480000035180908,1.193999989683621,-0.03400000133744912
-0.05215528979897499,0.11808203160762787,9.932326316833496,-0.4447999894618988,0.1412999927997589,0.12610000371932983,0.5300000012305109,1.6909999853000683,1.5449999960359913
-0.05227978900074959,0.13283030688762665,9.932815551757812,-0.439300000667572,0.14949999749660492,0.1257999986410141,-0.1529999993484144,-1.054000001440283,-0.7549999861473652
-0.04789361357688904,0.10789230465888977,9.937143325805664,-0.4415999948978424,0.13019999861717224,0.125900000333786,-0.43699998540905866,-1.1469999639008823,-0.19799999366374263
-0.04034708812832832,0.11982500553131104,9.931081771850586,-0.4350000023841858,0.141199991106987,0.11629999428987503,-0.39200000443394367,0.6020000134793773,-0.44099999498302667
-0.044867340475320816,0.12760137021541595,9.920969009399414,-0.4332999885082245,0.15199999511241913,0.10639999806880951,0.16599999711327754,-1.0160000305495054,-0.06800000267489824
-0.058025870472192764,0.11786176264286041,9.920259475708008,-0.4262999892234802,0.14169999957084656,0.10649999976158142,-0.34200000482126197,-0.7350000183188042,-0.28499999512424284
-0.05358223244547844,0.12481452524662018,9.928295135498047,-0.4521999955177307,0.15349999070167542,0.11659999936819077,0.07999999804626934,-0.8829999723492256,0.024999999806340833
-0.05495171621441841,0.10528741776943207,9.925431251525879,-0.4545999765396118,0.12379999458789825,0.11669999361038208,-0.3349999947369245,-0.8080000129508427,-0.3989999878378547
-0.04956955462694168,0.11817779392004013,9.93730640411377,-0.4567999839782715,0.14429999887943268,0.1265999972820282,0.04500000098543482,0.29699999716572056,-0.29999999767609
-0.040768466889858246,0.12218090146780014,9.93010425567627,-0.4461999833583832,0.14419999718666077,0.11679999530315399,0.5110000157851222,0.9719999519162833,0.5549999876966385
-0.0481138750910759,0.12072522938251495,9.919445037841797,-0.4529999792575836,0.14270000159740448,0.10679999738931656,0.2800000031671026,-0.606999978756091,0.05600000063342052
-0.046342168003320694,0.1322365403175354,9.924367904663086,-0.444599986076355,0.1517999917268753,0.11669999361038208,-0.2549999900205486,-0.5209999996994026,-0.4190000090272685
-0.042501870542764664,0.11915463209152222,9.929472923278809,-0.44599997997283936,0.14259999990463257,0.11669999361038208,-0.01700000066872456,0.1390000058601659,0.4669999905127529
-0.059471968561410904,0.12422076612710953,9.929759979248047,-0.4651999771595001,0.14270000159740448,0.11669999361038208,0.2699999925723957,-0.03100000082707969,-0.012000000373951061
-0.04794149473309517,0.12745772302150726,9.9342041015625,-0.4554999768733978,0.1517999917268753,0.1264999955892563,0.1749999986443858,-0.6729999899842184,-0.20899999998183494
-0.0547410286962986,0.11636777967214584,9.914848327636719,-0.45749998092651367,0.14139999449253082,0.10700000077486038,0.3750000104353257,1.0849999889271496,0.021000000237532696
-0.05371630936861038,0.11855129152536392,9.925498008728027,-0.45489999651908875,0.1404999941587448,0.11669999361038208,-0.42500001004800736,-1.1740000218550601,-0.029999998433587676
-0.06246950849890709,0.12083057314157486,9.922242164611816,-0.46789997816085815,0.14169999957084656,0.11679999530315399,0.29500000571894974,1.0170000129326777,0.03699999851276524
-0.06499778479337692,0.11474929749965668,9.928898811340332,-0.4650999903678894,0.13099999725818634,0.11669999361038208,-0.2839999860606442,-0.7810000083575178,-0.26699999206202624
-0.04284663498401642,0.12348334491252899,9.920116424560547,-0.44759997725486755,0.14159999787807465,0.10700000077486038,-0.04900000055424296,-0.5600000063342052,0.2929999875917525
-0.04405330866575241,0.1252167522907257,9.928285598754883,-0.44929999113082886,0.15160000324249268,0.1168999969959259,0.3439999962680328,1.0100000295287666,-0.015999999942759198
-0.04296155646443367,0.11133037507534027,9.932757377624512,-0.44689998030662537,0.13109999895095825,0.1265999972820282,-0.26000000865811523,-0.24399999704266945,-0.14600000260429016
-0.050153736025094986,0.12470917403697968,9.929108619689941,-0.45739999413490295,0.15139999985694885,0.11679999530315399,-0.07300000130214508,-0.6480000035180908,-0.08299999855663877
-0.0450301431119442,0.12281297147274017,9.934212684631348,-0.44929999113082886,0.14180000126361847,0.1266999989748001,-0.23099998593759313,0.16599999711327754,-0.19499999315337319
-0.03907337039709091,0.1290091723203659,9.926217079162598,-0.4487999975681305,0.15219999849796295,0.1168999969959259,0.10999999647985702,1.090000007564716,0.14300000209392072
-0.05633077770471573,0.12082099169492722,9.917491912841797,-0.4551999866962433,0.142099991440773,0.10689999908208847,0.07199999890865307,0.8350000175441675,0.17100000241063099
-0.061310719698667526,0.12718956172466278,9.920825004577637,-0.44339999556541443,0.13210000097751617,0.09699999541044235,-0.04600000004387353,1.2720000029532261,0.21800000151294321
-0.061310719698667526,0.12718956172466278,9.920825004577637,-0.4596000015735626,0.15049999952316284,0.10669999569654465,-0.04600000004387353,1.2720000029532261,0.21800000151294321
-0.03952348232269287,0.1357799619436264,9.93077564239502,-0.4364999830722809,0.16040000319480896,0.11629999428987503,0.3399999866940647,0.12400000330831876,0.16500000138989213
-0.050297390669584274,0.13157574832439423,9.931924819946289,-0.44589999318122864,0.14970000088214874,0.12610000371932983,-0.11699999322398127,0.3540000068627397,0.25400000763737635
-0.04906198009848595,0.13952450454235077,9.9197998046875,-0.4350000023841858,0.1500999927520752,0.12610000371932983,0.4280000105583768,0.0429999995335041,0.07999999804626934
-0.05476018041372299,0.11984416097402573,9.927854537963867,-0.44290000200271606,0.1386999934911728,0.11620000004768372,0.03100000082707969,-0.30100000673968863,0.0009999999964224499
-0.049703627824783325,0.12707464396953583,9.935908317565918,-0.44369998574256897,0.14839999377727509,0.12600000202655792,-0.24500000610626807,-0.09999999922536333,-0.05200000106461238
-0.04139095917344093,0.10874464362859726,9.9361572265625,-0.4341000020503998,0.12950000166893005,0.12600000202655792,0.15399999507179982,0.6840000096425239,0.1070000026395942
-0.033537980169057846,0.1260882467031479,9.932451248168945,-0.4220999777317047,0.1485999971628189,0.125900000333786,0.07399999702553048,0.4510000055777336,0.04900000055424296
-0.045461103320121765,0.12287043035030365,9.929807662963867,-0.4307999908924103,0.13859999179840088,0.1160999983549118,0.012000000373951061,-0.3089999992071983,-0.04500000098543482
-0.05710649862885475,0.133902907371521,9.915634155273438,-0.4413999915122986,0.14829999208450317,0.1062999963760376,0.03599999945432653,-0.43999998591942807,-0.0429999995335041
-0.05978800728917122,0.12967953085899353,9.92656135559082,-0.45239999890327454,0.14819999039173126,0.11620000004768372,0.2839999860606442,-0.29699999716572056,0.009999999755783667
-0.03160346299409866,0.13261005282402039,9.942219734191895,-0.423799991607666,0.14739999175071716,0.13580000400543213,0.019999999511567335,0.3579999897562813,-0.1729999938574018
-0.05097734183073044,0.13217909634113312,9.918066024780273,-0.4421999752521515,0.14729999005794525,0.1062999963760376,0.014999999216793838,0.4390000035362559,0.024000000747902123
-0.05466441437602043,0.12616485357284546,9.9309663772583,-0.44110000133514404,0.14729999005794525,0.1160999983549118,-0.20200000323771067,-0.04900000055424296,-0.14499999354069154
-0.038000769913196564,0.11254663020372391,9.937095642089844,-0.42159998416900635,0.1281999945640564,0.125900000333786,0.1830000044521087,-0.4709999734062945,-0.004999999877891834
-0.04682100564241409,0.12682566046714783,9.922558784484863,-0.4325999915599823,0.14729999005794525,0.11620000004768372,0.19999999845072666,0.3190000098019052,-0.17100000241063099
-0.05954858288168907,0.11882901936769485,9.930440902709961,-0.4512999951839447,0.13689999282360077,0.1160999983549118,0.04200000047506539,0.07300000130214508,0.0329999989439571
-0.05223190411925316,0.1324855536222458,9.921313285827637,-0.44099998474121094,0.14639998972415924,0.1062999963760376,-0.038000000906257256,0.031999999885518396,-0.038000000906257256
-0.03398808836936951,0.12349291890859604,9.920833587646484,-0.42100000381469727,0.13660000264644623,0.1062999963760376,0.10900000075647161,-0.15399999507179982,0.046999999102312236
-0.050555963069200516,0.13217909634113312,9.941289901733398,-0.4406999945640564,0.1460999995470047,0.13570000231266022,-0.36099999026665075,0.21200000049220435,0.03100000082707969
-0.048755522817373276,0.11725842207670212,9.924646377563477,-0.4400999844074249,0.1371999979019165,0.1160999983549118,0.4190000090272685,0.5849999928003328,0.11299999699022645
-0.052097827196121216,0.1262989342212677,9.936607360839844,-0.438400000333786,0.14589999616146088,0.1257999986410141,0.10499999785261017,-0.4969999956164472,-0.05300000012305109
-0.04423527047038078,0.1234641969203949,9.920211791992188,-0.4300999939441681,0.13570000231266022,0.10619999468326569,0.07999999804626934,0.4229999919208101,-0.05799999875029794
-0.04069185256958008,0.13073298335075378,9.93250846862793,-0.42899999022483826,0.1453000009059906,0.1257999986410141,0.12799999954207358,0.27200001069959295,0.22199999774669807
-0.04180276021361351,0.12320561707019806,9.924713134765625,-0.43799999356269836,0.14489999413490295,0.10619999468326569,-0.3789999933288673,-0.06700000028140622,-0.004999999877891834
-0.04180276021361351,0.12320561707019806,9.924713134765625,-0.4271000027656555,0.13509999215602875,0.11589999496936798,-0.3789999933288673,-0.06700000028140622,-0.004999999877891834
-0.04572925344109535,0.12476664036512375,9.92149543762207,-0.42719998955726624,0.14589999616146088,0.10610000044107437,0.1939999974299878,0.3019999891228608,0.0269999995907449
-0.03805823251605034,0.14069287478923798,9.910893440246582,-0.4359999895095825,0.1354999989271164,0.11589999496936798,0.05999999686717535,0.1419999930303221,-0.0749999994190225
-0.036669593304395676,0.12159671634435654,9.938484191894531,-0.41519999504089355,0.13539999723434448,0.1256999969482422,-0.07699999753589991,-0.3600000078834786,0.1079999983629796
-0.044800300151109695,0.11922166496515274,9.935505867004395,-0.4258999824523926,0.1354999989271164,0.1256999969482422,-0.15500000413539844,0.5799999741627662,0.05799999875029794
-0.05321831628680229,0.12289915978908539,9.918967247009277,-0.4339999854564667,0.13589999079704285,0.10599999874830246,0.11099999887334903,-0.16999999334703236,0.19900000272734125
-0.04571009799838066,0.11716265231370926,9.929271697998047,-0.424699991941452,0.1356000006198883,0.11580000072717667,0.05999999686717535,-0.25299999857377775,-0.1180000022875799
-0.054702721536159515,0.1182544082403183,9.935908317565918,-0.4350000023841858,0.13539999723434448,0.1256999969482422,-0.2379999960219306,-0.44800000506736415,0.08100000043976135
-0.04307647794485092,0.12705549597740173,9.92192554473877,-0.4262999892234802,0.14579999446868896,0.11589999496936798,-0.019999999511567335,-0.15699999558216926,-0.09099999769425504
-0.05422388017177582,0.11833102256059647,9.923142433166504,-0.43619999289512634,0.13589999079704285,0.11589999496936798,-0.11299999699022645,-0.3409999957576634,0.0659999978879142
-0.048209644854068756,0.1256093978881836,9.919693946838379,-0.43709999322891235,0.1459999978542328,0.10610000044107437,-0.128999995265459,0.17400000292100043,-0.128999995265459
-0.05233725160360336,0.10913728922605515,9.908661842346191,-0.43639999628067017,0.12680000066757202,0.09629999846220016,0.13000000432905762,0.38400001196643396,-0.09899999683187131
-0.07016926258802414,0.10711658746004105,9.919465065002441,-0.45499998331069946,0.12639999389648438,0.10610000044107437,-0.03599999945432653,-0.1070000026395942,-0.0659999978879142
-0.032024841755628586,0.12423034012317657,9.930851936340332,-0.4156999886035919,0.13619999587535858,0.11589999496936798,0.19099999691961836,-0.0030000000934877653,-0.004999999877891834
-0.033710360527038574,0.11917378008365631,9.928380966186523,-0.4153999984264374,0.1354999989271164,0.11589999496936798,0.07199999890865307,-0.057000003026912535,0.07900000232288394
-0.042951975017786026,0.12518802285194397,9.928428649902344,-0.42499998211860657,0.14499999582767487,0.11580000072717667,0.12700000381868817,-0.03999999902313467,-0.02800000031671026
-0.052049946039915085,0.11784260720014572,9.923544883728027,-0.43449997901916504,0.1347000002861023,0.11580000072717667,0.1070000026395942,0.035000000395887826,0.043999998591942806
-0.03481169044971466,0.11314039677381516,9.914341926574707,-0.41439998149871826,0.12449999898672104,0.10599999874830246,-0.12700000381868817,0.0659999978879142,-0.031999999885518396
-0.05680961534380913,0.1192120909690857,9.924521446228027,-0.4333999752998352,0.13449999690055847,0.11580000072717667,0.08499999667351618,0.2499999980634083,0.07900000232288394
-0.04305732250213623,0.11792880296707153,9.934002876281738,-0.4227999746799469,0.13429999351501465,0.12559999525547028,0.1070000026395942,-0.6650000241971352,-0.16500000138989213
-0.051053959876298904,0.13103944063186646,9.923822402954102,-0.4342999756336212,0.1437000036239624,0.11580000072717667,-0.4840000111917973,-0.4759999920438612,0.09000000197086964
-0.03907337039709091,0.1210891455411911,9.928112983703613,-0.4258999824523926,0.13539999723434448,0.11589999496936798,-0.009999999755783667,-0.3980000054546825,-0.1729999938574018
-0.045796290040016174,0.11620496958494186,9.923975944519043,-0.42669999599456787,0.13529999554157257,0.11589999496936798,0.5270000007201415,0.5270000007201415,0.13799999679656727
-0.04163995757699013,0.12197021394968033,9.919771194458008,-0.4350000023841858,0.15349999070167542,0.1256999969482422,0.10199999734224074,-0.07199999890865307,-0.07900000232288394
-0.03982993960380554,0.11178048700094223,9.918909072875977,-0.42309999465942383,0.12359999865293503,0.10599999874830246,0.1749999986443858,-0.3029999981864594,-0.02600000053230619
-0.05360138788819313,0.1306755244731903,9.929137229919434,-0.42309999465942383,0.12359999865293503,0.10599999874830246,0.11699999322398127,0.11599999750059588,0.06299999737754478
-0.034112587571144104,0.11250832676887512,9.93126392364502,-0.41349998116493225,0.1225999966263771,0.12559999525547028,0.15399999507179982,0.2379999960219306,-0.009999999755783667
-0.03938940912485123,0.11088027060031891,9.921092987060547,-0.42249998450279236,0.12219999730587006,0.10589999705553055,0.021999999295971403,0.11599999750059588,0.0039999999856897995
-0.053946152329444885,0.12340673059225082,9.912847518920898,-0.43149998784065247,0.13179999589920044,0.10589999705553055,-0.007999999971379599,0.9359999457918502,0.049999999612681666
-0.057240575551986694,0.11751700192689896,9.947035789489746,-0.42879998683929443,0.13169999420642853,0.13519999384880066,0.046999999102312236,-0.33600000380052314,-0.024000000747902123
-0.04911944270133972,0.12155841290950775,9.938092231750488,-0.42969998717308044,0.1314999908208847,0.12539999186992645,0.19000000119623298,0.536999984634422,0.19600000221697184
-0.0438426211476326,0.13098198175430298,9.918622016906738,-0.41839998960494995,0.14079999923706055,0.10579999536275864,-0.043999998591942806,-0.1800000039417393,-0.10499999785261017
-0.043612778186798096,0.11544840037822723,9.921197891235352,-0.41849997639656067,0.13099999725818634,0.10579999536275864,0.10400000212922476,0.44500000455699473,0.03999999902313467
-0.04729027301073074,0.1231098473072052,9.923784255981445,-0.4170999825000763,0.1305999904870987,0.11549999564886093,0.1620000008795227,0.5679999721212884,0.09399999820462447
-0.04924394190311432,0.12531252205371857,9.92917537689209,-0.4251999855041504,0.13989999890327454,0.11539999395608902,0.004999999877891834,-0.4889999764685111,0.04500000098543482
-0.05251920595765114,0.12211386114358902,9.931885719299316,-0.42659997940063477,0.13009999692440033,0.12529999017715454,0.02899999937514897,0.1830000044521087,0.05200000106461238
-0.04969405010342598,0.11287224292755127,9.930631637573242,-0.42559999227523804,0.1200999990105629,0.11549999564886093,0.20599999947146552,0.3789999933288673,-0.12599999475508955
-0.05160941183567047,0.11813949048519135,9.913115501403809,-0.4244000017642975,0.12919999659061432,0.10559999942779541,0.2770000026567332,0.014999999216793838,0.07799999992939192
-0.04978024214506149,0.12614570558071136,9.938178062438965,-0.42419999837875366,0.13819999992847443,0.12520000338554382,-0.15599999985878385,-0.3989999878378547,-0.007999999971379599
-0.03993528336286545,0.12416329979896545,9.924694061279297,-0.4153999984264374,0.12879998981952667,0.11539999395608902,0.2699999925723957,-0.3510000063523703,0.019000000453128628
-0.051006071269512177,0.11518025398254395,9.920211791992188,-0.4260999858379364,0.12789998948574066,0.10569999366998672,-0.021999999295971403,-0.5179999991890332,-0.10600000024610218
-0.036056678742170334,0.13392207026481628,9.92459774017334,-0.4075999855995178,0.13759998977184296,0.11549999564886093,-0.2050000037480801,-0.21100000476881897,0.009999999755783667
-0.04683058708906174,0.10989385843276978,9.919742584228516,-0.4177999794483185,0.1184999942779541,0.10569999366998672,-0.021000000237532696,-0.36199999933024934,0.017999999727163266
-0.048353299498558044,0.12391430884599686,9.915423393249512,-0.4283999800682068,0.1282999962568283,0.10579999536275864,-0.2680000011256249,-0.24299998797907083,-0.09099999769425504
-0.05291185900568962,0.12447933107614517,9.934375762939453,-0.42890000343322754,0.12889999151229858,0.12539999186992645,0.2929999875917525,0.16599999711327754,0
-0.04805641621351242,0.11805330216884613,9.932451248168945,-0.42819997668266296,0.12799999117851257,0.12539999186992645,0.46199997187518627,0.057000003026912535,-0.05099999867112037
-0.05652231350541115,0.1315087080001831,9.938886642456055,-0.44749999046325684,0.13660000264644623,0.09589999914169312,0.06099999926066736,0.16800000190026157,-0.049999999612681666
-0.052500054240226746,0.11466310918331146,9.942373275756836,-0.4258999824523926,0.13619999587535858,0.12529999017715454,0.2150000010025738,-0.2920000052085803,-0.1180000022875799
-0.05075707659125328,0.12380895763635635,9.92690658569336,-0.42499998211860657,0.11629999428987503,0.13499999046325684,0.29899998861249133,0.3499999972887716,0.038000000906257256
-0.04851610213518143,0.1209838017821312,9.924148559570312,-0.42559999227523804,0.12539999186992645,0.11549999564886093,0.2770000026567332,0.09000000197086964,-0.0030000000934877653
-0.06163632869720459,0.1269884556531906,9.918057441711426,-0.43369999527931213,0.13349999487400055,0.10559999942779541,-0.1729999938574018,-0.45700000659847245,0.014999999216793838
-0.04403415694832802,0.12756305932998657,9.917214393615723,-0.41509997844696045,0.1339000016450882,0.10559999942779541,0.5380000203784471,-0.03999999902313467,0.128999995265459
-0.058715399354696274,0.11228806525468826,9.919598579406738,-0.43469998240470886,0.11270000040531158,0.10559999942779541,-0.0269999995907449,0.10299999973573276,-0.03999999902313467
-0.033968932926654816,0.12556152045726776,9.926331520080566,-0.4043999910354614,0.13220000267028809,0.11539999395608902,0.21299999621558977,0.7380000188291737,0.19699999794035722
-0.06500735878944397,0.11287224292755127,9.931694030761719,-0.43140000104904175,0.11189999431371689,0.1251000016927719,-0.0429999995335041,0.0269999995907449,-0.023000000021936765
-0.04691677540540695,0.12351207435131073,9.927902221679688,-0.41119998693466187,0.12159999459981918,0.1152999997138977,-0.08700000146050021,-0.15200000362502902,-0.017999999727163266
-0.039159562438726425,0.11245086789131165,9.938570022583008,-0.41110000014305115,0.11189999431371689,0.1251000016927719,-0.024000000747902123,0.5069999795307276,0.038000000906257256
-0.05906974524259567,0.11741165071725845,9.938101768493652,-0.429099977016449,0.1216999962925911,0.125,0.05499999823992851,-0.37100000086135765,-0.05600000063342052
-0.05726930499076843,0.11985373497009277,9.924674987792969,-0.42010000348091125,0.12150000035762787,0.1151999980211258,-0.10900000075647161,-0.26300000916848465,-0.19499999315337319
-0.0431339368224144,0.12924857437610626,9.916275024414062,-0.4108999967575073,0.1314999908208847,0.1054999977350235,0.3220000103122746,0.18799999640924894,-0.21899999723632863
-0.05504748597741127,0.12724703550338745,9.924128532409668,-0.41999998688697815,0.1305999904870987,0.1151999980211258,-0.05999999686717535,0.29800000622931916,-0.006000000186975531
-0.04850652813911438,0.12143390625715256,9.937152862548828,-0.4189999997615814,0.120899997651577,0.125,-0.048000001495804245,0.475000009660689,-0.043999998591942806
-0.041745301336050034,0.14124831557273865,9.928008079528809,-0.4075999855995178,0.1404999941587448,0.11509999632835388,0.004999999877891834,-0.09200000008774706,0
-0.048496946692466736,0.11708603799343109,9.916438102722168,-0.4170999825000763,0.12069999426603317,0.10529999434947968,0.08499999667351618,-0.13000000432905762,0.17899999487814064
-0.0456143319606781,0.12451764196157455,9.911784172058105,-0.407399982213974,0.13019999861717224,0.09549999982118607,0.07699999753589991,0.04600000004387353,-0.06200000165415938
-0.054511185735464096,0.11727757006883621,9.941520690917969,-0.41659998893737793,0.11999999731779099,0.1347000002861023,0.2360000045751598,0.17400000292100043,0.10999999647985702
-0.045365333557128906,0.10979808866977692,9.936989784240723,-0.40609997510910034,0.10949999839067459,0.12489999830722809,0.20800000425844953,0.19600000221697184,-0.0749999994190225
-0.044867340475320816,0.12022723257541656,9.927567481994629,-0.40529999136924744,0.11859999597072601,0.11499999463558197,0.09600000299160849,0.4669999905127529,-0.046999999102312236
-0.06260358542203903,0.11971966922283173,9.92869758605957,-0.42339998483657837,0.11819999665021896,0.11499999463558197,0.13000000432905762,-0.18900000547284757,0.031999999885518396
-0.06151182949542999,0.11343728005886078,9.925527572631836,-0.423799991607666,0.1078999936580658,0.11499999463558197,-0.09600000299160849,-0.3399999866940647,-0.0329999989439571
-0.05387911573052406,0.1279844492673874,9.920470237731934,-0.41449999809265137,0.12759999930858612,0.10520000010728836,0.16800000190026157,-0.22299999347008345,0.009999999755783667
-0.058092910796403885,0.12018892914056778,9.911870002746582,-0.424699991941452,0.11719999462366104,0.09539999812841415,0.1070000026395942,0.3019999891228608,0.012000000373951061
-0.0351947620511055,0.1235695406794548,9.92138957977295,-0.4138000011444092,0.11679999530315399,0.11499999463558197,-0.19200000598321698,-0.1610000051561373,0.0269999995907449
-0.04009808972477913,0.1311543732881546,9.923870086669922,-0.3937000036239624,0.11639999598264694,0.10520000010728836,0.3819999938392367,0.13400000056281244,-0.057000003026912535
-0.06252697110176086,0.12084972113370895,9.921590805053711,-0.4226999878883362,0.11580000072717667,0.11499999463558197,0.10100000161885533,-0.14799999405106096,0.08700000146050021
-0.05232767015695572,0.1105450838804245,9.922262191772461,-0.41269999742507935,0.10559999942779541,0.11490000039339066,0.2589999995945166,0.2140000052791884,-0.041000001416626686
-0.037167586386203766,0.13785813748836517,9.931675910949707,-0.39229997992515564,0.13419999182224274,0.12469999492168427,-0.09500000059811649,0.0749999994190225,0.07399999702553048
-0.05175306275486946,0.12528377771377563,9.92003059387207,-0.41099998354911804,0.12439999729394913,0.10509999841451645,-0.07699999753589991,-0.09800000110848592,0.08899999957737763
-0.043660663068294525,0.12313857674598694,9.926743507385254,-0.4008999764919281,0.11469999700784683,0.11490000039339066,0.06700000028140622,0.19499999315337319,0.05200000106461238
-0.05303635820746422,0.11382035166025162,9.927643775939941,-0.40959998965263367,0.10459999740123749,0.11479999870061874,0.07900000232288394,-0.0659999978879142,-0.07300000130214508
-0.03393062576651573,0.12149137258529663,9.922654151916504,-0.3895999789237976,0.11400000005960464,0.11479999870061874,0.2140000052791884,-0.1319999957758284,-0.07199999890865307
-0.04802768677473068,0.11872366815805435,9.925268173217773,-0.4092999994754791,0.11329999566078186,0.11479999870061874,-0.14099999730693671,0.23300000406479038,0.15800000464576788
-0.048382025212049484,0.14710932970046997,9.923688888549805,-0.40829998254776,0.14299999177455902,0.11479999870061874,-0.13300000483942703,0.18799999640924894,-0.02800000031671026
-0.049224790185689926,0.12072522938251495,9.922367095947266,-0.4074999988079071,0.11379999667406082,0.11469999700784683,0.23000000355442093,0.0659999978879142,0.015999999942759198
-0.052241481840610504,0.12462298572063446,9.913719177246094,-0.40699997544288635,0.12299999594688416,0.10489999502897263,0.07999999804626934,-0.017999999727163266,0.043999998591942806
-0.051551952958106995,0.12765882909297943,9.928610801696777,-0.40639999508857727,0.1225999966263771,0.11469999700784683,0.20200000323771067,0.10199999734224074,-0.01700000066872456
-0.05176264047622681,0.12822386622428894,9.930143356323242,-0.40549999475479126,0.121799997985363,0.11469999700784683,0.1199999937343507,0.012000000373951061,0.006000000186975531
-0.048305410891771317,0.11964304745197296,9.938436508178711,-0.4048999845981598,0.11149999499320984,0.12449999898672104,0.1319999957758284,-0.1319999957758284,0.06099999926066736
-0.045221682637929916,0.1403672695159912,9.916380882263184,-0.39479997754096985,0.13050000369548798,0.10480000078678131,-0.03100000082707969,-0.2810000122307012,-0.0009999999964224499
-0.06057330220937729,0.12019850313663483,9.916975021362305,-0.4147999882698059,0.11079999804496765,0.10480000078678131,0.36399999077702017,0.257999990530918,0.024000000747902123
-0.04469495639204979,0.11591766774654388,9.925374031066895,-0.39409998059272766,0.10969999432563782,0.11459999531507492,-0.1830000044521087,0.3409999957576634,0.10999999647985702
-0.043402086943387985,0.12084972113370895,9.936521530151367,-0.3928999900817871,0.11009999364614487,0.12439999729394913,0.01700000066872456,0.10600000024610218,-0.10499999785261017
-0.05400361120700836,0.12279381603002548,9.934348106384277,-0.4017999768257141,0.10989999771118164,0.12429999560117722,0.16599999711327754,0.0030000000934877653,0.09099999769425504
-0.03667916730046272,0.12752476334571838,9.925191879272461,-0.4010999798774719,0.12879998981952667,0.11449999362230301,0.15200000362502902,-0.06800000267489824,0.05200000106461238
-0.03667916730046272,0.12752476334571838,9.925191879272461,-0.38109999895095825,0.11840000003576279,0.11449999362230301,0.004999999877891834,0.38100001145606455,-0.10199999734224074
-0.0542621873319149,0.12260227650403976,9.930622100830078,-0.39969998598098755,0.10830000042915344,0.11449999362230301,-0.021000000237532696,-0.2780000117203318,0.043999998591942806
-0.06724833697080612,0.12876015901565552,9.924492835998535,-0.4196999967098236,0.11800000071525574,0.11449999362230301,0.3240000017590454,-0.15200000362502902,-0.024000000747902123
-0.0554497092962265,0.11773726344108582,9.93246078491211,-0.4196999967098236,0.11800000071525574,0.11449999362230301,0.06299999737754478,-0.46999999102312234,-0.0859999990670082
-0.038115691393613815,0.12228624522686005,9.915288925170898,-0.3813999891281128,0.10669999569654465,0.1046999990940094,0.33000000277978425,-0.12100000279794933,0.08200000283325337
-0.03982993960380554,0.12884636223316193,9.922816276550293,-0.3911999762058258,0.11549999564886093,0.11449999362230301,0.14699999832767557,0.10400000212922476,-0.11299999699022645
-0.054635681211948395,0.11892478913068771,9.923535346984863,-0.3999999761581421,0.10509999841451645,0.11449999362230301,0.05300000012305109,-0.28799999563461226,-0.057000003026912535
-0.04228160157799721,0.1248815581202507,9.92868709564209,-0.39069998264312744,0.11459999531507492,0.11449999362230301,0.019999999511567335,-0.3559999983095105,0.014999999216793838
-0.04225287213921547,0.10990343242883682,9.924722671508789,-0.39139997959136963,0.09470000118017197,0.11449999362230301,0.22700000304405152,-0.08700000146050021,0.09399999820462447
-0.057336341589689255,0.11997823417186737,9.919809341430664,-0.4009999930858612,0.10379999876022339,0.1046999990940094,-0.024999999806340833,0.05300000012305109,-0.0009999999964224499
-0.05251920595765114,0.13258130848407745,9.919167518615723,-0.4000999927520752,0.11349999904632568,0.1046999990940094,0.010999999647985701,-0.019000000453128628,0.22400000253368207
-0.04343082010746002,0.12849201261997223,9.909610748291016,-0.3895999789237976,0.11329999566078186,0.09479999542236328,-0.3559999983095105,-0.09300000248123906,-0.128999995265459
-0.05405149981379509,0.11104307323694229,9.919119834899902,-0.3992999792098999,0.09439999610185623,0.10459999740123749,-0.11200000126684104,-0.25599999908414717,0.23900000508552924
-0.05151364579796791,0.12197978794574738,9.920681953430176,-0.39969998598098755,0.10439999401569366,0.10459999740123749,0.17899999487814064,0.2050000037480801,0.021000000237532696
-0.054894257336854935,0.12562856078147888,9.914916038513184,-0.39879998564720154,0.11369999498128891,0.10459999740123749,0,0.07399999702553048,0.06299999737754478
-0.035817258059978485,0.12689268589019775,9.917875289916992,-0.3782999813556671,0.11339999735355377,0.10459999740123749,0.2770000026567332,-0.37299999230812847,0.11299999699022645
-0.04099830985069275,0.1231098473072052,9.931253433227539,-0.3886999785900116,0.10269999504089355,0.1241999939084053,0.14399999781730613,0.024999999806340833,-0.057000003026912535
-0.05490383133292198,0.1280514895915985,9.938531875610352,-0.3977999985218048,0.11189999431371689,0.1241999939084053,0.15900000036915327,0.03899999996469596,0.07600000181251451
-0.05246174708008766,0.1266532689332962,9.926484107971191,-0.3968999981880188,0.11129999905824661,0.1143999993801117,0.043999998591942806,0.24800000661663751,-0.06700000028140622
-0.05588066950440407,0.11903012543916702,9.913661003112793,-0.3959999978542328,0.10119999945163727,0.10449999570846558,-0.11699999322398127,0.05600000063342052,-0.013000000266153095
-0.058140791952610016,0.12441229820251465,9.937077522277832,-0.4048999845981598,0.10130000114440918,0.12409999966621399,-0.029999998433587676,-0.149999998838045,-0.14799999405106096
-0.04935886338353157,0.12284170091152191,9.908490180969238,-0.39469999074935913,0.10119999945163727,0.09470000118017197,0.0659999978879142,-0.057000003026912535,0.2140000052791884
-0.052787356078624725,0.14294342696666718,9.921609878540039,-0.3845999836921692,0.10080000013113022,0.10449999570846558,-0.014999999216793838,-0.09800000110848592,-0.0429999995335041
-0.03770388662815094,0.11821610480546951,9.932422637939453,-0.3944999873638153,0.12049999833106995,0.11429999768733978,-0.014999999216793838,-0.09800000110848592,-0.0429999995335041
-0.057221420109272,0.12508267164230347,9.921935081481934,-0.39329999685287476,0.10979999601840973,0.11419999599456787,0.14600000260429016,0.09200000008774706,-0.0019999999928448997
-0.04128561541438103,0.12218090146780014,9.928265571594238,-0.3824999928474426,0.09939999878406525,0.11419999599456787,0.45400000608810304,-0.014999999216793838,0.0019999999928448997
-0.04410119727253914,0.12041877210140228,9.917444229125977,-0.3822000026702881,0.09799999743700027,0.10439999401569366,-0.26699999206202624,-0.09099999769425504,-0.06099999926066736
-0.050632577389478683,0.12359827011823654,9.928179740905762,-0.3822000026702881,0.09799999743700027,0.10439999401569366,0.29699999716572056,0.04500000098543482,0.013000000266153095
-0.05184883251786232,0.12242989987134933,9.898118019104004,-0.3917999863624573,0.09860000014305115,0.11419999599456787,0.24299998797907083,-0.10299999973573276,-0.004999999877891834
-0.0489279069006443,0.11477802693843842,9.905502319335938,-0.3910999894142151,0.08709999918937683,0.09449999779462814,0.04600000004387353,0.023000000021936765,-0.10499999785261017
-0.06251739710569382,0.10879252851009369,9.935774803161621,-0.4001999795436859,0.0867999941110611,0.12389999628067017,-0.041000001416626686,0.1390000058601659,0.03400000133744912
-0.05202121287584305,0.12150094658136368,9.913039207458496,-0.38920000195503235,0.09649999439716339,0.10429999977350235,-0.048000001495804245,0.0009999999964224499,-0.10900000075647161
-0.04472368583083153,0.1250922530889511,9.925077438354492,-0.37869998812675476,0.10619999468326569,0.11409999430179596,0.0859999990670082,0.01400000015835513,0.07699999753589991
-0.04019385948777199,0.12397176027297974,9.937814712524414,-0.3779999911785126,0.09609999507665634,0.12379999458789825,0.048000001495804245,0.07799999992939192,-0.007000000079177565
-0.03919786959886551,0.11964304745197296,9.91553783416748,-0.37700000405311584,0.09569999575614929,0.10419999808073044,0.04900000055424296,-0.1729999938574018,-0.0030000000934877653
-0.04980897158384323,0.12555193901062012,9.919493675231934,-0.3865000009536743,0.10520000010728836,0.10419999808073044,-0.2150000010025738,0.25299999857377775,-0.02600000053230619
-0.045911211520433426,0.12657664716243744,9.919761657714844,-0.37549999356269836,0.10559999942779541,0.10409999638795853,0.606999978756091,-0.07399999702553048,0.05300000012305109
-0.039140406996011734,0.12880805134773254,9.913987159729004,-0.37529999017715454,0.10349999368190765,0.10409999638795853,-0.01700000066872456,0.25299999857377775,0.09399999820462447
-0.06875190138816833,0.12414415180683136,9.926916122436523,-0.40359997749328613,0.09359999746084213,0.11389999836683273,0.12499999903170415,0.14900000311465958,-0.1319999957758284
-0.05437710881233215,0.11427046358585358,9.920891761779785,-0.3831999897956848,0.08320000022649765,0.10409999638795853,-0.1319999957758284,-0.029999998433587676,0.07699999753589991
-0.04545152559876442,0.11973881721496582,9.935017585754395,-0.37279999256134033,0.09319999814033508,0.12370000034570694,0.12199999852133472,0.11500000177721047,-0.10999999647985702
-0.04276043921709061,0.12499648332595825,9.90908432006836,-0.3716000020503998,0.10239999741315842,0.094200000166893,-0.03699999851276524,-0.1930000017066024,-0.019999999511567335
-0.048065993934869766,0.126404270529747,9.919991493225098,-0.38119998574256897,0.1022999957203865,0.10399999469518661,-0.06899999839828364,0.05799999875029794,0.038000000906257256
-0.054089806973934174,0.13533943891525269,9.927499771118164,-0.38029998540878296,0.11209999769926071,0.11379999667406082,0.06500000216452881,0.08899999957737763,-0.024000000747902123
-0.05085284262895584,0.13899777829647064,9.911544799804688,-0.3791999816894531,0.11159999668598175,0.0940999984741211,0.25100000712700693,0.1400000015835513,0.04600000004387353
-0.04498226195573807,0.11818736791610718,9.910223960876465,-0.3880999982357025,0.08129999786615372,0.11369999498128891,-0.05600000063342052,0.07799999992939192,-0.21100000476881897
-0.0451354905962944,0.11299674212932587,9.901728630065918,-0.36739999055862427,0.09079999476671219,0.0940999984741211,-0.08700000146050021,-0.006000000186975531,0.07900000232288394
-0.044656649231910706,0.1352149397134781,9.912857055664062,-0.3666999936103821,0.08089999854564667,0.08419999480247498,-0.04200000047506539,0.017999999727163266,0.0539999991814898
-0.06114790961146355,0.11134953051805496,9.926169395446777,-0.3847000002861023,0.08079999685287476,0.1136000007390976,-0.010999999647985701,0.38300000290283537,-0.031999999885518396
-0.057049039751291275,0.12876015901565552,9.938111305236816,-0.3734000027179718,0.10029999911785126,0.1232999935746193,0.08899999957737763,0.06800000267489824,0.08400000095013078
-0.05111141875386238,0.1180054172873497,9.922194480895996,-0.3725000023841858,0.09009999781847,0.11349999904632568,0.25299999857377775,-0.09500000059811649,0.02899999937514897
-0.05139872431755066,0.11107181012630463,9.919493675231934,-0.37219998240470886,0.07919999957084656,0.10369999706745148,0.08499999667351618,0.07699999753589991,0.008999999863581633
-0.05503791198134422,0.13976392149925232,9.918363571166992,-0.37119999527931213,0.10819999873638153,0.10369999706745148,0.08100000043976135,0.04200000047506539,0.09399999820462447
-0.04231990873813629,0.1277354508638382,9.914294242858887,-0.3604999780654907,0.09799999743700027,0.10359999537467957,-0.05499999823992851,0.048000001495804245,-0.029999998433587676
-0.03552037850022316,0.12953588366508484,9.913345336914062,-0.3497999906539917,0.09789999574422836,0.10359999537467957,-0.08799999718388561,-0.04900000055424296,0.1390000058601659
-0.05357265844941139,0.13463075459003448,9.924406051635742,-0.36879998445510864,0.10779999941587448,0.11339999735355377,0.12299999424472013,0.0030000000934877653,0.07399999702553048
-0.049722783267498016,0.12764926254749298,9.924856185913086,-0.36809998750686646,0.0973999947309494,0.11339999735355377,0.2250000115972807,-0.15399999507179982,0.08400000095013078
-0.06168421357870102,0.12244904786348343,9.919809341430664,-0.37770000100135803,0.0867999941110611,0.10359999537467957,-0.007000000079177565,0.1729999938574018,0.09399999820462447
-0.04255932942032814,0.12990938127040863,9.929837226867676,-0.3568999767303467,0.09649999439716339,0.11329999566078186,0.18600000496247812,0.23000000355442093,-0.01400000015835513
-0.04962701350450516,0.12336842715740204,9.915241241455078,-0.36559998989105225,0.08590000122785568,0.10349999368190765,0.09999999922536333,0.08700000146050021,0.03699999851276524
-0.043545741587877274,0.12336842715740204,9.918832778930664,-0.3546999990940094,0.08549999445676804,0.10339999943971634,-0.0019999999928448997,-0.07199999890865307,0.05200000106461238
-0.051791369915008545,0.12427821755409241,9.921217918395996,-0.36389997601509094,0.08529999852180481,0.10339999943971634,0.08100000043976135,0.2379999960219306,-0.03599999945432653
-0.05184883251786232,0.11718180775642395,9.917041778564453,-0.3628000020980835,0.08489999920129776,0.10339999943971634,0.04600000004387353,0.014999999216793838,-0.15200000362502902
-0.04907156154513359,0.12584881484508514,9.91309642791748,-0.3619999885559082,0.09429999440908432,0.10339999943971634,0.06899999839828364,0.36199999933024934,-0.12299999424472013
-0.0700351893901825,0.12246821075677872,9.924139022827148,-0.3799999952316284,0.08410000056028366,0.11309999972581863,0.21999999295971404,0.06299999737754478,-0.05200000106461238
-0.04886086657643318,0.11912590265274048,9.930880546569824,-0.3596999943256378,0.08320000022649765,0.11309999972581863,0.20299999896109608,0.2379999960219306,0.07799999992939192
-0.04412034898996353,0.12482409924268723,9.911372184753418,-0.34860000014305115,0.09219999611377716,0.09339999407529831,0.09099999769425504,0.021000000237532696,0.038000000906257256
-0.05133168399333954,0.1368429809808731,9.92197322845459,-0.35760000348091125,0.1014999970793724,0.11299999803304672,-0.019999999511567335,-0.1390000058601659,-0.038000000906257256
-0.06385814398527145,0.13089579343795776,9.9168701171875,-0.3669999837875366,0.09160000085830688,0.10319999605417252,-0.3049999896332302,-0.28799999563461226,0.008999999863581633
-0.041314344853162766,0.12292789667844772,9.915825843811035,-0.3474999964237213,0.0811999961733818,0.10319999605417252,-0.1930000017066024,-0.006000000186975531,-0.038000000906257256
-0.05767153203487396,0.1193365827202797,9.919244766235352,-0.3474999964237213,0.0811999961733818,0.10319999605417252,0.021000000237532696,0.01700000066872456,-0.09399999820462447
-0.04767334461212158,0.1178809106349945,9.926398277282715,-0.3458999991416931,0.08139999955892563,0.11299999803304672,-0.03100000082707969,0.057000003026912535,0.08499999667351618
-0.04725196585059166,0.12423991411924362,9.909610748291016,-0.3447999954223633,0.08129999786615372,0.093299999833107,0.09500000059811649,-0.06899999839828364,-0.0269999995907449
-0.045413218438625336,0.14055879414081573,9.916534423828125,-0.3441999852657318,0.10040000081062317,0.1030999943614006,0.06399999977103679,-0.06099999926066736,0.0269999995907449
-0.06028600037097931,0.1182352602481842,9.918642044067383,-0.36309999227523804,0.0803999975323677,0.1030999943614006,0.15800000464576788,-0.05799999875029794,-0.009999999755783667
-0.053553506731987,0.11865664273500443,9.92273998260498,-0.3527999818325043,0.07979999482631683,0.11289999634027481,0.017999999727163266,0.11500000177721047,0.029999998433587676
-0.044254425913095474,0.12020807713270187,9.90694808959961,-0.3418000042438507,0.0794999971985817,0.09319999814033508,-0.19900000272734125,-0.013000000266153095,0.10900000075647161
-0.05141787603497505,0.11945150792598724,9.921581268310547,-0.3507999777793884,0.07989999651908875,0.1127999946475029,0.07999999804626934,-0.11599999750059588,-0.09300000248123906
-0.06272808462381363,0.12430695444345474,9.91775131225586,-0.36010000109672546,0.0794999971985817,0.10300000011920929,0.15800000464576788,0.20599999947146552,-0.12700000381868817
-0.03741658478975296,0.12376108020544052,9.929511070251465,-0.3294999897480011,0.07880000025033951,0.1127999946475029,0.18199999538851008,0.22100000202331266,0.01400000015835513
-0.05340985208749771,0.11452902853488922,9.916266441345215,-0.34790000319480896,0.0681999996304512,0.10289999842643738,-0.029999998433587676,0.11400000605382507,-0.05200000106461238
-0.04749138653278351,0.12176909297704697,9.923754692077637,-0.3369999825954437,0.0778999999165535,0.11270000040531158,-0.09300000248123906,-0.17400000292100043,-0.07900000232288394
-0.031670499593019485,0.13977350294589996,9.91539478302002,-0.32690000534057617,0.09749999642372131,0.10289999842643738,0.19999999845072666,0.12799999954207358,0.08700000146050021
-0.05395573005080223,0.1271129548549652,9.922798156738281,-0.3455999791622162,0.08689999580383301,0.11270000040531158,-0.20299999896109608,0.11400000605382507,-0.1719999981340164
-0.05519114062190056,0.1278216391801834,9.89636516571045,-0.34459999203681946,0.08720000088214874,0.08320000022649765,0.20999999570522035,-0.057000003026912535,0.05099999867112037
-0.04985685646533966,0.1306084841489792,9.926886558532715,-0.343999981880188,0.08639999479055405,0.11259999871253967,0.05200000106461238,0.04500000098543482,0.06899999839828364
-0.03982993960380554,0.1080646887421608,9.912961959838867,-0.33329999446868896,0.06650000065565109,0.10279999673366547,0.3499999972887716,-0.2469999975530389,0.05999999686717535
-0.053208738565444946,0.11707646399736404,9.925518035888672,-0.3431999981403351,0.07499999552965164,0.11259999871253967,0.017999999727163266,0.12799999954207358,0.20800000425844953
-0.04995262622833252,0.12790782749652863,9.916218757629395,-0.34219998121261597,0.08460000157356262,0.10279999673366547,0.1930000017066024,0.009999999755783667,0.024999999806340833
-0.033873166888952255,0.1105642318725586,9.922126770019531,-0.32179999351501465,0.06430000066757202,0.11249999701976776,-0.19499999315337319,-0.12199999852133472,-0.1529999993484144
-0.042597636580467224,0.10337205231189728,9.93500804901123,-0.33139997720718384,0.05480000004172325,0.12229999899864197,0.14699999832767557,0.02600000053230619,0.10100000161885533
-0.055392250418663025,0.1183789074420929,9.90754222869873,-0.3304999768733978,0.08370000123977661,0.10269999504089355,0.0009999999964224499,-0.02800000031671026,0.009999999755783667
-0.04305732250213623,0.13199713826179504,9.916275024414062,-0.32909998297691345,0.08320000022649765,0.10269999504089355,0.03899999996469596,0.03999999902313467,-0.004999999877891834
-0.057288460433483124,0.13897861540317535,9.904141426086426,-0.32909998297691345,0.08320000022649765,0.10269999504089355,0.12700000381868817,-0.02600000053230619,0.15200000362502902
-0.045202530920505524,0.11780429631471634,9.91141128540039,-0.33789998292922974,0.09269999712705612,0.09279999881982803,-0.08499999667351618,-0.07199999890865307,-0.09000000197086964
-0.045202530920505524,0.11780429631471634,9.91141128540039,-0.32729998230934143,0.07249999791383743,0.09279999881982803,-0.08499999667351618,-0.07199999890865307,-0.09000000197086964
-0.0454898327589035,0.11993992328643799,9.920480728149414,-0.32659998536109924,0.07249999791383743,0.10260000079870224,-0.10199999734224074,0.0749999994190225,-0.05799999875029794
-0.04024174064397812,0.12515929341316223,9.922874450683594,-0.3249000012874603,0.08179999887943268,0.11229999363422394,-0.021999999295971403,-0.035000000395887826,0.09200000008774706
-0.04808514937758446,0.12495817244052887,9.913844108581543,-0.33399999141693115,0.08169999718666077,0.10249999910593033,0.024000000747902123,0.07000000079177565,-0.008999999863581633
-0.04808514937758446,0.12495817244052887,9.913844108581543,-0.33399999141693115,0.08169999718666077,0.10249999910593033,0.024000000747902123,0.07000000079177565,-0.008999999863581633
-0.0423007532954216,0.12989981472492218,9.919053077697754,-0.3166999816894531,0.07979999482631683,0.1022999957203865,0.09800000110848592,-0.012000000373951061,-0.08700000146050021
-0.03667916730046272,0.12566685676574707,9.906181335449219,-0.3001999855041504,0.07779999822378159,0.09229999780654907,-0.09999999922536333,0,0
-0.05405149981379509,0.12582966685295105,9.922174453735352,-0.3141999840736389,0.07669999450445175,0.11180000007152557,0.5390000027616192,0.04900000055424296,0.0009999999964224499
-0.043900080025196075,0.12966996431350708,9.922318458557129,-0.3035999834537506,0.07499999552965164,0.11180000007152557,0.0539999991814898,0.21100000476881897,0.08499999667351618
-0.05609135702252388,0.12302365899085999,9.927739143371582,-0.31219998002052307,0.06480000168085098,0.11169999837875366,0.18400000017549412,-0.0859999990670082,0.07900000232288394
-0.038422148674726486,0.12334927171468735,9.918660163879395,-0.3018999993801117,0.06419999897480011,0.10189999639987946,0.2519999895101791,-0.06899999839828364,-0.10100000161885533
-0.037330396473407745,0.13487973809242249,9.915949821472168,-0.29159998893737793,0.0828000009059906,0.10189999639987946,0.16599999711327754,0.19000000119623298,0.14900000311465958
-0.0498855859041214,0.12223836779594421,9.910538673400879,-0.3100999891757965,0.0625,0.09209999442100525,0.30400000725005805,-0.09399999820462447,-0.06399999977103679
-0.05665638670325279,0.11252748221158981,9.923401832580566,-0.30979999899864197,0.05159999802708626,0.11169999837875366,0.12700000381868817,-0.35499998924591186,-0.031999999885518396
-0.04506845027208328,0.13074256479740143,9.917817115783691,-0.30979999899864197,0.05159999802708626,0.11169999837875366,0.2159999967259592,-0.02800000031671026,0.038000000906257256
-0.055765748023986816,0.12686395645141602,9.906957626342773,-0.30949997901916504,0.06989999860525131,0.09209999442100525,0.15800000464576788,-0.21299999621558977,0.04600000004387353
-0.04792233929038048,0.12739068269729614,9.92176342010498,-0.3093999922275543,0.06920000165700912,0.11169999837875366,0.02899999937514897,0.13799999679656727,-0.09000000197086964
-0.05097734183073044,0.13206416368484497,9.917223930358887,-0.3082999885082245,0.0689999982714653,0.10179999470710754,0.1529999993484144,0.257999990530918,0.09300000248123906
-0.06538085639476776,0.12450806796550751,9.931387901306152,-0.31679999828338623,0.06830000132322311,0.12139999866485596,0.049999999612681666,0.09899999683187131,0
-0.06423164159059525,0.11331277340650558,9.909208297729492,-0.296099990606308,0.05819999799132347,0.10179999470710754,-0.20999999570522035,0.15200000362502902,0.16599999711327754
-0.05594770610332489,0.12353122979402542,9.930353164672852,-0.30320000648498535,0.05859999731183052,0.11149999499320984,0.23399998644796255,0.1390000058601659,0.12299999424472013
-0.05594770610332489,0.12353122979402542,9.930353164672852,-0.30320000648498535,0.05859999731183052,0.11149999499320984,0.23399998644796255,0.1390000058601659,0.12299999424472013
-0.06710468232631683,0.12845370173454285,9.915461540222168,-0.32179999351501465,0.06749999523162842,0.10170000046491623,-0.06399999977103679,0.019000000453128628,-0.06299999737754478
-0.059893347322940826,0.13020627200603485,9.921150207519531,-0.3111000061035156,0.07729999721050262,0.09179999679327011,-0.07000000079177565,0.07600000181251451,0.017999999727163266
-0.059893347322940826,0.13020627200603485,9.921150207519531,-0.3100999891757965,0.06749999523162842,0.10159999877214432,0.01400000015835513,0.029999998433587676,-0.20200000323771067
-0.04008851200342178,0.12437399476766586,9.917328834533691,-0.2897000014781952,0.057499997317790985,0.10159999877214432,-0.1400000015835513,-0.08400000095013078,-0.021000000237532696
-0.0555742122232914,0.13085748255252838,9.921140670776367,-0.29899999499320984,0.05779999867081642,0.11140000075101852,0.10499999785261017,0.28600000418784144,0.07000000079177565
-0.04161122441291809,0.12978488206863403,9.913412094116211,-0.2879999876022339,0.06610000133514404,0.10159999877214432,-0.257999990530918,0.13300000483942703,0.08100000043976135
-0.05343858152627945,0.11187625676393509,9.929012298583984,-0.2879999876022339,0.06610000133514404,0.10159999877214432,0.049999999612681666,-0.1939999974299878,0.08299999855663877
-0.05225105583667755,0.11840763688087463,9.934404373168945,-0.29649999737739563,0.056599996984004974,0.12109999358654022,0.32299999269544677,0.1930000017066024,0.024999999806340833
-0.045106757432222366,0.12863565981388092,9.919474601745605,-0.2854999899864197,0.06529999524354935,0.1014999970793724,-0.014999999216793838,-0.10499999785261017,-0.08299999855663877
