Accelerometer_Gx,Accelerometer_Gy,Accelerometer_Gz,Accelerometer_X,Accelerometer_Y,Accelerometer_Z,Gyroscope_Z,Gyroscope_X,Gyroscope_Y
-0.04880340397357941,0.11289139837026596,9.95580005645752,-0.00419999985024333,0.002899999963119626,0.13779999315738678,-1.173000039471888,-1.7419999406154956,-0.8099999777171871
-0.05633077770471573,0.12324392795562744,9.94580078125,-0.008200000040233135,0.015099999494850636,0.12789998948574066,-0.8930000096243589,0.9870000078289833,-0.10999999647985702
-0.05398445948958397,0.11277647316455841,9.936846733093262,0.003399999812245369,0.006599999964237213,0.12789998948574066,-0.40299999741182274,-0.06200000165415938,-0.739999983595518
-0.04556644707918167,0.11702857911586761,9.939557075500488,-0.006300000008195639,0.0066999997943639755,0.11809999495744705,0.07199999890865307,-0.008999999863581633,-0.05600000063342052
-0.03810611367225647,0.12094549834728241,9.927107810974121,0.006799999624490738,0.013700000010430813,0.11809999495744705,0.14900000311465958,-0.05099999867112037,0.01700000066872456
-0.047759536653757095,0.1303211748600006,9.935361862182617,0.0026000000070780516,0.016899999231100082,0.11819999665021896,0.1939999974299878,0.2959999881021219,0.09399999820462447
-0.04000232368707657,0.1247762143611908,9.947400093078613,0.003000000026077032,0.015199999324977398,0.12799999117851257,0.0009999999964224499,0.1800000039417393,0.07000000079177565
-0.05396530404686928,0.11513236910104752,9.943809509277344,0.003000000026077032,0.015199999324977398,0.12799999117851257,0.23099998593759313,0.33600000380052314,0.01400000015835513
-0.041410114616155624,0.11179964244365692,9.948577880859375,0.004799999762326479,-0.006000000052154064,0.12799999117851257,-0.14699999832767557,-0.3789999933288673,-0.09600000299160849
-0.04992389306426048,0.1073368564248085,9.945005416870117,-0.006099999882280827,-0.005799999926239252,0.12799999117851257,0.17100000241063099,0.21100000476881897,0.1830000044521087
-0.053141701966524124,0.10768161714076996,9.938838958740234,-0.005499999970197678,-0.006399999838322401,0.11819999665021896,0.07900000232288394,0.4199999914104407,0.12400000330831876
-0.06020938605070114,0.11478760838508606,9.933658599853516,-0.0139999995008111,-0.0064999996684491634,0.11829999834299088,0.1419999930303221,-0.03899999996469596,-0.41300000800652964
-0.042530596256256104,0.11799583584070206,9.929491996765137,0.005499999970197678,0.00279999990016222,0.10839999467134476,0.031999999885518396,-0.8680000231582313,-0.16800000190026157
-0.05161898955702782,0.12528377771377563,9.956096649169922,-0.006199999712407589,0.01249999925494194,0.1378999948501587,0.18400000017549412,-0.4100000074961602,0.07999999804626934
-0.05103480443358421,0.11310208588838577,9.935304641723633,-0.0071000000461936,-0.007499999832361937,0.11829999834299088,-0.11299999699022645,-0.05799999875029794,0.25599999908414717
-0.043028589338064194,0.11117714643478394,9.930554389953613,0.0026000000070780516,-0.0071000000461936,0.10839999467134476,-0.05099999867112037,0.4280000105583768,0.1180000022875799
-0.04213795065879822,0.10486603528261185,9.942927360534668,0.0037999998312443495,-0.016499999910593033,0.12809999287128448,0.19900000272734125,0.42899999294154895,0.20999999570522035
-0.049751508980989456,0.12276508659124374,9.947017669677734,-0.004600000102072954,0.0026000000070780516,0.12809999287128448,0.17599999436777122,0.4229999919208101,0.15999999609253868
-0.042655099183321,0.10185891389846802,9.919829368591309,0.006199999712407589,-0.016899999231100082,0.09860000014305115,-0.017999999727163266,0.16599999711327754,0.14799999405106096
-0.04890875145792961,0.10208875685930252,9.941108703613281,-0.0026000000070780516,-0.013700000010430813,0.12799999117851257,-0.07699999753589991,-0.19499999315337319,-0.03999999902313467
-0.04263594374060631,0.11826398223638535,9.93718147277832,0.005200000014156103,0.0050999997183680534,0.11819999665021896,-0.023000000021936765,-0.5089999976579249,-0.28699998657101367
-0.052883125841617584,0.11663593351840973,9.93033504486084,-0.005699999630451202,0.005200000014156103,0.10839999467134476,-0.2159999967259592,-0.1800000039417393,-0.3579999897562813
-0.045939940959215164,0.1259254366159439,9.932527542114258,0.003499999875202775,0.01549999974668026,0.11819999665021896,0.2839999860606442,0.6579999874323713,0.15599999985878385
-0.05435795709490776,0.12070606648921967,9.928572654724121,-0.0044999998062849045,0.004799999762326479,0.10839999467134476,0.11299999699022645,0.06700000028140622,-0.046999999102312236
-0.054635681211948395,0.1048564612865448,9.9324312210083,-0.003599999938160181,-0.011899999342858791,0.11819999665021896,0.2360000045751598,-0.8050000124404733,-0.1620000008795227
-0.052356403321027756,0.1088787168264389,9.933523178100586,-0.005799999926239252,0.016099998727440834,0.09860000014305115,-0.17400000292100043,-0.1319999957758284,-0.07099999651516105
-0.052356403321027756,0.1088787168264389,9.933523178100586,-0.0050999997183680534,-0.005200000014156103,0.11819999665021896,-0.17400000292100043,-0.1319999957758284,-0.07099999651516105
-0.05706819146871567,0.11439495533704758,9.921399116516113,0.00419999985024333,0.014399999752640724,0.10839999467134476,-0.3570000073731091,0.16800000190026157,-0.16599999711327754
-0.04344039410352707,0.11014284938573837,9.926619529724121,0.0052999998442828655,-0.0031999999191612005,0.10839999467134476,0.26300000916848465,-0.09300000248123906,-0.14699999832767557
-0.046696510165929794,0.11815864592790604,9.934041023254395,0.004799999762326479,0.0052999998442828655,0.11819999665021896,0.019999999511567335,-0.1070000026395942,-0.18099999966512467
-0.04000232368707657,0.11312124133110046,9.936511993408203,0.003599999938160181,-0.003399999812245369,0.11819999665021896,0.7290000172980654,0.7249999810436709,0.30799999014359963
-0.0486980639398098,0.11910673975944519,9.93872356414795,-0.0037999998312443495,0.003599999938160181,0.11819999665021896,0.07699999753589991,-0.7170000152565876,-0.4679999728959251
-0.028385654091835022,0.11688492447137833,9.938962936401367,0.023599999025464058,0.003000000026077032,0.11819999665021896,-0.45400000608810304,-0.43400001157911566,0.010999999647985701
-0.047309424728155136,0.11799583584070206,9.943435668945312,0.002699999837204814,0.0038999998942017555,0.12799999117851257,0.08499999667351618,0.7170000152565876,0.38699998579637696
-0.06371449679136276,0.10254845023155212,9.938139915466309,-0.01489999983459711,-0.016099998727440834,0.11819999665021896,0.6990000121943711,0.3130000087811663,-0.01400000015835513
-0.05068046227097511,0.11123461276292801,9.939623832702637,-0.00419999985024333,-0.008299999870359898,0.11829999834299088,-0.11400000605382507,-0.8050000124404733,-0.45700000659847245
-0.05030696466565132,0.12345461547374725,9.94424057006836,-0.006599999964237213,0.0016999999061226845,0.12809999287128448,0.05200000106461238,-1.1959999544499653,-0.42899999294154895
-0.055219866335392,0.11924082040786743,9.928936958312988,-0.009399999864399433,0.0015999999595806003,0.10839999467134476,-0.46000000710884187,-0.9810000068082445,-0.25400000763737635
-0.047500960528850555,0.11187625676393509,9.921083450317383,-0.002199999988079071,-0.006899999920278788,0.09860000014305115,-0.4939999951060778,-1.1049999567557103,-0.3439999962680328
-0.052567094564437866,0.11905886232852936,9.937000274658203,-0.01489999983459711,0.004100000020116568,0.11819999665021896,-0.1189999980109653,-0.7919999746549705,-0.20999999570522035
-0.03961925208568573,0.1200261265039444,9.929405212402344,-0.0071000000461936,0.004399999976158142,0.10839999467134476,-0.5729999907588551,-0.7519999856369958,-0.2050000037480801
-0.04187937453389168,0.11191456764936447,9.939155578613281,-0.00930000003427267,-0.003499999875202775,0.11819999665021896,-0.08100000043976135,-1.4350000128963476,-0.6630000060699379
-0.06380068510770798,0.11782345920801163,9.925057411193848,-0.032099999487400055,0.006399999838322401,0.10839999467134476,0.26900001018922354,-0.8900000091139895,-0.17799999915475526
-0.05133168399333954,0.12045707553625107,9.921419143676758,-0.024399999529123306,0.00559999980032444,0.09860000014305115,0.5780000093964218,0.04200000047506539,-0.019999999511567335
-0.034802116453647614,0.11390653997659683,9.924646377563477,-0.004399999976158142,-0.005699999630451202,0.10839999467134476,0.9719999519162833,1.1990000083211878,0.6050000139897467
-0.04782657325267792,0.11880028247833252,9.927279472351074,-0.010699999518692493,0.0013000000035390258,0.10839999467134476,-0.5750000088860524,-0.10400000212922476,0.30100000673968863
-0.03809653967618942,0.11727757006883621,9.95158576965332,-0.0009999999310821295,0.0030999998562037945,0.13779999315738678,0.16400000566650674,-1.4270000471092643,-0.44800000506736415
-0.05133168399333954,0.1216733306646347,9.933150291442871,-0.023799998685717583,0.002699999837204814,0.11819999665021896,1.0840000065439772,1.5260000105906026,0.34200000482126197
-0.04893748089671135,0.10984598100185394,9.922673225402832,-0.01939999870955944,-0.009999999776482582,0.10839999467134476,-0.8630000045206646,-0.13000000432905762,0.06800000267489824
-0.04412992298603058,0.11760319024324417,9.932690620422363,-0.009599999524652958,0.002099999925121665,0.11819999665021896,0.9120000484306006,-0.7859999736342317,-0.31999999218507735
-0.03959051892161369,0.12843455374240875,9.920010566711426,-0.021299999207258224,-0.009999999776482582,0.10839999467134476,0.7709999710823845,-0.8050000124404733,-0.564999971610919
-0.05397488549351692,0.11441411077976227,9.93571662902832,-0.008999999612569809,0.011299999430775642,0.09860000014305115,-1.1010000272230216,0.5879999933107023,0.45300002370493087
-0.05263412743806839,0.11140698939561844,9.93446159362793,-0.01860000006854534,-0.006899999920278788,0.11819999665021896,1.102000009606194,0.8420000009480786,0.08299999855663877
-0.04183149337768555,0.12145306169986725,9.932968139648438,-0.006199999712407589,0,0.11829999834299088,-1.5800000197772524,-1.8109998989931397,-0.6320000185830715
-0.0415920726954937,0.12489113956689835,9.932815551757812,-0.010900000110268593,0.0139999995008111,0.11819999665021896,0.44099999498302667,0.8069999772068176,0.7099999784918237
-0.04618893936276436,0.11226890236139297,9.916582107543945,-0.008299999870359898,-0.006799999624490738,0.09860000014305115,1.1389999981137993,0.9399999820462447,0.1509999945614304
-0.05001965910196304,0.12042834609746933,9.931024551391602,-0.015599999576807022,0.00019999999494757503,0.10839999467134476,0.5560000234406636,-1.4820000386790861,-0.7420000017227153
-0.05920381844043732,0.12094549834728241,9.913202285766602,-0.029199998825788498,-0.0011999999405816197,0.09860000014305115,-1.7490000307411124,-1.6549999791756351,-0.46099998949201404
-0.052691590040922165,0.11309251189231873,9.93549633026123,-0.023599999025464058,-0.006199999712407589,0.11819999665021896,-1.4170000098341309,0.017999999727163266,0.36800000035098823
-0.04133350029587746,0.1116272583603859,9.9240140914917,-0.013499999418854713,-0.002300000051036477,0.10830000042915344,-0.3459999877148036,1.5649999638645522,0.5630000068445746
-0.038259342312812805,0.10714531689882278,9.933753967285156,0.0013000000035390258,-0.0011999999405816197,0.11819999665021896,0.4300000020051476,1.718000043254246,1.0840000065439772
-0.03833595663309097,0.10883083194494247,9.911487579345703,-0.00419999985024333,-0.002199999988079071,0.08879999816417694,0.6399999843701547,2.1599999405791657,0.8739999708181173
-0.043354205787181854,0.11153149604797363,9.935688018798828,0.0016999999061226845,-0.0038999998942017555,0.11819999665021896,0.48299997544777223,2.0989999479886046,0.8799999718388561
-0.046294283121824265,0.10500010848045349,9.923602104187012,0.007599999662488699,-0.01489999983459711,0.10839999467134476,-0.007999999971379599,1.6869999490456737,0.9080000121762061
-0.045202530920505524,0.11031524091959,9.933274269104004,0.012199999764561653,-0.004999999888241291,0.11829999834299088,-1.2249999771704876,0.7939999927821677,0.5900000114378995
-0.05388868972659111,0.1214626356959343,9.916629791259766,0.004799999762326479,0.008499999530613422,0.09860000014305115,-1.709999970745457,-0.8759999889453145,-0.17799999915475526
-0.0381539985537529,0.1221713274717331,9.942459106445312,0.022299999371170998,0.012600000016391277,0.12799999117851257,-0.690999993046435,-2.1449999913881714,-0.9670000400004224
-0.03728250786662102,0.10897448658943176,9.92366886138916,0.016300000250339508,0.004699999932199717,0.10830000042915344,1.8959998956666557,-0.2729999930827651,-0.17599999436777122
-0.04678269848227501,0.11217314004898071,9.917875289916992,0.005699999630451202,-0.00039999998989515007,0.09860000014305115,0.4579999889816446,2.011000004165572,0.8750000065621423
-0.049732357263565063,0.13419021666049957,9.920546531677246,0.0013000000035390258,0.02759999968111515,0.09860000014305115,-1.8880000366012784,-0.8620000221374924,-0.2360000045751598
-0.04684973880648613,0.10333374887704849,9.935458183288574,0.00839999970048666,-0.005699999630451202,0.11819999665021896,1.0199999600821943,-0.8350000175441675,-0.2959999881021219
-0.039015911519527435,0.11496956646442413,9.92704963684082,0.006300000008195639,0.011299999430775642,0.10839999467134476,0.37400000137172706,1.5310000292281694,0.9229999613672003
-0.04912902042269707,0.11491210013628006,9.930027961730957,0.010400000028312206,0.010199999436736107,0.09860000014305115,-0.627999982328677,-2.0340000258653554,-0.7990000114197344
-0.04912902042269707,0.11491210013628006,9.930027961730957,-0.004900000058114529,0.001999999862164259,0.10839999467134476,1.0619999672273661,1.674999947004196,0.8630000045206646
-0.050986919552087784,0.12446975708007812,9.922663688659668,0.01899999938905239,0.008899999782443047,0.10839999467134476,-0.43699998540905866,1.8160000243524121,0.6579999874323713
-0.06339845806360245,0.11413638293743134,9.925527572631836,-0.010699999518692493,0.0015999999595806003,0.10839999467134476,1.5190000271866915,-0.669999989473849,-0.3369999861836953
-0.04992389306426048,0.13664187490940094,9.939872741699219,-0.00279999990016222,0.02669999934732914,0.11819999665021896,-2.1009999127549492,-0.8690000055414034,-0.34299998720443414
-0.046313438564538956,0.1194227859377861,9.928046226501465,0.004600000102072954,0.012799999676644802,0.10830000042915344,0.4649999723855557,1.4609999817456474,0.6219999813079381
-0.04526956379413605,0.1059194877743721,9.929636001586914,0.008499999530613422,0.0015999999595806003,0.10839999467134476,1.6989999510871514,0.3379999952472939,-0.02899999937514897
-0.03993528336286545,0.12808021903038025,9.919341087341309,0.009499999694526196,0.015799999237060547,0.09860000014305115,-0.09999999922536333,-1.3709999664345645,-0.7320000178084348
-0.04479072615504265,0.12574347853660583,9.923257827758789,0.006199999712407589,0.01599999889731407,0.10839999467134476,-2.052999904589038,-1.1089999930101049,-0.35499998924591186
-0.048065993934869766,0.120275117456913,9.927518844604492,-0.006599999964237213,0.011699999682605267,0.10830000042915344,-1.3769999674553033,0.10600000024610218,0.30100000673968863
-0.06358999758958817,0.11344685405492783,9.93508529663086,-0.016099998727440834,0.005499999970197678,0.11809999495744705,-0.5870000109275301,0.46199997187518627,0.40299999741182274
-0.048592716455459595,0.11576443910598755,9.9153470993042,-0.004999999888241291,0.01679999940097332,0.09849999845027924,-0.16599999711327754,0.8680000231582313,0.5050000147643833
-0.04189852997660637,0.1276971399784088,9.933792114257812,0.0072999997064471245,0.026999998837709427,0.11809999495744705,-0.09000000197086964,0.9579999851084613,0.711999996619021
-0.04322013258934021,0.09880391508340836,9.92656135559082,0.009599999524652958,-0.002300000051036477,0.10830000042915344,-0.2680000011256249,0.5949999767146132,0.46000000710884187
-0.05758533999323845,0.1167125478386879,9.925555229187012,-0.008299999870359898,0.017799999564886093,0.10830000042915344,-0.7549999861473652,-0.1729999938574018,-0.0019999999928448997
-0.04779784381389618,0.11111011356115341,9.9222993850708,0.010699999518692493,0.009999999776482582,0.10830000042915344,-1.2859999697610482,-1.0629999496105385,-0.07199999890865307
-0.04209006577730179,0.11927913129329681,9.932355880737305,0.007699999958276749,0.02319999970495701,0.11809999495744705,-0.6709999718570212,-1.4609999817456474,-0.6380000196038104
-0.04677312448620796,0.12285128235816956,9.912646293640137,0.0031999999191612005,0.025100000202655792,0.09839999675750732,1.2359999968287931,-0.49099999459570837,-0.11599999750059588
-0.04625597596168518,0.11141657084226608,9.931885719299316,0.001999999862164259,0.012199999764561653,0.11809999495744705,1.200999973087532,1.1149999940308437,0.5350000198680775
-0.052480898797512054,0.12180740386247635,9.926628112792969,-0.004699999932199717,0.01850000023841858,0.10830000042915344,-1.109999975393277,-0.4229999919208101,0.03999999902313467
-0.05405149981379509,0.12044750154018402,9.922500610351562,-0.005799999926239252,0.021399999037384987,0.10830000042915344,-0.20299999896109608,-0.6750000081114157,-0.39699999639108385
-0.036880284547805786,0.1065036728978157,9.920116424560547,0.011799999512732029,0.012000000104308128,0.09839999675750732,0.4669999905127529,0.9529999664708946,0.42500001004800736
-0.04431188479065895,0.1276300996541977,9.924684524536133,0.004900000058114529,0.029999999329447746,0.10830000042915344,-1.0460000356531998,-0.9029999935386394,-0.3459999877148036
-0.03931279480457306,0.1085435226559639,9.925009727478027,0.002699999837204814,0.01269999984651804,0.09839999675750732,-1.1240000489228048,-0.3819999938392367,-0.14600000260429016
-0.049397170543670654,0.10685800760984421,9.918325424194336,0.004299999680370092,0.00969999935477972,0.10830000042915344,0.8420000009480786,0.7029999950879127,0.325000010822644
-0.0505942702293396,0.11953770369291306,9.931253433227539,-0.0044999998062849045,0.019999999552965164,0.11809999495744705,-0.49600001323327503,-1.262999948061265,-0.45700000659847245
-0.06006573140621185,0.12287043035030365,9.91894817352295,-0.0044999998062849045,0.019999999552965164,0.11809999495744705,-0.15800000464576788,0.6360000014766131,0.321000001248676
-0.03611414134502411,0.12171164155006409,9.915806770324707,0.01269999984651804,0.02159999869763851,0.09839999675750732,1.4199999569836474,0.3100000082707969,0.2920000052085803
-0.05313212424516678,0.12187444418668747,9.915874481201172,-0.006000000052154064,0.017500000074505806,0.09849999845027924,-0.6380000196038104,-0.7369999830851486,-0.536999984634422
-0.04199429601430893,0.11159852892160416,9.906669616699219,0.0016999999061226845,0.00930000003427267,0.08869999647140503,-0.8099999777171871,-0.6720000076010463,-0.0659999978879142
-0.054185573011636734,0.12168290466070175,9.933782577514648,-0.009800000116229057,0.021199999377131462,0.11809999495744705,-0.06500000216452881,0.5309999836136831,0.12599999475508955
-0.04792233929038048,0.10615890473127365,9.924981117248535,-0.008200000040233135,0.011500000022351742,0.10830000042915344,1.1039999743725382,0.8429999833312508,0.36199999933024934
-0.03623863682150841,0.11584105342626572,9.914772033691406,0.013399999588727951,0.01850000023841858,0.09849999845027924,0.88700000860362,0.08299999855663877,0.02600000053230619
-0.04215710610151291,0.12466129660606384,9.922136306762695,0.0037999998312443495,0.025699999183416367,0.10830000042915344,1.011999994295111,0.12700000381868817,-0.07000000079177565
-0.046131476759910583,0.11538136750459671,9.916428565979004,0.004100000020116568,0.012999999336898327,0.09849999845027924,0.8110000134612122,-0.0749999994190225,0.11099999887334903
-0.04729027301073074,0.11141657084226608,9.921648025512695,0.0038999998942017555,0.0007999999797903001,0.10839999467134476,0.7480000027434541,0.32899999371618566,0.19099999691961836
-0.06607038527727127,0.11561121046543121,9.929701805114746,-0.014599999412894249,0.008200000040233135,0.10839999467134476,0.8069999772068176,0.5930000119482689,-0.08200000283325337
-0.0447811484336853,0.0991869866847992,9.927221298217773,0.006300000008195639,-0.013299999758601189,0.10839999467134476,0.8140000139715816,0.9239999437503725,0.6690000070906769
-0.04929182305932045,0.11132080107927322,9.941387176513672,-0.0008999999845400453,-0.005799999926239252,0.12809999287128448,-0.2609999910412874,0.6200000165415938,0.36499999984061876
-0.0338827446103096,0.12161586433649063,9.929636001586914,0.02029999904334545,0.004600000102072954,0.10839999467134476,-0.8849999904764227,0.17700000343136985,-0.029999998433587676
-0.03971501812338829,0.12524548172950745,9.918832778930664,0.0010999999940395355,0.00699999975040555,0.10839999467134476,1.3519999809891756,0.29699999716572056,0.14900000311465958
-0.03971501812338829,0.12524548172950745,9.918832778930664,0.010099999606609344,0.01939999870955944,0.09860000014305115,1.3519999809891756,0.29699999716572056,0.14900000311465958
-0.0558040551841259,0.11636777967214584,9.91512680053711,0.0008999999845400453,0.006300000008195639,0.09860000014305115,0.9140000131969449,0.5099999800410971,0.35499998924591186
-0.044206537306308746,0.11809160560369492,9.918603897094727,0.01209999993443489,0.0037999998312443495,0.09869999438524246,-0.5459999861655302,0.10100000161885533,-0.12799999954207358
-0.04772122949361801,0.11085154116153717,9.925488471984863,0.012299999594688416,-0.0044999998062849045,0.10839999467134476,0.5549999876966385,0.21999999295971404,0.09300000248123906
-0.039580944925546646,0.1291336715221405,9.91663932800293,0.012799999676644802,0.013499999418854713,0.09869999438524246,0.10999999647985702,0.09600000299160849,-0.0269999995907449
-0.0548655241727829,0.10820834338665009,9.91092300415039,0.0024999999441206455,-0.004699999932199717,0.08879999816417694,0.4429999864297975,0.17799999915475526,0.10999999647985702
-0.05703946202993393,0.13520535826683044,9.928458213806152,0.003000000026077032,0.02319999970495701,0.10849999636411667,-0.2740000021463637,-0.23000000355442093,0.029999998433587676
-0.04138138145208359,0.12422076612710953,9.935630798339844,0.0023999998811632395,-0.005699999630451202,0.10849999636411667,-1.1699999856006655,-0.475000009660689,-0.07099999651516105
-0.04138138145208359,0.12422076612710953,9.935630798339844,0.012899999506771564,0.001500000013038516,0.11829999834299088,-1.1699999856006655,-0.475000009660689,-0.07099999651516105
-0.045939940959215164,0.12160629034042358,9.927949905395508,0.0017999999690800905,-0.005200000014156103,0.09860000014305115,1.5740000187565135,0.009999999755783667,0.031999999885518396
-0.02843353897333145,0.1067526638507843,9.912291526794434,0.031199999153614044,-0.008100000210106373,0.09869999438524246,0.12700000381868817,-0.40299999741182274,-0.20599999947146552
-0.04256890341639519,0.1141076534986496,9.915634155273438,0.010400000028312206,-0.008499999530613422,0.09869999438524246,-1.0789999879064105,-0.44800000506736415,-0.2609999910412874
-0.05242343991994858,0.10319966822862625,9.908365249633789,-0.0004999999655410647,-0.015399999916553497,0.08879999816417694,-0.07900000232288394,0.3139999911643385,0.12199999852133472
-0.04774995893239975,0.11578359454870224,9.924646377563477,0.009999999776482582,0.004299999680370092,0.10839999467134476,0.10499999785261017,-0.06399999977103679,-0.19200000598321698
-0.0395713672041893,0.1042722687125206,9.91572093963623,0.009999999776482582,0.004299999680370092,0.10839999467134476,0.09999999922536333,0.031999999885518396,0.14499999354069154
-0.045010991394519806,0.12645216286182404,9.923995018005371,0.006099999882280827,0.0139999995008111,0.10839999467134476,0.10299999973573276,0.01400000015835513,-0.13100000005244303
-0.05297889560461044,0.11616666615009308,9.927872657775879,-0.002899999963119626,0.0032999999821186066,0.10839999467134476,0.20999999570522035,0.19699999794035722,-0.19099999691961836
-0.0404045470058918,0.12529335916042328,9.918642044067383,0.007799999788403511,0.012600000016391277,0.09869999438524246,0.49600001323327503,0.49499997748924995,-0.09899999683187131
-0.06187574937939644,0.1196526288986206,9.921581268310547,-0.00989999994635582,0.00139999995008111,0.10849999636411667,0.363000008393848,0.35499998924591186,0.16899999762364695
-0.05014416202902794,0.10206960886716843,9.917760848999023,0.0011999999405816197,-0.019199999049305916,0.09869999438524246,0.09200000008774706,0.07300000130214508,0.257999990530918
-0.05139872431755066,0.13656526803970337,9.925843238830566,0.0016999999061226845,0.019600000232458115,0.10849999636411667,-0.9970000451041168,0.37299999230812847,-0.16500000138989213
-0.030990546569228172,0.1209646463394165,9.921034812927246,0.022499999031424522,0.002699999837204814,0.09869999438524246,-0.5990000129690077,-0.3059999986968288,-0.29999999767609
-0.02468900941312313,0.11812033504247665,9.930622100830078,0.031599998474121094,0.004399999976158142,0.10849999636411667,0.9999999922536332,0.3089999992071983,-0.004999999877891834
-0.043967120349407196,0.11229763925075531,9.911458969116211,0.012899999506771564,-0.008100000210106373,0.08889999985694885,0.16899999762364695,0.041000001416626686,0.32899999371618566
-0.05297889560461044,0.12958377599716187,9.92251968383789,0.0031999999191612005,0.010900000110268593,0.10849999636411667,0.5290000188473387,0.6849999920256962,-0.128999995265459
-0.040960002690553665,0.10405200719833374,9.915759086608887,0.014699999243021011,-0.019700000062584877,0.09869999438524246,-0.3439999962680328,0.07000000079177565,-0.02800000031671026
-0.04639962688088417,0.10345824062824249,9.915366172790527,0.01489999983459711,-0.018699999898672104,0.09869999438524246,0.02899999937514897,0.014999999216793838,-0.18900000547284757
-0.04429273307323456,0.12737153470516205,9.913507461547852,0.011699999682605267,0.008599999360740185,0.09869999438524246,-0.3049999896332302,-0.05300000012305109,0.27200001069959295
-0.05641696974635124,0.11293928325176239,9.921648025512695,0.01209999993443489,0,0.09869999438524246,-0.5939999943314411,-0.08799999718388561,0.06899999839828364
-0.05396530404686928,0.12362699955701828,9.924933433532715,0.0024999999441206455,-0.008799999952316284,0.10849999636411667,0.30400000725005805,-0.15699999558216926,0.26900001018922354
-0.044091615825891495,0.12389514595270157,9.918440818786621,0.0026000000070780516,0.0026000000070780516,0.10849999636411667,0.9949999736160666,0.4560000242153003,0.08700000146050021
-0.05162856727838516,0.11858002841472626,9.906765937805176,0.0038999998942017555,-0.00039999998989515007,0.08889999985694885,-0.536999984634422,0.41600000851689906,-0.09000000197086964
-0.04761588200926781,0.1308191865682602,9.906746864318848,0.014999999664723873,0.010900000110268593,0.08889999985694885,0.6480000035180908,0.07699999753589991,-0.36499999984061876
-0.03796246275305748,0.12078268080949783,9.91539478302002,0.025200000032782555,-0.000699999975040555,0.09869999438524246,0.44099999498302667,0.4519999879609058,0.2890000046982109
-0.04278917238116264,0.12151052057743073,9.929520606994629,0.016499999910593033,-0.0016999999061226845,0.10849999636411667,-0.6110000150104855,-0.3349999947369245,0.09399999820462447
-0.049109868705272675,0.11366712301969528,9.918967247009277,0.005799999926239252,-0.009800000116229057,0.09869999438524246,0.05300000012305109,0.04900000055424296,0.01700000066872456
-0.04118026793003082,0.12172121554613113,9.932958602905273,0.012799999676644802,0.00009999999747378752,0.11829999834299088,0.5750000088860524,0.3130000087811663,0.1319999957758284
-0.05312254652380943,0.12419202923774719,9.908623695373535,0.004399999976158142,-0.00139999995008111,0.08889999985694885,0.7459999846162569,0.838000018054537,0.14600000260429016
-0.04228160157799721,0.11477802693843842,9.925661087036133,0.01719999872148037,-0.013499999418854713,0.10859999805688858,1.0969999909686272,-0.18099999966512467,0.25599999908414717
-0.05104437842965126,0.11119630187749863,9.902475357055664,0.0072999997064471245,-0.01599999889731407,0.08899999409914017,1.041000017015633,0.4199999914104407,0.3220000103122746
-0.04862144961953163,0.11838848888874054,9.927231788635254,0.008700000122189522,-0.008999999612569809,0.10859999805688858,0.475000009660689,-0.2639999915516568,0.4459999869401669
-0.04448426887392998,0.12138602137565613,9.912062644958496,0.017999999225139618,-0.010300000198185444,0.09879999607801437,0.03599999945432653,-0.09899999683187131,0.04200000047506539
-0.054798487573862076,0.12538912892341614,9.933082580566406,0.006399999838322401,-0.00019999999494757503,0.11840000003576279,0.7919999746549705,0.38699998579637696,0.1189999980109653
-0.043593622744083405,0.11108138412237167,9.920183181762695,0.017799999564886093,-0.022299999371170998,0.09889999777078629,-0.7440000198499125,-0.7009999769607155,0.25400000763737635
-0.04604528844356537,0.12035173177719116,9.926149368286133,0.01640000008046627,-0.010699999518692493,0.10859999805688858,-0.06700000028140622,0.057000003026912535,0.08299999855663877
-0.042262446135282516,0.12708422541618347,9.930257797241211,0.013199999928474426,-0.00029999998514540493,0.10859999805688858,-0.838000018054537,-0.536999984634422,-0.10400000212922476
-0.03241749107837677,0.11449072510004044,9.91997241973877,0.02239999920129776,-0.01759999990463257,0.09879999607801437,-0.4510000055777336,-0.06200000165415938,-0.024999999806340833
-0.0636187270283699,0.1278790980577469,9.926657676696777,-0.006399999838322401,0.0030999998562037945,0.10859999805688858,0.02600000053230619,-0.09500000059811649,-0.3319999942265551
-0.04876509681344032,0.12256397306919098,9.93038272857666,0.003599999938160181,-0.0066999997943639755,0.10859999805688858,0.9190000318345116,0.46600000812958076,0.3100000082707969
-0.04172614589333534,0.12277466803789139,9.909236907958984,0.01489999983459711,-0.008899999782443047,0.08899999409914017,-1.7209999904037625,-0.9229999613672003,-0.32899999371618566
-0.0492822490632534,0.11829271912574768,9.928217887878418,0.002899999963119626,-0.00419999985024333,0.10859999805688858,1.8050000046941066,0.4709999734062945,0.12799999954207358
-0.03959051892161369,0.11570698022842407,9.935659408569336,0.014299999922513962,-0.009099999442696571,0.08899999409914017,0.9610000389796836,0.2050000037480801,0.1509999945614304
-0.048094723373651505,0.10702081024646759,9.931417465209961,0.01249999925494194,-0.005699999630451202,0.11840000003576279,-0.14499999354069154,0.5799999741627662,-0.13499999628619785
-0.05211698263883591,0.11189541220664978,9.920116424560547,0.003399999812245369,-0.01850000023841858,0.11840000003576279,0.20099999417411205,-0.029999998433587676,-0.19099999691961836
-0.06661626696586609,0.11762233823537827,9.913670539855957,-0.004799999762326479,-0.008799999952316284,0.09879999607801437,-0.8269999983962315,-0.4010000059650519,-0.02899999937514897
-0.04225287213921547,0.11117714643478394,9.921092987060547,0.013700000010430813,-0.016200000420212746,0.09879999607801437,0.3669999912873896,0.03999999902313467,0.14300000209392072
-0.04710831493139267,0.11914505064487457,9.929597854614258,0.013899999670684338,-0.007400000002235174,0.10859999805688858,0.7369999830851486,-1.0629999496105385,0.13700000107318186
-0.03935110196471214,0.11078450083732605,9.913681030273438,0.010599999688565731,-0.01939999870955944,0.09879999607801437,0.7810000083575178,0.10900000075647161,-0.14099999730693671
-0.04947378486394882,0.1230906993150711,9.922606468200684,0.0010999999940395355,-0.011399999260902405,0.10859999805688858,-0.19200000598321698,0.24500000610626807,0.21999999295971404
-0.042003877460956573,0.11826398223638535,9.930468559265137,0.011500000022351742,-0.010799999348819256,0.10859999805688858,0.8579999858830979,0.9670000400004224,0.4519999879609058
-0.056771308183670044,0.12374191731214523,9.92273998260498,0.004299999680370092,-0.013100000098347664,0.10869999974966049,1.4950000231037361,0.6870000101528934,0.3789999933288673
-0.0409887321293354,0.12244904786348343,9.917731285095215,0.01599999889731407,-0.017099998891353607,0.09889999777078629,1.7539999426569735,0.4759999920438612,0.46099998949201404
-0.05013458430767059,0.10526825487613678,9.933792114257812,0.007599999662488699,-0.041999999433755875,0.11859999597072601,0.6399999843701547,0.14300000209392072,0.10499999785261017
-0.040442854166030884,0.12639470398426056,9.918699264526367,0.01769999973475933,-0.0139999995008111,0.0989999994635582,-0.06500000216452881,-0.5189999815722054,0.18700000068586353
-0.056551042944192886,0.12386641651391983,9.918689727783203,0.006399999838322401,-0.023499999195337296,0.0989999994635582,-1.1949999720667932,-0.6110000150104855,0.015999999942759198
-0.05223190411925316,0.12296620011329651,9.928112983703613,0.004699999932199717,-0.02019999921321869,0.1087999939918518,0.11299999699022645,-0.7099999784918237,-0.2499999980634083
-0.04509718343615532,0.11238382756710052,9.928179740905762,0.01249999925494194,-0.03019999898970127,0.1087999939918518,-1.7010000225752016,-0.754000003764193,-0.05099999867112037
-0.060429647564888,0.1272757649421692,9.9237642288208,-0.00930000003427267,-0.005200000014156103,0.10869999974966049,1.054000001440283,0.2729999930827651,0.010999999647985701
-0.05327577516436577,0.1277545988559723,9.920058250427246,0.0009999999310821295,-0.007599999662488699,0.09889999777078629,-0.9200000142176837,0.45700000659847245,-0.15500000413539844
-0.05441541597247124,0.12024638056755066,9.907024383544922,-0.007400000002235174,-0.02459999918937683,0.08909999579191208,2.657999918578785,1.3349999603101312,0.2150000010025738
-0.046150632202625275,0.12455594539642334,9.9183349609375,-0.0023999998811632395,-0.0064999996684491634,0.08889999985694885,-1.7659999446984511,-0.7200000157669572,0.1180000022875799
-0.0529693178832531,0.11668381839990616,9.908355712890625,0.010999999940395355,-0.0038999998942017555,0.09889999777078629,1.4859999682117748,1.4640000356168696,-0.10499999785261017
-0.040366239845752716,0.11330319941043854,9.911879539489746,0.012199999764561653,-0.02149999886751175,0.08899999409914017,-3.263999914951704,-1.2319999605743985,0.11299999699022645
-0.0642220675945282,0.11474929749965668,9.929328918457031,-0.010699999518692493,-0.01249999925494194,0.10849999636411667,2.101999895138121,0.08299999855663877,0.041000001416626686
-0.05192544683814049,0.1161092072725296,9.918066024780273,-0.000699999975040555,-0.008299999870359898,0.09879999607801437,-0.3450000053316314,-0.7919999746549705,-0.20200000323771067
-0.0559285506606102,0.12236285954713821,9.915548324584961,-0.00279999990016222,-0.0072999997064471245,0.09879999607801437,0.8720000060517729,0.6330000009662436,0.2289999944908223
-0.04872678965330124,0.12662453949451447,9.928438186645508,-0.0008999999845400453,-0.00019999999494757503,0.10859999805688858,1.5800000197772524,-1.2389999439783097,-0.1070000026395942
-0.04879382997751236,0.1272566020488739,9.927203178405762,-0.0038999998942017555,-0.0038999998942017555,0.10859999805688858,-2.13599993649621,-0.7369999830851486,-0.38699998579637696
-0.05768110603094101,0.12699803709983826,9.930401802062988,-0.015599999576807022,0.0018999999156221747,0.10859999805688858,-1.1539999473047935,-0.11299999699022645,-0.12400000330831876
-0.048640601336956024,0.11106222867965698,9.91463851928711,-0.006099999882280827,-0.014399999752640724,0.09869999438524246,3.924000027232978,1.1759999866214046,0.49199997697888054
-0.04498226195573807,0.12080184370279312,9.925459861755371,0.006799999624490738,-0.01529999915510416,0.10869999974966049,1.3740000203057867,0.1070000026395942,-0.33600000380052314
-0.0521361343562603,0.10945332050323486,9.93958568572998,-0.0026000000070780516,-0.02929999865591526,0.1184999942779541,2.103000090964705,-0.6129999797768299,0.05200000106461238
-0.05763322487473488,0.13620133697986603,9.903451919555664,-0.013799999840557575,-0.004799999762326479,0.08919999748468399,-1.4230000108548697,-0.5360000022512498,-0.6290000180727021
-0.06366661190986633,0.11827356368303299,9.914111137390137,-0.015199999324977398,-0.020499998703598976,0.09889999777078629,-2.0519999222058662,-1.7000000401920294,-0.8059999948236455
-0.05229894071817398,0.12332054227590561,9.933082580566406,-0.009999999776482582,-0.014800000004470348,0.11840000003576279,-1.411000008813392,-0.5249999825929442,-0.3759999928184979
-0.02450704760849476,0.11457692086696625,9.921409606933594,0.017899999395012856,-0.020600000396370888,0.09879999607801437,0.04200000047506539,-0.14399999781730613,-0.6750000081114157
-0.04689761996269226,0.11876197904348373,9.923487663269043,-0.001999999862164259,-0.010900000110268593,0.10859999805688858,0.4720000091503196,0.627999982328677,-0.048000001495804245
-0.057642798870801926,0.11809160560369492,9.92607307434082,-0.020099999383091927,-0.011899999342858791,0.10859999805688858,2.640000022238274,0.4969999956164472,0.24200000559589865
-0.05716396123170853,0.11989204585552216,9.915308952331543,-0.008899999782443047,-0.019099999219179153,0.09889999777078629,2.0259999533565662,0.7129999790021931,0.3559999983095105
-0.038853105157613754,0.11862790584564209,9.929683685302734,0.002699999837204814,-0.02449999935925007,0.1087999939918518,-2.551000096032069,-1.401999953921431,0.1419999930303221
-0.055200714617967606,0.09634267538785934,9.915079116821289,-0.010799999348819256,-0.03709999844431877,0.09889999777078629,-0.9589999674916334,-2.2829999081434593,-0.6189999807975687
-0.052241481840610504,0.11484506726264954,9.927087783813477,-0.017799999564886093,-0.02419999986886978,0.10859999805688858,2.782000081969662,1.5949999689682466,0.5240000002097721
-0.05787264183163643,0.11071746051311493,9.919598579406738,-0.013899999670684338,-0.020899999886751175,0.09889999777078629,-3.00200004824895,-1.0239999963365887,-0.817000014481951
-0.04618893936276436,0.11353304237127304,9.913345336914062,-0.02239999920129776,-0.03460000082850456,0.09889999777078629,3.761999892951323,1.8250000792443732,0.5059999971475555
-0.0462176688015461,0.120859295129776,9.930094718933105,-0.0004999999655410647,-0.026599999517202377,0.1087999939918518,-3.301999885842481,-2.7830000643528345,-0.5909999938210717
-0.041505880653858185,0.10658986121416092,9.905778884887695,-0.0004999999655410647,-0.026599999517202377,0.1087999939918518,2.4700000288912416,1.4359999952795197,0.642000002497352
-0.027495011687278748,0.11703815311193466,9.918880462646484,0.0139999995008111,-0.022099999710917473,0.09889999777078629,-0.38999998630674637,-0.3130000087811663,-0.5410000208888165
-0.027495011687278748,0.11703815311193466,9.918880462646484,0.0139999995008111,-0.022099999710917473,0.09889999777078629,-0.38999998630674637,-0.3130000087811663,-0.5410000208888165
-0.05149449035525322,0.11675085127353668,9.911813735961914,-0.016200000420212746,-0.030700000002980232,0.10869999974966049,3.7579999634186345,-0.19900000272734125,0.1610000051561373
-0.05685750022530556,0.1084190309047699,9.93300724029541,-0.01809999905526638,-0.040699999779462814,0.11859999597072601,-5.034999878287722,-1.9340000800008448,-0.747000020360282
-0.05371630936861038,0.11343728005886078,9.929779052734375,-0.023899998515844345,-0.02499999850988388,0.10859999805688858,-4.4879999097390195,-1.2950000246530096,0.06200000165415938
-0.054013192653656006,0.11314039677381516,9.913968086242676,-0.026999998837709427,-0.014099999330937862,0.09869999438524246,1.8900000013676228,2.617999982921663,0.8290000165234287
-0.04466622695326805,0.11873325705528259,9.920355796813965,-0.009999999776482582,-0.009399999864399433,0.09869999438524246,3.5779999327964687,0.845000001458448,-0.2899999870813831
-0.04653370380401611,0.12138602137565613,9.923467636108398,-0.007599999662488699,-0.019099999219179153,0.10869999974966049,0.048000001495804245,-0.5489999866758997,-0.4849999935749695
-0.04653370380401611,0.12138602137565613,9.923467636108398,-0.007599999662488699,-0.019099999219179153,0.10869999974966049,0.048000001495804245,-0.5489999866758997,-0.4849999935749695
-0.04739561676979065,0.12436441332101822,9.913009643554688,-0.013599999248981476,-0.00930000003427267,0.09869999438524246,-5.4079999239567025,-2.3629999929011145,-0.7149999971293904
-0.04739561676979065,0.12436441332101822,9.913009643554688,-0.013599999248981476,-0.00930000003427267,0.09869999438524246,-5.4079999239567025,-2.3629999929011145,-0.7149999971293904
-0.05490383133292198,0.11882901936769485,9.920844078063965,-0.028999999165534973,-0.006099999882280827,0.10839999467134476,-8.531999957386775,-2.41299996583337,-1.0840000065439772
-0.04611232504248619,0.11515152454376221,9.926810264587402,-0.035499997437000275,0.026999998837709427,0.09839999675750732,-2.059000012331483,-1.4389999424290363,-0.6859999744088683
-0.04197514429688454,0.12421118468046188,9.915404319763184,-0.031599998474121094,0.045099999755620956,0.0982000008225441,-0.1070000026395942,0.4939999951060778,-0.31600000929153577
-0.05061342194676399,0.12094549834728241,9.901124954223633,-0.031599998474121094,0.045099999755620956,0.0982000008225441,6.878000067316017,1.5269999929737748,0.4270000014947782
-0.032925061881542206,0.13404656946659088,9.923602104187012,-0.01640000008046627,0.038599997758865356,0.10809999704360962,4.376000175276443,0.9870000078289833,0.8519999848623591
-0.04422569274902344,0.12528377771377563,9.90285873413086,-0.023399999365210533,0.026499999687075615,0.08859999477863312,-6.40799980948863,-3.351000089834976,-0.2729999930827651
-0.04611232504248619,0.1186087504029274,9.90237045288086,-0.03240000084042549,0.034199997782707214,0.0786999985575676,-5.8309999425579395,-2.812999962734823,-1.011000011911939
-0.049224790185689926,0.11209652572870255,9.9061918258667,-0.049799997359514236,0.04019999876618385,0.08839999884366989,6.926000075481928,3.3209999780095756,0.5549999876966385
-0.0459686741232872,0.13215036690235138,9.922367095947266,-0.02969999983906746,0.03839999809861183,0.10809999704360962,-3.3060000288185813,-3.0449999310555884,-0.0030000000934877653
-0.03933194652199745,0.10245268046855927,9.917693138122559,-0.03680000081658363,0.016699999570846558,0.09829999506473541,-0.15500000413539844,1.1190000302852383,-0.43600000302588643
-0.06134902685880661,0.10002974420785904,9.923065185546875,-0.04879999905824661,0.011599999852478504,0.10809999704360962,-0.43699998540905866,0.4190000090272685,-0.8189999792482954
-0.06134902685880661,0.10002974420785904,9.923065185546875,-0.04879999905824661,0.011599999852478504,0.10809999704360962,-0.43699998540905866,0.4190000090272685,-0.8189999792482954
-0.0541568398475647,0.12051453441381454,9.939958572387695,-0.037699997425079346,0.03229999914765358,0.11789999902248383,-2.94599996757425,-0.14600000260429016,0.3860000034132048
-0.05609135702252388,0.11624328047037125,9.931924819946289,-0.03799999877810478,0.041200000792741776,0.11789999902248383,3.5899999348379463,0.3540000068627397,0.16899999762364695
-0.057355497032403946,0.11145488172769547,9.904754638671875,-0.03700000047683716,0.022699998691678047,0.0885000005364418,-8.099999883893577,-1.712000042233507,-0.5960000124586383
-0.05435795709490776,0.11568782478570938,9.928236961364746,-0.04149999842047691,0.054499998688697815,0.10799999535083771,8.200999598697848,4.3250000065176035,1.3020000080569205
-0.04128561541438103,0.10942459106445312,9.922730445861816,-0.01979999989271164,0.022099999710917473,0.10809999704360962,3.7419998184010566,3.2619999501853596,-0.29500000571894974
-0.04593036696314812,0.11215398460626602,9.924760818481445,-0.010699999518692493,0.011799999512732029,0.10819999873638153,-9.012000039045883,-5.234000001076982,-1.3149999924815703
-0.04048116132616997,0.1133989691734314,9.91712760925293,-0.02669999934732914,0.039400000125169754,0.0982000008225441,0.09500000059811649,-0.7309999820644097,-0.05799999875029794
-0.03867114707827568,0.11839806288480759,9.924722671508789,-0.028299998492002487,0.048899997025728226,0.10799999535083771,6.9269998444216885,2.33099991630937,1.0549999838234552
-0.04019385948777199,0.11595597863197327,9.920805931091309,-0.021900000050663948,0.02979999966919422,0.09829999506473541,10.230000352977576,4.33200009664322,1.041000017015633
-0.04332547262310982,0.12023680657148361,9.93250846862793,-0.00989999994635582,0.0016999999061226845,0.11819999665021896,9.672000364770568,5.400000064891326,0.6110000150104855
-0.03431369736790657,0.11900140345096588,9.92590045928955,0.014599999412894249,-0.024799998849630356,0.1087999939918518,7.693999779249679,4.792000103752062,0.7170000152565876
-0.031000124290585518,0.12816640734672546,9.917290687561035,0.019600000232458115,-0.048499997705221176,0.10920000076293945,7.974999738119527,6.551000065046602,0.5690000078653135
-0.04148672893643379,0.1309245228767395,9.921283721923828,0.05159999802708626,-0.0802999958395958,0.10040000081062317,9.717999981283311,6.091999826877521,1.0869999536934938
-0.05528690665960312,0.12424948811531067,9.917731285095215,0.05829999968409538,-0.11649999767541885,0.10109999775886536,5.68800011388679,4.984999905355466,1.271000020570054
-0.05111141875386238,0.11739249527454376,9.928380966186523,0.07169999927282333,-0.13189999759197235,0.11140000075101852,-0.433000002515517,0.021999999295971403,0.11299999699022645
-0.05698200315237045,0.11355219781398773,9.927518844604492,0.07159999758005142,-0.14010000228881836,0.11129999905824661,-10.087999866359365,-3.449000070933142,-1.080999952672755
-0.05578489974141121,0.11207737028598785,9.925066947937012,0.0632999986410141,-0.11559999734163284,0.11069999635219574,5.96500014322395,0.18400000017549412,-0.2639999915516568
-0.05111141875386238,0.11142614483833313,9.914992332458496,0.06359999626874924,-0.1314999908208847,0.10119999945163727,10.367000287349692,4.890000084850229,0.8780000070725118
-0.04903325065970421,0.1151706799864769,9.901230812072754,0.07669999450445175,-0.14970000088214874,0.08249999582767487,-8.395999791954418,-5.466000182841158,-0.11599999750059588
-0.039494749158620834,0.120275117456913,9.9183349609375,0.0714000016450882,-0.12629999220371246,0.10130000114440918,4.37100004991717,2.0399999201643886,-0.6810000091321545
-0.042023029178380966,0.10835199058055878,9.922615051269531,0.07750000059604645,-0.14909999072551727,0.11149999499320984,0.3190000098019052,-0.9999999922536332,0.6840000096425239
-0.052308518439531326,0.10936713218688965,9.922999382019043,0.06499999761581421,-0.149399995803833,0.11149999499320984,-3.125999998196416,-0.5309999836136831,-0.8969999925179005
-0.04942589998245239,0.11202948540449142,9.935352325439453,0.0632999986410141,-0.1403999924659729,0.12109999358654022,0.49900001374364444,-2.758000077886707,0.6480000035180908
-0.05090072751045227,0.11815864592790604,9.93246078491211,0.05549999698996544,-0.1314999908208847,0.12099999934434891,-0.20999999570522035,1.2019999554707044,-0.17100000241063099
-0.0517817959189415,0.12577220797538757,9.918536186218262,0.05859999731183052,-0.12060000002384186,0.1013999953866005,-5.089999976579249,-3.5979997939033237,-0.2810000122307012
-0.06106172129511833,0.12140518426895142,9.910213470458984,0.03749999776482582,-0.11419999599456787,0.09109999984502792,9.795999887831211,4.319999881158331,0.7570000042745624
-0.05543055757880211,0.13499467074871063,9.937392234802246,0.05739999935030937,-0.11769999563694,0.12119999527931213,-1.6669999812171128,0.3879999948599756,-0.7840000088678873
-0.048707637935876846,0.11549629271030426,9.909658432006836,0.05829999968409538,-0.13220000267028809,0.09160000085830688,-9.329999986423337,-2.7529999525274347,-0.4969999956164472
-0.0408833883702755,0.11115799844264984,9.915021896362305,0.06039999797940254,-0.11599999666213989,0.10080000013113022,9.185999961925605,2.4049998933245806,0.45400000608810304
-0.05469314008951187,0.11864705383777618,9.915461540222168,0.05689999833703041,-0.13089999556541443,0.1013999953866005,6.859999957532095,5.245999789675048,0.30700000776042746
-0.05321831628680229,0.11727757006883621,9.904123306274414,0.07289999723434448,-0.15160000324249268,0.09229999780654907,3.8529997839238725,2.8019999430765177,-0.4390000035362559
-0.053831230849027634,0.12397176027297974,9.921955108642578,0.07939999550580978,-0.16030000150203705,0.11219999939203262,-1.1409999628801435,0.8720000060517729,-0.7200000157669572
-0.05286397039890289,0.10770076513290405,9.923803329467773,0.08150000125169754,-0.1664000004529953,0.11209999769926071,-0.7099999784918237,-0.5339999841240525,-0.30100000673968863
-0.05192544683814049,0.13075213134288788,9.916783332824707,0.07979999482631683,-0.14429999887943268,0.1021999940276146,-1.031999962123672,-0.18799999640924894,-0.3439999962680328
-0.039580944925546646,0.12701718509197235,9.92590045928955,0.08889999985694885,-0.14100000262260437,0.1119999960064888,-0.4999999961268166,0.5399999851447914,-0.1620000008795227
-0.04229117929935455,0.11369584500789642,9.923257827758789,0.09030000120401382,-0.15850000083446503,0.09229999780654907,8.117999993677499,3.0339999113972826,0.20999999570522035
-0.047903187572956085,0.12004527449607849,9.909236907958984,0.09119999408721924,-0.17260000109672546,0.09309999644756317,3.331000015284709,3.51799992258908,0.37100000086135765
-0.059395354241132736,0.11106222867965698,9.933782577514648,0.09070000052452087,-0.19089999794960022,0.12289999425411224,-0.6300000004558742,-2.236000095804132,0.4889999764685111
-0.03639186546206474,0.11649227887392044,9.918038368225098,0.1136000007390976,-0.17880000174045563,0.1030999943614006,-9.492000120704992,-2.408000053917509,-0.3139999911643385
-0.0482192225754261,0.10541190952062607,9.927576065063477,0.08630000054836273,-0.15879999101161957,0.1119999960064888,-7.908999620169694,-0.8519999848623591,0.048000001495804245
-0.0345914252102375,0.1169615387916565,9.911248207092285,0.10359999537467957,-0.12950000166893005,0.09189999848604202,5.518000120539758,3.9389999764239723,0.23199999500119176
-0.05632119998335838,0.13589487969875336,9.913719177246094,0.09439999610185623,-0.12449999898672104,0.1021999940276146,-3.1159999609212825,-2.294999910184937,0.08400000095013078
-0.05073792114853859,0.12331096827983856,9.932403564453125,0.08779999613761902,-0.13499999046325684,0.12150000035762787,0.7450000022330847,2.0279999181229105,-0.14699999832767557
-0.05417599529027939,0.12648089230060577,9.902983665466309,0.09299999475479126,-0.1266999989748001,0.09209999442100525,-0.006000000186975531,0.07000000079177565,0.06899999839828364
-0.05016331374645233,0.12003570050001144,9.92122745513916,0.0737999975681305,-0.10809999704360962,0.10099999606609344,-0.14399999781730613,1.5599999452269855,0.008999999863581633
-0.03831680119037628,0.10805511474609375,9.918583869934082,0.09079999476671219,-0.1224999949336052,0.10119999945163727,-1.6100000248809465,-5.566000128705669,-0.14099999730693671
-0.049397170543670654,0.12084972113370895,9.914283752441406,0.06839999556541443,-0.11219999939203262,0.10109999775886536,7.164000151545138,5.267000060051898,0.1930000017066024
-0.049636587500572205,0.10982681810855865,9.917702674865723,0.08489999920129776,-0.14459998905658722,0.10179999470710754,-8.440999639527401,1.5539999442062467,-0.4870000117021667
-0.05062299966812134,0.11789049208164215,9.922126770019531,0.09079999476671219,-0.11409999430179596,0.1111999973654747,4.3509999753669035,3.7009999003607623,0.49600001323327503
-0.056771308183670044,0.1174212247133255,9.915040016174316,0.10339999943971634,-0.12929999828338623,0.10189999639987946,9.305999555453559,5.184000028144727,0.021000000237532696
-0.03651636466383934,0.12491986900568008,9.910367012023926,0.1362999975681305,-0.14319999516010284,0.09290000051259995,1.6710000174715074,-2.442000095275598,-0.16699999283666295
-0.06764098256826401,0.1253412514925003,9.914963722229004,0.09109999984502792,-0.14869999885559082,0.10279999673366547,6.518000006071686,1.271000020570054,-0.6570000050491991
-0.05234682559967041,0.12943054735660553,9.9329195022583,0.11469999700784683,-0.1671999990940094,0.12299999594688416,5.904000150633389,0.9320000162591615,0.09399999820462447
-0.04663905128836632,0.13045525550842285,9.913575172424316,0.12729999423027039,-0.18379999697208405,0.1039000004529953,6.303999934091431,2.700000032445663,0.021999999295971403
-0.04977066442370415,0.11318828165531158,9.918325424194336,0.12600000202655792,-0.22299998998641968,0.1046999990940094,3.100000029347116,3.0520000211812053,-0.08299999855663877
-0.04092169553041458,0.1177564188838005,9.939777374267578,0.14309999346733093,-0.22059999406337738,0.12469999492168427,0.4179999999636699,-1.7209999904037625,-0.0859999990670082
-0.041151538491249084,0.12479536980390549,9.913009643554688,0.13830000162124634,-0.2117999941110611,0.10499999672174454,5.760999895075417,2.8639999180502502,0.14399999781730613
-0.04665820300579071,0.12193191051483154,9.916362762451172,0.1459999978542328,-0.23709999024868011,0.10569999366998672,28.102999462672347,2.511999929314708,0.03999999902313467
-0.048094723373651505,0.11264239996671677,9.929425239562988,0.1428000032901764,-0.32339999079704285,0.11859999597072601,9.522999788026741,0.42899999294154895,0.48299997544777223
-0.053400274366140366,0.12491986900568008,9.930315017700195,0.14379999041557312,-0.3522000014781952,0.11989999562501907,-23.127000039095666,-4.685999836701695,-0.1610000051561373
-0.045365333557128906,0.11952812224626541,9.926264762878418,0.12299999594688416,-0.25270000100135803,0.11559999734163284,-4.9770000462900885,5.529999909137825,0.012000000373951061
-0.0394468680024147,0.12519758939743042,9.915203094482422,0.13779999315738678,-0.22859999537467957,0.10559999942779541,22.81599932807018,-3.6379999430038574,0.23199999500119176
-0.04045243188738823,0.11858002841472626,9.929701805114746,0.1273999959230423,-0.29999998211860657,0.11759999394416809,-6.185000109503238,5.437000053398931,-0.09099999769425504
-0.04720408096909523,0.12033258378505707,9.91223430633545,0.14379999041557312,-0.2802000045776367,0.10719999670982361,23.74899975359934,1.7159999717661958,0.02899999937514897
-0.06344634294509888,0.12300451099872589,9.91353702545166,0.12789998948574066,-0.3361999988555908,0.10969999432563782,-27.09099936165553,-1.3289999592893924,-0.11099999887334903
-0.05086242035031319,0.11647312343120575,9.915557861328125,0.13369999825954437,-0.2612999975681305,0.10649999976158142,17.030999855798633,-3.008999924931155,0.17100000241063099
-0.04206133633852005,0.11204864084720612,9.90082836151123,0.13490000367164612,-0.31679999828338623,0.08859999477863312,-19.763000391722862,-4.733999844867607,-0.30100000673968863
-0.04163037985563278,0.11946108937263489,9.91086483001709,0.12150000035762787,-0.25200000405311584,0.09600000083446503,22.522999580602267,-3.5759999680301244,-0.08400000095013078
-0.04372769966721535,0.10907024890184402,9.924616813659668,0.11019999533891678,-0.3303000032901764,0.11819999665021896,-37.522999998015294,12.856999537017554,0.19099999691961836
-0.048209644854068756,0.11952812224626541,9.927145957946777,0.1306999921798706,-0.2298000007867813,0.11509999632835388,-12.991999933510149,-9.49600005023768,-0.7299999996812375
-0.043143514543771744,0.11030566692352295,9.920681953430176,0.11419999599456787,-0.20319999754428864,0.10369999706745148,11.30600018029106,-12.628000369619953,-0.07399999702553048
-0.050393156707286835,0.11040142923593521,9.907532691955566,0.06949999928474426,-0.23330000042915344,0.09439999610185623,-21.167999332298457,20.947000023966233,0.7999999938029067
-0.03469676896929741,0.11994951218366623,9.917664527893066,0.1459999978542328,-0.1648000031709671,0.10319999605417252,-17.496999757206506,17.715000612493096,-0.06700000028140622
-0.04386177286505699,0.11971008032560349,9.910558700561523,0.19029998779296875,-0.11029999703168869,0.09309999644756317,-19.14100067721919,9.079999694875237,-0.7900000098886262
-0.05597643554210663,0.10681013017892838,9.910961151123047,0.15330000221729279,-0.06149999797344208,0.09139999747276306,9.182999801332675,-21.61499935498265,-0.5739999731420273
-0.05597643554210663,0.10681013017892838,9.910961151123047,0.15330000221729279,-0.06149999797344208,0.09139999747276306,9.182999801332675,-21.61499935498265,-0.5739999731420273
-0.061693791300058365,0.11332235485315323,9.914101600646973,0.08389999717473984,-0.08609999716281891,0.1005999967455864,11.813999768678988,-18.46300024171058,-0.22700000304405152
-0.044398076832294464,0.11411723494529724,9.913479804992676,0.05260000005364418,-0.11800000071525574,0.1006999984383583,12.891000218705878,-8.453000281899115,-0.6799999733881295
-0.05822698771953583,0.1244218721985817,9.91958999633789,0.006799999624490738,-0.14749999344348907,0.1014999970793724,11.336999847612809,-12.023000142186794,-0.5549999876966385
-0.04839160665869713,0.12093590945005417,9.914734840393066,-0.012299999594688416,-0.17409999668598175,0.10209999978542328,7.593000064445407,-24.07499956004217,-0.7870000093782568
-0.04968447610735893,0.11582189798355103,9.91103744506836,-0.07829999923706055,-0.19439999759197235,0.09299999475479126,-11.416000376874115,-3.8810001444263396,0.0969999987149939
-0.05613924190402031,0.12312900274991989,9.911468505859375,-0.08899999409914017,-0.16269999742507935,0.09209999442100525,-12.607999868182862,11.847999596593667,0.8540000029895564
-0.05533478781580925,0.11275732517242432,9.911210060119629,-0.056599996984004974,-0.13750000298023224,0.09109999984502792,4.884999959490956,0.7020000127047406,0.2729999930827651
-0.0394468680024147,0.12768757343292236,9.923439025878906,-0.054499998688697815,-0.13249999284744263,0.09139999747276306,-5.191999887210104,4.439000132633348,-0.5069999795307276
-0.04936843737959862,0.137906014919281,9.91762638092041,-0.03669999912381172,-0.13570000231266022,0.1014999970793724,6.540000045388297,12.426000086237764,0.9169999603464615
-0.04376600682735443,0.130570188164711,9.92308521270752,0.00699999975040555,-0.16290000081062317,0.11189999431371689,-0.03699999851276524,-11.396999644376786,-0.564999971610919
-0.051245495676994324,0.11247001588344574,9.907791137695312,-0.033799998462200165,-0.1818999946117401,0.09219999611377716,-4.594000176789386,5.370999935449097,0.6969999940671738
-0.039513904601335526,0.11567824333906174,9.920729637145996,-0.007400000002235174,-0.1574999988079071,0.10159999877214432,7.487999566334802,-0.31099999065396905,-0.5720000083756829
-0.058092910796403885,0.12708422541618347,9.927117347717285,-0.027699999511241913,-0.16509999334812164,0.11189999431371689,-7.467000149731597,3.299999921076137,0.8119999958443843
-0.05212656036019325,0.11539094895124435,9.939566612243652,-0.008899999782443047,-0.15399999916553497,0.12119999527931213,6.514000076538997,0.70500001321511,-0.8810000075828812
-0.049799397587776184,0.11873325705528259,9.908394813537598,-0.006799999624490738,-0.17139999568462372,0.09219999611377716,-4.3509999753669035,4.988999834888155,1.0100000295287666
-0.05583278089761734,0.11767023056745529,9.905128479003906,0.0066999997943639755,-0.1589999943971634,0.09200000017881393,-6.041999853945266,-3.3550000193676643,-0.03899999996469596
-0.05377376824617386,0.11234551668167114,9.92687702178955,-0.003499999875202775,-0.14970000088214874,0.11099999397993088,1.9240000427257116,-2.5739999042884407,-0.6679999713466518
-0.05163814127445221,0.1190875917673111,9.907081604003906,-0.009599999524652958,-0.14409999549388885,0.09149999916553497,1.7419999406154956,8.775000158809256,0.26300000916848465
-0.05582320690155029,0.11426088213920593,9.925957679748535,0.014299999922513962,-0.1581999957561493,0.11129999905824661,-2.959999934382072,0.6149999979040272,0.6630000060699379
-0.05283524468541145,0.13535858690738678,9.920048713684082,0.01589999906718731,-0.12019999325275421,0.10130000114440918,-3.0589998978634103,3.7540000338859456,-0.0429999995335041
-0.04592078924179077,0.11245086789131165,9.919330596923828,0.035999998450279236,-0.14079999923706055,0.10109999775886536,-2.709000087337624,-3.866999964175106,0.29899998861249133
-0.05755661055445671,0.12274593114852905,9.905128479003906,0.004399999976158142,-0.12229999899864197,0.09109999984502792,-3.162000004320849,-3.929999921532011,0.1629999966029081
-0.04891832917928696,0.10975020378828049,9.931857109069824,0.004799999762326479,-0.12409999966621399,0.12019999325275421,1.459999999362475,-6.826000129617418,-0.4169999909000712
-0.04120900109410286,0.11507491022348404,9.911286354064941,-0.003999999724328518,-0.11789999902248383,0.09079999476671219,0.9190000318345116,-5.191999887210104,-0.44399999549339614
-0.061435215175151825,0.12150094658136368,9.916851043701172,-0.03779999911785126,-0.11999999731779099,0.1006999984383583,-2.202000054446043,-4.942999791488589,-0.851000002479187
-0.03729208931326866,0.11857043951749802,9.933457374572754,-0.021800000220537186,-0.1136000007390976,0.1200999990105629,2.1200000049220438,-5.699000133545096,-0.7919999746549705
-0.05022077634930611,0.10310390591621399,9.920480728149414,-0.05889999866485596,-0.13939999043941498,0.1006999984383583,-0.8540000029895564,-0.7799999726134927,-0.15200000362502902
-0.045106757432222366,0.11638693511486053,9.922270774841309,-0.05089999735355377,-0.11729999631643295,0.1103999987244606,0.43799999447265725,2.7210000893791015,0.1729999938574018
-0.05566040053963661,0.11343728005886078,9.919388771057129,-0.05309999734163284,-0.12799999117851257,0.1005999967455864,1.8809999464756615,-2.5929999964555352,-0.012000000373951061
-0.051599834114313126,0.11415553838014603,9.90825080871582,-0.060099996626377106,-0.13269999623298645,0.09099999815225601,2.2030000368292155,0.14699999832767557,-0.5500000224199247
-0.0394468680024147,0.12008357793092728,9.918890953063965,-0.049799997359514236,-0.12860000133514404,0.10089999437332153,-1.2350000144456208,-3.405999974683092,-0.1419999930303221
-0.04606444016098976,0.1186087504029274,9.92050838470459,-0.06989999860525131,-0.12439999729394913,0.12039999663829803,-0.5339999841240525,-2.9359999302991167,-0.14600000260429016
-0.045844174921512604,0.11174218356609344,9.920785903930664,-0.05590000003576279,-0.12060000002384186,0.1006999984383583,-2.283999890526631,1.4979999702532527,1.054000001440283
-0.039772480726242065,0.10079588741064072,9.930094718933105,-0.05959999933838844,-0.13179999589920044,0.11029999703168869,2.7669999193352566,1.8050000046941066,-0.6919999754296072
-0.0482192225754261,0.12378980219364166,9.917932510375977,-0.06430000066757202,-0.11939999461174011,0.1006999984383583,-2.6899999951705293,-0.49600001323327503,0.33900000431089256
-0.04129519313573837,0.12390472739934921,9.917328834533691,-0.055799998342990875,-0.11079999804496765,0.10049999505281448,1.821999918651445,2.3210000924776484,-0.3310000118433829
-0.042655099183321,0.1183789074420929,9.929472923278809,-0.05009999871253967,-0.11479999870061874,0.1103999987244606,-2.1050000557310495,-0.014999999216793838,0.49600001323327503
-0.04909071326255798,0.12522631883621216,9.918804168701172,-0.05979999899864197,-0.09889999777078629,0.10040000081062317,0.1400000015835513,-2.2209999331697263,0.128999995265459
-0.04413950443267822,0.12357911467552185,9.903155326843262,-0.0559999980032444,-0.1087999939918518,0.09059999883174896,2.1139998971795992,-3.4779999869319584,0.0019999999928448997
-0.034016817808151245,0.12375149875879288,9.909801483154297,-0.05549999698996544,-0.11419999599456787,0.09079999476671219,3.163999969087193,1.5049999536571637,-0.20899999998183494
-0.054827217012643814,0.11816821992397308,9.91877555847168,-0.07029999792575836,-0.12359999865293503,0.10080000013113022,-1.4280000294924364,-1.5680000177357747,-0.10100000161885533
-0.05037400498986244,0.11106222867965698,9.918536186218262,-0.0738999992609024,-0.12969999015331268,0.1006999984383583,1.660999980196374,-1.0849999889271496,-0.7429999841058874
-0.048046842217445374,0.11459606885910034,9.911468505859375,-0.07669999450445175,-0.1339000016450882,0.09099999815225601,0.2499999980634083,-2.0279999181229105,0.11599999750059588
-0.04447469115257263,0.1066281646490097,9.914657592773438,-0.0722000002861023,-0.13419999182224274,0.10089999437332153,1.9100000759178895,-0.03599999945432653,-0.7369999830851486
-0.040912117809057236,0.113983154296875,9.914542198181152,-0.07209999859333038,-0.13910000026226044,0.10099999606609344,2.3069999122264147,1.2809999511234815,-0.9289999623879391
-0.05993165448307991,0.12155841290950775,9.912263870239258,-0.08749999850988388,-0.13609999418258667,0.10109999775886536,1.9669999255323498,1.7080000059791127,-0.4169999909000712
-0.05028781294822693,0.1190875917673111,9.929645538330078,-0.07339999824762344,-0.1403999924659729,0.11099999397993088,1.8850000894517618,1.97100006850845,-0.26200000010488605
-0.0663481131196022,0.1149216815829277,9.919905662536621,-0.07759999483823776,-0.1451999992132187,0.10130000114440918,1.8709999092005283,1.834999903076095,-0.006000000186975531
-0.05617754906415939,0.12453679740428925,9.922232627868652,-0.06260000169277191,-0.14019998908042908,0.1111999973654747,1.7569999965281957,-0.2570000081477458,-0.9219999789840281
-0.03729208931326866,0.10796891897916794,9.915825843811035,-0.04339999705553055,-0.16419999301433563,0.10159999877214432,0.2570000081477458,-0.7600000047849319,0.20899999998183494
-0.04507802799344063,0.1165880411863327,9.926206588745117,-0.055399999022483826,-0.15479999780654907,0.11140000075101852,-0.9719999519162833,2.1009999127549492,-0.07300000130214508
-0.05125506967306137,0.11480676382780075,9.893396377563477,-0.05999999865889549,-0.16189999878406525,0.08190000057220459,-0.920999996600856,-0.4630000076192113,0.585999975183505
-0.06010403856635094,0.1231098473072052,9.914542198181152,-0.07099999487400055,-0.14919999241828918,0.1013999953866005,0.08100000043976135,0.6729999899842184,0.24099999653230003
-0.04884171113371849,0.12088803201913834,9.91037654876709,-0.05920000001788139,-0.14899998903274536,0.09160000085830688,0.9519999840877224,-1.242999980232704,-0.19999999845072666
-0.04249228909611702,0.11631989479064941,9.902552604675293,-0.05260000005364418,-0.15119999647140503,0.0916999951004982,0.8609999863934674,2.3069999122264147,0.44800000506736415
-0.05251920595765114,0.11536221206188202,9.909706115722656,-0.04529999941587448,-0.1533999890089035,0.1014999970793724,-0.9409999644294169,-0.29399999665535115,1.0880000427983718
-0.06045838072896004,0.11907801777124405,9.91295337677002,-0.06830000132322311,-0.1517999917268753,0.1014999970793724,1.0919999723310605,0.8669999874142063,-0.6530000221556574
-0.0303297471255064,0.1041477769613266,9.908940315246582,-0.03629999980330467,-0.17399999499320984,0.0916999951004982,-1.7049999521078902,-1.7560000141450236,0.19699999794035722
-0.04317224398255348,0.12362699955701828,9.918909072875977,-0.05079999938607216,-0.1492999941110611,0.1013999953866005,0.9930000088497223,0.3499999972887716,-0.34800000584200086
-0.061952363699674606,0.1247570663690567,9.923419952392578,-0.06909999996423721,-0.142099991440773,0.11129999905824661,-0.739999983595518,0.20299999896109608,0.4109999898793324
-0.0489279069006443,0.11760319024324417,9.918344497680664,-0.05869999900460243,-0.14980000257492065,0.1013999953866005,-0.006000000186975531,-0.5129999805514666,0.17599999436777122
-0.0362577885389328,0.13229399919509888,9.91823959350586,-0.04039999842643738,-0.1395999938249588,0.1013999953866005,0.3119999997175677,-1.834999903076095,0.3499999972887716
-0.044991835951805115,0.10375512391328812,9.915384292602539,-0.05509999766945839,-0.16939999163150787,0.1013999953866005,-0.48599997595814165,-0.17100000241063099,0.5300000012305109
-0.029046455398201942,0.13383588194847107,9.903700828552246,-0.04559999704360962,-0.13830000162124634,0.09160000085830688,0.05499999823992851,-0.7590000224017597,-0.4930000127229056
-0.050508078187704086,0.1282142996788025,9.918488502502441,-0.0674000009894371,-0.13809999823570251,0.1013999953866005,-1.18700000627971,0.3529999977991411,-0.45300002370493087
-0.04800853505730629,0.11886732280254364,9.91544246673584,-0.06639999896287918,-0.14459998905658722,0.10130000114440918,-0.97699997055385,-1.939999974299878,0.023000000021936765
-0.06177040562033653,0.1116081103682518,9.920355796813965,-0.08129999786615372,-0.15139999985694885,0.10119999945163727,0.17599999436777122,-2.1070000204973938,-0.7669999881888429
-0.05867709219455719,0.12087845802307129,9.935985565185547,-0.08689999580383301,-0.14169999957084656,0.120899997651577,0.6260000175623326,-1.3469999623516091,-1.682000037129813
-0.04813303053379059,0.11271901428699493,9.915653228759766,-0.08049999922513962,-0.15289999544620514,0.10130000114440918,0.6009999777353522,-0.9380000172799003,-1.2309999781912264
-0.0541568398475647,0.1196526288986206,9.928055763244629,-0.08309999853372574,-0.1445000022649765,0.1111999973654747,0.3130000087811663,-0.7690000063160402,-1.5029999888908194
-0.03609498590230942,0.11578359454870224,9.91691780090332,-0.06499999761581421,-0.14489999413490295,0.1013999953866005,0.02800000031671026,-0.014999999216793838,-1.359999946776259
-0.05211698263883591,0.11294885724782944,9.9168701171875,-0.0843999981880188,-0.15439999103546143,0.1013999953866005,-0.12100000279794933,-0.35499998924591186,-0.4549999884712752
-0.04935886338353157,0.10474153608083725,9.920433044433594,-0.0851999968290329,-0.16349999606609344,0.1013999953866005,-0.015999999942759198,-0.7699999886992124,-0.07699999753589991
-0.03879564255475998,0.09834422916173935,9.908106803894043,-0.07729999721050262,-0.1630999892950058,0.09160000085830688,0.7390000012123459,0.05499999823992851,-0.19499999315337319
-0.05054638534784317,0.12987108528614044,9.898712158203125,-0.08669999986886978,-0.1356000006198883,0.08179999887943268,-0.5249999825929442,0.6219999813079381,1.6429999771341575
-0.05396530404686928,0.124402716755867,9.918631553649902,-0.08509999513626099,-0.1437000036239624,0.1013999953866005,0.6750000081114157,-0.6059999963729188,0.14699999832767557
-0.05385996401309967,0.11718180775642395,9.900368690490723,-0.08659999817609787,-0.1451999992132187,0.08179999887943268,0.6660000065803073,1.2590000185285763,-1.625999956455113
-0.05324704572558403,0.11270944029092789,9.920164108276367,-0.0828000009059906,-0.15649999678134918,0.1013999953866005,0.3819999938392367,-1.122999959817927,-3.4380000512748365
-0.054185573011636734,0.11868536472320557,9.910194396972656,-0.08559999614953995,-0.1477999985218048,0.0916999951004982,-0.8549999853727285,-0.4549999884712752,1.8459999227344006
-0.03833595663309097,0.10836157202720642,9.915902137756348,-0.08720000088214874,-0.1647000014781952,0.1013999953866005,-0.6609999879427407,-1.7159999717661958,-0.7369999830851486
-0.05637866258621216,0.11924082040786743,9.921964645385742,-0.07580000162124634,-0.1565999984741211,0.1013999953866005,0.6889999749192377,0.9149999955801171,2.2010000720628713
-0.042425256222486496,0.12791740894317627,9.914169311523438,-0.07809999585151672,-0.1370999962091446,0.1013999953866005,-0.7239999986604987,0.18199999538851008,-2.3159999671183757
-0.0521361343562603,0.117526575922966,9.92198371887207,-0.08729999512434006,-0.14489999413490295,0.1111999973654747,0.4999999961268166,0.9180000494513394,-0.10999999647985702
-0.05345773696899414,0.11454818397760391,9.921112060546875,-0.0843999981880188,-0.15629999339580536,0.1013999953866005,-0.44699999600376555,-0.711999996619021,0.27599999359313454
-0.05459737405180931,0.11975797265768051,9.90158462524414,-0.08609999716281891,-0.1454000025987625,0.08179999887943268,0.24399999704266945,-0.390999995370345,3.4890000065902638
-0.035903450101614,0.12109872698783875,9.915011405944824,-0.06780000030994415,-0.1459999978542328,0.1013999953866005,0.26300000916848465,0.38300000290283537,0.23900000508552924
-0.0475105382502079,0.12401007115840912,9.904180526733398,-0.07660000026226044,-0.14669999480247498,0.09160000085830688,-0.06800000267489824,-1.5099999722947304,-1.300000043290576
-0.025455152615904808,0.1260690838098526,9.919742584228516,-0.060999996960163116,-0.13669998943805695,0.1014999970793724,0.39399999588071444,-1.0030000461248556,-0.8009999761860788
-0.03256114199757576,0.1311926692724228,9.909170150756836,-0.0738999992609024,-0.1379999965429306,0.0916999951004982,0.6219999813079381,0.023000000021936765,2.047000010290005
-0.05067088454961777,0.1258392482995987,9.911909103393555,-0.09359999746084213,-0.13939999043941498,0.0916999951004982,0.2609999910412874,1.0449999465483217,0.20800000425844953
-0.03988740220665932,0.12859736382961273,9.907445907592773,-0.08089999854564667,-0.14010000228881836,0.0916999951004982,0.4579999889816446,1.4069999725589977,0.42899999294154895
-0.038642413914203644,0.11293928325176239,9.916908264160156,-0.0771000012755394,-0.16099999845027924,0.10159999877214432,0.3220000103122746,0.7729999892095818,-0.0859999990670082
-0.038048651069402695,0.1215679869055748,9.918000221252441,-0.06520000100135803,-0.15209999680519104,0.10159999877214432,0.5560000234406636,1.0449999465483217,0.03599999945432653
-0.040251318365335464,0.12395261228084564,9.901796340942383,-0.07180000096559525,-0.15379999577999115,0.0819999948143959,0.5200000173162305,0.22100000202331266,0.7410000193395431
-0.06566816568374634,0.11187625676393509,9.929884910583496,-0.0908999964594841,-0.1648000031709671,0.11140000075101852,0.16500000138989213,0.796000010909365,0.07300000130214508
-0.044512998312711716,0.1289038211107254,9.919723510742188,-0.06909999996423721,-0.14569999277591705,0.10159999877214432,0.4100000074961602,0.22100000202331266,0.17599999436777122
-0.04212837293744087,0.1158985123038292,9.91304874420166,-0.06849999725818634,-0.1565999984741211,0.10170000046491623,0.32700000226941484,-0.14900000311465958,0.6870000101528934
-0.04651454836130142,0.11415553838014603,9.914944648742676,-0.0689999982714653,-0.1673000007867813,0.10170000046491623,0.11500000177721047,-1.181000005258971,0.3540000068627397
-0.049722783267498016,0.10380300879478455,9.921753883361816,-0.08240000158548355,-0.17739999294281006,0.11149999499320984,-0.551000004803097,-1.255999964657354,-0.9149999955801171
-0.05547844246029854,0.12505394220352173,9.915548324584961,-0.08540000021457672,-0.14669999480247498,0.10170000046491623,-0.35199998873554245,0.2890000046982109,-0.41600000851689906
-0.03773261979222298,0.12436441332101822,9.902993202209473,-0.0648999959230423,-0.15549999475479126,0.09189999848604202,0.13799999679656727,0.5089999976579249,0.1319999957758284
-0.06194278597831726,0.12512098252773285,9.915087699890137,-0.09299999475479126,-0.1460999995470047,0.10170000046491623,-0.23199999500119176,-1.2239999947873152,-0.0019999999928448997
-0.039609674364328384,0.12258312851190567,9.916802406311035,-0.07669999450445175,-0.15529999136924744,0.10170000046491623,0.42599999243117953,0.43400001157911566,-0.15500000413539844
-0.0507187694311142,0.10914686322212219,9.920096397399902,-0.0949999988079071,-0.1565999984741211,0.11149999499320984,0.42899999294154895,0.37400000137172706,-0.149999998838045
-0.05032612010836601,0.12251608818769455,9.911372184753418,-0.08669999986886978,-0.16589999198913574,0.10170000046491623,0.03599999945432653,-0.42200000953763794,-0.16400000566650674
-0.03694731742143631,0.11993992328643799,9.902379989624023,-0.06719999760389328,-0.1573999971151352,0.08209999650716782,-0.07699999753589991,0.7849999912510595,-0.2159999967259592
-0.04685931280255318,0.1264234185218811,9.933064460754395,-0.07479999959468842,-0.14729999005794525,0.12129999697208405,0.18099999966512467,-0.24599998848944027,-0.05900000114378995
-0.03462973237037659,0.11878113448619843,9.91620922088623,-0.06579999625682831,-0.15770000219345093,0.10170000046491623,0.4089999984325616,0.008999999863581633,0.2140000052791884
-0.03837426379323006,0.12670116126537323,9.931205749511719,-0.07559999823570251,-0.14890000224113464,0.12139999866485596,0.3319999942265551,-0.07900000232288394,-0.10400000212922476
-0.042358215898275375,0.11110053211450577,9.918737411499023,-0.07580000162124634,-0.16939999163150787,0.10179999470710754,-0.2469999975530389,-0.6609999879427407,-0.1390000058601659
-0.0427795946598053,0.100355364382267,9.930353164672852,-0.07759999483823776,-0.1784999966621399,0.11159999668598175,0.09800000110848592,-0.390999995370345,0.021000000237532696
-0.045844174921512604,0.11448115110397339,9.9178466796875,-0.07859999686479568,-0.16899999976158142,0.10179999470710754,0.06299999737754478,-0.05099999867112037,0.07300000130214508
-0.0433637797832489,0.11334151029586792,9.916476249694824,-0.07880000025033951,-0.16910000145435333,0.10179999470710754,0.43699998540905866,0.6459999853908935,0.05499999823992851
-0.0522606335580349,0.12697888910770416,9.915328025817871,-0.08699999749660492,-0.15049999952316284,0.10179999470710754,0.321000001248676,0.283000003677472,-0.021999999295971403
-0.04516422376036644,0.114442840218544,9.895340919494629,-0.07639999687671661,-0.17099998891353607,0.08219999819993973,0.40400000647542134,0.42599999243117953,-0.021999999295971403
-0.05282566323876381,0.11570698022842407,9.91321086883545,-0.08509999513626099,-0.1622999906539917,0.10179999470710754,0.25599999908414717,0.12599999475508955,-0.12599999475508955
-0.05801629647612572,0.11890563368797302,9.92313289642334,-0.09449999779462814,-0.16300000250339508,0.11169999837875366,0.747000020360282,0.41199999894293104,0.06899999839828364
-0.033260248601436615,0.1180054172873497,9.916314125061035,-0.06379999965429306,-0.16519999504089355,0.10189999639987946,0.5780000093964218,-0.05099999867112037,0.006000000186975531
-0.052480898797512054,0.1177755743265152,9.918066024780273,-0.0835999995470047,-0.16659998893737793,0.10199999809265137,0.39599998732748526,-0.17100000241063099,0.16500000138989213
-0.049722783267498016,0.1175457239151001,9.907196998596191,-0.08399999886751175,-0.16769999265670776,0.09219999611377716,-0.02600000053230619,-0.5759999912692245,0.08200000283325337
-0.051858410239219666,0.11957601457834244,9.904802322387695,-0.08559999614953995,-0.16759999096393585,0.09219999611377716,-0.23499999551156117,-0.6399999843701547,-0.03999999902313467
-0.03729208931326866,0.1137341558933258,9.918785095214844,-0.06769999861717224,-0.17669999599456787,0.10199999809265137,-0.20299999896109608,-0.4500000231945614,0.12100000279794933
-0.056694693863391876,0.12529335916042328,9.907522201538086,-0.08869999647140503,-0.15649999678134918,0.09219999611377716,0.06299999737754478,0.363000008393848,0.11099999887334903
-0.03704308718442917,0.12967953085899353,9.92678165435791,-0.06830000132322311,-0.1565999984741211,0.11180000007152557,0.14799999405106096,-0.14900000311465958,0.03899999996469596
-0.04679227992892265,0.11043015867471695,9.919569969177246,-0.07840000092983246,-0.17649999260902405,0.10199999809265137,-0.24899998899980968,-0.0019999999928448997,-0.15399999507179982
-0.04392881318926811,0.11762233823537827,9.915288925170898,-0.07840000092983246,-0.16599999368190765,0.10199999809265137,0.41300000800652964,0.21800000151294321,0.0030000000934877653
-0.04163995757699013,0.12072522938251495,9.902724266052246,-0.07779999822378159,-0.1670999974012375,0.09219999611377716,-0.038000000906257256,-0.22299999347008345,-0.13000000432905762
-0.05405149981379509,0.11465353518724442,9.921217918395996,-0.07849999517202377,-0.17679999768733978,0.10199999809265137,0.0859999990670082,-0.4100000074961602,-0.15399999507179982
-0.05158068239688873,0.12011231482028961,9.919148445129395,-0.08869999647140503,-0.16779999434947968,0.10199999809265137,0.40599999792219216,0.4870000117021667,0.03599999945432653
-0.05671384930610657,0.1113782674074173,9.90087604522705,-0.08729999512434006,-0.17870000004768372,0.08240000158548355,0.18700000068586353,0.4089999984325616,0.043999998591942806
-0.04741477221250534,0.1251497119665146,9.915605545043945,-0.07639999687671661,-0.15959998965263367,0.10209999978542328,-0.07300000130214508,0.02600000053230619,-0.10199999734224074
-0.05522944778203964,0.12685438990592957,9.910386085510254,-0.08609999716281891,-0.15929999947547913,0.09219999611377716,-0.19699999794035722,0.2289999944908223,0.13100000005244303
-0.03987782448530197,0.10794977098703384,9.906095504760742,-0.07569999992847443,-0.17839999496936798,0.09219999611377716,-0.16699999283666295,0.18900000547284757,-0.015999999942759198
-0.04443638399243355,0.12022723257541656,9.910701751708984,-0.07519999891519547,-0.1680999994277954,0.09219999611377716,-0.34200000482126197,-0.325000010822644,-0.023000000021936765
-0.05860047787427902,0.12261185795068741,9.910961151123047,-0.09569999575614929,-0.1670999974012375,0.09219999611377716,-0.024999999806340833,0.015999999942759198,0.09500000059811649
-0.04535575956106186,0.11712434142827988,9.915987968444824,-0.07599999755620956,-0.16689999401569366,0.10199999809265137,0.09200000008774706,-0.16400000566650674,0.0749999994190225
-0.03699520602822304,0.12522631883621216,9.912760734558105,-0.06659999489784241,-0.15729999542236328,0.10199999809265137,0.128999995265459,0.16599999711327754,-0.0039999999856897995
-0.05594770610332489,0.11705730855464935,9.923890113830566,-0.08579999953508377,-0.1673000007867813,0.11180000007152557,-0.24299998797907083,-0.30700000776042746,0.05499999823992851
-0.03254198655486107,0.12312900274991989,9.914226531982422,-0.06700000166893005,-0.16659998893737793,0.10199999809265137,0.07600000181251451,-0.2740000021463637,0.010999999647985701
-0.043047744780778885,0.12105083465576172,9.899181365966797,-0.07750000059604645,-0.16679999232292175,0.08240000158548355,-0.15200000362502902,-0.3849999943496062,0.041000001416626686
-0.044398076832294464,0.1172967329621315,9.912215232849121,-0.07859999686479568,-0.1662999987602234,0.10199999809265137,0.16699999283666295,0.26900001018922354,-0.08400000095013078
-0.049895163625478745,0.12547531723976135,9.905242919921875,-0.08760000020265579,-0.15699999034404755,0.09219999611377716,0.12799999954207358,0.14099999730693671,0.0030000000934877653
-0.038240186870098114,0.14172716438770294,9.911947250366211,-0.06749999523162842,-0.14739999175071716,0.09219999611377716,0.3339999856733259,0.0019999999928448997,-0.03699999851276524
-0.03834553435444832,0.09959879517555237,9.91517448425293,-0.07729999721050262,-0.1875,0.10199999809265137,-0.0659999978879142,-0.057000003026912535,0.15599999985878385
-0.04225287213921547,0.11988247185945511,9.91118049621582,-0.07739999890327454,-0.16749998927116394,0.09219999611377716,0.19200000598321698,0.0019999999928448997,0.10100000161885533
-0.04493437707424164,0.11126334220170975,9.913451194763184,-0.07739999890327454,-0.1776999980211258,0.10199999809265137,0.26699999206202624,-0.3690000094145868,-0.14799999405106096
-0.04618893936276436,0.12319604307413101,9.919598579406738,-0.07849999517202377,-0.16869999468326569,0.10199999809265137,-0.03899999996469596,-0.03899999996469596,0.20899999998183494
-0.04156334325671196,0.1213189885020256,9.9230375289917,-0.07849999517202377,-0.16849999129772186,0.11180000007152557,0.10400000212922476,0.27899999410350396,-0.05600000063342052
-0.0432392843067646,0.12138602137565613,9.913957595825195,-0.07779999822378159,-0.16869999468326569,0.10199999809265137,0.1749999986443858,-0.06399999977103679,-0.08499999667351618
-0.038853105157613754,0.1336539089679718,9.91572093963623,-0.0778999999165535,-0.15919999778270721,0.10199999809265137,0.18400000017549412,-0.4390000035362559,0.17599999436777122
-0.04884171113371849,0.11365754157304764,9.915031433105469,-0.08889999985694885,-0.179299995303154,0.10209999978542328,0.019999999511567335,0.2250000115972807,-0.20899999998183494
-0.04315309226512909,0.1305510252714157,9.910088539123535,-0.07829999923706055,-0.15969999134540558,0.09229999780654907,0.10999999647985702,-0.14399999781730613,0.02600000053230619
-0.03547249361872673,0.11149318516254425,9.924903869628906,-0.06870000064373016,-0.1695999950170517,0.09229999780654907,0.4199999914104407,0.24099999653230003,0.035000000395887826
-0.04796064645051956,0.1193174347281456,9.916888236999512,-0.08819999545812607,-0.1703999936580658,0.10209999978542328,0,0.2909999961449817,-0.09800000110848592
-0.05708734691143036,0.11851298809051514,9.916438102722168,-0.08739999681711197,-0.17029999196529388,0.10209999978542328,-0.017999999727163266,0.10299999973573276,0.01400000015835513
-0.05062299966812134,0.11257535964250565,9.920661926269531,-0.08699999749660492,-0.17989999055862427,0.10209999978542328,0.17799999915475526,-0.14900000311465958,-0.035000000395887826
-0.04090254381299019,0.11539094895124435,9.933457374572754,-0.07750000059604645,-0.1704999953508377,0.1216999962925911,0.1729999938574018,-0.02800000031671026,0.12199999852133472
-0.046294283121824265,0.12649045884609222,9.919014930725098,-0.07750000059604645,-0.16099999845027924,0.10209999978542328,-0.12499999903170415,-0.20800000425844953,0.03899999996469596
-0.04199429601430893,0.12632766366004944,9.911956787109375,-0.07809999585151672,-0.1605999916791916,0.09229999780654907,0.013000000266153095,-0.2710000016359943,0.13499999628619785
-0.04228160157799721,0.12068691849708557,9.900522232055664,-0.07880000025033951,-0.1703999936580658,0.08249999582767487,0.09099999769425504,-0.02800000031671026,0.16999999334703236
-0.05381207540631294,0.13089579343795776,9.916725158691406,-0.08869999647140503,-0.1606999933719635,0.10209999978542328,0.16800000190026157,-0.5889999756938744,0.06299999737754478
-0.049588706344366074,0.1313842236995697,9.903223037719727,-0.09009999781847,-0.16099999845027924,0.09229999780654907,0.013000000266153095,-0.42899999294154895,0.0039999999856897995
-0.04437892138957977,0.12718956172466278,9.913057327270508,-0.08139999955892563,-0.16099999845027924,0.10209999978542328,0.1830000044521087,0.369999991797759,-0.05099999867112037
-0.051839254796504974,0.11972924321889877,9.907560348510742,-0.09019999951124191,-0.1712999939918518,0.09229999780654907,0.03899999996469596,0.19000000119623298,0.024000000747902123
-0.05317043140530586,0.11452902853488922,9.917884826660156,-0.08959999680519104,-0.1809999942779541,0.10209999978542328,0.17599999436777122,0.14600000260429016,-0.12700000381868817
-0.050747498869895935,0.11512279510498047,9.904994010925293,-0.08909999579191208,-0.17170000076293945,0.09229999780654907,-0.3089999992071983,-0.3190000098019052,0.07199999890865307
-0.04196557030081749,0.12464214116334915,9.907331466674805,-0.07999999821186066,-0.16110000014305115,0.09229999780654907,-0.06800000267489824,0.38400001196643396,0.10299999973573276
-0.055057063698768616,0.11905886232852936,9.905023574829102,-0.08879999816417694,-0.17059999704360962,0.09229999780654907,0.2929999875917525,0.03899999996469596,0.20200000323771067
-0.04149630293250084,0.10851480066776276,9.907235145568848,-0.07889999449253082,-0.18119999766349792,0.09229999780654907,-0.1079999983629796,0.07799999992939192,-0.2150000010025738
-0.043210551142692566,0.1270076185464859,9.909073829650879,-0.07859999686479568,-0.16120000183582306,0.09229999780654907,-0.08200000283325337,0.2039999946844815,0.023000000021936765
-0.03968628868460655,0.12623189389705658,9.931560516357422,-0.0778999999165535,-0.1607999950647354,0.1216999962925911,0.0659999978879142,-0.28699998657101367,0.08200000283325337
-0.0488225594162941,0.1327345371246338,9.907915115356445,-0.08839999884366989,-0.16089999675750732,0.09229999780654907,0.23000000355442093,0.5119999981682943,-0.019000000453128628
-0.0451354905962944,0.1207156553864479,9.911994934082031,-0.07719999551773071,-0.1712999939918518,0.10209999978542328,-0.11299999699022645,-0.13000000432905762,-0.11400000605382507
-0.04139095917344093,0.10923305153846741,9.901901245117188,-0.07739999890327454,-0.18050000071525574,0.08249999582767487,0.021999999295971403,-0.28600000418784144,-0.010999999647985701
-0.052164867520332336,0.13039779663085938,9.912521362304688,-0.08799999952316284,-0.16089999675750732,0.09229999780654907,0.2140000052791884,-0.07999999804626934,-0.021999999295971403
-0.046715665608644485,0.12496775388717651,9.923439025878906,-0.07759999483823776,-0.1613999903202057,0.11189999431371689,0.04500000098543482,-0.4969999956164472,0.0019999999928448997
-0.04971320182085037,0.12081141769886017,9.903902053833008,-0.08869999647140503,-0.1711999922990799,0.09229999780654907,0.3130000087811663,-0.128999995265459,-0.15200000362502902
-0.04936843737959862,0.12447933107614517,9.911564826965332,-0.08899999409914017,-0.171999990940094,0.09229999780654907,0.12499999903170415,0.2959999881021219,0.006000000186975531
-0.05088157206773758,0.11524729430675507,9.908442497253418,-0.08819999545812607,-0.17229999601840973,0.09229999780654907,-0.007999999971379599,0.2069999951948509,0.0539999991814898
-0.05086242035031319,0.1303595006465912,9.904630661010742,-0.08749999850988388,-0.1621999889612198,0.09229999780654907,-0.41300000800652964,0.06899999839828364,-0.09500000059811649
-0.04317224398255348,0.12551362812519073,9.920978546142578,-0.07750000059604645,-0.16120000183582306,0.10209999978542328,0.10900000075647161,0.20099999417411205,0.06200000165415938
-0.05755661055445671,0.12355995923280716,9.910999298095703,-0.09649999439716339,-0.1711999922990799,0.09229999780654907,0.007999999971379599,0.1800000039417393,-0.07099999651516105
-0.04603571072220802,0.12455594539642334,9.91523265838623,-0.0762999951839447,-0.16120000183582306,0.10209999978542328,0.13000000432905762,0.029999998433587676,-0.18900000547284757
-0.04172614589333534,0.12463255971670151,9.919637680053711,-0.07620000094175339,-0.1614999920129776,0.10209999978542328,0.38699998579637696,0.03100000082707969,0.27599999359313454
-0.06270892918109894,0.12360785156488419,9.922070503234863,-0.09569999575614929,-0.17239999771118164,0.11189999431371689,0.0749999994190225,0.26300000916848465,-0.15900000036915327
-0.0510731115937233,0.12989023327827454,9.898165702819824,-0.0851999968290329,-0.16269999742507935,0.08249999582767487,-0.3879999948599756,-0.26300000916848465,0.15200000362502902
-0.05331408232450485,0.12563812732696533,9.911429405212402,-0.08590000122785568,-0.1615999937057495,0.09229999780654907,-0.2039999946844815,-0.08100000043976135,-0.1729999938574018
-0.0445513054728508,0.11744038760662079,9.901719093322754,-0.0762999951839447,-0.17069999873638153,0.08249999582767487,0.2259999939804529,0.14399999781730613,0.01400000015835513
-0.05136999115347862,0.12464214116334915,9.929147720336914,-0.08569999784231186,-0.1613999903202057,0.11189999431371689,0.46199997187518627,0.017999999727163266,0.006000000186975531
-0.045298296958208084,0.11156021803617477,9.915260314941406,-0.07580000162124634,-0.18239998817443848,0.10209999978542328,-0.27599999359313454,-0.3759999928184979,-0.06899999839828364
-0.04739561676979065,0.1388828605413437,9.93549633026123,-0.07669999450445175,-0.15219999849796295,0.1216999962925911,-0.08400000095013078,-0.02600000053230619,0.14900000311465958
-0.04386177286505699,0.11811075359582901,9.906737327575684,-0.07669999450445175,-0.17139999568462372,0.09229999780654907,0.05999999686717535,0.08700000146050021,0.014999999216793838
-0.05687665566802025,0.1220468282699585,9.907829284667969,-0.08609999716281891,-0.1712999939918518,0.09229999780654907,-0.4649999723855557,0.0039999999856897995,0
-0.05445372313261032,0.11757445335388184,9.915481567382812,-0.08609999716281891,-0.16990000009536743,0.10209999978542328,0.02899999937514897,0.25100000712700693,0.06800000267489824
-0.029036877676844597,0.10184933990240097,9.927078247070312,-0.065700002014637,-0.18949998915195465,0.11189999431371689,-0.05099999867112037,0.16599999711327754,-0.12100000279794933
-0.04812345653772354,0.12766841053962708,9.928093910217285,-0.08479999750852585,-0.1597999930381775,0.11189999431371689,-0.475000009660689,-0.038000000906257256,-0.007000000079177565
-0.04448426887392998,0.12982319295406342,9.922635078430176,-0.07499999552965164,-0.15839999914169312,0.09219999611377716,-0.31800000073830653,0.05300000012305109,0.16899999762364695
-0.05634992942214012,0.11533348262310028,9.924779891967773,-0.07530000060796738,-0.1581999957561493,0.11180000007152557,0.4720000091503196,0.16800000190026157,-0.0969999987149939
-0.05469314008951187,0.1227555051445961,9.904678344726562,-0.08500000089406967,-0.1670999974012375,0.11180000007152557,0.10999999647985702,0.0009999999964224499,0.02899999937514897
-0.05070919170975685,0.12161586433649063,9.923477172851562,-0.08429999649524689,-0.16849999129772186,0.11180000007152557,0.21899999723632863,0.10400000212922476,0.10900000075647161
-0.04727111756801605,0.12278424203395844,9.92634105682373,-0.07419999688863754,-0.16899999976158142,0.11180000007152557,-0.007999999971379599,0.38100001145606455,-0.048000001495804245
-0.04757757484912872,0.11769896000623703,9.923678398132324,-0.0731000006198883,-0.1687999963760376,0.11180000007152557,0.09800000110848592,0.16899999762364695,0
-0.050153736025094986,0.14126747846603394,9.90699577331543,-0.08229999989271164,-0.1492999941110611,0.09219999611377716,0.01700000066872456,-0.3770000018820965,-0.004999999877891834
-0.04376600682735443,0.10934797674417496,9.91504955291748,-0.07360000163316727,-0.1785999983549118,0.10199999809265137,0.04900000055424296,-0.29500000571894974,0.16500000138989213
-0.05875370651483536,0.11245086789131165,9.935802459716797,-0.09389999508857727,-0.1785999983549118,0.12159999459981918,-0.0859999990670082,0.1079999983629796,-0.019000000453128628
-0.04033751040697098,0.12174994498491287,9.912091255187988,-0.0738999992609024,-0.16830000281333923,0.10199999809265137,0.008999999863581633,-0.012000000373951061,0.03899999996469596
-0.0457388311624527,0.12515929341316223,9.907407760620117,-0.0737999975681305,-0.1582999974489212,0.09219999611377716,-0.048000001495804245,0.0039999999856897995,-0.11400000605382507
-0.05604347214102745,0.11370542645454407,9.925230026245117,-0.08349999785423279,-0.17749999463558197,0.11180000007152557,0.017999999727163266,-0.09600000299160849,-0.12400000330831876
-0.04373727738857269,0.11118672788143158,9.925766944885254,-0.0738999992609024,-0.17739999294281006,0.11180000007152557,0.07799999992939192,-0.14099999730693671,0.03899999996469596
-0.055009178817272186,0.11531433463096619,9.908259391784668,-0.08389999717473984,-0.16749998927116394,0.09219999611377716,0.16400000566650674,-0.3029999981864594,0.010999999647985701
-0.04322970658540726,0.1377815306186676,9.903471946716309,-0.07490000128746033,-0.14819999039173126,0.09219999611377716,0.1509999945614304,0.128999995265459,0.048000001495804245
-0.04784572497010231,0.11945150792598724,9.910490989685059,-0.07440000027418137,-0.1678999960422516,0.09219999611377716,-0.013000000266153095,-0.09200000008774706,0.04200000047506539
-0.054492030292749405,0.12116575986146927,9.920978546142578,-0.0843999981880188,-0.16759999096393585,0.10199999809265137,0.006000000186975531,-0.25299999857377775,0.12499999903170415
-0.046955082565546036,0.12472832947969437,9.912080764770508,-0.07530000060796738,-0.15770000219345093,0.10199999809265137,-0.07799999992939192,0.1830000044521087,-0.24500000610626807
-0.037857115268707275,0.13274411857128143,9.912004470825195,-0.06499999761581421,-0.1573999971151352,0.10199999809265137,0.09999999922536333,-0.11099999887334903,-0.1079999983629796
-0.041812337934970856,0.13143210113048553,9.925622940063477,-0.07499999552965164,-0.1574999988079071,0.11180000007152557,0.004999999877891834,0.19999999845072666,0.11500000177721047
-0.04487691447138786,0.12450806796550751,9.90962028503418,-0.07440000027418137,-0.1573999971151352,0.09219999611377716,0.08200000283325337,-0.16500000138989213,0.12599999475508955
-0.03663128614425659,0.11011412739753723,9.926982879638672,-0.06499999761581421,-0.1768999993801117,0.11180000007152557,0.15900000036915327,0.0039999999856897995,-0.16899999762364695
-0.04509718343615532,0.11828314512968063,9.904372215270996,-0.0746999979019165,-0.16749998927116394,0.09219999611377716,0.3660000089042174,-0.1610000051561373,-0.0659999978879142
-0.05221274867653847,0.1066473200917244,9.927748680114746,-0.08489999920129776,-0.17809998989105225,0.11180000007152557,0.37800001094569513,-0.21200000049220435,0.14499999354069154
-0.05316085368394852,0.12060073018074036,9.894957542419434,-0.08549999445676804,-0.15929999947547913,0.09219999611377716,-0.33600000380052314,0.38999998630674637,-0.19499999315337319
-0.05316085368394852,0.12060073018074036,9.894957542419434,-0.08429999649524689,-0.1680999994277954,0.08240000158548355,0.5390000027616192,-0.1400000015835513,0.15599999985878385
-0.050843264907598495,0.1252167522907257,9.922635078430176,-0.07490000128746033,-0.16939999163150787,0.11189999431371689,0.16500000138989213,0.20299999896109608,-0.019000000453128628
-0.05583278089761734,0.12446975708007812,9.921360969543457,-0.08460000157356262,-0.16030000150203705,0.11189999431371689,-0.16800000190026157,0.02600000053230619,-0.09000000197086964
-0.043612778186798096,0.12024638056755066,9.920805931091309,-0.07409999519586563,-0.1695999950170517,0.10199999809265137,0.31099999065396905,0.1529999993484144,0.04200000047506539
-0.056761734187603,0.12117534130811691,9.908921241760254,-0.08339999616146088,-0.17029999196529388,0.09229999780654907,-0.07600000181251451,-0.048000001495804245,-0.05099999867112037
-0.05668511986732483,0.12265974283218384,9.905740737915039,-0.08339999616146088,-0.16979999840259552,0.09219999611377716,0.009999999755783667,0.23099998593759313,0.12599999475508955
-0.052931010723114014,0.1400512307882309,9.920557022094727,-0.08259999752044678,-0.1500999927520752,0.10199999809265137,0.03400000133744912,0.09500000059811649,-0.0329999989439571
-0.05393657833337784,0.12342588603496552,9.913278579711914,-0.08229999989271164,-0.16949999332427979,0.10199999809265137,0.04500000098543482,0.23000000355442093,-0.10400000212922476
-0.05795883387327194,0.11654973775148392,9.906057357788086,-0.09139999747276306,-0.16949999332427979,0.09219999611377716,0.13400000056281244,-0.09999999922536333,0.07999999804626934
-0.04363192990422249,0.11689449846744537,9.904123306274414,-0.07189999520778656,-0.16949999332427979,0.09219999611377716,0.1390000058601659,0.007999999971379599,0.12199999852133472
-0.0439479686319828,0.13702495396137238,9.928984642028809,-0.07180000096559525,-0.1500999927520752,0.11180000007152557,0.09899999683187131,0.18199999538851008,-0.05600000063342052
-0.0347159244120121,0.12016976624727249,9.918707847595215,-0.06129999831318855,-0.1696999967098236,0.10199999809265137,-0.12599999475508955,0.09300000248123906,0.128999995265459
-0.04919605702161789,0.131489560008049,9.913756370544434,-0.08060000091791153,-0.15929999947547913,0.10199999809265137,-0.1180000022875799,0.04600000004387353,-0.06399999977103679
-0.047002967447042465,0.12562856078147888,9.928265571594238,-0.07050000131130219,-0.15869998931884766,0.11180000007152557,-0.02800000031671026,0.14799999405106096,0.16599999711327754
-0.03764642775058746,0.12681607902050018,9.909687042236328,-0.06019999831914902,-0.1582999974489212,0.09219999611377716,-0.023000000021936765,-0.08700000146050021,-0.09500000059811649
-0.046323012560606,0.1265287697315216,9.916236877441406,-0.07009999454021454,-0.15799999237060547,0.10199999809265137,0.049999999612681666,-0.019000000453128628,-0.09800000110848592
-0.04606444016098976,0.1251305490732193,9.92530632019043,-0.07009999454021454,-0.15789999067783356,0.11180000007152557,0.13000000432905762,0.2519999895101791,-0.11599999750059588
-0.05277778208255768,0.12051453441381454,9.90290641784668,-0.07919999957084656,-0.1678999960422516,0.09219999611377716,0.07000000079177565,-0.04200000047506539,0.02800000031671026
-0.05673300102353096,0.12852075695991516,9.911890029907227,-0.07919999957084656,-0.15789999067783356,0.09219999611377716,0.08200000283325337,-0.06399999977103679,-0.17100000241063099
-0.05305550992488861,0.12503479421138763,9.908374786376953,-0.07919999957084656,-0.15779998898506165,0.09219999611377716,-0.09300000248123906,0.012000000373951061,0.11099999887334903
-0.04589205980300903,0.1271321177482605,9.933792114257812,-0.06929999589920044,-0.15729999542236328,0.12159999459981918,-0.26699999206202624,-0.15999999609253868,0.007999999971379599
-0.030147787183523178,0.12472832947969437,9.923238754272461,-0.05989999696612358,-0.15639999508857727,0.11169999837875366,-0.021999999295971403,0.13600000534979648,-0.006000000186975531
-0.04903325065970421,0.12716084718704224,9.924838066101074,-0.07909999787807465,-0.15600000321865082,0.11169999837875366,-0.08200000283325337,0.01700000066872456,-0.004999999877891834
-0.05983588844537735,0.1224011704325676,9.917808532714844,-0.08869999647140503,-0.16529999673366547,0.10189999639987946,0.09999999922536333,0.048000001495804245,-0.08400000095013078
-0.05158068239688873,0.12282254546880722,9.925681114196777,-0.06879999488592148,-0.16529999673366547,0.10189999639987946,0.23900000508552924,0.10499999785261017,-0.07000000079177565
-0.05266286060214043,0.13006260991096497,9.922327995300293,-0.07800000160932541,-0.16509999334812164,0.11169999837875366,-0.0329999989439571,0.11500000177721047,0.038000000906257256
-0.04731900244951248,0.12311942875385284,9.914551734924316,-0.06749999523162842,-0.16529999673366547,0.10189999639987946,0.24500000610626807,-0.22700000304405152,0.08400000095013078
-0.0543866828083992,0.11239340156316757,9.914140701293945,-0.0778999999165535,-0.17559999227523804,0.10189999639987946,0.07999999804626934,0.08299999855663877,0.09200000008774706
-0.047951072454452515,0.11981543153524399,9.923112869262695,-0.07750000059604645,-0.16569998860359192,0.11169999837875366,-0.07900000232288394,0.2519999895101791,0.02800000031671026
-0.050747498869895935,0.11428961157798767,9.915040016174316,-0.07679999619722366,-0.17509999871253967,0.10189999639987946,-0.1070000026395942,0.09099999769425504,0.029999998433587676
-0.035127729177474976,0.13053187727928162,9.920767784118652,-0.0568000003695488,-0.15489999949932098,0.10189999639987946,0.23399998644796255,0.006000000186975531,-0.05999999686717535
-0.042616792023181915,0.1324855536222458,9.913057327270508,-0.06650000065565109,-0.15529999136924744,0.10189999639987946,-0.09099999769425504,-0.008999999863581633,-0.09600000299160849
-0.050747498869895935,0.1097119003534317,9.914063453674316,-0.07620000094175339,-0.17430000007152557,0.10189999639987946,0.18700000068586353,-0.36099999026665075,0.06299999737754478
-0.059682659804821014,0.11554417759180069,9.903557777404785,-0.08689999580383301,-0.1648000031709671,0.09209999442100525,0.15699999558216926,0.15699999558216926,-0.007000000079177565
-0.049847278743982315,0.11140698939561844,9.909064292907715,-0.07649999856948853,-0.17469999194145203,0.09209999442100525,-0.04200000047506539,0.26699999206202624,0.14499999354069154
-0.035060688853263855,0.1095874011516571,9.911487579345703,-0.05609999969601631,-0.17440000176429749,0.09209999442100525,0.08200000283325337,-0.031999999885518396,-0.06200000165415938
-0.037378277629613876,0.12791740894317627,9.921073913574219,-0.0559999980032444,-0.15469999611377716,0.10189999639987946,-0.25299999857377775,-0.0329999989439571,0.14099999730693671
-0.042453981935977936,0.11948023736476898,9.897418975830078,-0.06589999794960022,-0.16359999775886536,0.08219999819993973,0.29699999716572056,-0.038000000906257256,0.009999999755783667
-0.05167644843459129,0.12375149875879288,9.898347854614258,-0.07569999992847443,-0.16419999301433563,0.08219999819993973,-0.035000000395887826,0.20299999896109608,-0.0030000000934877653
-0.05654146522283554,0.11528559774160385,9.916496276855469,-0.07499999552965164,-0.16380000114440918,0.10179999470710754,0.24399999704266945,-0.012000000373951061,0.0329999989439571
-0.05812164023518562,0.13145124912261963,9.902820587158203,-0.08479999750852585,-0.15449999272823334,0.09209999442100525,0.08499999667351618,-0.021999999295971403,0.038000000906257256
-0.03532884269952774,0.11052592098712921,9.912616729736328,-0.055399999022483826,-0.17399999499320984,0.10189999639987946,-0.19600000221697184,-0.11299999699022645,0.16599999711327754
-0.06353253871202469,0.11224975436925888,9.905041694641113,-0.08500000089406967,-0.17329999804496765,0.09200000017881393,-0.3399999866940647,0.06099999926066736,0.11500000177721047
-0.04125688597559929,0.1326770782470703,9.918651580810547,-0.06520000100135803,-0.1525000035762787,0.10179999470710754,0.05999999686717535,0.29399999665535115,0.019000000453128628
-0.047778692096471786,0.12582966685295105,9.907628059387207,-0.06439999490976334,-0.1525000035762787,0.09200000017881393,0.06399999977103679,-0.09500000059811649,-0.0009999999964224499
-0.04229117929935455,0.12230540066957474,9.915863990783691,-0.06449999660253525,-0.1621999889612198,0.10179999470710754,-0.2250000115972807,-0.10600000024610218,0.0859999990670082
-0.06054457277059555,0.1314225196838379,9.897007942199707,-0.06469999998807907,-0.1712999939918518,0.08219999819993973,0.048000001495804245,-0.08299999855663877,-0.07199999890865307
-0.0469263531267643,0.12008357793092728,9.922452926635742,-0.0843999981880188,-0.15160000324249268,0.08219999819993973,-0.10299999973573276,0.057000003026912535,-0.024999999806340833
-0.05476975813508034,0.13062764704227448,9.92863941192627,-0.07440000027418137,-0.1508999913930893,0.11159999668598175,0.1729999938574018,0.02899999937514897,0.05900000114378995
-0.06756436824798584,0.11382035166025162,9.912454605102539,-0.07440000027418137,-0.1508999913930893,0.11159999668598175,0.014999999216793838,-0.02600000053230619,-0.13400000056281244
-0.04413950443267822,0.12552320957183838,9.914332389831543,-0.06419999897480011,-0.15079998970031738,0.10179999470710754,-0.17799999915475526,0.049999999612681666,-0.04200000047506539
-0.054185573011636734,0.11246044188737869,9.909111976623535,-0.06419999897480011,-0.15079998970031738,0.10179999470710754,0.26600000967885407,-0.035000000395887826,0.12700000381868817
-0.04995262622833252,0.1059386357665062,9.917223930358887,-0.0737999975681305,-0.17009998857975006,0.10170000046491623,0.10199999734224074,0.01400000015835513,0.07900000232288394
-0.05744168907403946,0.12159671634435654,9.89490032196045,-0.07360000163316727,-0.16009999811649323,0.08209999650716782,0.1719999981340164,-0.1189999980109653,-0.04600000004387353
-0.04876509681344032,0.11560162901878357,9.90656566619873,-0.0737999975681305,-0.16030000150203705,0.09189999848604202,0.08100000043976135,-0.12499999903170415,-0.08899999957737763
-0.04391923546791077,0.1316523551940918,9.899373054504395,-0.0640999972820282,-0.15029999613761902,0.08209999650716782,-0.007000000079177565,-0.18799999640924894,-0.03400000133744912
-0.061100028455257416,0.13903608918190002,9.912866592407227,-0.08399999886751175,-0.14019998908042908,0.10170000046491623,0.009999999755783667,0.05600000063342052,0.019000000453128628
-0.06449979543685913,0.12574347853660583,9.910184860229492,-0.08370000123977661,-0.14959999918937683,0.09189999848604202,-0.24500000610626807,-0.05999999686717535,-0.043999998591942806
-0.049224790185689926,0.1138778105378151,9.91843032836914,-0.07400000095367432,-0.16839998960494995,0.10170000046491623,0.2150000010025738,-0.06299999737754478,-0.035000000395887826
-0.0554497092962265,0.11341812461614609,9.901192665100098,-0.07400000095367432,-0.16859999299049377,0.08209999650716782,0.14699999832767557,-0.29399999665535115,0.024999999806340833
-0.04154418781399727,0.12270762771368027,9.912454605102539,-0.06480000168085098,-0.15889999270439148,0.10170000046491623,-0.03899999996469596,-0.24500000610626807,0
-0.04948335886001587,0.12683522701263428,9.92477035522461,-0.07530000060796738,-0.14880000054836273,0.11149999499320984,0.3690000094145868,-0.035000000395887826,0.17899999487814064
-0.045231256633996964,0.12147221714258194,9.921064376831055,-0.06549999862909317,-0.15940000116825104,0.10170000046491623,-0.19499999315337319,-0.12299999424472013,0.007000000079177565
-0.052241481840610504,0.11455776542425156,9.902791976928711,-0.07559999823570251,-0.16839998960494995,0.09189999848604202,0.26500000061525547,-0.19799999366374263,-0.023000000021936765
-0.04916732758283615,0.1182544082403183,9.912464141845703,-0.07609999924898148,-0.15919999778270721,0.10170000046491623,0.11699999322398127,-0.024000000747902123,-0.015999999942759198
-0.05132210999727249,0.11925996840000153,9.905616760253906,-0.07599999755620956,-0.1590999960899353,0.09189999848604202,-0.0859999990670082,-0.1419999930303221,0.0009999999964224499
-0.06500735878944397,0.13178643584251404,9.918219566345215,-0.085999995470047,-0.14880000054836273,0.10170000046491623,0.031999999885518396,0.1729999938574018,-0.07199999890865307
-0.06994900107383728,0.1278599500656128,9.913498878479004,-0.09510000050067902,-0.148499995470047,0.10170000046491623,0.07099999651516105,0.3499999972887716,0.07900000232288394
-0.05014416202902794,0.135655477643013,9.92432975769043,-0.07449999451637268,-0.1582999974489212,0.08209999650716782,-0.021999999295971403,0.024000000747902123,0.02600000053230619
-0.04575798287987709,0.12578178942203522,9.900503158569336,-0.07440000027418137,-0.13849999010562897,0.11149999499320984,-0.021999999295971403,0.024000000747902123,0.02600000053230619
-0.050508078187704086,0.1249869093298912,9.918344497680664,-0.06439999490976334,-0.1477999985218048,0.08209999650716782,-0.0749999994190225,-0.05099999867112037,0.0429999995335041
-0.041908107697963715,0.1278408020734787,9.899641036987305,-0.07329999655485153,-0.14880000054836273,0.10170000046491623,-0.1800000039417393,-0.07099999651516105,-0.0429999995335041
-0.03498407453298569,0.10785399377346039,9.916247367858887,-0.05379999801516533,-0.16689999401569366,0.10170000046491623,-0.17700000343136985,-0.15900000036915327,-0.019999999511567335
-0.047807417809963226,0.12409625947475433,9.914255142211914,-0.06399999558925629,-0.15629999339580536,0.10159999877214432,0.24299998797907083,0.20599999947146552,0.043999998591942806
-0.047663770616054535,0.11865664273500443,9.910826683044434,-0.06350000202655792,-0.156700000166893,0.09179999679327011,-0.09399999820462447,-0.05799999875029794,-0.06200000165415938
-0.04112280532717705,0.12251608818769455,9.903481483459473,-0.06350000202655792,-0.15600000321865082,0.09179999679327011,0.15599999985878385,-0.05900000114378995,0.02899999937514897
-0.04748180881142616,0.11664550751447678,9.90161418914795,-0.06340000033378601,-0.15600000321865082,0.0819999948143959,0.14099999730693671,-0.09899999683187131,0.15900000036915327
-0.0547410286962986,0.12384726852178574,9.912627220153809,-0.07349999994039536,-0.15619999170303345,0.10159999877214432,-0.04200000047506539,-0.14300000209392072,0.2159999967259592
-0.06325481086969376,0.11445241421461105,9.905378341674805,-0.08370000123977661,-0.1656000018119812,0.09179999679327011,-0.06399999977103679,0.017999999727163266,0.021000000237532696
-0.0521361343562603,0.11650185286998749,9.915519714355469,-0.07369999587535858,-0.15529999136924744,0.10159999877214432,-0.049999999612681666,0.09999999922536333,0.007999999971379599
-0.04673481732606888,0.1098363921046257,9.903050422668457,-0.06340000033378601,-0.16449999809265137,0.09179999679327011,-0.10400000212922476,-0.06700000028140622,-0.0659999978879142
-0.04013639688491821,0.1249869093298912,9.904735565185547,-0.06340000033378601,-0.14429999887943268,0.09179999679327011,0.038000000906257256,0.031999999885518396,0.0039999999856897995
-0.04566221684217453,0.11596555262804031,9.91528034210205,-0.06319999694824219,-0.15379999577999115,0.10159999877214432,-0.18900000547284757,-0.18799999640924894,-0.10299999973573276
-0.04753926768898964,0.12355038523674011,9.919685363769531,-0.06369999796152115,-0.15299999713897705,0.1014999970793724,0.45300002370493087,-0.03999999902313467,-0.057000003026912535
-0.047711651772260666,0.12888465821743011,9.909360885620117,-0.06369999796152115,-0.14399999380111694,0.09179999679327011,-0.1620000008795227,-0.23000000355442093,0.031999999885518396
-0.04801810905337334,0.11371500045061111,9.903902053833008,-0.07409999519586563,-0.16290000081062317,0.0916999951004982,-0.15599999985878385,-0.3019999891228608,-0.17700000343136985
-0.056148819625377655,0.11947066336870193,9.917387008666992,-0.07490000128746033,-0.15240000188350677,0.1014999970793724,-0.04200000047506539,-0.01700000066872456,0.07600000181251451
-0.049512092024087906,0.117066890001297,9.910289764404297,-0.0746999979019165,-0.15189999341964722,0.0916999951004982,-0.14399999781730613,-0.06500000216452881,0.05099999867112037
-0.04852567985653877,0.129947692155838,9.909351348876953,-0.0746999979019165,-0.1412999927997589,0.0916999951004982,-0.09399999820462447,0.12400000330831876,0.15900000036915327
-0.050747498869895935,0.11924082040786743,9.90029239654541,-0.07419999688863754,-0.15049999952316284,0.08190000057220459,0.041000001416626686,-0.009999999755783667,-0.1729999938574018
-0.05431964993476868,0.12843455374240875,9.91745376586914,-0.07409999519586563,-0.1404999941587448,0.1014999970793724,0.03699999851276524,-0.10199999734224074,0.12499999903170415
-0.05025908350944519,0.12037088721990585,9.915250778198242,-0.07419999688863754,-0.14999999105930328,0.1014999970793724,0.2929999875917525,-0.04900000055424296,-0.05799999875029794
-0.043028589338064194,0.12122321873903275,9.919053077697754,-0.06449999660253525,-0.15049999952316284,0.11129999905824661,0.07699999753589991,-0.21200000049220435,-0.049999999612681666
-0.052174441516399384,0.13039779663085938,9.92389965057373,-0.07499999552965164,-0.14010000228881836,0.11129999905824661,-0.18099999966512467,-0.257999990530918,-0.012000000373951061
-0.04580586776137352,0.13637372851371765,9.915413856506348,-0.06589999794960022,-0.12950000166893005,0.1014999970793724,-0.05499999823992851,0.05799999875029794,0.007000000079177565
-0.05407065153121948,0.11951854825019836,9.910750389099121,-0.07530000060796738,-0.1485999971628189,0.09160000085830688,0.010999999647985701,0.2549999900205486,0.06200000165415938
-0.047864880412817,0.11855129152536392,9.909945487976074,-0.06469999998807907,-0.14829999208450317,0.09160000085830688,-0.12299999424472013,-0.08100000043976135,-0.1529999993484144
-0.04980897158384323,0.11223059892654419,9.894432067871094,-0.07459999620914459,-0.15729999542236328,0.08179999887943268,0.24299998797907083,0.009999999755783667,-0.05799999875029794
-0.03943729028105736,0.14047259092330933,9.903261184692383,-0.06469999998807907,-0.1281999945640564,0.09160000085830688,0.035000000395887826,0.1079999983629796,0.06399999977103679
-0.04813303053379059,0.10612060129642487,9.920345306396484,-0.07400000095367432,-0.15729999542236328,0.1013999953866005,0.09399999820462447,-0.007999999971379599,0.05099999867112037
-0.04267425090074539,0.11722969263792038,9.915624618530273,-0.0640999972820282,-0.14739999175071716,0.1013999953866005,-0.10400000212922476,0.07300000130214508,-0.03699999851276524
-0.053237468004226685,0.12909534573554993,9.892898559570312,-0.07349999994039536,-0.13689999282360077,0.08179999887943268,-0.06500000216452881,-0.024000000747902123,-0.08400000095013078
-0.062287550419569016,0.11546756327152252,9.917348861694336,-0.08309999853372574,-0.1462000012397766,0.1013999953866005,0.29800000622931916,0.07600000181251451,-0.08700000146050021
-0.04251144453883171,0.12920069694519043,9.903375625610352,-0.0632999986410141,-0.13679999113082886,0.09160000085830688,-0.14699999832767557,0.08200000283325337,0.09300000248123906
-0.055507171899080276,0.11483548581600189,9.91330623626709,-0.07270000129938126,-0.15559999644756317,0.1013999953866005,0.21700000578955783,0.06200000165415938,0.06299999737754478
-0.04694550856947899,0.12119448930025101,9.904525756835938,-0.06260000169277191,-0.1460999995470047,0.09160000085830688,0.0429999995335041,-0.16500000138989213,-0.0039999999856897995
-0.03928406164050102,0.12003570050001144,9.909141540527344,-0.06289999932050705,-0.14579999446868896,0.09160000085830688,-0.05999999686717535,0.03899999996469596,0.006000000186975531
-0.05032612010836601,0.11452902853488922,9.929625511169434,-0.07249999791383743,-0.1551000028848648,0.11109999567270279,0.03999999902313467,-0.0269999995907449,0.05099999867112037
-0.04549941048026085,0.13643118739128113,9.914475440979004,-0.06260000169277191,-0.12549999356269836,0.10130000114440918,-0.02800000031671026,0.0009999999964224499,-0.03100000082707969
-0.055698707699775696,0.12396218627691269,9.909523963928223,-0.0722000002861023,-0.14459998905658722,0.09149999916553497,0.11200000126684104,-0.26699999206202624,-0.05600000063342052
-0.054137688130140305,0.11810117959976196,9.913642883300781,-0.07279999554157257,-0.14459998905658722,0.10130000114440918,0.16699999283666295,-0.16800000190026157,0.043999998591942806
-0.06132987141609192,0.11490252614021301,9.921457290649414,-0.08299999684095383,-0.15459999442100525,0.10130000114440918,0.02600000053230619,0.17899999487814064,0.06500000216452881
-0.054204728454351425,0.13483186066150665,9.910845756530762,-0.07249999791383743,-0.12489999830722809,0.09149999916553497,0.0329999989439571,-0.09999999922536333,-0.05200000106461238
-0.04683058708906174,0.12837709486484528,9.910855293273926,-0.06269999593496323,-0.13439999520778656,0.09149999916553497,-0.09300000248123906,-0.021999999295971403,0.023000000021936765
-0.045959096401929855,0.1328590363264084,9.898807525634766,-0.06260000169277191,-0.13379999995231628,0.08169999718666077,-0.007999999971379599,-0.057000003026912535,-0.06299999737754478
-0.050230350345373154,0.11872366815805435,9.926226615905762,-0.06260000169277191,-0.14319999516010284,0.10130000114440918,0.2770000026567332,-0.03699999851276524,0.24299998797907083
-0.058993130922317505,0.12899000942707062,9.903242111206055,-0.07189999520778656,-0.14379999041557312,0.11109999567270279,-0.038000000906257256,-0.09500000059811649,0.046999999102312236
-0.04732858017086983,0.09866026043891907,9.911372184753418,-0.08179999887943268,-0.13449999690055847,0.09149999916553497,0,0.02600000053230619,0.05300000012305109
-0.050010085105895996,0.1268831044435501,9.91304874420166,-0.07180000096559525,-0.13359999656677246,0.10130000114440918,-0.029999998433587676,0.09200000008774706,0.14399999781730613
-0.0555742122232914,0.11120587587356567,9.910184860229492,-0.0714000016450882,-0.15279999375343323,0.09149999916553497,0.08499999667351618,0.33600000380052314,0.14699999832767557
-0.048496946692466736,0.1260499358177185,9.917712211608887,-0.07039999961853027,-0.1331000030040741,0.10130000114440918,0.2379999960219306,0.14699999832767557,0
-0.05585193634033203,0.1278790980577469,9.924186706542969,-0.0697999969124794,-0.13349999487400055,0.11109999567270279,0.2499999980634083,-0.08100000043976135,0.09899999683187131
-0.05424303561449051,0.12378022819757462,9.921409606933594,-0.06989999860525131,-0.1436000019311905,0.10130000114440918,-0.0019999999928448997,0.013000000266153095,-0.15900000036915327
-0.04602613300085068,0.12365572899580002,9.915634155273438,-0.05989999696612358,-0.14319999516010284,0.10130000114440918,0.11500000177721047,-0.14600000260429016,0.09399999820462447
-0.0376751609146595,0.11716265231370926,9.927145957946777,-0.05040000006556511,-0.14319999516010284,0.11109999567270279,0.11099999887334903,0.39200000443394367,0
-0.049655742943286896,0.14163139462471008,9.918468475341797,-0.06889999657869339,-0.12359999865293503,0.10130000114440918,-0.07900000232288394,0.1629999966029081,-0.05200000106461238
-0.040442854166030884,0.13332830369472504,9.902752876281738,-0.058399997651576996,-0.13279999792575836,0.09149999916553497,0.2639999915516568,0.08200000283325337,-0.05900000114378995
-0.05379292368888855,0.11419384926557541,9.915596008300781,-0.06790000200271606,-0.15279999375343323,0.10130000114440918,-0.048000001495804245,-0.01700000066872456,0.12299999424472013
-0.05825571343302727,0.1345924437046051,9.915288925170898,-0.07759999483823776,-0.12289999425411224,0.10130000114440918,0.0030000000934877653,-0.11200000126684104,-0.04500000098543482
-0.05202121287584305,0.12470917403697968,9.931015014648438,-0.06790000200271606,-0.13239999115467072,0.11109999567270279,0.031999999885518396,0.33000000277978425,-0.07600000181251451
-0.05732676759362221,0.12891338765621185,9.908116340637207,-0.06689999997615814,-0.13220000267028809,0.09139999747276306,0.1189999980109653,-0.007000000079177565,0.006000000186975531
-0.05957731604576111,0.12338758260011673,9.912779808044434,-0.07649999856948853,-0.1419999897480011,0.10119999945163727,0.01400000015835513,-0.057000003026912535,0.1180000022875799
-0.04106534644961357,0.12532208859920502,9.910778045654297,-0.05689999833703041,-0.13179999589920044,0.09139999747276306,0.0749999994190225,-0.035000000395887826,0.021999999295971403
-0.04506845027208328,0.12165417522192001,9.926484107971191,-0.05689999833703041,-0.14149999618530273,0.11099999397993088,-0.2549999900205486,-0.0009999999964224499,-0.031999999885518396
-0.04344039410352707,0.12510183453559875,9.905683517456055,-0.0568000003695488,-0.1306999921798706,0.09139999747276306,0.2050000037480801,0.33300000329015367,0.1319999957758284
