Accelerometer_Gx,Accelerometer_Gy,Accelerometer_Gz,Accelerometer_X,Accelerometer_Y,Accelerometer_Z,Gyroscope_Z,Gyroscope_X,Gyroscope_Y
-0.052787356078624725,0.12795571982860565,9.950599670410156,-0.00559999980032444,0.009099999442696571,0.1378999948501587,1.1219999774347549,-2.8759999200917283,0.2499999980634083
-0.058399368077516556,0.11403103917837143,9.922624588012695,-0.019899999722838402,-0.0026000000070780516,0.10839999467134476,0.008999999863581633,-0.6059999963729188,-0.007999999971379599
-0.058399368077516556,0.11403103917837143,9.922624588012695,-0.019899999722838402,-0.0026000000070780516,0.10839999467134476,0.008999999863581633,-0.6059999963729188,-0.007999999971379599
-0.04388092830777168,0.13005304336547852,9.927968978881836,-0.00039999998989515007,0.016899999231100082,0.10839999467134476,-0.22400000253368207,0.6919999754296072,0.08200000283325337
-0.0450301431119442,0.1284441351890564,9.947237014770508,0.002300000051036477,0.016899999231100082,0.12799999117851257,0.8500000200960147,-0.5140000162954916,0.19099999691961836
-0.056388236582279205,0.1136288121342659,9.945093154907227,-0.007999999448657036,-0.0050999997183680534,0.12799999117851257,-0.7639999876784734,0.035000000395887826,-0.13400000056281244
-0.04390966147184372,0.13034991919994354,9.946624755859375,-0.0071000000461936,0.025699999183416367,0.12799999117851257,0.05499999823992851,-0.5549999876966385,0.1509999945614304
-0.04943547770380974,0.13006260991096497,9.92579460144043,-0.004900000058114529,0.012600000016391277,0.10839999467134476,-0.669999989473849,0.03400000133744912,-0.3469999967784022
-0.05751830339431763,0.11884817481040955,9.948023796081543,-0.0139999995008111,0.0038999998942017555,0.12799999117851257,0.09000000197086964,-0.8690000055414034,-0.2039999946844815
-0.06865613162517548,0.13314634561538696,9.94966983795166,-0.025299999862909317,0.012799999676644802,0.12809999287128448,0.39699999639108385,0.33300000329015367,0.20800000425844953
-0.04178360849618912,0.11943235993385315,9.944106101989746,0.00559999980032444,0.0011999999405816197,0.12809999287128448,-0.17700000343136985,0.8359999999273398,-0.08299999855663877
-0.04707000404596329,0.14172716438770294,9.95028305053711,0.008200000040233135,0.020600000396370888,0.12809999287128448,-0.21100000476881897,-0.20299999896109608,0.19699999794035722
-0.044177811592817307,0.11512279510498047,9.95523452758789,0.007899999618530273,0.0008999999845400453,0.1378999948501587,-0.14399999781730613,-0.46999999102312234,-0.14699999832767557
-0.043967120349407196,0.1282142996788025,9.933274269104004,0.006599999964237213,0.010599999688565731,0.11829999834299088,0.0009999999964224499,-1.0100000295287666,-0.28799999563461226
-0.05223190411925316,0.1182352602481842,9.925498008728027,-0.005799999926239252,0.00039999998989515007,0.10849999636411667,-0.321000001248676,-1.7109999531286293,-0.24800000661663751
-0.043402086943387985,0.12836752831935883,9.94367504119873,-0.0011999999405816197,0.010799999348819256,0.12809999287128448,-0.5390000027616192,-0.9819999891914167,-0.03899999996469596
-0.05957731604576111,0.125944584608078,9.946577072143555,-0.02290000021457672,0.011699999682605267,0.12799999117851257,-1.1060000458605883,-0.7669999881888429,-0.2680000011256249
-0.04656243696808815,0.1323610544204712,9.941012382507324,-0.0050999997183680534,0.0142000000923872,0.12799999117851257,-1.403000043026309,-0.7279999815540403,-0.18600000496247812
-0.06396349519491196,0.11903971433639526,9.934759140014648,-0.026200000196695328,0.007899999618530273,0.11819999665021896,0.31800000073830653,-0.8039999766964482,-0.21800000151294321
-0.044752418994903564,0.11099519580602646,9.931608200073242,-0.00839999970048666,-0.003000000026077032,0.11819999665021896,1.0249999787197608,0.6200000165415938,0.4510000055777336
-0.041410114616155624,0.13346238434314728,9.930899620056152,-0.006099999882280827,0.012999999336898327,0.10839999467134476,0.8200000149923204,0.8909999914971617,0.40599999792219216
-0.03884352743625641,0.12299492955207825,9.958174705505371,-0.003700000001117587,0.0009999999310821295,0.1378999948501587,-0.15800000464576788,-0.8329999994169703,-0.10400000212922476
-0.06465302407741547,0.11053550988435745,9.936635971069336,-0.025100000202655792,-0.00839999970048666,0.11819999665021896,-0.42599999243117953,-0.9020000111554672,-0.3890000039235742
-0.04935886338353157,0.12029427289962769,9.949315071105957,-0.01730000041425228,0.0023999998811632395,0.12799999117851257,0.5639999892277469,0.6919999754296072,0.4560000242153003
-0.04232948645949364,0.10986512899398804,9.943694114685059,-0.005200000014156103,-0.008899999782443047,0.12809999287128448,-0.5260000183369693,-0.5200000173162305,0.006000000186975531
-0.062431201338768005,0.1358661651611328,9.935611724853516,-0.025499999523162842,0.020499998703598976,0.11819999665021896,-0.3319999942265551,0.27899999410350396,0.3089999992071983
-0.05950070172548294,0.11451945453882217,9.936903953552246,-0.02419999986886978,-0.007899999618530273,0.11819999665021896,-0.1629999966029081,0.22199999774669807,-0.32899999371618566
-0.04943547770380974,0.12919111549854279,9.94340705871582,-0.013299999758601189,0.011899999342858791,0.12799999117851257,-0.620999998924766,-0.017999999727163266,0.14699999832767557
-0.04729985073208809,0.11465353518724442,9.93882942199707,-0.0030999998562037945,-0.0058999997563660145,0.11819999665021896,0.7009999769607155,0.7630000052953013,-0.04200000047506539
-0.05689580738544464,0.13174813985824585,9.928400039672852,-0.009999999776482582,0.01119999960064888,0.10839999467134476,-1.3320000131606147,-1.1389999981137993,-0.4089999984325616
-0.05951985716819763,0.11980585753917694,9.940534591674805,-0.021900000050663948,0.004299999680370092,0.11819999665021896,0.27599999359313454,0.5309999836136831,0.6669999889634796
-0.046504974365234375,0.11440453678369522,9.920536994934082,-0.0004999999655410647,-0.006199999712407589,0.09860000014305115,1.1949999720667932,0.9959999559992387,0.35499998924591186
-0.05795883387327194,0.12678734958171844,9.938666343688965,-0.016999999061226845,0.00989999994635582,0.11829999834299088,-0.7590000224017597,-0.9430000359174671,-0.36099999026665075
-0.04047158360481262,0.12078268080949783,9.932882308959961,0.00019999999494757503,0.002199999988079071,0.11819999665021896,-1.0520000366739386,-1.290999988398615,-0.31999999218507735
-0.06056372448801994,0.12636595964431763,9.92046070098877,-0.023000000044703484,0.015099999494850636,0.09860000014305115,-0.6399999843701547,-0.4780000101710585,0.2069999951948509
-0.052097827196121216,0.12401007115840912,9.933159828186035,-0.0139999995008111,0.0066999997943639755,0.11819999665021896,0.2399999874687014,0.6020000134793773,0.6399999843701547
-0.04073015972971916,0.10893618315458298,9.940753936767578,-0.002199999988079071,-0.003700000001117587,0.12799999117851257,0.6990000121943711,0.9140000131969449,0.5690000078653135
-0.05197333171963692,0.11720095574855804,9.91179370880127,-0.00930000003427267,0.003999999724328518,0.08879999816417694,0.4199999914104407,1.550000014673558,0.8320000170337981
-0.04594951868057251,0.12449848651885986,9.928811073303223,0.004799999762326479,0.01249999925494194,0.10839999467134476,0.866000005031034,1.1289999608386658,0.7519999856369958
-0.053429003804922104,0.12565727531909943,9.923056602478027,0.004799999762326479,0.01249999925494194,0.10839999467134476,0.6129999797768299,1.0059999932743722,0.5669999897381163
-0.04848737269639969,0.13577038049697876,9.941893577575684,0.0010999999940395355,0.017899999395012856,0.12809999287128448,-0.5140000162954916,-0.25599999908414717,0.2549999900205486
-0.04837245121598244,0.13008177280426025,9.935304641723633,0.0004999999655410647,0.00930000003427267,0.11829999834299088,-1.41000002643022,-1.7920000202694566,-0.04600000004387353
-0.04617936164140701,0.1283196359872818,9.943981170654297,0.005499999970197678,0.012999999336898327,0.12809999287128448,-1.1690000032174934,-1.562999999098208,-0.8709999703077478
-0.04890875145792961,0.12757264077663422,9.939116477966309,-0.00839999970048666,0.01599999889731407,0.11819999665021896,1.1149999940308437,0.7489999851266264,-0.07300000130214508
-0.0495312474668026,0.11656889319419861,9.947515487670898,-0.006000000052154064,0.0026000000070780516,0.12809999287128448,1.59200002181873,1.391000040984831,0.8709999703077478
-0.045700524002313614,0.11132080107927322,9.927968978881836,0.00699999975040555,-0.0013000000035390258,0.12809999287128448,-1.9689998902986943,-1.9029999857922726,-0.4390000035362559
-0.04803726077079773,0.13070425391197205,9.935601234436035,0.0017999999690800905,-0.005799999926239252,0.10839999467134476,0.7900000098886262,1.7070000235959404,0.9099999769425504
-0.057901374995708466,0.117526575922966,9.946375846862793,-0.013100000098347664,0.00029999998514540493,0.12809999287128448,-1.6710000174715074,-1.7419999406154956,-0.817000014481951
-0.061818286776542664,0.11164641380310059,9.931397438049316,-0.013100000098347664,0.00029999998514540493,0.12809999287128448,1.8980000738764118,2.5589999550974465,1.0559999662066273
-0.056484006345272064,0.11579317599534988,9.917693138122559,-0.002300000051036477,0.0007999999797903001,0.09869999438524246,-2.2829999081434593,-2.108999985263738,-1.0299999973573275
-0.050412312150001526,0.13534902036190033,9.929472923278809,-0.007899999618530273,0.026499999687075615,0.10839999467134476,0.7440000198499125,1.680999948024935,0.9430000359174671
-0.0446758046746254,0.11766064167022705,9.93877124786377,0.006399999838322401,0.004799999762326479,0.11819999665021896,0.4199999914104407,0.4560000242153003,-0.3150000002279371
-0.0446758046746254,0.11766064167022705,9.93877124786377,0.006399999838322401,0.004799999762326479,0.11819999665021896,0.4199999914104407,0.4560000242153003,-0.3150000002279371
-0.05104437842965126,0.13826994597911835,9.935372352600098,-0.001999999862164259,0.023099999874830246,0.11829999834299088,1.682000037129813,2.521999966589841,1.2160000290002322
-0.05621585622429848,0.12010274082422256,9.912397384643555,-0.0032999999821186066,0.005699999630451202,0.09860000014305115,2.1320000069635214,1.709999970745457,0.15200000362502902
-0.05621585622429848,0.12010274082422256,9.912397384643555,-0.0032999999821186066,0.005699999630451202,0.09860000014305115,2.1320000069635214,1.709999970745457,0.15200000362502902
-0.05672342702746391,0.11212525516748428,9.926944732666016,0.0013000000035390258,-0.009999999776482582,0.10849999636411667,-1.8669999796678396,-2.2860000687363873,-1.0919999723310605
-0.04601655527949333,0.12246821075677872,9.938139915466309,0.004900000058114529,0.004799999762326479,0.11819999665021896,-2.980999991315511,-3.1999999752116266,-0.5609999887173774
-0.05481764301657677,0.12716084718704224,9.932441711425781,-0.01529999915510416,0.026899999007582664,0.11809999495744705,0.2920000052085803,1.312000045332054,1.1279999784554937
-0.050249505788087845,0.11904928833246231,9.932929992675781,-0.01209999993443489,0.016200000420212746,0.11809999495744705,0.838000018054537,1.8319999559265785,1.1080000106269328
-0.04990473762154579,0.12336842715740204,9.941156387329102,-0.00699999975040555,0.013700000010430813,0.12789998948574066,1.3579999820099147,2.0080000570160554,1.3899999518799533
-0.04933971166610718,0.11813949048519135,9.931684494018555,-0.00139999995008111,0.009800000116229057,0.11819999665021896,0.7360000007019765,1.7479999416362346,1.1419999452633156
-0.0434882827103138,0.09922529757022858,9.932757377624512,0.013100000098347664,-0.011799999512732029,0.11819999665021896,-0.33600000380052314,0.30799999014359963,0.8359999999273398
-0.04106534644961357,0.11973881721496582,9.946069717407227,0.013100000098347664,-0.011799999512732029,0.11819999665021896,-2.666999973470746,-1.7779999467399288,-0.041000001416626686
-0.06080314517021179,0.12382811307907104,9.927059173583984,-0.009800000116229057,0.01489999983459711,0.10830000042915344,-3.3560000017508367,-3.724000135503957,-0.9529999664708946
-0.05042188614606857,0.11934617161750793,9.943761825561523,-0.010099999606609344,0.023899998515844345,0.12780000269412994,0.25299999857377775,-1.17199995036701,-0.8059999948236455
-0.04677312448620796,0.13020627200603485,9.929425239562988,-0.003399999812245369,0.03280000016093254,0.10819999873638153,3.3550000193676643,3.077000007647333,0.775000007336779
-0.04808514937758446,0.11202948540449142,9.947525024414062,-0.004799999762326479,0.0037999998312443495,0.12789998948574066,-0.8849999904764227,0.29999999767609,0.7579999866577346
-0.04623682424426079,0.12384726852178574,9.921332359313965,0.0058999997563660145,0.016200000420212746,0.09849999845027924,-2.6779999931290517,-2.7189999111693455,-1.0069999756575443
-0.06449979543685913,0.11819694936275482,9.92863941192627,-0.020099999383091927,0.02239999920129776,0.10819999873638153,2.745000093462057,2.76399997218574,0.8050000124404733
-0.046485818922519684,0.13713987171649933,9.932632446289062,0.00699999975040555,0.034199997782707214,0.11809999495744705,-2.2520000273782985,-1.6280000279431632,-0.10400000212922476
-0.05447287857532501,0.10820834338665009,9.927221298217773,-0.0071000000461936,0.010799999348819256,0.10830000042915344,1.8299999911602343,0.5440000213991859,-0.15200000362502902
-0.05414726585149765,0.1289038211107254,9.925440788269043,-0.00559999980032444,0.025100000202655792,0.10830000042915344,2.0879999283302992,1.634000028963902,-0.04200000047506539
-0.05414726585149765,0.1289038211107254,9.925440788269043,-0.008799999952316284,0.03059999831020832,0.10830000042915344,2.0879999283302992,1.634000028963902,-0.04200000047506539
-0.045748405158519745,0.11557290703058243,9.925374031066895,0.004799999762326479,0.015599999576807022,0.10830000042915344,-2.613000071005802,-2.6160000181553187,-0.5979999772249827
-0.06486371904611588,0.1209646463394165,9.941855430603027,-0.021800000220537186,0.022499999031424522,0.12780000269412994,2.101999895138121,2.3679999048169753,0.9899999549784999
-0.04279874637722969,0.13147997856140137,9.926101684570312,0.004299999680370092,0.02630000002682209,0.10830000042915344,0.6029999958625494,-0.5470000219095553,-0.5470000219095553
-0.04263594374060631,0.12447933107614517,9.937708854675293,0.00279999990016222,0.014599999412894249,0.11809999495744705,-3.187999973170149,-1.9539999411077,-0.6219999813079381
-0.06524679064750671,0.12637554109096527,9.937718391418457,-0.022599998861551285,0.033900000154972076,0.11800000071525574,-0.6189999807975687,0.019000000453128628,0.551000004803097
-0.057096924632787704,0.14438951015472412,9.933025360107422,-0.01269999984651804,0.05469999834895134,0.11800000071525574,2.9689999892740335,2.164000083555266,0.6969999940671738
-0.04296155646443367,0.11764149367809296,9.935956001281738,0.003000000026077032,0.01679999940097332,0.11809999495744705,2.4779998879566194,1.1500000177721048,0.3339999856733259
-0.0530746653676033,0.12019850313663483,9.929414749145508,-0.003499999875202775,0.009800000116229057,0.10839999467134476,0.6600000055595685,-0.27599999359313454,-0.5350000198680775
-0.054616525769233704,0.11323615908622742,9.924952507019043,-0.00419999985024333,-0.0018999999156221747,0.10839999467134476,-0.7299999996812375,-1.5649999638645522,-0.5709999726316578
-0.0498855859041214,0.1262797713279724,9.93730640411377,-0.008899999782443047,0.019600000232458115,0.11819999665021896,-0.9939999912328944,-1.8980000738764118,-0.7209999981501293
-0.05583278089761734,0.12254482507705688,9.931818962097168,-0.013399999588727951,0.021800000220537186,0.12789998948574066,-1.4609999817456474,-1.9590000664669724,-0.6050000139897467
-0.04448426887392998,0.12079226970672607,9.934662818908691,-0.01860000006854534,0.015799999237060547,0.11809999495744705,1.0559999662066273,0.4810000106814279,-0.13400000056281244
-0.05295974388718605,0.11374373733997345,9.928485870361328,-0.019700000062584877,0.002099999925121665,0.10830000042915344,2.13599993649621,1.8449999403512285,0.35899999881987993
-0.04851610213518143,0.12482409924268723,9.931771278381348,-0.019700000062584877,0.002099999925121665,0.10830000042915344,0.7579999866577346,1.890999983750795,0.8729999884349451
-0.04782657325267792,0.11774684488773346,9.934969902038574,0.00039999998989515007,0.0031999999191612005,0.11819999665021896,-1.332999995543787,-1.0019999570199776,0.13000000432905762
-0.045767560601234436,0.11972924321889877,9.937976837158203,-0.002099999925121665,0.0066999997943639755,0.11819999665021896,-1.3800000213265255,-1.4789999848078639,-0.6870000101528934
-0.04686889424920082,0.11429918557405472,9.92912769317627,-0.006099999882280827,0.0005999999702908099,0.10830000042915344,1.9250000251088837,1.2950000246530096,0.3849999943496062
-0.049847278743982315,0.11513236910104752,9.942477226257324,-0.012299999594688416,0.0050999997183680534,0.12799999117851257,-0.7080000137254794,0.006000000186975531,0.26200000010488605
-0.06204812973737717,0.1169615387916565,9.943732261657715,-0.02199999988079071,0.007199999876320362,0.12799999117851257,-0.3220000103122746,-0.9149999955801171,-0.18199999538851008
-0.04606444016098976,0.13300268352031708,9.926255226135254,-0.004399999976158142,0.01769999973475933,0.10839999467134476,1.0059999932743722,1.262999948061265,0.5939999943314411
-0.05161898955702782,0.1233396902680397,9.932527542114258,-0.010699999518692493,0.004999999888241291,0.11819999665021896,-1.502000006507647,-1.6919999676832405,-0.6590000231763964
-0.052289362996816635,0.12955503165721893,9.94056224822998,-0.015199999324977398,0.018799999728798866,0.11819999665021896,1.3519999809891756,1.5730000363733412,0.5149999986786638
-0.05049850046634674,0.11716265231370926,9.94472885131836,-0.010799999348819256,0.005200000014156103,0.12799999117851257,-0.7309999820644097,-0.775000007336779,-0.4179999999636699
-0.05300762504339218,0.11878113448619843,9.926676750183105,-0.013100000098347664,0.007400000002235174,0.10839999467134476,-0.7900000098886262,-0.19799999366374263,0.34899998822517303
-0.055650826543569565,0.1224011704325676,9.91954231262207,-0.013499999418854713,0.009200000204145908,0.09849999845027924,1.2989999541856982,1.080999952672755,0.14799999405106096
-0.058830320835113525,0.11014284938573837,9.932154655456543,-0.02019999921321869,-0.004100000020116568,0.11819999665021896,-1.1699999856006655,-1.2520000351246652,-0.4709999734062945
-0.06585012376308441,0.12300451099872589,9.927605628967285,-0.023399999365210533,0.008799999952316284,0.10839999467134476,-1.0919999723310605,-0.7680000239328679,0.2499999980634083
-0.051810525357723236,0.09780792891979218,9.926255226135254,-0.015599999576807022,-0.007799999788403511,0.10830000042915344,0.8140000139715816,0.8840000080932506,0.5960000124586383
-0.05341942980885506,0.12431652843952179,9.92590045928955,-0.012799999676644802,0.009200000204145908,0.10839999467134476,1.2760000392076207,0.6300000004558742,0.3349999947369245
-0.053285352885723114,0.12972743809223175,9.932575225830078,-0.011099999770522118,0.01589999906718731,0.11819999665021896,0.8459999838416202,0.4849999935749695,-0.07999999804626934
-0.05147533863782883,0.11466310918331146,9.934375762939453,-0.00969999935477972,-0.006000000052154064,0.11819999665021896,0.012000000373951061,-0.5059999971475555,-0.13799999679656727
-0.054013192653656006,0.13045525550842285,9.93392562866211,-0.010999999940395355,0.013399999588727951,0.11819999665021896,-0.2589999995945166,-0.642000002497352,-0.4500000231945614
-0.03756023943424225,0.12387599796056747,9.923535346984863,0.006899999920278788,0.004299999680370092,0.10839999467134476,0.10999999647985702,-0.7669999881888429,-0.3190000098019052
-0.054846372455358505,0.12004527449607849,9.927729606628418,-0.01489999983459711,0.0038999998942017555,0.10839999467134476,0.29800000622931916,-0.30100000673968863,-0.3029999981864594
-0.039370253682136536,0.11551544070243835,9.925163269042969,-0.005699999630451202,0.0031999999191612005,0.11819999665021896,1.4210000460885255,0.7309999820644097,0.18099999966512467
-0.05499960482120514,0.12517844140529633,9.930027961730957,-0.004999999888241291,0.0004999999655410647,0.10839999467134476,1.2270000486585377,0.9510000017045502,0.6159999802871993
-0.05701073259115219,0.11242213100194931,9.917588233947754,-0.010099999606609344,-0.016499999910593033,0.09869999438524246,-0.1719999981340164,0.18700000068586353,0.31600000929153577
-0.045987825840711594,0.11525686830282211,9.909801483154297,-0.010099999606609344,-0.016499999910593033,0.09869999438524246,-0.8729999884349451,-0.8960000101347283,0
-0.05546886473894119,0.13006260991096497,9.950024604797363,-0.011500000022351742,0.005699999630451202,0.12809999287128448,0.5579999882070079,-0.02600000053230619,-0.17899999487814064
-0.0522606335580349,0.1307138353586197,9.932422637939453,-0.011500000022351742,0.00419999985024333,0.11829999834299088,0.5750000088860524,0.2140000052791884,0.5699999902484857
-0.05186798423528671,0.12578178942203522,9.918679237365723,-0.010900000110268593,0.0026000000070780516,0.09869999438524246,-1.2609999832949206,-0.7579999866577346,-0.3559999983095105
-0.05360138788819313,0.1382603645324707,9.921849250793457,-0.012899999506771564,0.015799999237060547,0.10849999636411667,1.1500000177721048,0.8410000185649065,0.3280000113330135
-0.05310339480638504,0.1329260766506195,9.931512832641602,-0.010199999436736107,0.0023999998811632395,0.11829999834299088,-1.6090000424977744,-0.9239999437503725,0.035000000395887826
-0.06302496790885925,0.11767023056745529,9.944182395935059,-0.022099999710917473,-0.003399999812245369,0.12809999287128448,1.3080000090776593,0.19099999691961836,0.13100000005244303
-0.06215347722172737,0.12228624522686005,9.925392150878906,-0.02149999886751175,-0.00699999975040555,0.10849999636411667,-1.359999946776259,-1.0019999570199776,-0.2289999944908223
-0.04887044429779053,0.11978669464588165,9.933313369750977,-0.014299999922513962,-0.0032999999821186066,0.11829999834299088,1.3939999881343477,0.927999980004767,0.46600000812958076
-0.0703703761100769,0.12028469145298004,9.9230375289917,-0.031300000846385956,-0.0071000000461936,0.10849999636411667,-0.023000000021936765,-0.6300000004558742,-0.06500000216452881
-0.04343082010746002,0.1278790980577469,9.928964614868164,-0.003700000001117587,0.002699999837204814,0.10849999636411667,-1.2869999521442204,-0.545000003782358,-0.10199999734224074
-0.04912902042269707,0.1122114509344101,9.931877136230469,-0.014699999243021011,-0.013700000010430813,0.11829999834299088,0.3980000054546825,0.1390000058601659,-0.0539999991814898
-0.03786669671535492,0.10084377229213715,9.925871849060059,0.0052999998442828655,-0.02449999935925007,0.10849999636411667,-0.29399999665535115,-0.47899999255423065,0.07799999992939192
-0.05387911573052406,0.10660901665687561,9.933093070983887,-0.01549999974668026,-0.013799999840557575,0.11829999834299088,-0.9149999955801171,-0.4199999914104407,0.06800000267489824
-0.06698018312454224,0.10884040594100952,9.916236877441406,-0.02630000002682209,-0.01119999960064888,0.09869999438524246,-0.5069999795307276,-0.3220000103122746,0.013000000266153095
-0.05026865750551224,0.11409807950258255,9.917414665222168,-0.017400000244379044,-0.009599999524652958,0.09860000014305115,0.2699999925723957,0.019999999511567335,0.01700000066872456
-0.05258624628186226,0.12320561707019806,9.919685363769531,-0.01719999872148037,-0.00039999998989515007,0.09860000014305115,0.5099999800410971,-0.41499999945330046,0.1629999966029081
-0.058590903878211975,0.11716265231370926,9.929022789001465,-0.0279999990016222,-0.0016999999061226845,0.10849999636411667,-0.03899999996469596,0.2800000031671026,0.5429999856551608
-0.05570828542113304,0.12010274082422256,9.93287181854248,-0.01730000041425228,-0.001500000013038516,0.11829999834299088,-0.517000016805861,0.2379999960219306,0.3089999992071983
-0.06337931007146835,0.1269884556531906,9.916955947875977,-0.026399999856948853,0.009599999524652958,0.09860000014305115,-0.6620000236867658,-0.3319999942265551,0.18900000547284757
-0.06536170840263367,0.11255621165037155,9.930143356323242,-0.02719999849796295,-0.007799999788403511,0.10839999467134476,-1.582999966926769,-0.9440000183006392,-0.1629999966029081
-0.05634992942214012,0.1319875419139862,9.925086975097656,-0.019600000232458115,0.005699999630451202,0.11819999665021896,0.11699999322398127,-0.06200000165415938,0.19799999366374263
-0.04792233929038048,0.13295480608940125,9.919693946838379,-0.019199999049305916,0.0142000000923872,0.10839999467134476,-0.07199999890865307,-0.5540000053134664,0.17400000292100043
-0.0540323443710804,0.12104126065969467,9.938225746154785,-0.02070000022649765,0.004299999680370092,0.11819999665021896,-0.04500000098543482,0.18700000068586353,-0.19699999794035722
-0.0510731115937233,0.10638874769210815,9.916218757629395,-0.02070000022649765,0.004299999680370092,0.11819999665021896,0.8399999828208814,-0.10199999734224074,0.20899999998183494
-0.05160941183567047,0.12376108020544052,9.92056655883789,-0.019999999552965164,0.0023999998811632395,0.09860000014305115,-0.7110000142358488,-0.627999982328677,-0.19799999366374263
-0.05872498080134392,0.11874283105134964,9.914264678955078,-0.03139999881386757,0.004299999680370092,0.09860000014305115,0.11400000605382507,0.6390000019869825,0.07399999702553048
-0.06649176776409149,0.11303505301475525,9.924942970275879,-0.029500000178813934,-0.005699999630451202,0.10839999467134476,-0.9049999583049837,-0.6219999813079381,0.19200000598321698
-0.06463386863470078,0.12140518426895142,9.921524047851562,-0.03099999949336052,0.0064999996684491634,0.09860000014305115,0.6669999889634796,0.2379999960219306,0.1849999958988795
-0.049464207142591476,0.10755711048841476,9.93779468536377,-0.02029999904334545,-0.0052999998442828655,0.11819999665021896,0.6189999807975687,0.656000022666027,-0.24899998899980968
-0.04322970658540726,0.12874101102352142,9.925766944885254,-0.008799999952316284,0.01269999984651804,0.10839999467134476,0.3150000002279371,-0.1390000058601659,0.41199999894293104
-0.049847278743982315,0.11455776542425156,9.926063537597656,-0.01889999955892563,-0.007599999662488699,0.10839999467134476,1.0960000085854549,0.6369999838597853,-0.0539999991814898
-0.07496725022792816,0.12561897933483124,9.925000190734863,-0.03659999743103981,0.008899999782443047,0.10849999636411667,0.48599997595814165,0.9860000254458112,-0.05600000063342052
-0.048286259174346924,0.13135547935962677,9.909026145935059,-0.014099999330937862,0.007499999832361937,0.08889999985694885,-0.6799999733881295,-0.363000008393848,-0.3600000078834786
-0.05223190411925316,0.12673945724964142,9.92166805267334,-0.015099999494850636,0.009599999524652958,0.10839999467134476,1.4199999569836474,0.9800000244250723,0.15699999558216926
-0.041151538491249084,0.10660901665687561,9.922213554382324,-0.00279999990016222,-0.013299999758601189,0.10849999636411667,0.7200000157669572,0.45700000659847245,-0.11599999750059588
-0.05930916592478752,0.13722606003284454,9.922337532043457,-0.0210999995470047,0.0139999995008111,0.10849999636411667,1.1440000167513658,0.14300000209392072,0.6269999999455048
-0.056761734187603,0.12468045204877853,9.924885749816895,-0.010799999348819256,0.0009999999310821295,0.10859999805688858,1.1680000208343213,0.7380000188291737,-0.14900000311465958
-0.03794331103563309,0.11810117959976196,9.925622940063477,0.010799999348819256,-0.011899999342858791,0.10859999805688858,0.27599999359313454,-0.014999999216793838,-0.12799999954207358
-0.055842362344264984,0.1237993836402893,9.939336776733398,-0.008700000122189522,-0.01269999984651804,0.11840000003576279,0.0429999995335041,0.3890000039235742,-0.21299999621558977
-0.05920381844043732,0.12540829181671143,9.916572570800781,-0.017500000074505806,-0.003000000026077032,0.09879999607801437,0.7459999846162569,-0.6939999935568044,-0.038000000906257256
-0.04686889424920082,0.11745953559875488,9.921801567077637,0.00019999999494757503,-0.014800000004470348,0.10859999805688858,-1.0720000045024995,-0.4840000111917973,0.15399999507179982
-0.04810430109500885,0.1221521645784378,9.925440788269043,-0.010799999348819256,-0.011799999512732029,0.10859999805688858,-0.34800000584200086,-0.06800000267489824,0.21700000578955783
-0.05016331374645233,0.12726618349552155,9.918679237365723,-0.010900000110268593,-0.0009999999310821295,0.09879999607801437,-0.9939999912328944,0.5799999741627662,-0.1749999986443858
-0.06810066848993301,0.13113521039485931,9.930899620056152,-0.028599999845027924,0.001999999862164259,0.10859999805688858,1.983000070549928,1.0859999713103217,-0.035000000395887826
-0.05282566323876381,0.1329643875360489,9.916227340698242,-0.006399999838322401,-0.0026000000070780516,0.10859999805688858,-1.8449999403512285,-1.4979999702532527,-0.22400000253368207
-0.04808514937758446,0.12930604815483093,9.918249130249023,-0.006399999838322401,-0.0038999998942017555,0.09879999607801437,0.11099999887334903,0.20999999570522035,-0.23099998593759313
-0.055938128381967545,0.13495635986328125,9.91731071472168,-0.009800000116229057,0.010599999688565731,0.09879999607801437,1.2170000113834043,0.09300000248123906,0.5270000007201415
-0.043967120349407196,0.12403880059719086,9.925431251525879,-0.009800000116229057,0.010599999688565731,0.09879999607801437,-1.801000075161418,-1.3169999572479147,-0.26200000010488605
-0.05047934874892235,0.11580274999141693,9.939767837524414,-0.01249999925494194,-0.008299999870359898,0.11840000003576279,1.7430000297203736,0.13499999628619785,0.11099999887334903
-0.052356403321027756,0.1269022673368454,9.919301986694336,-0.01209999993443489,-0.0031999999191612005,0.09879999607801437,0.6840000096425239,-0.23300000406479038,0.17100000241063099
-0.06871359050273895,0.1253795474767685,9.938217163085938,-0.03229999914765358,-0.004999999888241291,0.11840000003576279,-0.031999999885518396,-0.05099999867112037,0.06800000267489824
-0.049301404505968094,0.1163390502333641,9.939020156860352,-0.010499999858438969,-0.011799999512732029,0.11840000003576279,-0.09500000059811649,-0.11500000177721047,-0.04600000004387353
-0.04865017533302307,0.12903788685798645,9.932154655456543,-0.008899999782443047,-0.0010999999940395355,0.11840000003576279,-0.433000002515517,-0.283000003677472,0.05799999875029794
-0.05867709219455719,0.11097603291273117,9.925689697265625,-0.020099999383091927,-0.02029999904334545,0.10859999805688858,1.0439999641651496,-1.5169999556986413,0.1319999957758284
-0.05437710881233215,0.14174632728099823,9.928888320922852,-0.014999999664723873,0.005699999630451202,0.10859999805688858,0.9130000308137727,0.6029999958625494,-0.02899999937514897
-0.032197222113609314,0.1140884980559349,9.91495418548584,0.005699999630451202,-0.026499999687075615,0.09879999607801437,2.3649999576674587,1.2739999677195706,0.16999999334703236
-0.04641878232359886,0.13189178705215454,9.917990684509277,-0.0008999999845400453,-0.013599999248981476,0.09889999777078629,-0.551000004803097,-0.650000021645288,-0.4769999744270334
-0.055009178817272186,0.11796710640192032,9.923707008361816,-0.012899999506771564,-0.02199999988079071,0.10869999974966049,-2.7869999938855234,-1.5999999876058133,-0.4579999889816446
-0.05270116776227951,0.11710519343614578,9.918325424194336,-0.016999999061226845,-0.015399999916553497,0.09879999607801437,-1.241999997849532,-1.7209999904037625,0.35899999881987993
-0.0676601380109787,0.13144168257713318,9.912885665893555,-0.0414000004529953,-0.002300000051036477,0.09879999607801437,0.6650000241971352,-0.25599999908414717,0.4579999889816446
-0.06669288873672485,0.13207374513149261,9.922863960266113,-0.03240000084042549,-0.00419999985024333,0.10859999805688858,1.4119999911965644,-0.19499999315337319,0.4780000101710585
-0.0554497092962265,0.13210247457027435,9.920767784118652,-0.02319999970495701,-0.008200000040233135,0.09879999607801437,-0.48199999306460006,-0.34200000482126197,0.21100000476881897
-0.05575616657733917,0.11932700872421265,9.912196159362793,-0.02419999986886978,-0.016499999910593033,0.09879999607801437,-0.2770000026567332,2.4680000641248974,0.21299999621558977
-0.05586151406168938,0.11890563368797302,9.923870086669922,-0.018299998715519905,-0.015799999237060547,0.10859999805688858,-1.3320000131606147,-0.564999971610919,0.07699999753589991
-0.052193596959114075,0.13364432752132416,9.910500526428223,-0.01979999989271164,-0.0023999998811632395,0.08899999409914017,-1.0669999858649328,-0.8279999807794036,-0.20299999896109608
-0.04575798287987709,0.1271512657403946,9.928496360778809,-0.012199999764561653,0.00039999998989515007,0.10849999636411667,-0.7159999795125626,-1.0040000285080277,-0.13700000107318186
-0.0492822490632534,0.12174994498491287,9.919167518615723,-0.024699999019503593,-0.0072999997064471245,0.09869999438524246,-3.3959999374079586,-1.9429999214493945,-0.02899999937514897
-0.05362053960561752,0.12868355214595795,9.927030563354492,-0.03059999831020832,0.012899999506771564,0.10839999467134476,-0.019999999511567335,0.5140000162954916,-0.22400000253368207
-0.062383320182561874,0.13230359554290771,9.933945655822754,-0.02929999865591526,0.012899999506771564,0.09860000014305115,-1.6030000414770356,-1.5329999939945136,0.03599999945432653
-0.05251920595765114,0.11855129152536392,9.90895938873291,-0.034699998795986176,0.00279999990016222,0.11829999834299088,0.5230000178265999,0.7590000224017597,-0.3750000104353257
-0.06535212695598602,0.13349109888076782,9.919014930725098,-0.03659999743103981,0.005799999926239252,0.09869999438524246,2.1770000679799155,1.4650000180000418,0.5909999938210717
-0.05421430245041847,0.1264425814151764,9.926886558532715,-0.03659999743103981,0.005799999926239252,0.09869999438524246,-3.0899999920719825,-0.650000021645288,-0.363000008393848
-0.04549941048026085,0.11562079191207886,9.930143356323242,-0.013799999840557575,-0.0031999999191612005,0.10849999636411667,1.8709999092005283,1.1889999710460544,0.0859999990670082
-0.06803363561630249,0.10867760330438614,9.929051399230957,-0.039799999445676804,-0.018199998885393143,0.10849999636411667,-1.3080000090776593,-2.0879999283302992,-0.3660000089042174
-0.06444232910871506,0.12340673059225082,9.921859741210938,-0.035499997437000275,-0.004699999932199717,0.10849999636411667,0.46000000710884187,0.03899999996469596,0.5230000178265999
-0.058715399354696274,0.12210428714752197,9.911477088928223,-0.03529999777674675,-0.006000000052154064,0.08889999985694885,0.5960000124586383,0.5570000058238358,0.07900000232288394
-0.05737464874982834,0.11770853400230408,9.92269229888916,-0.02369999885559082,-0.007799999788403511,0.10849999636411667,-2.2069999663619044,-0.46099998949201404,-0.1830000044521087
-0.06016149744391441,0.11716265231370926,9.933877944946289,-0.03439999744296074,-0.0024999999441206455,0.11829999834299088,3.909000078041984,2.826999929542645,0.369999991797759
-0.04910028725862503,0.13053187727928162,9.91761589050293,-0.016699999570846558,-0.003399999812245369,0.09879999607801437,-1.6429999771341575,-0.9539999488540668,-0.5819999922899634
-0.057001154869794846,0.12143390625715256,9.930956840515137,-0.019199999049305916,-0.008599999360740185,0.10849999636411667,-4.432999811447491,-2.7340000738037515,-0.4519999879609058
-0.05898355320096016,0.13477440178394318,9.931379318237305,-0.036399997770786285,0.023000000044703484,0.11819999665021896,-1.9960000549745778,-3.070999899904888,0.2959999881021219
-0.07112694531679153,0.12701718509197235,9.92187786102295,-0.05549999698996544,0.01939999870955944,0.10830000042915344,0.8329999994169703,0.11699999322398127,0.4310000110687462
-0.04874594509601593,0.12851117551326752,9.92966365814209,-0.03539999946951866,0.01730000041425228,0.10830000042915344,1.7440000121035457,0.8680000231582313,0.7709999710823845
-0.06355168670415878,0.1335294246673584,9.931790351867676,-0.04270000010728836,0.01249999925494194,0.11819999665021896,1.2329999429575706,1.9990000021240943,0.7480000027434541
-0.049109868705272675,0.11531433463096619,9.936224937438965,-0.027300000190734863,-0.0005999999702908099,0.11819999665021896,3.219000067378721,1.8079999518436232,0.2050000037480801
-0.05196375399827957,0.12664368748664856,9.918612480163574,-0.022199999541044235,0.00029999998514540493,0.09869999438524246,3.9510001919088618,3.330000032901537,0.650000021645288
-0.062498241662979126,0.12896127998828888,9.910807609558105,-0.02159999869763851,-0.011799999512732029,0.08909999579191208,1.8130000772028956,0.08799999718388561,0.6650000241971352
-0.04203260317444801,0.11637736111879349,9.92612075805664,-0.0016999999061226845,-0.02589999884366989,0.1087999939918518,-1.1279999784554937,1.6230000093055965,0.29399999665535115
-0.06327396631240845,0.12297577410936356,9.914800643920898,-0.01679999940097332,-0.02279999852180481,0.09889999777078629,-0.6320000185830715,-1.9179999349832668,-0.257999990530918
-0.04829583689570427,0.12469002604484558,9.926015853881836,-0.01209999993443489,-0.01119999960064888,0.10869999974966049,-4.5079999842892855,-2.874999937708556,-0.6840000096425239
-0.04888959974050522,0.13240893185138702,9.911736488342285,-0.019899999722838402,0.0010999999940395355,0.08889999985694885,-0.19900000272734125,0.5969999948418105,-0.3439999962680328
-0.04909071326255798,0.12874101102352142,9.920805931091309,-0.017899999395012856,0.0016999999061226845,0.09869999438524246,4.463999905656063,2.540000076373764,0.7110000142358488
-0.0489279069006443,0.11801499128341675,9.9227876663208,-0.011799999512732029,-0.018699999898672104,0.10869999974966049,2.724000036528618,2.338000006434987,-0.08100000043976135
-0.069058358669281,0.12636595964431763,9.928342819213867,-0.024699999019503593,-0.005399999674409628,0.10849999636411667,0.19999999845072666,0.5930000119482689,0.7999999938029067
-0.04322970658540726,0.13561715185642242,9.920249938964844,-0.0066999997943639755,0.006199999712407589,0.09879999607801437,-1.0789999879064105,-1.77400001720724,-0.2360000045751598
-0.04142926633358002,0.12519758939743042,9.923112869262695,-0.0066999997943639755,0.006199999712407589,0.09879999607801437,3.2090000301035877,1.6689999459834572,0.41499999945330046
-0.042904093861579895,0.12910494208335876,9.92802619934082,-0.007999999448657036,-0.007799999788403511,0.10869999974966049,-6.0650000890884606,-3.4089999218326086,-0.7369999830851486
-0.045987825840711594,0.11201032996177673,9.920844078063965,-0.01719999872148037,-0.010799999348819256,0.09860000014305115,-0.9999999922536332,-1.631999957475852,0.38300000290283537
-0.04827668517827988,0.1265096217393875,9.930937767028809,-0.03139999881386757,0.011500000022351742,0.10839999467134476,4.984000136415705,1.0009999746368055,0.2069999951948509
-0.04402458295226097,0.11643481254577637,9.926791191101074,-0.018799999728798866,-0.011899999342858791,0.10859999805688858,-7.223000179369354,-4.443999831105797,-0.8969999925179005
-0.05001965910196304,0.12326307594776154,9.926436424255371,-0.0421999990940094,0.010300000198185444,0.10830000042915344,1.8229999010346174,1.0909999899478884,0.8189999792482954
-0.06275681406259537,0.10825622826814651,9.925651550292969,-0.04919999837875366,-0.0037999998312443495,0.10839999467134476,5.749000106477351,4.5209999687139355,0.5110000157851222
-0.05767153203487396,0.12910494208335876,9.919512748718262,-0.03669999912381172,0,0.09869999438524246,1.2770000215907928,1.1750000042382323,-0.36499999984061876
-0.06355168670415878,0.13123098015785217,9.908498764038086,-0.033399999141693115,-0.003399999812245369,0.08899999409914017,-5.125999769260271,-4.919999983232217,-1.221000047637799
-0.046006981283426285,0.12199893593788147,9.916888236999512,-0.02709999866783619,0.0007999999797903001,0.09860000014305115,-7.738999626822661,-4.5079999842892855,-0.7360000007019765
-0.05991250276565552,0.13418063521385193,9.93033504486084,-0.06039999797940254,0.044199999421834946,0.10819999873638153,-7.415000212032997,-3.0750000428809883,-0.5620000244614024
-0.052500054240226746,0.13114479184150696,9.92597770690918,-0.05779999867081642,0.05209999904036522,0.10809999704360962,-3.4569999299985192,-3.1389999826210655,-0.06700000028140622
-0.06578309088945389,0.11427046358585358,9.923506736755371,-0.07599999755620956,0.04189999774098396,0.10799999535083771,-5.049000058538955,0.6519999864116324,0.11299999699022645
-0.04073015972971916,0.13371138274669647,9.925000190734863,-0.0543999969959259,0.07519999891519547,0.1078999936580658,-6.7049999133760565,-4.751000185711768,-0.33300000329015367
-0.052950166165828705,0.11700942367315292,9.917693138122559,-0.07689999788999557,0.0835999995470047,0.09809999912977219,-7.423999840038136,-4.844999810390423,-0.7789999902303206
-0.04900452122092247,0.13420936465263367,9.91539478302002,-0.09160000085830688,0.1257999986410141,0.0982000008225441,-4.63599986376944,-6.194000164395199,-1.255999964657354
-0.05160941183567047,0.1287984699010849,9.91304874420166,-0.10610000044107437,0.12680000066757202,0.0982000008225441,-1.6569999439419796,0.4969999956164472,0.23499999551156117
-0.0451354905962944,0.11496956646442413,9.916123390197754,-0.09470000118017197,0.12119999527931213,0.0982000008225441,9.746000341785779,5.339000072300765,1.1130000292644995
-0.05739380419254303,0.1278408020734787,9.913651466369629,-0.08949999511241913,0.1039000004529953,0.0982000008225441,0.3049999896332302,-0.8630000045206646,0.7209999981501293
-0.061933208256959915,0.12529335916042328,9.925039291381836,-0.10130000114440918,0.10269999504089355,0.10799999535083771,-11.365999977055036,-5.976000162882256,-1.2650000195493152
-0.04888959974050522,0.12811851501464844,9.911535263061523,-0.1096000000834465,0.13729999959468842,0.0885000005364418,8.656000334221064,5.507000100881453,0.8059999948236455
-0.05808333307504654,0.11509406566619873,9.920307159423828,-0.08619999885559082,0.11620000004768372,0.10799999535083771,-3.8760000190670674,-5.424999837914042,0.0030000000934877653
-0.0550953708589077,0.12661495804786682,9.925776481628418,-0.12029999494552612,0.11649999767541885,0.09829999506473541,8.310000026341143,2.8849999749836894,0.9539999488540668
-0.047644615173339844,0.11516110599040985,9.917414665222168,-0.09439999610185623,0.09489999711513519,0.0982000008225441,-7.191999658273959,-5.644000035253568,-1.1430000343681936
-0.05253836140036583,0.12257354706525803,9.925163269042969,-0.09439999610185623,0.09489999711513519,0.0982000008225441,0.34899998822517303,-1.2770000215907928,1.0249999787197608
-0.048401180654764175,0.12351207435131073,9.92739486694336,-0.12379999458789825,0.1152999997138977,0.10819999873638153,5.217999856059404,5.867999931065545,0.12199999852133472
-0.05680004134774208,0.1158793643116951,9.920969009399414,-0.10729999840259552,0.1005999967455864,0.09829999506473541,-13.079000321836833,-6.654999940443801,-1.193000007300449
-0.05251920595765114,0.11832144856452942,9.932317733764648,-0.1251000016927719,0.13589999079704285,0.11800000071525574,11.502000142487391,6.466999837312847,1.4580000345961308
-0.03751235082745552,0.1197771206498146,9.917051315307617,-0.08739999681711197,0.10399999469518661,0.09829999506473541,5.1139999806622045,5.503000171348764,-0.15500000413539844
-0.04890875145792961,0.11303505301475525,9.920729637145996,-0.08959999680519104,0.07800000160932541,0.0982000008225441,-9.380000386242415,-5.838000032683556,-1.3500000162228314
-0.06688442081212997,0.11329362541437149,9.909111976623535,-0.11299999803304672,0.10009999573230743,0.08839999884366989,-10.094999956484981,-8.403999651019797,-0.7500000208706514
-0.046552855521440506,0.12668199837207794,9.915298461914062,-0.11589999496936798,0.1467999964952469,0.09839999675750732,0.9599999498748056,-1.5800000197772524,0.6709999718570212
-0.06425079703330994,0.1273811012506485,9.932853698730469,-0.13939999043941498,0.14379999041557312,0.11809999495744705,4.1290000443212715,0.517000016805861,1.3209999935023093
-0.04516422376036644,0.11985373497009277,9.918717384338379,-0.11789999902248383,0.12219999730587006,0.09839999675750732,10.136999643465037,8.613000024527603,1.248999981253443
-0.057403381913900375,0.12408668547868729,9.918450355529785,-0.09929999709129333,0.08879999816417694,0.0982000008225441,12.08299993895077,8.91900018330699,1.5120000437827805
-0.04824795201420784,0.11836933344602585,9.904984474182129,-0.07899999618530273,0.06159999966621399,0.08839999884366989,11.326999596894263,8.59599968368344,1.5399999773984248
-0.06014234572649002,0.12408668547868729,9.918305397033691,-0.06499999761581421,0.03019999898970127,0.09829999506473541,7.2110003907712885,3.4209999238740862,1.57900003739408
-0.050747498869895935,0.11657846719026566,9.917099952697754,-0.045499999076128006,0.010199999436736107,0.09849999845027924,-2.5800000120308857,-4.199999860743554,0.7420000017227153
-0.05672342702746391,0.11324574053287506,9.933714866638184,-0.056699998676776886,0.007199999876320362,0.11809999495744705,-3.901999987916367,-4.64899984819409,-0.6979999764503461
-0.04383304715156555,0.1331559121608734,9.917837142944336,-0.0608999989926815,0.038599997758865356,0.09839999675750732,-11.97800029461381,-7.637000143078629,-1.0780000055232384
-0.060228537768125534,0.13902650773525238,9.927069664001465,-0.09849999845027924,0.07689999788999557,0.10809999704360962,1.1370000333474548,4.491999839271708,-0.5579999882070079
-0.04967489466071129,0.12030384689569473,9.919666290283203,-0.07599999755620956,0.05389999970793724,0.0982000008225441,10.812999687320477,7.1359997910426705,1.5730000363733412
-0.038968026638031006,0.12880805134773254,9.91518497467041,-0.04639999940991402,0.033900000154972076,0.09839999675750732,-6.540999814328058,-3.5059999205476022,-0.5420000032719886
-0.047500960528850555,0.10759542137384415,9.918000221252441,-0.055799998342990875,0.03199999779462814,0.09829999506473541,-0.26300000916848465,3.0819999195631937,-0.6020000134793773
-0.04210921749472618,0.1291528195142746,9.910902976989746,-0.04600000008940697,0.052299998700618744,0.08839999884366989,3.5700000737310913,0.04500000098543482,0.9140000131969449
-0.060908492654561996,0.12918154895305634,9.913738250732422,-0.06529999524354935,0.04349999874830246,0.09829999506473541,-11.853000148839762,-8.97299965888511,-0.7459999846162569
-0.04691677540540695,0.12361742556095123,9.906651496887207,-0.07979999482631683,0.056199997663497925,0.10799999535083771,-10.611000257711936,-9.215000091367832,-1.1740000218550601
-0.044321462512016296,0.13061806559562683,9.926169395446777,-0.0754999965429306,0.07569999992847443,0.10799999535083771,5.014999803737455,-0.36199999933024934,1.0059999932743722
-0.07035122066736221,0.12428779900074005,9.906067848205566,-0.0754999965429306,0.07569999992847443,0.10799999535083771,5.095000101938521,-0.5110000157851222,0.017999999727163266
-0.06157886981964111,0.12186487019062042,9.930890083312988,-0.09690000116825104,0.03790000081062317,0.10819999873638153,-6.6199999167025405,-5.285000169835821,-0.6179999984143966
-0.04955039918422699,0.12816640734672546,9.901680946350098,-0.10119999945163727,0.06560000032186508,0.0786999985575676,9.530999647092118,5.48899999109753,0.2570000081477458
-0.05591897666454315,0.11584105342626572,9.906076431274414,-0.08590000122785568,0.029500000178813934,0.08859999477863312,4.9439999873151725,7.357999722088302,-0.06700000028140622
-0.05685750022530556,0.12408668547868729,9.915375709533691,-0.06549999862909317,0.015799999237060547,0.09849999845027924,-5.330999786348564,-1.0689999506312773,-0.8459999838416202
-0.06288131326436996,0.12276508659124374,9.912062644958496,-0.07819999754428864,0.032099999487400055,0.09839999675750732,-7.208999999118121,-2.5139998940810524,-0.6170000160312243
-0.05336196720600128,0.11682746559381485,9.922146797180176,-0.07419999688863754,0.04919999837875366,0.10809999704360962,-5.067000168322878,-5.616000101637924,-0.23399998644796255
-0.054137688130140305,0.10038408637046814,9.913029670715332,-0.08919999748468399,0.043299999088048935,0.0982000008225441,-2.2919999630354204,-5.12500000032051,0.37100000086135765
-0.05650315806269646,0.11642523854970932,9.91282844543457,-0.10300000011920929,0.0689999982714653,0.09829999506473541,0.35899999881987993,-0.669999989473849,-0.041000001416626686
-0.057029884308576584,0.12206597626209259,9.919254302978516,-0.10449999570846558,0.06790000200271606,0.09829999506473541,1.2259999595536597,-2.3429999183508476,0.5799999741627662
-0.0516572967171669,0.11200075596570969,9.922903060913086,-0.11140000075101852,0.054099999368190765,0.10819999873638153,-1.9340000800008448,-4.363000190851793,0.5780000093964218
-0.06336015462875366,0.11950897425413132,9.927940368652344,-0.13130000233650208,0.06839999556541443,0.10819999873638153,-8.154000213245343,-6.623999846235229,-0.18400000017549412
-0.053429003804922104,0.12201809883117676,9.92628288269043,-0.13920000195503235,0.09049999713897705,0.10830000042915344,-8.184000111627332,-5.555000109047364,-0.70500001321511
-0.049655742943286896,0.1267586201429367,9.910606384277344,-0.15399999916553497,0.12239999324083328,0.08889999985694885,-9.837999574811267,-3.999999969014533,-0.28799999563461226
-0.044560883194208145,0.12470917403697968,9.915911674499512,-0.15469999611377716,0.14899998903274536,0.09889999777078629,-0.06200000165415938,2.14000007947231,-0.1509999945614304
-0.046265553683042526,0.12106041610240936,9.918603897094727,-0.1476999968290329,0.13910000026226044,0.09879999607801437,9.333999915956026,3.525999995097869,0.48599997595814165
-0.05210740491747856,0.12242989987134933,9.904123306274414,-0.1485999971628189,0.11639999598264694,0.08879999816417694,-3.698999935594418,-3.8660001952353453,0.1610000051561373
-0.05012500658631325,0.12793655693531036,9.929740905761719,-0.15869998931884766,0.13589999079704285,0.10859999805688858,-0.2589999995945166,-0.16400000566650674,-0.11699999322398127
-0.05274904891848564,0.10828495770692825,9.91992473602295,-0.15860000252723694,0.11659999936819077,0.09879999607801437,3.3469999468588756,1.090000007564716,0.3280000113330135
-0.05970181152224541,0.12355995923280716,9.910807609558105,-0.16489998996257782,0.1168999969959259,0.08889999985694885,-5.352000056725415,-9.902000154881579,-0.1529999993484144
-0.06719087809324265,0.12151052057743073,9.911544799804688,-0.20469999313354492,0.13300000131130219,0.0892999991774559,18.59200031701732,7.541000126746808,1.0009999746368055
-0.06628108024597168,0.12873142957687378,9.920297622680664,-0.1762000024318695,0.09789999574422836,0.10869999974966049,-9.315000037232343,-0.7949999751653399,-0.4560000242153003
-0.04921520873904228,0.11899182200431824,9.917281150817871,-0.17790000140666962,0.12299999594688416,0.09889999777078629,1.1910000425341045,3.2790000775861095,-0.21299999621558977
-0.05671384930610657,0.11751700192689896,9.900406837463379,-0.15369999408721924,0.08999999612569809,0.07909999787807465,-12.973000054786466,2.0479999926731773,-0.13799999679656727
-0.05514325201511383,0.11592724919319153,9.917539596557617,-0.15369999408721924,0.08999999612569809,0.07909999787807465,0.9589999674916334,3.8469998896248394,0.5530000229302942
-0.07222828269004822,0.12562856078147888,9.920777320861816,-0.156700000166893,0.13669998943805695,0.09849999845027924,-8.769999606563161,-7.86200023471719,-0.33600000380052314
-0.05697242170572281,0.13680468499660492,9.9148588180542,-0.15809999406337738,0.17009998857975006,0.09879999607801437,-0.9860000254458112,-3.028999999481422,0.1749999986443858
-0.053687579929828644,0.11080365628004074,9.902647972106934,-0.16579999029636383,0.1428999900817871,0.08909999579191208,3.774999877375973,1.1240000489228048,0.6159999802871993
-0.060228537768125534,0.11435665190219879,9.914571762084961,-0.171999990940094,0.13220000267028809,0.09879999607801437,7.711999889033601,-4.570999941646191,0.2899999870813831
-0.04539406672120094,0.1268831044435501,9.915384292602539,-0.16589999198913574,0.12759999930858612,0.0989999994635582,8.501000290065026,4.203999790276242,-0.08899999957737763
-0.055890243500471115,0.12908577919006348,9.91588306427002,-0.16509999334812164,0.10679999738931656,0.09879999607801437,3.3849999177496533,15.932999135394892,0.12199999852133472
-0.06206728518009186,0.11472056806087494,9.920576095581055,-0.13079999387264252,0.07759999483823776,0.09839999675750732,17.82499910152886,10.073999686108131,0.3559999983095105
-0.0629291981458664,0.12004527449607849,9.922348022460938,-0.10269999504089355,0.03819999843835831,0.10819999873638153,18.859999864575695,-10.711000203576447,0.3450000053316314
-0.06501694768667221,0.13412319123744965,9.910443305969238,-0.1314999908208847,0.0058999997563660145,0.0892999991774559,13.882999818285604,2.3220000748608203,0.4300000020051476
-0.053926996886730194,0.12239159643650055,9.925039291381836,-0.11419999599456787,-0.05649999901652336,0.10949999839067459,1.310999956227176,-5.7790000048593395,0.029999998433587676
-0.04132392257452011,0.12077310681343079,9.917319297790527,-0.11769999563694,-0.05979999899864197,0.0997999981045723,-18.54000037931872,6.712000003501673,0.013000000266153095
-0.04938759282231331,0.1262989342212677,9.914494514465332,-0.1087999939918518,0.0005999999702908099,0.0989999994635582,-18.95499925819411,9.059000278272032,-0.1930000017066024
-0.06199067085981369,0.11830229312181473,9.912971496582031,-0.093299999833107,0.04259999841451645,0.09829999506473541,-3.247000000994365,-10.07200014822861,-0.05900000114378995
-0.06441360712051392,0.1171722337603569,9.933552742004395,-0.12049999833106995,0.05139999836683273,0.11809999495744705,-25.53299906102977,0.321000001248676,0.031999999885518396
-0.05158068239688873,0.11638693511486053,9.926647186279297,-0.10929999500513077,0.1298999935388565,0.10809999704360962,14.225999965572598,7.952999698802916,0.08700000146050021
-0.06441360712051392,0.1308191865682602,9.914533615112305,-0.09969999641180038,0.10539999604225159,0.0982000008225441,-5.814000028600601,2.401999946175064,-0.09000000197086964
-0.04363192990422249,0.1311543732881546,9.911276817321777,-0.07319999486207962,0.12109999358654022,0.08829999715089798,-7.330000215359481,6.309000059450704,0.3139999911643385
-0.056579772382974625,0.11911632865667343,9.923248291015625,-0.06539999693632126,0.13109999895095825,0.1078999936580658,15.872999338630915,-23.065000704452167,-0.12599999475508955
-0.05495171621441841,0.12891338765621185,9.93113899230957,-0.1281999945640564,0.09719999879598618,0.10819999873638153,25.442000450717693,19.673000696576896,0.9690000047667668
-0.05152321979403496,0.1183597594499588,9.911487579345703,-0.06729999929666519,0.008799999952316284,0.08879999816417694,-35.04299929151868,16.415000462480815,-0.2140000052791884
-0.0616171769797802,0.11877156049013138,9.925210952758789,-0.03749999776482582,0.0925000011920929,0.07840000092983246,45.192998492521546,8.143000193587039,-0.16800000190026157
-0.06921158730983734,0.12885594367980957,9.921303749084473,-0.014999999664723873,-0.031300000846385956,0.10889999568462372,2.077999891055166,17.38000032427148,-0.8609999863934674
-0.05832275375723839,0.12347377091646194,9.927193641662598,0.07479999959468842,0.052400000393390656,0.1087999939918518,4.267999943459731,-30.661999844656616,-0.7179999976397599
-0.06578309088945389,0.13031160831451416,9.924397468566895,0.07479999959468842,0.052400000393390656,0.1087999939918518,29.2550013662015,-5.256999809333354,-0.4089999984325616
-0.0527203232049942,0.12100294977426529,9.921380043029785,-0.022199999541044235,-0.03099999949336052,0.0989999994635582,6.211999847292298,20.112999775361825,0.6080000145001161
-0.06244077906012535,0.13525323569774628,9.914169311523438,0.023000000044703484,-0.02850000001490116,0.09950000047683716,-5.736000122052701,5.352000056725415,0.88700000860362
-0.05326620116829872,0.11885774880647659,9.916812896728516,0.04749999940395355,-0.032499998807907104,0.09939999878406525,-1.6369999761134186,11.580000049035291,1.1109999577764493
-0.05137956887483597,0.12055283784866333,9.937220573425293,0.07909999787807465,-0.0279999990016222,0.1193000003695488,-18.37699962232366,40.792000251769686,0.8200000149923204
-0.05452075973153114,0.1292773187160492,9.917808532714844,0.2044999897480011,0.03819999843835831,0.1013999953866005,-15.387999558499358,47.57800151294704,1.0100000295287666
-0.06798575073480606,0.12588712573051453,9.911200523376465,0.2985999882221222,0.07490000128746033,0.09479999542236328,5.529000140198064,43.43299876228725,1.0780000055232384
-0.05040273442864418,0.12400049716234207,9.91108512878418,0.4364999830722809,0.049799997359514236,0.09989999979734421,7.349000094083165,-4.99999985454646,0.13300000483942703
-0.056886233389377594,0.13445837795734406,9.922367095947266,0.4220999777317047,0.04919999837875366,0.11899999529123306,17.30100064878382,27.841000236299827,-0.8960000101347283
-0.05656062066555023,0.12942096590995789,9.929032325744629,0.4974999725818634,-0.007799999788403511,0.1232999935746193,12.41699960445898,-7.9639997184612215,-1.5039999712739915
-0.06173209846019745,0.12655749917030334,9.911937713623047,0.46230000257492065,-0.04580000042915344,0.10289999842643738,-5.723000137628052,-21.965000446168904,-0.0030000000934877653
-0.0590122826397419,0.12458468228578568,9.909638404846191,0.40869998931884766,-0.032099999487400055,0.09999999403953552,2.3769999597089364,20.31700045039718,0.15500000413539844
-0.05855259671807289,0.13578954339027405,9.914848327636719,0.46320000290870667,-0.02879999950528145,0.11270000040531158,10.638999764440756,4.9129998931066,-0.9980000274872889
-0.061339445412158966,0.11743079870939255,9.927212715148926,0.4754999876022339,-0.07729999721050262,0.12359999865293503,-6.460999943013814,-19.29400032972206,0.4420000040466253
-0.04527914524078369,0.1276300996541977,9.919742584228516,0.44119998812675476,-0.049799997359514236,0.11079999804496765,2.374999994942592,11.233999741155369,0.3409999957576634
-0.05395573005080223,0.1117326021194458,9.914188385009766,0.46469998359680176,-0.07669999450445175,0.11249999701976776,0.9649999685123724,-11.838999968588528,-1.070000039736155
-0.049397170543670654,0.11413638293743134,9.915969848632812,0.4351999759674072,-0.0786999985575676,0.11109999567270279,-4.472000191608264,12.68400023685124,1.3310000307774426
-0.058897361159324646,0.11431834101676941,9.929338455200195,0.4587000012397766,-0.06650000065565109,0.12239999324083328,-3.2830000071187984,-15.241000227182342,-1.3250000297567037
-0.0468018539249897,0.11661677807569504,9.918890953063965,0.43549999594688416,-0.04739999771118164,0.11029999703168869,7.444000341475226,12.234000053574121,0.0009999999964224499
-0.05409938097000122,0.12451764196157455,9.907915115356445,0.4578000009059906,-0.05779999867081642,0.10239999741315842,3.304000064052237,10.383999774420207,1.3269999945230482
-0.05729803442955017,0.10810299962759018,9.921801567077637,0.4883999824523926,-0.08760000020265579,0.12379999458789825,1.900000038642756,-6.630000167421086,-0.8979999749010726
-0.04124730825424194,0.12668199837207794,9.921887397766113,0.46140000224113464,-0.08209999650716782,0.11319999396800995,-6.115000062020716,13.058000051459983,1.3980000243887423
-0.06426037847995758,0.11929827928543091,9.904668807983398,0.48240000009536743,-0.08699999749660492,0.1232999935746193,-5.721999941801468,-1.2059999917250988,1.452000033575392
-0.06500735878944397,0.1263372302055359,9.917482376098633,0.49229997396469116,-0.05469999834895134,0.11449999362230301,-3.4250000668501865,-9.19799975052367,0.23099998593759313
-0.054329223930835724,0.11018116027116776,9.916275024414062,0.49229997396469116,-0.05469999834895134,0.11449999362230301,1.0220000315702444,-7.871999631662089,-0.6810000091321545
-0.053189586848020554,0.13075213134288788,9.917539596557617,0.45229998230934143,-0.04609999805688858,0.11169999837875366,3.8539999797504563,-5.396000135358637,-1.4780000024246918
-0.05831317603588104,0.12151052057743073,9.905242919921875,0.42639997601509094,-0.06610000133514404,0.10130000114440918,5.219000051885987,6.654000171504041,-1.0280000325909833
-0.054300494492053986,0.11653058975934982,9.905147552490234,0.45319998264312744,-0.07999999821186066,0.10239999741315842,5.453999967356269,0.7530000213810208,-1.290999988398615
-0.0507187694311142,0.12106999009847641,9.928620338439941,0.45399999618530273,-0.09459999948740005,0.12229999899864197,0.7440000198499125,-6.276000000475787,-0.3409999957576634
-0.043593622744083405,0.11704772710800171,9.924808502197266,0.4431999921798706,-0.0965999960899353,0.12139999866485596,-2.649000077130235,0.6739999723673906,0.03999999902313467
-0.05661807954311371,0.12558066844940186,9.9133939743042,0.43369999527931213,-0.08020000159740448,0.11140000075101852,-3.4140000471918808,-5.660000180271147,0.6960000116840017
-0.062479086220264435,0.1177755743265152,9.935908317565918,0.40709999203681946,-0.08060000091791153,0.13009999692440033,-2.604000016113841,-3.791000022393551,0.7949999751653399
-0.06211517006158829,0.1274673044681549,9.926676750183105,0.3953999876976013,-0.06350000202655792,0.11959999799728394,0.3759999928184979,2.9609999167652443,0.6309999828390465
-0.05212656036019325,0.13137462735176086,9.928132057189941,0.4120999872684479,-0.06439999490976334,0.11989999562501907,-0.5720000083756829,-4.33699979511567,-0.4089999984325616
-0.046888045966625214,0.11582189798355103,9.920144081115723,0.407399982213974,-0.0722000002861023,0.10939999669790268,0.28199999461387343,-2.324000039627165,-0.7129999790021931
-0.05673300102353096,0.13537774980068207,9.91984748840332,0.39079999923706055,-0.05299999937415123,0.10909999907016754,1.0019999570199776,6.322000043875353,0.11099999887334903
-0.03922659903764725,0.1274673044681549,9.904266357421875,0.41679999232292175,-0.06529999524354935,0.10009999573230743,1.0499999651858885,-1.1839999524084877,-0.6720000076010463
-0.06194278597831726,0.12907619774341583,9.92094898223877,0.3928000032901764,-0.06790000200271606,0.10969999432563782,-2.4039999109414087,1.1039999743725382,1.1680000208343213
-0.05750872567296028,0.12230540066957474,9.926226615905762,0.3946000039577484,-0.07109999656677246,0.11949999630451202,2.980000008932339,4.62200011040503,-1.0950000262022828
-0.05560293793678284,0.10728896409273148,9.919675827026367,0.41749998927116394,-0.08969999849796295,0.11050000041723251,-2.564000080456719,0.007000000079177565,0.8969999925179005
-0.05225105583667755,0.12341630458831787,9.92215633392334,0.4162999987602234,-0.07369999587535858,0.1200999990105629,-0.17899999487814064,-2.0619999594809997,0.10600000024610218
-0.053898271173238754,0.12519758939743042,9.910357475280762,0.40950000286102295,-0.06319999694824219,0.10019999742507935,0.690999993046435,-0.09099999769425504,0.22100000202331266
-0.052193596959114075,0.10837114602327347,9.90650749206543,0.4080999791622162,-0.08449999988079071,0.10009999573230743,-1.8459999227344006,-3.5959998291369795,0.49600001323327503
-0.039015911519527435,0.12408668547868729,9.914294242858887,0.40689998865127563,-0.06949999928474426,0.10929999500513077,1.3320000131606147,2.112999914796427,-0.7189999800229321
-0.050412312150001526,0.12150094658136368,9.922863960266113,0.3926999866962433,-0.07329999655485153,0.0997999981045723,1.090000007564716,3.375000093917931,0.690999993046435
-0.05246174708008766,0.12653835117816925,9.914063453674316,0.4074999988079071,-0.07270000129938126,0.11969999969005585,-1.3810000037096979,-0.4870000117021667,1.3589999643930868
-0.059778425842523575,0.13630668818950653,9.921734809875488,0.4156000018119812,-0.065700002014637,0.11029999703168869,-1.8530000128600175,-4.666999957978013,0.7380000188291737
-0.0652850940823555,0.1233588457107544,9.913814544677734,0.3893999755382538,-0.06659999489784241,0.10939999669790268,-0.05600000063342052,-2.325000022010337,-0.6819999915153268
-0.04521210491657257,0.13268665969371796,9.920231819152832,0.3893999755382538,-0.06659999489784241,0.10939999669790268,0.8339999818001425,-3.4339999082987362,-0.9359999457918502
-0.06471048295497894,0.13464990258216858,9.918545722961426,0.3718999922275543,-0.04829999804496765,0.10859999805688858,1.1279999784554937,-0.22100000202331266,-0.9630000037460279
-0.05266286060214043,0.12744814157485962,9.918038368225098,0.3799999952316284,-0.0608999989926815,0.10859999805688858,1.0729999868856717,-1.4679999651495583,-0.817000014481951
-0.05175306275486946,0.11674126982688904,9.931273460388184,0.375,-0.07329999655485153,0.12809999287128448,-0.3669999912873896,-1.6439999595173296,0.2469999975530389
-0.051264647394418716,0.1182352602481842,9.920652389526367,0.36949998140335083,-0.0722000002861023,0.10819999873638153,-0.8420000009480786,2.1900000524045655,-0.07199999890865307
-0.053237468004226685,0.12449848651885986,9.921581268310547,0.3752000033855438,-0.05959999933838844,0.11819999665021896,-1.1039999743725382,-1.5399999773984248,0.5750000088860524
-0.0491769015789032,0.12646172940731049,9.913795471191406,0.37039998173713684,-0.0568000003695488,0.10809999704360962,-0.5230000178265999,-0.3950000049443131,0.7660000058056707
-0.07139509916305542,0.11947066336870193,9.911124229431152,0.34869998693466187,-0.06509999930858612,0.0982000008225441,0.6590000231763964,2.497999962506886,0.30700000776042746
-0.05611051246523857,0.1177564188838005,9.923324584960938,0.374099999666214,-0.06679999828338623,0.11809999495744705,-1.0449999465483217,-2.1209999873052157,1.297999971802526
-0.05806417763233185,0.1367568075656891,9.905665397644043,0.35749998688697815,-0.04429999738931656,0.09809999912977219,0.4459999869401669,3.432999925915564,0.5339999841240525
-0.047951072454452515,0.10886914283037186,9.912636756896973,0.3773999810218811,-0.07509999722242355,0.10839999467134476,0.7209999981501293,-0.3369999861836953,-1.1910000425341045
-0.05027823522686958,0.12516885995864868,9.904007911682129,0.3756999969482422,-0.0568000003695488,0.09849999845027924,-0.8750000065621423,-1.7949999674189732,0.8810000075828812
-0.05016331374645233,0.12259270250797272,9.932182312011719,0.36980000138282776,-0.0640999972820282,0.12770000100135803,1.6179999906680298,4.8790000651919225,-0.34800000584200086
-0.05980715900659561,0.12564770877361298,9.926445960998535,0.37229999899864197,-0.05849999934434891,0.1184999942779541,-0.46600000812958076,-2.112999914796427,0.29500000571894974
-0.058686673641204834,0.1349467784166336,9.926187515258789,0.36559998989105225,-0.04729999974370003,0.11819999665021896,-0.3579999897562813,1.6359999937302463,0.06099999926066736
-0.046840161085128784,0.13597150146961212,9.91899585723877,0.38920000195503235,-0.04609999805688858,0.10849999636411667,-0.06500000216452881,-0.5840000104171607,-0.0429999995335041
-0.050345271825790405,0.12118491530418396,9.929750442504883,0.37709999084472656,-0.06539999693632126,0.11819999665021896,-0.11200000126684104,-1.2969999894193538,-0.22199999774669807
-0.04842991381883621,0.10566090792417526,9.915021896362305,0.3725000023841858,-0.0746999979019165,0.10819999873638153,-0.5219999820825748,-0.02600000053230619,1.1769999690045767
-0.05517198517918587,0.11846510320901871,9.91130542755127,0.37139999866485596,-0.06340000033378601,0.09829999506473541,-0.6870000101528934,-1.073999969268844,-1.1599999483255323
-0.0482192225754261,0.10987470299005508,9.914169311523438,0.3675999939441681,-0.07109999656677246,0.1078999936580658,-1.2050000093419266,-0.7639999876784734,0.9149999955801171
-0.060343459248542786,0.12928690016269684,9.919962882995605,0.35439997911453247,-0.06729999929666519,0.09789999574422836,0.6269999999455048,0.7489999851266264,-1.3920000233680034
-0.05240428447723389,0.1367568075656891,9.911928176879883,0.3481999933719635,-0.04699999839067459,0.10749999433755875,0.6339999833494159,1.6079999533928964,-0.31600000929153577
-0.050249505788087845,0.12053368985652924,9.916236877441406,0.3625999987125397,-0.05979999899864197,0.10769999772310257,0.14499999354069154,3.0829999019463656,0.9080000121762061
-0.06963296234607697,0.11224975436925888,9.914437294006348,0.3504999876022339,-0.06989999860525131,0.10799999535083771,0.34200000482126197,1.8659999972846673,0.6750000081114157
-0.04686889424920082,0.11430876702070236,9.912895202636719,0.3847000002861023,-0.07090000063180923,0.10819999873638153,0.4240000009844087,0.2929999875917525,1.6629999449627184
-0.05170518159866333,0.14147816598415375,9.920671463012695,0.37459999322891235,-0.042500000447034836,0.10819999873638153,-0.049999999612681666,0.15399999507179982,1.2900000060154428
-0.058715399354696274,0.1272566020488739,9.937967300415039,0.36419999599456787,-0.05219999700784683,0.12780000269412994,0.07099999651516105,0.390999995370345,-0.2069999951948509
-0.04312435910105705,0.13841359317302704,9.905904769897461,0.383899986743927,-0.042399998754262924,0.09839999675750732,-0.4459999869401669,-1.9429999214493945,1.3219999758854815
-0.04587290436029434,0.11958558857440948,9.890619277954102,0.3775999844074249,-0.06079999729990959,0.07849999517202377,-0.6780000086217851,-1.193000007300449,1.8860000718349341
-0.06284300982952118,0.1309436857700348,9.915040016174316,0.353300005197525,-0.04899999871850014,0.10769999772310257,0.3150000002279371,-0.008999999863581633,-1.904999950558617
-0.035673607140779495,0.12222878634929657,9.927404403686523,0.38189998269081116,-0.05929999798536301,0.11749999970197678,0.6999999945775432,1.3229999582686536,-1.041000017015633
-0.04289451614022255,0.12087845802307129,9.901077270507812,0.3747999966144562,-0.0608999989926815,0.08819999545812607,0.03599999945432653,-0.8089999953340149,-3.464000020124136
-0.05112099274992943,0.1346116065979004,9.917702674865723,0.3619999885559082,-0.04089999943971634,0.10769999772310257,-0.4229999919208101,-1.5039999712739915,1.4090000440470478
-0.05720226839184761,0.12945927679538727,9.91331672668457,0.3577999770641327,-0.04969999939203262,0.10749999433755875,0.49199997697888054,1.6880000381505518,3.2570000382694984
-0.05081453546881676,0.1085243746638298,9.918890953063965,0.3628999888896942,-0.07119999825954437,0.10769999772310257,-0.2780000117203318,-1.388999969496781,-5.930000119482689
-0.06171294301748276,0.1251114010810852,9.922357559204102,0.3499999940395355,-0.05040000006556511,0.11739999800920486,0.4270000014947782,1.359999946776259,7.748999877541206
-0.06234501302242279,0.11146445572376251,9.914848327636719,0.353300005197525,-0.07199999690055847,0.10779999941587448,-0.45400000608810304,-0.006000000186975531,-8.983999678543416
-0.04549941048026085,0.1282142996788025,9.926054000854492,0.3732999861240387,-0.05009999871253967,0.11749999970197678,0,-0.6679999713466518,0.6470000211349186
-0.04476199299097061,0.13079045712947845,9.894038200378418,0.3714999854564667,-0.050200000405311584,0.08799999952316284,0.08799999718388561,0.19799999366374263,2.609999910412874
-0.046600744128227234,0.11849382519721985,9.91032886505127,0.37199997901916504,-0.06059999763965607,0.09789999574422836,-0.59999999535218,-1.6019999523721575,-0.4210000004740393
-0.05646485090255737,0.1220276728272438,9.916888236999512,0.35830000042915344,-0.05909999832510948,0.10749999433755875,-0.40400000647542134,-1.0369999807612387,-3.5549999110966852
-0.06273765861988068,0.11991120129823685,9.90976333618164,0.34579998254776,-0.0575999990105629,0.09759999811649323,0.23199999500119176,0.17799999915475526,6.913000091057278
-0.0433637797832489,0.11616666615009308,9.906814575195312,0.36559998989105225,-0.05900000035762787,0.09759999811649323,-0.3450000053316314,-1.0720000045024995,-4.788000174219373
-0.045652639120817184,0.128568634390831,9.905511856079102,0.3628999888896942,-0.04779999703168869,0.09749999642372131,-0.03100000082707969,-1.0710000221193274,0.7069999779814543
-0.0514274537563324,0.13174813985824585,9.9150972366333,0.3595999777317047,-0.04779999703168869,0.1070999950170517,0.6739999723673906,1.472000001403953,0.627999982328677
-0.047998953610658646,0.13231316208839417,9.920221328735352,0.35439997911453247,-0.049799997359514236,0.10740000009536743,0.5829999746731356,1.2880000412490984,-0.9479999478333279
-0.0465720109641552,0.10857225954532623,9.901814460754395,0.3676999807357788,-0.07090000063180923,0.08789999783039093,0.3280000113330135,1.4809999495742083,0.07600000181251451
-0.044656649231910706,0.12117534130811691,9.912053108215332,0.3718000054359436,-0.06199999898672104,0.10769999772310257,0.26600000967885407,0.2899999870813831,-1.2150000466170598
-0.05018246918916702,0.12023680657148361,9.921034812927246,0.3628999888896942,-0.06269999593496323,0.10779999941587448,-0.1509999945614304,-0.29500000571894974,-0.3339999856733259
-0.06890513002872467,0.1156303659081459,9.917014122009277,0.3425999879837036,-0.06229999661445618,0.10769999772310257,-0.07900000232288394,-1.0290000149741554,-0.8909999914971617
-0.04258805885910988,0.11321701109409332,9.915844917297363,0.369299978017807,-0.07180000096559525,0.10759999603033066,0.15500000413539844,1.1560000187928436,-0.5639999892277469
-0.0486980639398098,0.11915463209152222,9.900704383850098,0.3625999987125397,-0.06229999661445618,0.08810000121593475,0.04600000004387353,0.9109999593257225,0.37100000086135765
-0.05247132480144501,0.12832920253276825,9.914264678955078,0.3650999963283539,-0.05269999802112579,0.10779999941587448,0.4679999728959251,1.3879999871136088,1.2739999677195706
-0.060295574367046356,0.13254299759864807,9.916926383972168,0.359499990940094,-0.05429999902844429,0.10799999535083771,0.23099998593759313,-0.23900000508552924,-0.3409999957576634
-0.04880340397357941,0.12345461547374725,9.911831855773926,0.3686999976634979,-0.06459999829530716,0.0982000008225441,-0.15500000413539844,-1.1769999690045767,-0.2250000115972807
-0.054731450974941254,0.13442005217075348,9.906201362609863,0.36550000309944153,-0.044599998742341995,0.09809999912977219,0.10999999647985702,0.7320000178084348,-0.44399999549339614
-0.039063792675733566,0.11500786989927292,9.903099060058594,0.3772999942302704,-0.06439999490976334,0.0982000008225441,-0.0859999990670082,0.2549999900205486,0.6789999910049573
-0.05886863172054291,0.11631989479064941,9.895608901977539,0.35839998722076416,-0.06430000066757202,0.08839999884366989,-0.24200000559589865,-0.9200000142176837,-0.5930000119482689
-0.06155971437692642,0.12274593114852905,9.921170234680176,0.3555999994277954,-0.06340000033378601,0.1078999936580658,0.06800000267489824,0.7189999800229321,0.5020000142540139
-0.059941235929727554,0.12437399476766586,9.907666206359863,0.3572999835014343,-0.06369999796152115,0.09809999912977219,-0.21200000049220435,-0.8299999989066009,-0.3529999977991411
-0.042741287499666214,0.11843637377023697,9.897466659545898,0.37459999322891235,-0.06300000101327896,0.08819999545812607,0.2150000010025738,0.7660000058056707,-0.19900000272734125
-0.04752011597156525,0.10988428443670273,9.905866622924805,0.3766999840736389,-0.07339999824762344,0.09809999912977219,-0.29699999716572056,0.3980000054546825,0.2639999915516568
-0.05434837564826012,0.12624147534370422,9.915069580078125,0.36800000071525574,-0.05299999937415123,0.10799999535083771,0.021000000237532696,0.23000000355442093,0.5420000032719886
-0.052758630365133286,0.12719914317131042,9.908509254455566,0.3685999810695648,-0.05309999734163284,0.0982000008225441,0.0969999987149939,0.1419999930303221,-0.7099999784918237
-0.05313212424516678,0.13116393983364105,9.911917686462402,0.36899998784065247,-0.05329999700188637,0.0982000008225441,-0.19699999794035722,0.30799999014359963,0.5129999805514666
-0.05707776919007301,0.14830642938613892,9.906621932983398,0.36980000138282776,-0.0429999977350235,0.10799999535083771,-0.05300000012305109,0.2360000045751598,-0.36199999933024934
-0.05707776919007301,0.14830642938613892,9.906621932983398,0.37129998207092285,-0.033299997448921204,0.09829999506473541,-0.05300000012305109,0.2360000045751598,-0.36199999933024934
-0.057901374995708466,0.12247778475284576,9.917683601379395,0.3621000051498413,-0.05269999802112579,0.10809999704360962,-0.22800001210765014,-0.885999972859595,0.21200000049220435
-0.04559517651796341,0.11815864592790604,9.915250778198242,0.3771999776363373,-0.06109999865293503,0.1078999936580658,-0.02800000031671026,-0.1390000058601659,0.34200000482126197
-0.06203855574131012,0.128108948469162,9.913575172424316,0.3570999801158905,-0.05130000039935112,0.1078999936580658,-0.1939999974299878,-0.2570000081477458,0.47399997391666393
-0.05149449035525322,0.12670116126537323,9.906354904174805,0.3662000000476837,-0.05079999938607216,0.09799999743700027,-0.0429999995335041,0.7299999996812375,0.38100001145606455
-0.035510800778865814,0.1228800043463707,9.914551734924316,0.3877999782562256,-0.060499999672174454,0.1078999936580658,-0.06500000216452881,0.4270000014947782,0.4100000074961602
-0.052567094564437866,0.1116081103682518,9.927816390991211,0.3693999946117401,-0.07019999623298645,0.11779999732971191,-0.3369999861836953,0.3849999943496062,0.31999999218507735
-0.054137688130140305,0.12006442993879318,9.903242111206055,0.3702999949455261,-0.05959999933838844,0.0982000008225441,-0.6110000150104855,-0.6179999984143966,0.2710000016359943
-0.04078762233257294,0.11401188373565674,9.894316673278809,0.3783999979496002,-0.06769999861717224,0.08829999715089798,-0.06099999926066736,-0.5759999912692245,0.0859999990670082
-0.0653904378414154,0.12007400393486023,9.911248207092285,0.3571999967098236,-0.05779999867081642,0.09799999743700027,0.2159999967259592,-0.6870000101528934,-0.3019999891228608
-0.05429091677069664,0.12016976624727249,9.924578666687012,0.3650999963283539,-0.05829999968409538,0.11759999394416809,0.19600000221697184,0.4109999898793324,-0.1070000026395942
-0.05813121795654297,0.1258583962917328,9.909907341003418,0.3564999997615814,-0.04910000041127205,0.09799999743700027,0.035000000395887826,0.3399999866940647,0.09500000059811649
-0.06419333815574646,0.13189178705215454,9.909360885620117,0.3572999835014343,-0.04919999837875366,0.09809999912977219,-0.22700000304405152,-0.6320000185830715,0.2839999860606442
-0.05452075973153114,0.1235886886715889,9.908547401428223,0.3652999997138977,-0.058399997651576996,0.09799999743700027,0.2959999881021219,-0.16400000566650674,-0.14600000260429016
-0.06461471319198608,0.13389334082603455,9.919426918029785,0.35499998927116394,-0.04939999803900719,0.10779999941587448,0.1070000026395942,0.13300000483942703,0.3600000078834786
-0.056646812707185745,0.1253412514925003,9.911879539489746,0.3651999831199646,-0.04969999939203262,0.09799999743700027,0.06899999839828364,-0.796000010909365,-0.07300000130214508
-0.04967489466071129,0.13247597217559814,9.912674903869629,0.3626999855041504,-0.04989999905228615,0.10769999772310257,-0.10499999785261017,0.49000001221253614,0.19600000221697184
-0.058543018996715546,0.11541967839002609,9.898089408874512,0.3540000021457672,-0.05949999764561653,0.08810000121593475,-0.02899999937514897,-0.6399999843701547,-0.1509999945614304
-0.05416642129421234,0.12249693274497986,9.911640167236328,0.3619999885559082,-0.05939999967813492,0.09789999574422836,-0.13499999628619785,0.3510000063523703,0.3119999997175677
-0.04296155646443367,0.12214259058237076,9.931291580200195,0.3726999759674072,-0.05909999832510948,0.12729999423027039,-0.13400000056281244,0.1830000044521087,-0.1629999966029081
-0.06001785025000572,0.12165417522192001,9.905884742736816,0.35359999537467957,-0.05869999900460243,0.09789999574422836,-0.019999999511567335,0.08400000095013078,0.1079999983629796
-0.048707637935876846,0.1111292615532875,9.90913200378418,0.3633999824523926,-0.06839999556541443,0.09789999574422836,0.2929999875917525,0.057000003026912535,0.1419999930303221
-0.053515199571847916,0.11748826503753662,9.911784172058105,0.3634999990463257,-0.05929999798536301,0.09789999574422836,-0.02899999937514897,-0.3570000073731091,-0.10999999647985702
-0.06179913505911827,0.12407711148262024,9.909839630126953,0.36249998211860657,-0.04939999803900719,0.09789999574422836,-0.4139999903897018,-0.30100000673968863,0.031999999885518396
-0.053706735372543335,0.12703633308410645,9.897285461425781,0.35179999470710754,-0.05810000002384186,0.09779999405145645,0.09500000059811649,-0.007000000079177565,0.1610000051561373
-0.06623319536447525,0.1334240734577179,9.911046981811523,0.3612000048160553,-0.048499997705221176,0.08799999952316284,0.0749999994190225,0.07199999890865307,0.1849999958988795
-0.05313212424516678,0.11900140345096588,9.90579891204834,0.3511999845504761,-0.04769999906420708,0.09779999405145645,-0.22400000253368207,0.5720000083756829,-0.01400000015835513
-0.05826529487967491,0.11450988054275513,9.902083396911621,0.35259997844696045,-0.06679999828338623,0.08799999952316284,-0.07999999804626934,0.3750000104353257,0.035000000395887826
-0.0653042420744896,0.13320380449295044,9.904362678527832,0.35359999537467957,-0.04699999839067459,0.09789999574422836,0.08400000095013078,0.10100000161885533,0.1509999945614304
-0.050632577389478683,0.12016019225120544,9.909687042236328,0.36329999566078186,-0.05700000002980232,0.09789999574422836,0.04900000055424296,0.2570000081477458,0.17599999436777122
-0.04659116268157959,0.11642523854970932,9.904505729675293,0.37389999628067017,-0.057099997997283936,0.09789999574422836,0.1400000015835513,-0.46099998949201404,0.07799999992939192
-0.05001965910196304,0.11881944537162781,9.917396545410156,0.3628999888896942,-0.057499997317790985,0.10769999772310257,-0.06399999977103679,0.21299999621558977,-0.18099999966512467
-0.05281608924269676,0.13843274116516113,9.902504920959473,0.3633999824523926,-0.037699997425079346,0.09789999574422836,-0.19200000598321698,-0.021999999295971403,0.1719999981340164
-0.04256890341639519,0.12445060908794403,9.911429405212402,0.3730999827384949,-0.0568000003695488,0.09789999574422836,-0.12299999424472013,-0.14699999832767557,0.046999999102312236
-0.06413587182760239,0.1125657856464386,9.9024658203125,0.3527999818325043,-0.06619999557733536,0.09779999405145645,-0.2469999975530389,0.10400000212922476,0.24099999653230003
-0.059941235929727554,0.13584700226783752,9.903223037719727,0.3529999852180481,-0.035999998450279236,0.09779999405145645,-0.06399999977103679,-0.3059999986968288,-0.01400000015835513
-0.055373094975948334,0.12401964515447617,9.911861419677734,0.3619999885559082,-0.05549999698996544,0.09779999405145645,-0.23900000508552924,0.07300000130214508,0.14399999781730613
-0.05234682559967041,0.1147971823811531,9.90410327911377,0.3621000051498413,-0.06459999829530716,0.09779999405145645,-0.10999999647985702,-0.05600000063342052,0.12499999903170415
-0.059558164328336716,0.12245862931013107,9.907560348510742,0.35179999470710754,-0.054499998688697815,0.09779999405145645,0.03400000133744912,0.2289999944908223,0.09999999922536333
-0.06710468232631683,0.1336539089679718,9.909984588623047,0.3425999879837036,-0.04479999840259552,0.09779999405145645,-0.27500001120996237,-0.05300000012305109,0.19499999315337319
-0.051810525357723236,0.12278424203395844,9.906124114990234,0.3619000017642975,-0.05379999801516533,0.09779999405145645,0.02800000031671026,0.5279999831033136,0.1509999945614304
-0.0630345419049263,0.13392207026481628,9.895705223083496,0.353300005197525,-0.04399999976158142,0.08799999952316284,-0.03699999851276524,-0.14699999832767557,-0.04200000047506539
-0.05813121795654297,0.11283393949270248,9.889968872070312,0.35249999165534973,-0.06340000033378601,0.07819999754428864,-0.04600000004387353,-0.10600000024610218,0.1729999938574018
-0.05815037339925766,0.13713987171649933,9.88245964050293,0.3515999913215637,-0.033900000154972076,0.06830000132322311,0.18700000068586353,-0.18400000017549412,0.1319999957758284
-0.047663770616054535,0.1142321527004242,9.901556968688965,0.37070000171661377,-0.06379999965429306,0.08789999783039093,-0.10100000161885533,0.25100000712700693,-0.021000000237532696
-0.051743488758802414,0.11604216694831848,9.897753715515137,0.36159998178482056,-0.053700000047683716,0.08789999783039093,0.008999999863581633,0.25100000712700693,0.14399999781730613
-0.05253836140036583,0.12193191051483154,9.894920349121094,0.3621000051498413,-0.053700000047683716,0.09779999405145645,0.17100000241063099,-0.03100000082707969,0.004999999877891834
-0.048851292580366135,0.1294688582420349,9.898138046264648,0.36159998178482056,-0.054099999368190765,0.08789999783039093,0.04200000047506539,-0.0659999978879142,0.0019999999928448997
-0.04707958176732063,0.11947066336870193,9.900368690490723,0.36089998483657837,-0.04389999806880951,0.08789999783039093,-0.010999999647985701,-0.4519999879609058,0.03400000133744912
-0.04711788892745972,0.12463255971670151,9.905166625976562,0.3700999915599823,-0.05379999801516533,0.08789999783039093,-0.08700000146050021,-0.733000000191607,0.038000000906257256
-0.0561583936214447,0.11888648569583893,9.897582054138184,0.3569999933242798,-0.05350000038743019,0.0876999944448471,-0.04500000098543482,-0.22199999774669807,0.035000000395887826
-0.06253654509782791,0.12832920253276825,9.880660057067871,0.3463999927043915,-0.04360000044107437,0.06809999793767929,0.30400000725005805,0.12400000330831876,0.14099999730693671
-0.05642654374241829,0.13420936465263367,9.883877754211426,0.3564999997615814,-0.03460000082850456,0.0778999999165535,-0.01700000066872456,0.3860000034132048,-0.02600000053230619
-0.049512092024087906,0.12545616924762726,9.885821342468262,0.35749998688697815,-0.04439999908208847,0.07800000160932541,-0.06099999926066736,0.34800000584200086,-0.01400000015835513
-0.051484912633895874,0.12222878634929657,9.894660949707031,0.35839998722076416,-0.053999997675418854,0.08779999613761902,0.012000000373951061,-0.22700000304405152,0.08700000146050021
-0.06302496790885925,0.11468225717544556,9.892955780029297,0.3479999899864197,-0.06379999965429306,0.08779999613761902,0.08700000146050021,0.1509999945614304,0.07799999992939192
-0.044867340475320816,0.12804189324378967,9.890850067138672,0.367499977350235,-0.04439999908208847,0.07800000160932541,-0.24399999704266945,0.36800000035098823,0.05900000114378995
-0.05379292368888855,0.1031900942325592,9.887650489807129,0.358599990606308,-0.0731000006198883,0.07800000160932541,-0.12400000330831876,-0.49099999459570837,0.06700000028140622
-0.044541727751493454,0.12272677570581436,9.887784957885742,0.3668999969959259,-0.053199999034404755,0.0778999999165535,0.07099999651516105,0.015999999942759198,0.009999999755783667
-0.05429091677069664,0.11630074679851532,9.889959335327148,0.35659998655319214,-0.05329999700188637,0.0778999999165535,-0.041000001416626686,-0.33900000431089256,0.1319999957758284
-0.052308518439531326,0.13284945487976074,9.894163131713867,0.35569998621940613,-0.04339999705553055,0.0876999944448471,0.13300000483942703,0.10199999734224074,0.029999998433587676
-0.049799397587776184,0.12203724682331085,9.899967193603516,0.3554999828338623,-0.05350000038743019,0.0876999944448471,-0.3310000118433829,-0.4840000111917973,0.07799999992939192
-0.05270116776227951,0.12505394220352173,9.891654014587402,0.35409998893737793,-0.042799998074769974,0.07779999822378159,0.3529999977991411,0.36399999077702017,0.12799999954207358
-0.046504974365234375,0.1233588457107544,9.888187408447266,0.36469998955726624,-0.05350000038743019,0.0778999999165535,0.09300000248123906,0.18199999538851008,-0.009999999755783667
-0.04564306139945984,0.12083057314157486,9.894344329833984,0.36479997634887695,-0.05379999801516533,0.0876999944448471,-0.149999998838045,-0.1400000015835513,0.043999998591942806
-0.05650315806269646,0.12103168666362762,9.903519630432129,0.35420000553131104,-0.05329999700188637,0.0973999947309494,-0.019000000453128628,0.39699999639108385,-0.017999999727163266
-0.05409938097000122,0.12247778475284576,9.885765075683594,0.35519999265670776,-0.05329999700188637,0.0778999999165535,-0.006000000186975531,0.42599999243117953,0.10900000075647161
-0.04747223109006882,0.1158985123038292,9.905071258544922,0.3659999966621399,-0.053199999034404755,0.09749999642372131,0.21100000476881897,0.15599999985878385,0.05099999867112037
-0.05123591795563698,0.11216355860233307,9.889921188354492,0.3564999997615814,-0.06359999626874924,0.0778999999165535,-0.05799999875029794,-0.6219999813079381,0.05799999875029794
-0.05513367801904678,0.129488006234169,9.904123306274414,0.3544999957084656,-0.043800000101327896,0.0973999947309494,-0.2140000052791884,-0.35199998873554245,0.1070000026395942
-0.060467954725027084,0.14436078071594238,9.899391174316406,0.34369999170303345,-0.02369999885559082,0.08760000020265579,-0.3529999977991411,-0.3119999997175677,0.15599999985878385
-0.05682877078652382,0.12184570729732513,9.893129348754883,0.35249999165534973,-0.04230000078678131,0.08749999850988388,-0.29800000622931916,-0.1390000058601659,0.13499999628619785
-0.06237374246120453,0.11619539558887482,9.91456127166748,0.3414999842643738,-0.050599999725818634,0.1070999950170517,-0.536999984634422,-0.4879999940853389,-0.013000000266153095
-0.05502833053469658,0.14016613364219666,9.890811920166016,0.3414999842643738,-0.050599999725818634,0.1070999950170517,0.1529999993484144,-0.17400000292100043,-0.009999999755783667
-0.056790463626384735,0.11448115110397339,9.880582809448242,0.3490999937057495,-0.05900000035762787,0.06769999861717224,-0.12400000330831876,0.0539999991814898,0.16699999283666295
-0.056388236582279205,0.12003570050001144,9.892333984375,0.34869998693466187,-0.04879999905824661,0.07750000059604645,0.31800000073830653,0.31699999167470794,0.19999999845072666
-0.05502833053469658,0.1312788724899292,9.90633487701416,0.34939998388290405,-0.03989999741315842,0.09719999879598618,0.06800000267489824,0.16699999283666295,-0.06700000028140622
-0.05971139296889305,0.12246821075677872,9.893071174621582,0.33949998021125793,-0.049799997359514236,0.08739999681711197,-0.16599999711327754,-0.46000000710884187,0.07000000079177565
-0.05191586911678314,0.1241728737950325,9.894421577453613,0.34769999980926514,-0.049300000071525574,0.08729999512434006,0.16800000190026157,0.11400000605382507,-0.038000000906257256
-0.0741819441318512,0.12874101102352142,9.893013954162598,0.3278999924659729,-0.039799999445676804,0.08729999512434006,-0.048000001495804245,0.08499999667351618,0.1199999937343507
-0.04234864190220833,0.13760912418365479,9.895868301391602,0.3568999767303467,-0.02979999966919422,0.08729999512434006,-0.13400000056281244,-0.34200000482126197,0.03999999902313467
-0.04971320182085037,0.11773726344108582,9.9024658203125,0.34599998593330383,-0.04910000041127205,0.09699999541044235,0.4270000014947782,0.29399999665535115,0.1620000008795227
-0.046763546764850616,0.13639287650585175,9.890676498413086,0.3564999997615814,-0.03059999831020832,0.07750000059604645,-0.20899999998183494,-0.26300000916848465,0.04600000004387353
-0.0585334450006485,0.13665145635604858,9.899736404418945,0.3358999788761139,-0.029999999329447746,0.08720000088214874,-0.07000000079177565,0.04600000004387353,-0.07000000079177565
-0.05553590506315231,0.12812809646129608,9.913459777832031,0.34529998898506165,-0.03949999809265137,0.10679999738931656,0.3570000073731091,-0.021999999295971403,0.12700000381868817
-0.048209644854068756,0.11631989479064941,9.896681785583496,0.3450999855995178,-0.0502999983727932,0.08720000088214874,-0.03699999851276524,0.16699999283666295,0.09999999922536333
-0.048382025212049484,0.1169615387916565,9.903595924377441,0.3449999988079071,-0.050200000405311584,0.09699999541044235,0.09399999820462447,0.17799999915475526,0.05099999867112037
-0.04679227992892265,0.10525868088006973,9.908498764038086,0.3547999858856201,-0.06989999860525131,0.09699999541044235,-0.2770000026567332,-0.0539999991814898,0.1529999993484144
-0.06076483801007271,0.11843637377023697,9.899267196655273,0.33480000495910645,-0.0494999997317791,0.08720000088214874,0.10100000161885533,0.0659999978879142,-0.04600000004387353
-0.04480987787246704,0.12361742556095123,9.911401748657227,0.3540000021457672,-0.04959999769926071,0.09699999541044235,-0.20200000323771067,0.009999999755783667,0.038000000906257256
-0.06453809887170792,0.11497914046049118,9.909323692321777,0.33390000462532043,-0.04899999871850014,0.09690000116825104,-0.031999999885518396,0.21100000476881897,0.13499999628619785
-0.04124730825424194,0.12659581005573273,9.90758991241455,0.3538999855518341,-0.03909999877214432,0.09699999541044235,-0.09800000110848592,-0.08299999855663877,0.0969999987149939
-0.05357265844941139,0.10848607122898102,9.905875205993652,0.3432999849319458,-0.058399997651576996,0.09690000116825104,0.09399999820462447,0.10900000075647161,0.10299999973573276
-0.052308518439531326,0.12486240267753601,9.902294158935547,0.343099981546402,-0.039000000804662704,0.08709999918937683,-0.014999999216793838,-0.16999999334703236,0.18199999538851008
-0.05522944778203964,0.12597331404685974,9.90251350402832,0.3425000011920929,-0.03889999911189079,0.09690000116825104,-0.1610000051561373,-0.28600000418784144,-0.01400000015835513
-0.06537128239870071,0.11615709215402603,9.909773826599121,0.33229997754096985,-0.04859999939799309,0.09690000116825104,0.3339999856733259,-0.1729999938574018,0.03999999902313467
-0.0729752629995346,0.11636777967214584,9.913373947143555,0.32179999351501465,-0.0494999997317791,0.10669999569654465,-0.2589999995945166,0.09500000059811649,0.1070000026395942
-0.04514506831765175,0.11782345920801163,9.927997589111328,0.32179999351501465,-0.0494999997317791,0.10669999569654465,0.12299999424472013,0.02800000031671026,-0.007999999971379599
-0.06229712814092636,0.1315278559923172,9.910146713256836,0.3312000036239624,-0.03920000046491623,0.09679999947547913,-0.34299998720443414,0.012000000373951061,0.22100000202331266
-0.04723281040787697,0.12951673567295074,9.91500186920166,0.3506999909877777,-0.03819999843835831,0.10659999400377274,-0.004999999877891834,-0.14699999832767557,0.15999999609253868
-0.05092945694923401,0.12553277611732483,9.916428565979004,0.3398999869823456,-0.03819999843835831,0.10659999400377274,0.4100000074961602,0.1189999980109653,-0.007000000079177565
-0.044608764350414276,0.12593501806259155,9.90268611907959,0.3498999774456024,-0.03929999843239784,0.09679999947547913,-0.09500000059811649,0.10499999785261017,0.20299999896109608
-0.05575616657733917,0.13254299759864807,9.914791107177734,0.3401999771595001,-0.039000000804662704,0.10659999400377274,0.11699999322398127,-0.05999999686717535,-0.09600000299160849
-0.07118440419435501,0.12427821755409241,9.894957542419434,0.3197999894618988,-0.04899999871850014,0.08699999749660492,0.1180000022875799,0.16800000190026157,0.021999999295971403
-0.045767560601234436,0.11461522430181503,9.917376518249512,0.34919998049736023,-0.05900000035762787,0.10659999400377274,-0.03899999996469596,-0.1729999938574018,0.07799999992939192
-0.052241481840610504,0.13279201090335846,9.916851043701172,0.3382999897003174,-0.03920000046491623,0.10649999976158142,-0.024000000747902123,0.12100000279794933,-0.013000000266153095
-0.06263231486082077,0.1193174347281456,9.918325424194336,0.32839998602867126,-0.048899997025728226,0.10649999976158142,-0.15200000362502902,0,0.1189999980109653
-0.061818286776542664,0.11628158390522003,9.914207458496094,0.3278000056743622,-0.04839999973773956,0.10649999976158142,-0.004999999877891834,0.05300000012305109,0
-0.07764875143766403,0.11450988054275513,9.920048713684082,0.30789998173713684,-0.05810000002384186,0.10649999976158142,0.11699999322398127,0.11500000177721047,0.09399999820462447
-0.05792052671313286,0.1251305490732193,9.903117179870605,0.3271999955177307,-0.03869999945163727,0.09669999778270721,-0.17799999915475526,-0.15200000362502902,0.10499999785261017
-0.06518932431936264,0.11685619503259659,9.919867515563965,0.32659998536109924,-0.04800000041723251,0.10649999976158142,0.28600000418784144,0.18600000496247812,0.19699999794035722
-0.049732357263565063,0.12378022819757462,9.910529136657715,0.3366999924182892,-0.04879999905824661,0.09669999778270721,-0.3529999977991411,0.04200000047506539,-0.03999999902313467
-0.05281608924269676,0.09871772676706314,9.931465148925781,0.33660000562667847,-0.06729999929666519,0.12610000371932983,-0.06399999977103679,-0.024000000747902123,0.009999999755783667
-0.04506845027208328,0.12482409924268723,9.904936790466309,0.3456999957561493,-0.037699997425079346,0.0965999960899353,-0.02600000053230619,-0.24299998797907083,0.12199999852133472
-0.054798487573862076,0.1284441351890564,9.910271644592285,0.3349999785423279,-0.03759999945759773,0.0965999960899353,0.12199999852133472,-0.43999998591942807,0.07699999753589991
-0.052883125841617584,0.11688492447137833,9.911592483520508,0.3237999975681305,-0.04769999906420708,0.1160999983549118,-0.017999999727163266,-0.3600000078834786,-0.06299999737754478
-0.052883125841617584,0.11688492447137833,9.911592483520508,0.33229997754096985,-0.047599997371435165,0.09649999439716339,-0.31699999167470794,-0.13000000432905762,-0.0039999999856897995
-0.0508241131901741,0.12411541491746902,9.920758247375488,0.32189998030662537,-0.04659999907016754,0.09640000015497208,-0.14399999781730613,-0.3319999942265551,-0.0030000000934877653
-0.057221420109272,0.11473014950752258,9.929147720336914,0.33069998025894165,-0.046299997717142105,0.10619999468326569,0.20200000323771067,0.25100000712700693,0.14499999354069154
-0.061808712780475616,0.13102029263973236,9.935688018798828,0.32019999623298645,-0.03709999844431877,0.1257999986410141,-0.23300000406479038,0.128999995265459,0.08100000043976135
-0.03765600547194481,0.10813172906637192,9.905272483825684,0.349700003862381,-0.05609999969601631,0.09640000015497208,-0.09999999922536333,-0.035000000395887826,-0.04600000004387353
-0.049224790185689926,0.11454818397760391,9.911200523376465,0.3294000029563904,-0.05570000037550926,0.09629999846220016,-0.01700000066872456,-0.0749999994190225,0.22700000304405152
-0.050010085105895996,0.1203804612159729,9.91441822052002,0.32889997959136963,-0.04580000042915344,0.10610000044107437,-0.0329999989439571,0.04500000098543482,-0.07799999992939192
-0.062479086220264435,0.12671072781085968,9.90628719329834,0.31859999895095825,-0.03579999879002571,0.09629999846220016,0.04900000055424296,-0.010999999647985701,0.09800000110848592
-0.05279693752527237,0.11653058975934982,9.915874481201172,0.3278000056743622,-0.04569999873638153,0.10610000044107437,-0.11099999887334903,0.02800000031671026,0.05999999686717535
-0.0510731115937233,0.12028469145298004,9.919455528259277,0.32739999890327454,-0.04529999941587448,0.10610000044107437,0.07900000232288394,-0.01700000066872456,0.11400000605382507
-0.054827217012643814,0.12393345683813095,9.90464973449707,0.32670000195503235,-0.045499999076128006,0.09619999676942825,0.24099999653230003,0.15399999507179982,-0.009999999755783667
-0.04908113554120064,0.13894030451774597,9.906929016113281,0.32679998874664307,-0.026399999856948853,0.09629999846220016,0.03599999945432653,-0.11599999750059588,0.13799999679656727
-0.06075526028871536,0.12052411586046219,9.915060043334961,0.31610000133514404,-0.04609999805688858,0.10599999874830246,-0.16400000566650674,0.09999999922536333,0.023000000021936765
-0.05106353387236595,0.122736357152462,9.925240516662598,0.3255999982357025,-0.04559999704360962,0.11580000072717667,0.02899999937514897,-0.4100000074961602,0.07799999992939192
-0.046955082565546036,0.12989981472492218,9.90869140625,0.33399999141693115,-0.03579999879002571,0.09619999676942825,-0.2159999967259592,-0.07000000079177565,-0.05900000114378995
-0.047405194491147995,0.14033852517604828,9.912760734558105,0.3334999978542328,-0.025299999862909317,0.10589999705553055,0.1749999986443858,0.2039999946844815,0.0859999990670082
-0.039044640958309174,0.11814906448125839,9.918190956115723,0.3337000012397766,-0.04529999941587448,0.10589999705553055,0.2899999870813831,0.2770000026567332,0.12100000279794933
-0.05887820944190025,0.11930786073207855,9.931522369384766,0.31459999084472656,-0.04609999805688858,0.12559999525547028,0.1189999980109653,-0.0269999995907449,0.09200000008774706
-0.052854396402835846,0.1356363147497177,9.922500610351562,0.3237999975681305,-0.026799999177455902,0.11580000072717667,0.029999998433587676,0.3469999967784022,0.12199999852133472
-0.05365884676575661,0.12659581005573273,9.91397762298584,0.3244999945163727,-0.03659999743103981,0.10599999874830246,-0.0659999978879142,-0.03400000133744912,0.048000001495804245
-0.06021896004676819,0.1274673044681549,9.901575088500977,0.31379997730255127,-0.036399997770786285,0.08630000054836273,-0.06800000267489824,-0.09999999922536333,0.08100000043976135
-0.06168421357870102,0.12532208859920502,9.913345336914062,0.31299999356269836,-0.03610000014305115,0.10589999705553055,0.023000000021936765,-0.1189999980109653,-0.0269999995907449
-0.06431782990694046,0.13168108463287354,9.911142349243164,0.31209999322891235,-0.03610000014305115,0.09609999507665634,0.15200000362502902,0.09399999820462447,0.10499999785261017
-0.05080495774745941,0.12031342089176178,9.925000190734863,0.3215999901294708,-0.046299997717142105,0.11569999903440475,0.06500000216452881,-0.019000000453128628,-0.024000000747902123
-0.06352295726537704,0.12195105850696564,9.923630714416504,0.31119999289512634,-0.04639999940991402,0.11569999903440475,-0.14799999405106096,-0.17400000292100043,0.12400000330831876
-0.05237555876374245,0.124402716755867,9.915806770324707,0.31029999256134033,-0.045899998396635056,0.12539999186992645,-0.02800000031671026,0.06299999737754478,-0.01400000015835513
-0.03770388662815094,0.13525323569774628,9.91184139251709,0.33889999985694885,-0.027799999341368675,0.09600000083446503,-0.07199999890865307,-0.017999999727163266,0.05300000012305109
-0.047663770616054535,0.13443921506404877,9.908729553222656,0.32839998602867126,-0.02759999968111515,0.09600000083446503,0.17799999915475526,0.18400000017549412,-0.08100000043976135
-0.05726930499076843,0.13214077055454254,9.927557945251465,0.3188000023365021,-0.03779999911785126,0.11559999734163284,-0.26500000061525547,0.06299999737754478,0.007999999971379599
-0.06080314517021179,0.12158713489770889,9.928313255310059,0.30889999866485596,-0.046799998730421066,0.11559999734163284,0.14600000260429016,-0.05499999823992851,0.14699999832767557
-0.07265923172235489,0.11360965669155121,9.910988807678223,0.29829999804496765,-0.05689999833703041,0.09589999914169312,-0.28499999512424284,0.04200000047506539,-0.13100000005244303
-0.06146394833922386,0.12200852483510971,9.916975021362305,0.30789998173713684,-0.04619999974966049,0.10569999366998672,0.15800000464576788,0.13499999628619785,0.08700000146050021
-0.055200714617967606,0.1367184966802597,9.936569213867188,0.31759998202323914,-0.026999998837709427,0.12529999017715454,-0.0539999991814898,0.07799999992939192,-0.09300000248123906
-0.05243301764130592,0.11486422270536423,9.936779975891113,0.3172000050544739,-0.056199997663497925,0.12529999017715454,0.009999999755783667,-0.1390000058601659,0.007999999971379599
-0.05751830339431763,0.13320380449295044,9.923563003540039,0.30649998784065247,-0.0364999994635582,0.11549999564886093,0.04600000004387353,0,0.0969999987149939
-0.05104437842965126,0.12726618349552155,9.92597770690918,0.3156999945640564,-0.03659999743103981,0.11549999564886093,0.1620000008795227,-0.006000000186975531,0.04600000004387353
-0.06019023060798645,0.13351984322071075,9.91553783416748,0.3052999973297119,-0.03689999878406525,0.10559999942779541,-0.5059999971475555,-0.10199999734224074,0.15200000362502902
-0.05172433331608772,0.12439314275979996,9.910194396972656,0.31450000405311584,-0.045399997383356094,0.0957999974489212,0.1400000015835513,0.0269999995907449,0
-0.06715257465839386,0.11982500553131104,9.921427726745605,0.29429998993873596,-0.04559999704360962,0.10559999942779541,0.02899999937514897,0.05200000106461238,0.03400000133744912
-0.06715257465839386,0.11910673975944519,9.926772117614746,0.2939999997615814,-0.04569999873638153,0.11539999395608902,0.23300000406479038,-0.25299999857377775,0.1419999930303221
-0.048994943499565125,0.1302158385515213,9.92967414855957,0.3125999867916107,-0.036399997770786285,0.11539999395608902,0.06099999926066736,0.013000000266153095,0.02600000053230619
-0.06371449679136276,0.11549629271030426,9.921648025512695,0.30230000615119934,-0.046299997717142105,0.1152999997138977,-0.407999989368963,0.019999999511567335,0.2770000026567332
-0.054539911448955536,0.1265287697315216,9.93005657196045,0.3118000030517578,-0.03539999946951866,0.1152999997138977,0.6330000009662436,0.40299999741182274,0.1419999930303221
-0.05001965910196304,0.12612654268741608,9.910778045654297,0.3125999867916107,-0.03709999844431877,0.09569999575614929,0.14399999781730613,0.029999998433587676,-0.14699999832767557
-0.028586769476532936,0.13677595555782318,10.001978874206543,0.3416999876499176,-0.027699999511241913,0.19380000233650208,-0.05099999867112037,-0.007999999971379599,0.03999999902313467
-0.046888045966625214,0.12768757343292236,9.852810859680176,0.3206000030040741,-0.03720000013709068,0.03680000081658363,0.19799999366374263,0.10999999647985702,0.1610000051561373
-0.07366479188203812,0.11018116027116776,9.947198867797852,0.2911999821662903,-0.05729999765753746,0.13490000367164612,-0.048000001495804245,-0.09000000197086964,0.22800001210765014
-0.03893929719924927,0.1248815581202507,9.920269966125488,0.3003999888896942,-0.04739999771118164,0.13490000367164612,0.1529999993484144,-0.23699998695833197,-0.11099999887334903
-0.05371630936861038,0.12149137258529663,9.915223121643066,0.3190999925136566,-0.03790000081062317,0.10539999604225159,-0.48299997544777223,-0.019000000453128628,0.004999999877891834
-0.07971733808517456,0.1285494863986969,9.91336441040039,0.3084999918937683,-0.04739999771118164,0.10539999604225159,0.2639999915516568,-0.11099999887334903,0.041000001416626686
-0.02886449545621872,0.12706507742404938,9.911171913146973,0.3270999789237976,-0.03720000013709068,0.09559999406337738,-0.021999999295971403,-0.15699999558216926,0.029999998433587676
-0.0953754186630249,0.11611878126859665,9.945226669311523,0.26739999651908875,-0.046799998730421066,0.1348000019788742,-0.08700000146050021,-0.04500000098543482,0.007999999971379599
-0.03666001558303833,0.1312597244977951,9.947965621948242,0.3255999982357025,-0.03669999912381172,0.1347000002861023,-0.07600000181251451,-0.07600000181251451,0.12700000381868817
-0.05233725160360336,0.12154883146286011,9.915298461914062,0.3051999807357788,-0.04619999974966049,0.10529999434947968,0.11500000177721047,0.05300000012305109,0.009999999755783667
-0.06439444422721863,0.12722787261009216,9.908365249633789,0.29490000009536743,-0.03659999743103981,0.09549999982118607,0.03899999996469596,-0.1509999945614304,0.1749999986443858
-0.0427795946598053,0.1289038211107254,9.936942100524902,0.31369999051094055,-0.03669999912381172,0.12489999830722809,0.03899999996469596,-0.07799999992939192,0.046999999102312236
-0.051456183195114136,0.1381358653306961,9.925843238830566,0.30320000648498535,-0.026999998837709427,0.11499999463558197,0.3339999856733259,-0.043999998591942806,0.10400000212922476
-0.05168602615594864,0.13024456799030304,9.927404403686523,0.3026999831199646,-0.037699997425079346,0.11499999463558197,0.0269999995907449,0.07000000079177565,0.09399999820462447
-0.04390966147184372,0.13006260991096497,9.921208381652832,0.31209999322891235,-0.037699997425079346,0.10520000010728836,-0.11400000605382507,-0.3029999981864594,0.06800000267489824
-0.06036261469125748,0.12526462972164154,9.925986289978027,0.2913999855518341,-0.03739999979734421,0.11499999463558197,-0.19099999691961836,-0.09600000299160849,0.1189999980109653
-0.042023029178380966,0.1257338970899582,9.922280311584473,0.31039997935295105,-0.03680000081658363,0.11490000039339066,-0.04900000055424296,-0.049999999612681666,0.10100000161885533
-0.06451894342899323,0.11424172669649124,9.9324312210083,0.29009997844696045,-0.056199997663497925,0.12469999492168427,0.2810000122307012,0.2920000052085803,0.013000000266153095
-0.055957283824682236,0.1336347609758377,9.92318058013916,0.3003999888896942,-0.03739999979734421,0.11490000039339066,0.0039999999856897995,0.14099999730693671,-0.017999999727163266
-0.05227021127939224,0.12216175347566605,9.943445205688477,0.3003000020980835,-0.0471000000834465,0.13449999690055847,-0.17400000292100043,-0.007000000079177565,0.09500000059811649
-0.05064215511083603,0.11322658509016037,9.925077438354492,0.29979997873306274,-0.05639999732375145,0.11490000039339066,-0.09600000299160849,-0.021999999295971403,0.2159999967259592
-0.06049668788909912,0.12079226970672607,9.929147720336914,0.28949999809265137,-0.046299997717142105,0.11490000039339066,-0.023000000021936765,0.021999999295971403,0.043999998591942806
-0.04820007085800171,0.11293928325176239,9.922663688659668,0.298799991607666,-0.05590000003576279,0.11490000039339066,0.27500001120996237,0.15999999609253868,0.024999999806340833
-0.045652639120817184,0.12668199837207794,9.92819881439209,0.30869999527931213,-0.03709999844431877,0.11490000039339066,-0.14300000209392072,0.33600000380052314,-0.017999999727163266
-0.0401747040450573,0.11110053211450577,9.920863151550293,0.3093999922275543,-0.056199997663497925,0.10509999841451645,0.019000000453128628,0.017999999727163266,0.1079999983629796
-0.050010085105895996,0.11152191460132599,9.900847434997559,0.29889997839927673,-0.05609999969601631,0.08540000021457672,-0.06500000216452881,-0.009999999755783667,0.08899999957737763
-0.054750602692365646,0.13783897459506989,9.91745376586914,0.29829999804496765,-0.026399999856948853,0.10499999672174454,-0.3600000078834786,0.04500000098543482,-0.046999999102312236
-0.05988377332687378,0.1233588457107544,9.905577659606934,0.3077999949455261,-0.03519999980926514,0.11479999870061874,0.19099999691961836,0.10900000075647161,0.012000000373951061
-0.05702031031250954,0.1168178841471672,9.92269229888916,0.28779998421669006,-0.044999998062849045,0.09519999474287033,-0.09500000059811649,0.16500000138989213,0.06299999737754478
-0.05384080857038498,0.1414685994386673,9.933446884155273,0.2971999943256378,-0.025599999353289604,0.12459999322891235,0.19000000119623298,-0.20299999896109608,0.12299999424472013
-0.06276638805866241,0.11544840037822723,9.922931671142578,0.2865000069141388,-0.04580000042915344,0.11479999870061874,-0.05900000114378995,-0.07000000079177565,0.02600000053230619
-0.05680961534380913,0.13093410432338715,9.932326316833496,0.2955999970436096,-0.0357000008225441,0.12459999322891235,0.08299999855663877,0.07699999753589991,0.17400000292100043
-0.05751830339431763,0.12161586433649063,9.914935111999512,0.28540000319480896,-0.04569999873638153,0.10489999502897263,-0.041000001416626686,-0.03400000133744912,-0.017999999727163266
-0.06111918389797211,0.10445423424243927,9.915874481201172,0.2847000062465668,-0.06499999761581421,0.10489999502897263,0.10100000161885533,0.007000000079177565,0.33000000277978425
-0.05630204826593399,0.1187140941619873,9.918153762817383,0.29409998655319214,-0.04559999704360962,0.10489999502897263,0.009999999755783667,-0.021999999295971403,-0.0009999999964224499
-0.05091987922787666,0.1226310133934021,9.921034812927246,0.29339998960494995,-0.04559999704360962,0.10489999502897263,-0.1070000026395942,-0.1620000008795227,0.19900000272734125
-0.04860229417681694,0.13041695952415466,9.942353248596191,0.29249998927116394,-0.03539999946951866,0.13419999182224274,0.0009999999964224499,-0.0019999999928448997,0.07600000181251451
-0.059471968561410904,0.11580274999141693,9.918420791625977,0.28209999203681946,-0.04519999772310257,0.10480000078678131,-0.49900001374364444,0.03100000082707969,0.0749999994190225
-0.027236439287662506,0.11360008269548416,9.911075592041016,0.32099997997283936,-0.05339999869465828,0.0949999988079071,-0.06200000165415938,-0.25400000763737635,0.03999999902313467
-0.07627926766872406,0.1086488738656044,9.909534454345703,0.2708999812602997,-0.053199999034404755,0.09489999711513519,-0.019000000453128628,-0.11400000605382507,-0.09600000299160849
-0.02767697162926197,0.13503298163414001,9.943991661071777,0.3190999925136566,-0.02369999885559082,0.13409999012947083,-0.09600000299160849,0.019000000453128628,0.05200000106461238
-0.08290641754865646,0.13178643584251404,9.916362762451172,0.259799987077713,-0.03319999948143959,0.1046999990940094,0.06099999926066736,-0.012000000373951061,-0.009999999755783667
-0.03575979545712471,0.13391248881816864,9.917366981506348,0.30809998512268066,-0.033299997448921204,0.1046999990940094,0.14300000209392072,-0.08499999667351618,0.0429999995335041
-0.054329223930835724,0.12065818905830383,9.904898643493652,0.28759998083114624,-0.04339999705553055,0.09479999542236328,0.013000000266153095,-0.021999999295971403,-0.0019999999928448997
-0.056646812707185745,0.129488006234169,9.949000358581543,0.28700000047683716,-0.03359999880194664,0.1340000033378601,-0.14900000311465958,-0.08499999667351618,0.05200000106461238
-0.057575762271881104,0.1327345371246338,9.907551765441895,0.27629998326301575,-0.03309999778866768,0.09479999542236328,0.019999999511567335,-0.28699998657101367,0.1079999983629796
-0.05456864461302757,0.12058157473802567,9.925240516662598,0.2848999798297882,-0.042899999767541885,0.11429999768733978,-0.11599999750059588,-0.536999984634422,-0.08499999667351618
-0.04548025503754616,0.1242973804473877,9.91059684753418,0.2927999794483185,-0.042500000447034836,0.09470000118017197,0.07300000130214508,-0.26500000061525547,0.008999999863581633
-0.03844130411744118,0.11688492447137833,9.90922737121582,0.2915000021457672,-0.023099999874830246,0.10439999401569366,-0.021000000237532696,-0.149999998838045,0.07399999702553048
-0.058715399354696274,0.13464990258216858,9.911286354064941,0.2700999975204468,-0.02290000021457672,0.09459999948740005,-0.1610000051561373,-0.10900000075647161,-0.09600000299160849
-0.04447469115257263,0.1298423409461975,9.922414779663086,0.2888000011444092,-0.03219999745488167,0.11409999430179596,-0.38000000239246595,-0.06700000028140622,0.05200000106461238
-0.06408798694610596,0.11144530028104782,9.913642883300781,0.2685000002384186,-0.05069999769330025,0.10429999977350235,0.3819999938392367,-0.0429999995335041,-0.046999999102312236
-0.030253130942583084,0.12312900274991989,9.927940368652344,0.2685000002384186,-0.05069999769330025,0.10429999977350235,0.08899999957737763,0.0969999987149939,0.06800000267489824
-0.04767334461212158,0.12962208688259125,9.923965454101562,0.2870999872684479,-0.03229999914765358,0.11409999430179596,0.07000000079177565,-0.04600000004387353,-0.0039999999856897995
-0.0477403849363327,0.1394478976726532,9.912895202636719,0.28630000352859497,-0.022699998691678047,0.10429999977350235,0.6450000030077214,0.2050000037480801,0.15800000464576788
-0.05431964993476868,0.12699803709983826,9.91953182220459,0.27649998664855957,-0.034199997782707214,0.10429999977350235,-0.11599999750059588,0.07099999651516105,0.0539999991814898
-0.06879020482301712,0.12482409924268723,9.926331520080566,0.2565000057220459,-0.033799998462200165,0.11409999430179596,0.1610000051561373,0.07699999753589991,0.16800000190026157
-0.058782439678907394,0.12189359962940216,9.92629337310791,0.2660999894142151,-0.044099997729063034,0.11409999430179596,0.20800000425844953,-0.07300000130214508,-0.05200000106461238
-0.05035484954714775,0.13358688354492188,9.929701805114746,0.2750999927520752,-0.034699998795986176,0.11400000005960464,-0.0269999995907449,0.13300000483942703,0.1419999930303221
-0.0627855435013771,0.12634681165218353,9.918746948242188,0.26499998569488525,-0.03449999913573265,0.10419999808073044,-0.03999999902313467,0.09200000008774706,0.1199999937343507
-0.057451263070106506,0.12104126065969467,9.928534507751465,0.274399995803833,-0.044099997729063034,0.11400000005960464,-0.3089999992071983,-0.31099999065396905,0.06500000216452881
-0.06341761350631714,0.12763968110084534,9.922558784484863,0.26330000162124634,-0.033399999141693115,0.11400000005960464,0.14900000311465958,0.07399999702553048,0.11299999699022645
-0.044369347393512726,0.1465538740158081,9.912272453308105,0.282399982213974,-0.0142000000923872,0.10409999638795853,0.21999999295971404,0.13100000005244303,-0.03599999945432653
-0.05232767015695572,0.11999738961458206,9.91707992553711,0.27239999175071716,-0.044099997729063034,0.10409999638795853,0.007000000079177565,0.041000001416626686,-0.03400000133744912
-0.047644615173339844,0.12193191051483154,9.927318572998047,0.2816999852657318,-0.04399999976158142,0.11389999836683273,-0.2800000031671026,-0.1529999993484144,0.038000000906257256
-0.05507621914148331,0.12599247694015503,9.91948413848877,0.2708999812602997,-0.033399999141693115,0.10409999638795853,-0.18600000496247812,-0.3049999896332302,0.20099999417411205
-0.045604754239320755,0.12837709486484528,9.917577743530273,0.2793000042438507,-0.03280000016093254,0.10399999469518661,-0.2959999881021219,0.17400000292100043,0.13799999679656727
-0.03715800866484642,0.11858002841472626,9.933197975158691,0.2890999913215637,-0.04169999808073044,0.12359999865293503,-0.15900000036915327,-0.04600000004387353,0.17899999487814064
-0.04427357763051987,0.11722969263792038,9.937832832336426,0.27869999408721924,-0.041200000792741776,0.12359999865293503,0.22299999347008345,-0.06500000216452881,-0.13000000432905762
-0.05210740491747856,0.13105858862400055,9.928783416748047,0.26809999346733093,-0.03199999779462814,0.11379999667406082,-0.12499999903170415,0.006000000186975531,-0.014999999216793838
-0.04668693244457245,0.10513418912887573,9.918143272399902,0.27730000019073486,-0.0608999989926815,0.10399999469518661,0.16999999334703236,0.2680000011256249,0.13499999628619785
-0.04111323133111,0.12602120637893677,9.928476333618164,0.2775000035762787,-0.03189999982714653,0.11379999667406082,-0.10100000161885533,0.19000000119623298,0.02899999937514897
-0.050747498869895935,0.12278424203395844,9.935334205627441,0.2676999866962433,-0.04129999876022339,0.12359999865293503,-0.0269999995907449,0.004999999877891834,0.06299999737754478
-0.06313031166791916,0.12170206755399704,9.930832862854004,0.2572999894618988,-0.041099999099969864,0.11369999498128891,-0.1419999930303221,0.2729999930827651,0.041000001416626686
-0.04992389306426048,0.1239238828420639,9.91691780090332,0.26729997992515564,-0.040699999779462814,0.1039000004529953,0.128999995265459,-0.010999999647985701,-0.08100000043976135
-0.045087605714797974,0.1321982443332672,9.918593406677246,0.27639999985694885,-0.031099999323487282,0.1039000004529953,-0.031999999885518396,-0.0019999999928448997,0.049999999612681666
-0.06210559234023094,0.13418063521385193,9.920231819152832,0.25609999895095825,-0.04079999774694443,0.11369999498128891,0.031999999885518396,-0.0859999990670082,-0.03599999945432653
-0.06210559234023094,0.13418063521385193,9.920231819152832,0.25519999861717224,-0.02029999904334545,0.1039000004529953,0.031999999885518396,-0.0859999990670082,-0.03599999945432653
-0.0347159244120121,0.11892478913068771,9.923334121704102,0.26420000195503235,-0.03019999898970127,0.1233999952673912,-0.20999999570522035,0.06299999737754478,0.18900000547284757
-0.061435215175151825,0.1318822056055069,9.933753967285156,0.2821999788284302,-0.03969999775290489,0.1136000007390976,0.008999999863581633,-0.07300000130214508,-0.03899999996469596
-0.06097552925348282,0.12067734450101852,9.921016693115234,0.2515999972820282,-0.039000000804662704,0.10369999706745148,-0.11500000177721047,-0.21800000151294321,0.05200000106461238
-0.05687665566802025,0.11867579072713852,9.90415096282959,0.26010000705718994,-0.038599997758865356,0.09389999508857727,-0.1830000044521087,-0.3220000103122746,-0.01700000066872456
-0.03796246275305748,0.12117534130811691,9.920173645019531,0.2784000039100647,-0.038100000470876694,0.10359999537467957,0.1620000008795227,-0.06500000216452881,0.024999999806340833
-0.0561583936214447,0.1301966905593872,9.928265571594238,0.257999986410141,-0.028599999845027924,0.11339999735355377,-0.10100000161885533,-0.06299999737754478,-0.08499999667351618
-0.061310719698667526,0.12777376174926758,9.915960311889648,0.24740000069141388,-0.028299998492002487,0.10359999537467957,-0.06200000165415938,-0.15500000413539844,0.16800000190026157
-0.05485595017671585,0.12499648332595825,9.924003601074219,0.25609999895095825,-0.0279999990016222,0.11339999735355377,-0.019000000453128628,0.07399999702553048,0.11699999322398127
-0.04927267134189606,0.12164460122585297,9.931790351867676,0.2557999789714813,-0.037699997425079346,0.12319999933242798,-0.0429999995335041,-0.2469999975530389,0.038000000906257256
-0.05991250276565552,0.1263180822134018,9.927078247070312,0.24479998648166656,-0.027699999511241913,0.11329999566078186,-0.09300000248123906,0.11099999887334903,0.021000000237532696
-0.05476018041372299,0.1234641969203949,9.911650657653809,0.2541999816894531,-0.03720000013709068,0.09369999915361404,0.35899999881987993,0.07099999651516105,0.10199999734224074
-0.053429003804922104,0.13440090417861938,9.924674987792969,0.25369998812675476,-0.018400000408291817,0.11329999566078186,0.009999999755783667,-0.10999999647985702,-0.09000000197086964
