Accelerometer_Gx,Accelerometer_Gy,Accelerometer_Gz,Accelerometer_X,Accelerometer_Y,Accelerometer_Z,Gyroscope_Z,Gyroscope_X,Gyroscope_Y
-0.05019204318523407,0.12446018308401108,9.908661842346191,-0.0058999997563660145,-0.0016999999061226845,0.08889999985694885,0.09800000110848592,0.10299999973573276,-0.14699999832767557
-0.059539008885622025,0.11005666106939316,9.922863960266113,-0.012799999676644802,-0.009399999864399433,0.10849999636411667,1.9039999681754447,1.443999961066603,0.8099999777171871
-0.04843948781490326,0.11949940025806427,9.927816390991211,0.0005999999702908099,-0.003700000001117587,0.10849999636411667,0.08400000095013078,-1.0749999516520161,0.03999999902313467
-0.05784391239285469,0.11519940942525864,9.910481452941895,-0.010999999940395355,-0.003000000026077032,0.08889999985694885,-1.3149999924815703,-0.8650000226478619,-1.0789999879064105
-0.0561583936214447,0.1177564188838005,9.935161590576172,0.006000000052154064,0.001500000013038516,0.11829999834299088,0.02899999937514897,0.1400000015835513,0.007000000079177565
-0.054702721536159515,0.12220005691051483,9.926436424255371,-0.002300000051036477,0.002099999925121665,0.10849999636411667,0.41499999945330046,0.1830000044521087,0.28799999563461226
-0.04530787095427513,0.10540233552455902,9.916851043701172,0.007799999788403511,-0.008299999870359898,0.09869999438524246,-0.5200000173162305,-0.07999999804626934,-0.06399999977103679
-0.05353435128927231,0.12453679740428925,9.927902221679688,-0.002199999988079071,0.012600000016391277,0.10849999636411667,0.6369999838597853,-0.02899999937514897,0.07399999702553048
-0.04589205980300903,0.13291651010513306,9.927221298217773,0.007199999876320362,0.010499999858438969,0.10849999636411667,-0.2890000046982109,0.36800000035098823,0.07999999804626934
-0.06298665702342987,0.12396218627691269,9.912511825561523,-0.011399999260902405,0.0011999999405816197,0.09869999438524246,0.26500000061525547,-0.2360000045751598,-0.14799999405106096
-0.054750602692365646,0.12228624522686005,9.914169311523438,-0.002099999925121665,0.00029999998514540493,0.09869999438524246,0.2800000031671026,-0.11500000177721047,0.15599999985878385
-0.05453033745288849,0.12714168429374695,9.91615104675293,-0.002300000051036477,0.009099999442696571,0.09869999438524246,-0.3049999896332302,0.24500000610626807,0.05600000063342052
-0.052308518439531326,0.12283211946487427,9.92459774017334,-0.0015999999595806003,0,0.10849999636411667,0.0030000000934877653,-0.05999999686717535,-0.26300000916848465
-0.05234682559967041,0.11879070848226547,9.924903869628906,-0.0015999999595806003,0,0.10849999636411667,-0.15599999985878385,-0.2250000115972807,0.05600000063342052
-0.04031835496425629,0.1193174347281456,9.917856216430664,0.007499999832361937,0.00019999999494757503,0.09869999438524246,-0.08200000283325337,0.2710000016359943,-0.02600000053230619
-0.04943547770380974,0.11884817481040955,9.926436424255371,-0.001500000013038516,0.00039999998989515007,0.10849999636411667,0.29899998861249133,-0.023000000021936765,0.12700000381868817
-0.049330130219459534,0.1099608987569809,9.91456127166748,-0.0015999999595806003,-0.009999999776482582,0.09869999438524246,0.35499998924591186,0.6819999915153268,0.14600000260429016
-0.05967308580875397,0.1196717768907547,9.920480728149414,-0.009399999864399433,-0.0010999999940395355,0.09869999438524246,-0.0749999994190225,0.9190000318345116,0.2740000021463637
-0.044321462512016296,0.1195472776889801,9.925125122070312,0.012899999506771564,-0.000699999975040555,0.10849999636411667,0.40599999792219216,0.9930000088497223,0.17400000292100043
-0.06010403856635094,0.14047259092330933,9.923879623413086,-0.004299999680370092,0.01769999973475933,0.10849999636411667,0.05600000063342052,1.0650000210985886,0.2710000016359943
-0.0377996563911438,0.11060254275798798,9.914264678955078,0.027699999511241913,-0.011699999682605267,0.09869999438524246,-0.057000003026912535,0.3750000104353257,0.11200000126684104
-0.05453033745288849,0.12134771794080734,9.91561508178711,0.008799999952316284,-0.0016999999061226845,0.09869999438524246,0.22400000253368207,-0.39699999639108385,0.13100000005244303
-0.04985685646533966,0.12212344259023666,9.92003059387207,0.007400000002235174,-0.002199999988079071,0.09869999438524246,-0.45400000608810304,-0.59999999535218,-0.25299999857377775
-0.05077622830867767,0.12174037098884583,9.918794631958008,0.005200000014156103,-0.000699999975040555,0.09869999438524246,0.1719999981340164,0.1189999980109653,0.06899999839828364
-0.04990473762154579,0.1203804612159729,9.92264461517334,0.004399999976158142,-0.000699999975040555,0.10849999636411667,0.6159999802871993,0.43699998540905866,0.27599999359313454
-0.04686889424920082,0.1257338970899582,9.91300106048584,0.015199999324977398,0.0072999997064471245,0.09869999438524246,-0.3190000098019052,-0.35499998924591186,0.2069999951948509
-0.050469771027565,0.11360965669155121,9.925968170166016,0.00419999985024333,-0.011299999430775642,0.10849999636411667,-0.6849999920256962,-0.2920000052085803,-0.21800000151294321
-0.05400361120700836,0.1237131878733635,9.931761741638184,0.0032999999821186066,0.00029999998514540493,0.11829999834299088,0.46099998949201404,0.7799999726134927,0.19099999691961836
-0.048286259174346924,0.12086888402700424,9.918440818786621,0.003599999938160181,-0.00009999999747378752,0.09869999438524246,0.38999998630674637,1.57900003739408,0.3349999947369245
-0.06004657596349716,0.1272566020488739,9.912291526794434,-0.001999999862164259,0.008499999530613422,0.09869999438524246,-0.9070000297930338,-0.5620000244614024,-0.3089999992071983
-0.06413587182760239,0.12408668547868729,9.924186706542969,-0.003599999938160181,0.0010999999940395355,0.10849999636411667,0.8849999904764227,0.88700000860362,0.4169999909000712
-0.04784572497010231,0.1329069286584854,9.925000190734863,0.01809999905526638,0.00839999970048666,0.10849999636411667,-0.19600000221697184,-0.5819999922899634,-0.22700000304405152
-0.043564897030591965,0.12284170091152191,9.924607276916504,0.016099998727440834,-0.000699999975040555,0.10849999636411667,-0.09300000248123906,-0.4709999734062945,-0.09500000059811649
-0.036554671823978424,0.12256397306919098,9.930622100830078,0.024399999529123306,-0.0004999999655410647,0.10849999636411667,0.8879999909867923,0.9250000328552505,0.2920000052085803
-0.044656649231910706,0.11081323027610779,9.930832862854004,0.01679999940097332,-0.01269999984651804,0.10859999805688858,0.21100000476881897,0.31800000073830653,-0.23399998644796255
-0.04341166839003563,0.11532390862703323,9.931349754333496,0.01730000041425228,-0.003399999812245369,0.11840000003576279,-0.6780000086217851,-0.9920000264665501,-0.2810000122307012
-0.04707958176732063,0.1266724169254303,9.919225692749023,0.0142000000923872,0.008200000040233135,0.09869999438524246,-0.2159999967259592,-0.5110000157851222,-0.10499999785261017
-0.06170336529612541,0.12117534130811691,9.914321899414062,0.0142000000923872,0.008200000040233135,0.09869999438524246,0.08400000095013078,0.27899999410350396,0.6919999754296072
-0.056838348507881165,0.131489560008049,9.926092147827148,0.002199999988079071,0.008999999612569809,0.10849999636411667,0.5230000178265999,0.9389999996630725,0.41199999894293104
-0.04324885830283165,0.11035354435443878,9.93021011352539,0.014299999922513962,-0.011899999342858791,0.10849999636411667,0.5729999907588551,1.1269999960723214,0.6780000086217851
-0.056598927825689316,0.10663773864507675,9.909141540527344,0.0072999997064471245,-0.013399999588727951,0.08899999409914017,0.5309999836136831,1.4330000481300031,0.5009999785099888
-0.06109045073390007,0.12343546003103256,9.924023628234863,0.0011999999405816197,-0.004999999888241291,0.10859999805688858,1.0369999807612387,1.2199999585329209,0.6159999802871993
-0.04389050602912903,0.11299674212932587,9.931368827819824,0.024299999698996544,-0.017799999564886093,0.1184999942779541,1.0059999932743722,0.9339999810255059,0.6429999848805241
-0.046409204602241516,0.12004527449607849,9.923266410827637,0.026200000196695328,-0.010199999436736107,0.10869999974966049,-0.5679999721212884,-0.5729999907588551,0.19499999315337319
-0.057403381913900375,0.1354256272315979,9.914551734924316,0.014499999582767487,0.010999999940395355,0.09889999777078629,-1.5099999722947304,-1.2299999958080543,-0.1529999993484144
-0.05158068239688873,0.12770672142505646,9.91304874420166,0.010799999348819256,0.005399999674409628,0.09879999607801437,-0.5739999731420273,-0.726000016787696,-0.6679999713466518
-0.05211698263883591,0.11522813886404037,9.91281795501709,0.008599999360740185,-0.002699999837204814,0.09879999607801437,0.9180000494513394,1.3229999582686536,0.36399999077702017
-0.04272213205695152,0.1187140941619873,9.914274215698242,0.022199999541044235,-0.005399999674409628,0.09879999607801437,0.7690000063160402,1.1550000364096713,0.7620000229121291
-0.04877467826008797,0.12760137021541595,9.91136360168457,0.014800000004470348,0.0024999999441206455,0.08899999409914017,-1.6629999449627184,-1.6629999449627184,-0.6969999940671738
-0.05611051246523857,0.11834059655666351,9.896327018737793,0.009999999776482582,-0.0026000000070780516,0.07909999787807465,0.6579999874323713,1.0619999672273661,-0.1070000026395942
-0.06596504151821136,0.12086888402700424,9.920221328735352,0.00279999990016222,-0.004299999680370092,0.09879999607801437,-0.5050000147643833,-0.4390000035362559,0.36499999984061876
-0.05607220530509949,0.12896127998828888,9.910452842712402,0.01119999960064888,0.006799999624490738,0.08899999409914017,-0.26500000061525547,-0.3089999992071983,-0.6590000231763964
-0.04463749751448631,0.12006442993879318,9.91943645477295,0.01979999989271164,0.007599999662488699,0.10859999805688858,0,0.2710000016359943,-0.4010000059650519
-0.04463749751448631,0.12006442993879318,9.91943645477295,0.019999999552965164,-0.0017999999690800905,0.09879999607801437,0,0.2710000016359943,-0.4010000059650519
-0.04672523960471153,0.11761276423931122,9.913747787475586,0.017500000074505806,0.001999999862164259,0.09869999438524246,1.9850000353162722,2.2010000720628713,0.8519999848623591
-0.051312532275915146,0.12090718746185303,9.915308952331543,0.013499999418854713,-0.003399999812245369,0.09879999607801437,-1.2119999927458376,-1.4270000471092643,-0.8480000019688174
-0.06016149744391441,0.1271704137325287,9.92788314819336,-0.0007999999797903001,0.009999999776482582,0.10849999636411667,-1.1750000042382323,-1.0379999631444108,-0.017999999727163266
-0.04758715257048607,0.12752476334571838,9.919379234313965,0.01599999889731407,0.012799999676644802,0.09869999438524246,1.983000070549928,1.980999892340172,0.9970000451041168
-0.054300494492053986,0.10838072001934052,9.92041301727295,0.011399999260902405,-0.012199999764561653,0.09879999607801437,2.313000019968859,2.067000084840272,0.12599999475508955
-0.036123715341091156,0.1283387839794159,9.921609878540039,0.036399997770786285,0.0009999999310821295,0.10869999974966049,-0.33000000277978425,-0.5829999746731356,-0.7909999922717983
-0.0392170213162899,0.11141657084226608,9.926445960998535,0.024699999019503593,-0.017500000074505806,0.10869999974966049,-1.1570000011760158,-2.063999924247344,-1.118000047902066
-0.0468018539249897,0.12325350195169449,9.914407730102539,0.01809999905526638,-0.004100000020116568,0.09879999607801437,-2.4529999014904917,-2.4190000735758144,-0.7729999892095818
-0.05295974388718605,0.11293928325176239,9.929444313049316,0.002300000051036477,-0.007899999618530273,0.10849999636411667,-2.9640000773581723,-2.303999965076898,-0.8140000139715816
-0.05996038764715195,0.12106999009847641,9.920231819152832,-0.013899999670684338,0.00989999994635582,0.09860000014305115,-2.3559999027754976,-2.4230000031085033,-0.7739999715927539
-0.05139872431755066,0.12197978794574738,9.926896095275879,-0.010699999518692493,0.01640000008046627,0.10830000042915344,-2.590000049306019,-2.346000078943776,-0.8889999733699644
-0.03540545701980591,0.13162362575531006,9.920106887817383,0.002300000051036477,0.03319999948143959,0.09839999675750732,-1.7889999663982343,-2.085999963563955,-1.1120000468813271
-0.058236561715602875,0.11912590265274048,9.914398193359375,-0.033399999141693115,0.028699999675154686,0.09829999506473541,0.4639999900023835,-0.26000000865811523,-0.5949999767146132
-0.05530606210231781,0.11930786073207855,9.919034004211426,-0.02410000003874302,0.027400000020861626,0.09839999675750732,2.1200000049220438,2.5359999333976635,0.6159999802871993
-0.05431006848812103,0.11711476743221283,9.919148445129395,-0.016999999061226845,0.021399999037384987,0.09839999675750732,0.9250000328552505,1.9140000054505781,1.1240000489228048
-0.04521210491657257,0.12912409007549286,9.925278663635254,-0.0018999999156221747,0.0284000001847744,0.10830000042915344,-2.297000088394693,-1.75899996129454,-0.4100000074961602
-0.054798487573862076,0.1199207752943039,9.90869140625,-0.01640000008046627,0.02459999918937683,0.08859999477863312,-0.30100000673968863,-0.9539999488540668,-0.7219999805333015
-0.03798161819577217,0.1225065141916275,9.91234016418457,0.00029999998514540493,0.025200000032782555,0.09839999675750732,1.8959998956666557,2.082000034031266,0.8080000129508427
-0.05104437842965126,0.12193191051483154,9.926321983337402,-0.014099999330937862,0.020399998873472214,0.10819999873638153,-2.82000005286044,-1.732000010062068,-0.48599997595814165
-0.04842991381883621,0.10946290194988251,9.900674819946289,-0.018699999898672104,0.01809999905526638,0.07880000025033951,1.8770000169429728,1.6179999906680298,0.01400000015835513
-0.0466773584485054,0.11549629271030426,9.912118911743164,-0.004399999976158142,0.022499999031424522,0.09839999675750732,-1.5190000271866915,-1.1039999743725382,0.08299999855663877
-0.05641696974635124,0.11601343750953674,9.921112060546875,-0.017099998891353607,0.026399999856948853,0.09839999675750732,2.2559999569109874,0.8789999894556839,-0.0269999995907449
-0.06866570562124252,0.11472056806087494,9.918027877807617,-0.004399999976158142,0.02889999933540821,0.09839999675750732,2.2069999663619044,1.8789999817093173,0.726000016787696
-0.05186798423528671,0.12211386114358902,9.931349754333496,-0.012199999764561653,0.01719999872148037,0.11809999495744705,-1.131000032326716,-1.359999946776259,-0.7200000157669572
-0.05266286060214043,0.12674903869628906,9.916534423828125,-0.015799999237060547,0.029899999499320984,0.09839999675750732,-1.6669999812171128,-1.0760000407568941,-0.0859999990670082
-0.05189671739935875,0.12982319295406342,9.918956756591797,-0.01850000023841858,0.034199997782707214,0.09839999675750732,2.2299999880616874,1.7539999426569735,0.8720000060517729
-0.03954263776540756,0.12992854416370392,9.913297653198242,-0.01850000023841858,0.034199997782707214,0.09839999675750732,1.9639999783828335,0.46199997187518627,-0.2039999946844815
-0.04711788892745972,0.14466723799705505,9.909073829650879,-0.0018999999156221747,0.041600000113248825,0.08869999647140503,-1.2299999958080543,-1.032999944506844,-0.8949999743907032
-0.04659116268157959,0.10766246169805527,9.930440902709961,-0.004600000102072954,0.005399999674409628,0.10830000042915344,-1.97100006850845,-1.7689999985696734,-0.6540000045388297
-0.05133168399333954,0.1148163378238678,9.921341896057129,-0.019099999219179153,0.010599999688565731,0.09839999675750732,-1.4160000274509588,-1.5070000251452138,-0.29800000622931916
-0.055392250418663025,0.12303323298692703,9.922452926635742,-0.023099999874830246,0.02410000003874302,0.10819999873638153,-1.5529999618230745,-0.8810000075828812,0.2589999995945166
-0.05208825320005417,0.12743857502937317,9.924492835998535,-0.025599999353289604,0.03839999809861183,0.10819999873638153,-1.6290000103263353,-1.255999964657354,-0.1390000058601659
-0.05661807954311371,0.12817597389221191,9.920853614807129,-0.0284000001847744,0.041999999433755875,0.09829999506473541,-1.3990000067719144,-0.6879999925360656,-0.0019999999928448997
-0.041649531573057175,0.11714350432157516,9.937326431274414,-0.02029999904334545,0.0357000008225441,0.11789999902248383,-1.4009999715382588,-1.3339999779269591,-0.4420000040466253
-0.05549759790301323,0.11892478913068771,9.912464141845703,-0.03350000083446503,0.03920000046491623,0.09829999506473541,-1.5750000011396856,-1.6369999761134186,-0.6780000086217851
-0.04153461009263992,0.1260882467031479,9.932537078857422,-0.027899999171495438,0.05289999768137932,0.11779999732971191,-0.283000003677472,-0.8759999889453145,-0.551000004803097
-0.05501875653862953,0.13038823008537292,9.90841293334961,-0.04010000079870224,0.05339999869465828,0.08839999884366989,1.5380000126320803,1.1419999452633156,0.16400000566650674
-0.04996220022439957,0.12574347853660583,9.907350540161133,-0.03709999844431877,0.04919999837875366,0.08839999884366989,1.4280000294924364,1.1269999960723214,0.6789999910049573
-0.05707776919007301,0.1255902498960495,9.925968170166016,-0.03370000049471855,0.04490000009536743,0.10809999704360962,-1.7080000059791127,-1.0689999506312773,-0.2699999925723957
-0.06229712814092636,0.12599247694015503,9.920921325683594,-0.04609999805688858,0.04910000041127205,0.09829999506473541,-0.024000000747902123,0.08299999855663877,-0.3849999943496062
-0.04507802799344063,0.11130165308713913,9.913968086242676,-0.02589999884366989,0.029199998825788498,0.09829999506473541,0.830999981289773,0.5029999966371861,0.44800000506736415
-0.05242343991994858,0.1215679869055748,9.91659164428711,-0.02410000003874302,0.026200000196695328,0.0885000005364418,1.2340000320624487,1.3430000328189202,0.4139999903897018
-0.054300494492053986,0.13963942229747772,9.931771278381348,-0.03659999743103981,0.03849999979138374,0.09829999506473541,-1.640000029984641,-1.2669999843156596,-0.37800001094569513
-0.05902186036109924,0.11332235485315323,9.913661003112793,-0.032600000500679016,0.05429999902844429,0.11789999902248383,1.55099999705673,0.9939999912328944,0.46199997187518627
-0.07611646503210068,0.12129025906324387,9.9230375289917,-0.045499999076128006,0.028999999165534973,0.09829999506473541,-1.0729999868856717,-0.6720000076010463,-0.6930000111736323
-0.04532702639698982,0.12832920253276825,9.92530632019043,-0.02449999935925007,0.04690000042319298,0.10809999704360962,-0.11200000126684104,0.3119999997175677,0.28199999461387343
-0.043497856706380844,0.13573208451271057,9.915328025817871,-0.023499999195337296,0.056599996984004974,0.09829999506473541,0.985000043062639,0.6440000206245492,0.47399997391666393
-0.04732858017086983,0.125944584608078,9.911477088928223,-0.021399999037384987,0.043699998408555984,0.0885000005364418,-1.1469999639008823,-0.7510000032538235,-0.24399999704266945
-0.04793192073702812,0.10795934498310089,9.925450325012207,-0.032999999821186066,0.026799999177455902,0.10809999704360962,-0.6810000091321545,-0.5230000178265999,-0.07999999804626934
-0.03869987651705742,0.12553277611732483,9.91238784790039,-0.024299999698996544,0.0478999987244606,0.09829999506473541,0.635000019093441,0.7170000152565876,0.5099999800410971
-0.04784572497010231,0.1290283203125,9.932738304138184,-0.021900000050663948,0.04559999704360962,0.11789999902248383,1.0789999879064105,0.6679999713466518,0.4010000059650519
-0.04587290436029434,0.11274775117635727,9.915576934814453,-0.019999999552965164,0.023000000044703484,0.09829999506473541,1.2940000422698372,0.517000016805861,-0.03100000082707969
-0.037636853754520416,0.11568782478570938,9.922395706176758,-0.008599999360740185,0.028999999165534973,0.10809999704360962,0.4300000020051476,0.1199999937343507,0.031999999885518396
-0.033968932926654816,0.1143374964594841,9.931675910949707,-0.008100000210106373,0.01769999973475933,0.11800000071525574,-0.07600000181251451,-0.1390000058601659,-0.35499998924591186
-0.05431006848812103,0.11665508151054382,9.912254333496094,-0.027899999171495438,0.027499999850988388,0.09839999675750732,0.5789999917795939,-0.34299998720443414,-0.05300000012305109
-0.04502056911587715,0.11392569541931152,9.915203094482422,-0.01899999938905239,0.015599999576807022,0.09839999675750732,0.5429999856551608,0.3139999911643385,0.04900000055424296
-0.04479072615504265,0.1261744350194931,9.931646347045898,-0.017999999225139618,0.03370000049471855,0.11800000071525574,1.731000027678896,0.8919999738803338,0.1509999945614304
-0.060985106974840164,0.11625286191701889,9.915107727050781,-0.03500000014901161,0.01889999955892563,0.09839999675750732,0.7729999892095818,0.4420000040466253,0.2899999870813831
-0.04673481732606888,0.12484325468540192,9.902581214904785,-0.0139999995008111,0.026399999856948853,0.08859999477863312,-0.3130000087811663,0.3399999866940647,0.17100000241063099
-0.05180094763636589,0.1298423409461975,9.912847518920898,-0.022699998691678047,0.026999998837709427,0.09839999675750732,-0.5429999856551608,-0.35499998924591186,-0.019999999511567335
-0.05492299050092697,0.1336347609758377,9.911994934082031,-0.023599999025464058,0.0284000001847744,0.09839999675750732,-0.8729999884349451,-0.40499998885859356,-0.21800000151294321
-0.048966214060783386,0.11052592098712921,9.922654151916504,-0.024399999529123306,0.010699999518692493,0.10819999873638153,1.1289999608386658,0.7709999710823845,0.29399999665535115
-0.043995849788188934,0.11971008032560349,9.910386085510254,-0.012299999594688416,0.01730000041425228,0.08859999477863312,-0.6780000086217851,-0.28799999563461226,0.0969999987149939
-0.035127729177474976,0.11611878126859665,9.903308868408203,-0.0030999998562037945,0.01889999955892563,0.08859999477863312,-0.25299999857377775,0.06099999926066736,-0.023000000021936765
-0.05781518295407295,0.117066890001297,9.914445877075195,-0.03219999745488167,0.019500000402331352,0.09839999675750732,0.31600000929153577,0.05799999875029794,0.3240000017590454
-0.0405290462076664,0.12051453441381454,9.90944766998291,-0.03189999982714653,0.018299998715519905,0.09839999675750732,0.6889999749192377,0.49600001323327503,0.4100000074961602
-0.04320097714662552,0.12256397306919098,9.914533615112305,-0.01249999925494194,0.018400000408291817,0.08859999477863312,0.6009999777353522,0.23099998593759313,-0.21999999295971404
-0.06010403856635094,0.1059194877743721,9.925776481628418,-0.02979999966919422,0.004799999762326479,0.10830000042915344,-0.8279999807794036,-0.669999989473849,-0.1199999937343507
-0.05262455344200134,0.10975977778434753,9.908872604370117,-0.02159999869763851,0.006899999920278788,0.08859999477863312,0.9000000463891228,0.1800000039417393,0.24399999704266945
-0.0540323443710804,0.12106041610240936,9.926398277282715,-0.02159999869763851,0.006899999920278788,0.08859999477863312,-0.7299999996812375,0.06099999926066736,-0.14399999781730613
-0.04791276529431343,0.11886732280254364,9.9150972366333,-0.020600000396370888,0.01549999974668026,0.09849999845027924,0.05999999686717535,-0.010999999647985701,0.1189999980109653
-0.05756618455052376,0.12106999009847641,9.920738220214844,-0.024299999698996544,0.012399999424815178,0.09849999845027924,0.18199999538851008,0.21200000049220435,-0.12499999903170415
-0.05159026011824608,0.12021765857934952,9.904936790466309,-0.01489999983459711,0.012399999424815178,0.08869999647140503,0.3130000087811663,0.14900000311465958,-0.0429999995335041
-0.05022077634930611,0.10152372717857361,9.938034057617188,-0.01529999915510416,-0.007599999662488699,0.11809999495744705,-0.15999999609253868,-0.13600000534979648,-0.27500001120996237
-0.04890875145792961,0.13561715185642242,9.921706199645996,-0.01640000008046627,0.03229999914765358,0.10830000042915344,-0.5290000188473387,-0.16599999711327754,-0.24099999653230003
-0.04103661701083183,0.11758402734994888,9.913105010986328,-0.007400000002235174,0.0139999995008111,0.09849999845027924,-1.0079999580407164,-0.009999999755783667,-0.11500000177721047
-0.05424303561449051,0.1205049604177475,9.916505813598633,-0.01759999990463257,0.016899999231100082,0.09849999845027924,-0.5570000058238358,-0.10600000024610218,-0.4229999919208101
-0.051982905715703964,0.13238020241260529,9.91141128540039,-0.01809999905526638,0.028299998492002487,0.08859999477863312,0.5300000012305109,-0.283000003677472,-0.27200001069959295
-0.049416325986385345,0.13986925780773163,9.915510177612305,-0.01899999938905239,0.03659999743103981,0.09849999845027924,0.5309999836136831,0.6339999833494159,0.01700000066872456
-0.05364927276968956,0.12724703550338745,9.916171073913574,-0.01719999872148037,0.025200000032782555,0.09849999845027924,1.21299997512901,0.8269999983962315,0.13000000432905762
-0.042051758617162704,0.12470917403697968,9.927691459655762,-0.005499999970197678,0.022199999541044235,0.10830000042915344,-0.5909999938210717,-0.3819999938392367,0.19000000119623298
-0.052883125841617584,0.12512098252773285,9.91723346710205,-0.01640000008046627,0.02369999885559082,0.09849999845027924,0.23399998644796255,0.14699999832767557,0.0329999989439571
-0.060985106974840164,0.11733503639698029,9.912589073181152,-0.02579999901354313,0.013199999928474426,0.09849999845027924,0.31600000929153577,0.1719999981340164,0.03899999996469596
-0.046437934041023254,0.12777376174926758,9.921839714050293,-0.005699999630451202,0.02199999988079071,0.10830000042915344,0.18400000017549412,-0.1390000058601659,0.05099999867112037
-0.04646666720509529,0.1212136447429657,9.909313201904297,-0.006099999882280827,0.011599999852478504,0.08869999647140503,-0.11099999887334903,0.2259999939804529,-0.014999999216793838
-0.04860229417681694,0.1161092072725296,9.906708717346191,-0.015399999916553497,0.011799999512732029,0.08869999647140503,0.8540000029895564,0.34200000482126197,0.13700000107318186
-0.06922116130590439,0.1256093978881836,9.91561508178711,-0.03399999812245369,0.019099999219179153,0.09849999845027924,-0.6239999994351354,0.3130000087811663,-0.24299998797907083
-0.057001154869794846,0.1221713274717331,9.929826736450195,-0.013399999588727951,0.010900000110268593,0.10830000042915344,-0.3139999911643385,0.1390000058601659,-0.021999999295971403
-0.05678088590502739,0.12072522938251495,9.918880462646484,0.0064999996684491634,0.011699999682605267,0.10830000042915344,0.5829999746731356,0.2810000122307012,-0.06700000028140622
-0.04977066442370415,0.12437399476766586,9.906794548034668,-0.01209999993443489,0.009800000116229057,0.09849999845027924,1.1109999577764493,0.8840000080932506,0.19799999366374263
-0.04720408096909523,0.12944012880325317,9.909878730773926,-0.011599999852478504,0.008999999612569809,0.08869999647140503,-0.6129999797768299,0.3690000094145868,-0.26200000010488605
-0.0634942278265953,0.10577583312988281,9.903931617736816,-0.017799999564886093,-0.002199999988079071,0.08879999816417694,-0.3789999933288673,-0.18099999966512467,0.18099999966512467
-0.04369897022843361,0.1193174347281456,9.896634101867676,0.0011999999405816197,0.008499999530613422,0.07899999618530273,-0.41600000851689906,-0.3409999957576634,-0.17700000343136985
-0.047242388129234314,0.13086706399917603,9.909773826599121,0.00019999999494757503,0.019500000402331352,0.08869999647140503,0.9399999820462447,0.38100001145606455,0.26300000916848465
-0.060726530849933624,0.11972924321889877,9.928763389587402,-0.018299998715519905,0.007400000002235174,0.10839999467134476,0.5570000058238358,0.5930000119482689,-0.08499999667351618
-0.04741477221250534,0.13687172532081604,9.921590805053711,0.00279999990016222,0.02539999969303608,0.10839999467134476,0.4649999723855557,0.46000000710884187,0.10299999973573276
-0.053256623446941376,0.1282142996788025,9.902782440185547,-0.00559999980032444,0.0142000000923872,0.08879999816417694,-0.35899999881987993,-0.10600000024610218,-0.46000000710884187
-0.038853105157613754,0.1271704137325287,9.91610336303711,0.0038999998942017555,0.015099999494850636,0.09860000014305115,-0.9149999955801171,-0.06500000216452881,-0.18099999966512467
-0.06036261469125748,0.1239238828420639,9.913134574890137,-0.015799999237060547,0.007999999448657036,0.09860000014305115,-0.03100000082707969,0.6429999848805241,-0.4210000004740393
-0.03953305631875992,0.11567824333906174,9.928946495056152,0.0052999998442828655,0.008100000210106373,0.10839999467134476,0.4930000127229056,-0.566000007354944,0.18799999640924894
-0.05893566831946373,0.11760319024324417,9.904141426086426,-0.015699999406933784,0.006599999964237213,0.08879999816417694,-1.2509999460197874,-0.7739999715927539,0.16400000566650674
-0.04758715257048607,0.1273811012506485,9.910798072814941,0.0016999999061226845,0.01979999989271164,0.08869999647140503,0.37100000086135765,-0.18700000068586353,0.03899999996469596
-0.04448426887392998,0.12291831523180008,9.908269882202148,0.0011999999405816197,0.008899999782443047,0.08879999816417694,0.19499999315337319,0.3879999948599756,0.07199999890865307
-0.04800853505730629,0.10538318008184433,9.911822319030762,-0.0072999997064471245,-0.001500000013038516,0.08879999816417694,1.3339999779269591,1.0580000376946774,-0.3540000068627397
-0.052480898797512054,0.1154005229473114,9.927671432495117,-0.004699999932199717,0.004999999888241291,0.10839999467134476,0.44699999600376555,0.29800000622931916,0.12100000279794933
-0.05350561812520027,0.11406934261322021,9.913297653198242,-0.0038999998942017555,-0.0058999997563660145,0.09860000014305115,-1.4900000044661694,-0.8429999833312508,-0.10199999734224074
-0.05517198517918587,0.1163581982254982,9.921409606933594,-0.006199999712407589,0.007799999788403511,0.09860000014305115,0.029999998433587676,-0.06800000267489824,-0.11500000177721047
-0.04959828034043312,0.12682566046714783,9.912521362304688,-0.0050999997183680534,0.0142000000923872,0.09860000014305115,1.4119999911965644,0.8350000175441675,0.3579999897562813
-0.044867340475320816,0.11246044188737869,9.926494598388672,0.006899999920278788,-0.008999999612569809,0.10849999636411667,-1.9110000583010616,-1.2720000029532261,-0.24800000661663751
-0.04472368583083153,0.10951078683137894,9.906268119812012,0.003700000001117587,-0.003999999724328518,0.08879999816417694,1.8390000460521954,0.3049999896332302,0.021999999295971403
-0.04209006577730179,0.11688492447137833,9.926992416381836,0.0142000000923872,-0.008599999360740185,0.09869999438524246,0.0039999999856897995,0.7459999846162569,0.06899999839828364
-0.04209006577730179,0.11688492447137833,9.926992416381836,0.004799999762326479,0.0004999999655410647,0.10849999636411667,0.0039999999856897995,0.7459999846162569,0.06899999839828364
-0.04163037985563278,0.10615890473127365,9.91696548461914,0.0066999997943639755,0.010599999688565731,0.08889999985694885,-1.0369999807612387,-0.6750000081114157,-0.15699999558216926
-0.05708734691143036,0.12123279273509979,9.899880409240723,-0.003399999812245369,0.0023999998811632395,0.07899999618530273,0.7930000103989956,-0.8930000096243589,0.09399999820462447
-0.04180276021361351,0.1226501613855362,9.922798156738281,0.003700000001117587,0.00039999998989515007,0.10849999636411667,-1.5959999513514187,-0.8189999792482954,-0.07099999651516105
-0.05016331374645233,0.12366530299186707,9.904352188110352,-0.008200000040233135,0.004900000058114529,0.08879999816417694,1.9659999431491777,1.1560000187928436,0.4939999951060778
-0.04779784381389618,0.12265974283218384,9.910242080688477,0.004600000102072954,-0.00029999998514540493,0.08889999985694885,2.130000042197177,0.8399999828208814,0.07799999992939192
-0.0569915771484375,0.12086888402700424,9.921121597290039,-0.0026000000070780516,-0.006799999624490738,0.09879999607801437,-0.9690000047667668,-0.12400000330831876,-0.4930000127229056
-0.05211698263883591,0.11594640463590622,9.91843032836914,-0.002899999963119626,-0.004399999976158142,0.09869999438524246,-1.7759999819735846,-0.6789999910049573,-0.1719999981340164
-0.04125688597559929,0.12249693274497986,9.92225170135498,0.004900000058114529,0.00039999998989515007,0.10849999636411667,-1.9999999845072665,-1.0600000024610219,-0.33600000380052314
-0.04559517651796341,0.12376108020544052,9.902264595031738,0.001999999862164259,0.0058999997563660145,0.07899999618530273,-1.5070000251452138,-0.407999989368963,-0.1319999957758284
-0.038996756076812744,0.13555970788002014,9.916179656982422,0.0008999999845400453,0.02969999983906746,0.09860000014305115,-0.8989999572842449,-0.5260000183369693,0.05600000063342052
-0.055679552257061005,0.10795934498310089,9.921121597290039,-0.010400000028312206,0.003000000026077032,0.09849999845027924,-0.7099999784918237,-0.4390000035362559,-0.2140000052791884
-0.048257529735565186,0.11152191460132599,9.917789459228516,-0.011500000022351742,0.004699999932199717,0.09849999845027924,-0.041000001416626686,-0.29800000622931916,-0.07699999753589991
-0.05358223244547844,0.12992854416370392,9.917491912841797,-0.012299999594688416,0.024399999529123306,0.09849999845027924,-0.42899999294154895,0.32899999371618566,-0.02800000031671026
-0.062335435301065445,0.12712253630161285,9.914571762084961,-0.0210999995470047,0.025499999523162842,0.09849999845027924,0.6600000055595685,-1.011999994295111,0.3259999932058162
-0.04687846824526787,0.1375516802072525,9.910481452941895,-0.004299999680370092,0.033399999141693115,0.08869999647140503,2.507000017398847,1.41000002643022,0.13600000534979648
-0.0509486123919487,0.1155250146985054,9.922213554382324,-0.00969999935477972,0.006000000052154064,0.10839999467134476,2.129000059814005,1.122999959817927,0.4769999744270334
-0.049636587500572205,0.1156495213508606,9.933744430541992,-0.00699999975040555,0.0008999999845400453,0.11829999834299088,-1.94099995668305,-2.290999980652248,-0.0749999994190225
-0.05634992942214012,0.12620316445827484,9.916936874389648,-0.013199999928474426,0.01599999889731407,0.09860000014305115,-0.7080000137254794,1.1469999639008823,-0.3469999967784022
-0.05040273442864418,0.12780249118804932,9.916275024414062,-0.009999999776482582,0.017799999564886093,0.09860000014305115,1.5459999784191636,0.3759999928184979,0.5270000007201415
-0.06272808462381363,0.12841540575027466,9.923190116882324,-0.018699999898672104,0.013499999418854713,0.10839999467134476,-1.7829999653774955,-1.6179999906680298,-0.3529999977991411
-0.037359122186899185,0.10231859982013702,9.906105041503906,0.00559999980032444,-0.010300000198185444,0.08869999647140503,2.2870000511195596,0.7209999981501293,0.17899999487814064
-0.05244259163737297,0.13256216049194336,9.915260314941406,-0.01209999993443489,0.013499999418854713,0.09860000014305115,-2.015999916081433,-0.6029999958625494,-0.021000000237532696
-0.054846372455358505,0.11009497195482254,9.91087532043457,-0.023499999195337296,0.009099999442696571,0.09849999845027924,-0.15500000413539844,-0.22400000253368207,-0.41600000851689906
-0.055765748023986816,0.1275918036699295,9.91037654876709,-0.008899999782443047,-0.004999999888241291,0.08879999816417694,-0.31999999218507735,-0.5810000099067912,0.15599999985878385
-0.055765748023986816,0.1275918036699295,9.91037654876709,-0.009499999694526196,0.01489999983459711,0.08879999816417694,-0.31999999218507735,-0.5810000099067912,0.15599999985878385
-0.05274904891848564,0.11314039677381516,9.917482376098633,-0.009399999864399433,-0.003499999875202775,0.09860000014305115,-3.0829999019463656,-2.2959998925681093,-0.27899999410350396
-0.06294835358858109,0.12567643821239471,9.929932594299316,-0.02539999969303608,0.024399999529123306,0.10830000042915344,0.88700000860362,-0.3220000103122746,0.43699998540905866
-0.049540821462869644,0.12855905294418335,9.91707992553711,-0.01640000008046627,0.021900000050663948,0.09849999845027924,3.2409998932519204,1.4900000044661694,0.49900001374364444
-0.0625748559832573,0.10932882875204086,9.912473678588867,-0.022099999710917473,-0.0064999996684491634,0.09860000014305115,2.910999943832989,1.8490000833273288,0.31800000073830653
-0.03839341551065445,0.13075213134288788,9.919522285461426,0.0031999999191612005,0.003999999724328518,0.09869999438524246,1.5589999628438134,1.1759999866214046,-0.11699999322398127
-0.044187385588884354,0.12172121554613113,9.915366172790527,0.006000000052154064,-0.009499999694526196,0.09879999607801437,-0.1939999974299878,-0.2810000122307012,-0.2800000031671026
-0.045058876276016235,0.12831005454063416,9.910184860229492,0.0052999998442828655,0.000699999975040555,0.08899999409914017,-0.551000004803097,-0.10900000075647161,-0.30700000776042746
-0.04762545973062515,0.11864705383777618,9.910712242126465,0.004999999888241291,-0.007499999832361937,0.08899999409914017,-0.433000002515517,-0.19600000221697184,-0.23900000508552924
-0.04747223109006882,0.12045707553625107,9.921178817749023,0.0044999998062849045,-0.006300000008195639,0.09869999438524246,-3.61700009951383,-1.890999983750795,-0.5470000219095553
-0.04641878232359886,0.14535677433013916,9.920546531677246,-0.0011999999405816197,0.034199997782707214,0.09860000014305115,1.6719999998546795,1.9250000251088837,0.2680000011256249
-0.05589982122182846,0.1116081103682518,9.915423393249512,-0.006399999838322401,-0.008999999612569809,0.09869999438524246,3.4650000025073084,1.3240000473735316,0.3849999943496062
-0.049416325986385345,0.1319683939218521,9.913871765136719,-0.00279999990016222,0.0009999999310821295,0.09879999607801437,3.946000066549589,2.31799993188472,0.325000010822644
-0.04912902042269707,0.1292964667081833,9.918900489807129,0.003499999875202775,-0.00969999935477972,0.09889999777078629,-0.5960000124586383,-1.102999991989366,0.40599999792219216
-0.03855622559785843,0.11989204585552216,9.918267250061035,0.010199999436736107,-0.017799999564886093,0.09889999777078629,-4.428999881914803,-2.4049998933245806,-0.627999982328677
-0.053065087646245956,0.1251114010810852,9.923439025878906,-0.006799999624490738,0.005499999970197678,0.10849999636411667,3.9099998469817443,2.033000043482183,0.08899999957737763
-0.052883125841617584,0.11626243591308594,9.926081657409668,-0.001999999862164259,-0.013499999418854713,0.10859999805688858,0.38300000290283537,1.2270000486585377,0.4270000014947782
-0.042999863624572754,0.1088787168264389,9.908347129821777,0.011099999770522118,-0.024299999698996544,0.08909999579191208,-3.6489999626621628,-1.550000014673558,-0.6339999833494159
-0.0533236600458622,0.12999556958675385,9.915433883666992,-0.002899999963119626,0.005200000014156103,0.09869999438524246,4.831000057026012,1.2830000226115317,0.5930000119482689
-0.04761588200926781,0.1262127310037613,9.91020393371582,0.010300000198185444,-0.007899999618530273,0.08909999579191208,-2.1009999127549492,-2.067000084840272,-0.18199999538851008
-0.05535394325852394,0.10949163138866425,9.909111976623535,-0.005799999926239252,-0.020999999716877937,0.08899999409914017,4.247000099969704,1.8130000772028956,0.30400000725005805
-0.04428315535187721,0.10907982289791107,9.907800674438477,0.008299999870359898,-0.031099999323487282,0.08909999579191208,-4.020000043564799,-2.5699999747557523,-0.6200000165415938
-0.0360279455780983,0.11636777967214584,9.911094665527344,0.010900000110268593,-0.017500000074505806,0.08909999579191208,2.9979999052728497,-0.49799997799961937,-0.1079999983629796
-0.048161763697862625,0.12118491530418396,9.929550170898438,0.010900000110268593,-0.017500000074505806,0.08909999579191208,-6.074999912920182,-2.9129999085993337,-0.8059999948236455
-0.0654095932841301,0.12228624522686005,9.923554420471191,-0.009999999776482582,-0.025599999353289604,0.1087999939918518,3.833000136260429,2.0790000868817495,0.7660000058056707
-0.054539911448955536,0.11360965669155121,9.913479804992676,-0.013899999670684338,-0.02579999901354313,0.09879999607801437,4.467000066248992,2.9070000143003005,0.20299999896109608
-0.047098737210035324,0.11298716813325882,9.925824165344238,0.003700000001117587,-0.03790000081062317,0.1087999939918518,-0.6600000055595685,1.2079999564914432,-0.4139999903897018
-0.05546886473894119,0.12778332829475403,9.914207458496094,-0.0026000000070780516,-0.01640000008046627,0.0989999994635582,-7.795000347827596,-3.946000066549589,-0.836999982310512
-0.04901409521698952,0.12703633308410645,9.917176246643066,-0.024799998849630356,0.023000000044703484,0.09849999845027924,-7.863000003656951,-2.555000025564758,-0.78199999074069
-0.05318000912666321,0.12243947386741638,9.91899585723877,-0.030799999833106995,0.03199999779462814,0.09829999506473541,-4.060999961605094,-3.8839998781324447,-0.3570000073731091
-0.04222413897514343,0.12496775388717651,9.911640167236328,-0.031599998474121094,0.05289999768137932,0.08839999884366989,-5.562999968112741,-1.0090000471455944,-0.23099998593759313
-0.05172433331608772,0.12125195562839508,9.928295135498047,-0.044099997729063034,0.05829999968409538,0.10799999535083771,-7.114000178612883,-4.029999867396522,-0.6450000030077214
-0.05860047787427902,0.11720095574855804,9.912961959838867,-0.06480000168085098,0.07759999483823776,0.09809999912977219,-5.745000176944663,-3.1600000395545047,-0.8299999989066009
-0.05433880165219307,0.1227555051445961,9.918603897094727,-0.06449999660253525,0.09510000050067902,0.09809999912977219,0.13300000483942703,1.2470000164870987,-0.5919999762042438
-0.05891651660203934,0.11258494108915329,9.90459156036377,-0.07109999656677246,0.08479999750852585,0.08819999545812607,2.589000066922847,3.60400011508918,-0.2050000037480801
-0.03783796355128288,0.13050314784049988,9.92007827758789,-0.031700000166893005,0.09699999541044235,0.09799999743700027,7.0610000450877,2.16600004832161,1.1359999442425768
-0.06221093609929085,0.11725842207670212,9.926944732666016,-0.054999999701976776,0.06759999692440033,0.1078999936580658,-6.04300004977185,-5.651999894318946,-0.10900000075647161
-0.044656649231910706,0.135655477643013,9.90700626373291,-0.05069999769330025,0.10349999368190765,0.08829999715089798,-2.4450000424251144,1.2849999873778761,-0.536999984634422
-0.05004839226603508,0.11305420845746994,9.909523963928223,-0.056299999356269836,0.08129999786615372,0.08819999545812607,9.149999742357759,4.498999929397325,1.361000035881137
-0.06050626188516617,0.12972743809223175,9.915298461914062,-0.05509999766945839,0.0786999985575676,0.09809999912977219,-9.17000024379485,-5.5369999992634416,-1.0929999547142326
-0.0446758046746254,0.10311347991228104,9.9153470993042,-0.05049999803304672,0.07400000095367432,0.09799999743700027,9.060000047211794,5.174999973252765,0.9610000389796836
-0.04424484819173813,0.12755349278450012,9.912837982177734,-0.03610000014305115,0.07840000092983246,0.09809999912977219,-4.018999847738216,-5.403999994424014,-0.37299999230812847
-0.053610965609550476,0.11414595693349838,9.92379379272461,-0.060499999672174454,0.08899999409914017,0.08829999715089798,-10.305999867872309,-6.473000158498703,-0.9260000152384226
-0.0460931695997715,0.12630850076675415,9.91616153717041,-0.0486999973654747,0.049300000071525574,0.10799999535083771,9.211000161835143,2.6209999300711795,1.3740000203057867
-0.0325898751616478,0.11182837933301926,9.911334037780762,-0.03709999844431877,0.04809999838471413,0.08839999884366989,1.9269999898752281,-1.1219999774347549,-0.4849999935749695
-0.05078580603003502,0.1270076185464859,9.911439895629883,-0.05949999764561653,0.062199998646974564,0.08839999884366989,-7.503000369299442,-6.24299994150087,-0.39599998732748526
-0.05282566323876381,0.1266341209411621,9.920576095581055,-0.07639999687671661,0.08249999582767487,0.0982000008225441,6.2099998825259535,0.8979999749010726,0.9899999549784999
-0.06675992161035538,0.11549629271030426,9.92869758605957,-0.08320000022649765,0.05329999700188637,0.10799999535083771,11.346000329391593,6.639999991252807,0.6999999945775432
-0.04668693244457245,0.1263180822134018,9.902849197387695,-0.04749999940395355,0.035599999129772186,0.08859999477863312,1.6079999533928964,3.608000044621869,-0.5690000078653135
-0.05133168399333954,0.11714350432157516,9.9138822555542,-0.0471000000834465,0.021199999377131462,0.09839999675750732,-5.6949997771255845,-0.2609999910412874,-1.4090000440470478
-0.05632119998335838,0.11430876702070236,9.919713973999023,-0.047599997371435165,0.026799999177455902,0.09829999506473541,-9.39799964225269,-6.2099998825259535,-1.1759999866214046
-0.04287536069750786,0.10690589249134064,9.922242164611816,-0.05460000038146973,0.052400000393390656,0.10799999535083771,-11.9040003175986,-7.56399993500318,-1.7329999924452402
-0.040720582008361816,0.1296316534280777,9.910606384277344,-0.07759999483823776,0.10839999467134476,0.08829999715089798,-11.43799956241708,-7.221999556655947,-1.264000037166143
-0.040366239845752716,0.11698069423437119,9.898482322692871,-0.09470000118017197,0.1256999969482422,0.07859999686479568,-9.19600021264415,-6.972000118881494,-1.193999989683621
-0.04734773188829422,0.13085748255252838,9.910146713256836,-0.11349999904632568,0.16030000150203705,0.08869999647140503,-8.268000339361087,-2.9890000638243,-1.423999993238042
-0.04748180881142616,0.12965081632137299,9.8980131149292,-0.12139999866485596,0.1824999898672104,0.07899999618530273,0.5570000058238358,-2.3809998892416253,-0.8609999863934674
-0.0690775066614151,0.12610739469528198,9.911200523376465,-0.15689998865127563,0.18039999902248383,0.08889999985694885,5.274999919117276,4.225999829592854,0.6990000121943711
-0.05739380419254303,0.12674903869628906,9.909323692321777,-0.12389999628067017,0.16369999945163727,0.08869999647140503,5.998999971138628,1.0880000427983718,1.1370000333474548
-0.05088157206773758,0.11958558857440948,9.909887313842773,-0.12079999595880508,0.13899999856948853,0.08859999477863312,-4.76100000954349,-4.842000076684317,-0.05600000063342052
-0.04823837801814079,0.1390935331583023,9.920480728149414,-0.13369999825954437,0.17109999060630798,0.09860000014305115,-8.834000186633473,-3.486000059440747,-1.1779999513877488
-0.05513367801904678,0.12244904786348343,9.91336441040039,-0.1428000032901764,0.17509999871253967,0.09879999607801437,9.857000307308596,5.180000098612038,0.7099999784918237
-0.05118803307414055,0.10663773864507675,9.911056518554688,-0.12809999287128448,0.13779999315738678,0.08869999647140503,-5.762999859841762,-5.5319998739041685,-0.0539999991814898
-0.05556463077664375,0.12056242674589157,9.913968086242676,-0.14469999074935913,0.1648000031709671,0.09869999438524246,2.9959999405065054,3.9290001525922507,-0.3100000082707969
-0.06179913505911827,0.11556332558393478,9.908422470092773,-0.14459998905658722,0.15699999034404755,0.08879999816417694,3.8339999052001894,2.0450000455236608,0.9130000308137727
-0.06572562456130981,0.11606132239103317,9.923190116882324,-0.13849999010562897,0.1459999978542328,0.10830000042915344,-6.3009997734985035,-0.15999999609253868,-0.8540000029895564
-0.048688482493162155,0.12384726852178574,9.914445877075195,-0.12860000133514404,0.15279999375343323,0.09860000014305115,5.956999857271749,5.954000123565645,-0.01700000066872456
-0.048688482493162155,0.12384726852178574,9.914445877075195,-0.11999999731779099,0.13249999284744263,0.09839999675750732,5.956999857271749,5.954000123565645,-0.01700000066872456
-0.04967489466071129,0.12504436075687408,9.91463851928711,-0.10119999945163727,0.1233999952673912,0.0982000008225441,-9.683000384428874,-6.566999783177357,-0.8570000034999258
-0.038853105157613754,0.11603259295225143,9.922040939331055,-0.09279999881982803,0.11259999871253967,0.10799999535083771,2.6939999247032183,5.34199980600687,-0.559000023951033
-0.038853105157613754,0.11603259295225143,9.922040939331055,-0.09279999881982803,0.11259999871253967,0.10799999535083771,2.6939999247032183,5.34199980600687,-0.559000023951033
-0.05445372313261032,0.13137462735176086,9.90825080871582,-0.08749999850988388,0.0949999988079071,0.08829999715089798,-9.477000171513998,-3.6179998684535906,-0.8709999703077478
-0.04528871923685074,0.12089760601520538,9.907992362976074,-0.10189999639987946,0.14790000021457672,0.08859999477863312,0.21700000578955783,0.8050000124404733,0.3240000017590454
-0.05541140213608742,0.12558066844940186,9.917425155639648,-0.10929999500513077,0.1565999984741211,0.09829999506473541,3.6150001347474854,0.3409999957576634,0.515999981061836
-0.053639695048332214,0.12095507234334946,9.905396461486816,-0.10799999535083771,0.1363999992609024,0.0885000005364418,5.5839998116027685,4.289999982776343,0.37100000086135765
-0.045413218438625336,0.11841721087694168,9.918420791625977,-0.08609999716281891,0.12069999426603317,0.0982000008225441,14.633999608096017,5.130999894619543,0.9870000078289833
-0.0553252138197422,0.12649045884609222,9.900368690490723,-0.08150000125169754,0.08999999612569809,0.07849999517202377,9.061999585091314,6.797000000175189,0.5639999892277469
-0.045441947877407074,0.1271321177482605,9.894057273864746,-0.05040000006556511,0.06159999966621399,0.07859999686479568,6.373999981573953,1.9840000529331001,0.5519999871862691
-0.048209644854068756,0.12197021394968033,9.91696548461914,-0.0551999993622303,0.03619999811053276,0.09829999506473541,-2.121999969688388,-4.108999969771005,0.12499999903170415
-0.051599834114313126,0.11631032079458237,9.903644561767578,-0.06619999557733536,0.04169999808073044,0.0885000005364418,-11.171999552738225,-1.193999989683621,-0.27500001120996237
-0.055392250418663025,0.10507672280073166,9.90873908996582,-0.06920000165700912,0.052400000393390656,0.08829999715089798,-4.498999929397325,-3.7419998184010566,-0.46999999102312234
-0.045939940959215164,0.11665508151054382,9.924090385437012,-0.06929999589920044,0.08410000056028366,0.1078999936580658,-6.19499993333496,0.007000000079177565,-0.38400001196643396
-0.04673481732606888,0.12257354706525803,9.917550086975098,-0.06909999996423721,0.10289999842643738,0.09809999912977219,7.970000039647077,4.094999789519771,0.23199999500119176
-0.053926996886730194,0.11928870528936386,9.9133939743042,-0.06879999488592148,0.08349999785423279,0.09809999912977219,-1.841999993201712,-2.7759999742272177,0.3379999952472939
-0.04066311940550804,0.11984416097402573,9.906631469726562,-0.06629999727010727,0.08819999545812607,0.08829999715089798,-2.8359999844346064,0.21200000049220435,-0.32299999269544677
-0.04227202758193016,0.12253524363040924,9.91125774383545,-0.06549999862909317,0.09569999575614929,0.08829999715089798,4.690999962060968,0.5789999917795939,0.2289999944908223
-0.043612778186798096,0.12182655930519104,9.934864044189453,-0.06369999796152115,0.08249999582767487,0.11769999563694,-6.564999818411013,-7.151000167120488,-0.2729999930827651
-0.049253515899181366,0.12786951661109924,9.903635025024414,-0.09529999643564224,0.11229999363422394,0.08839999884366989,18.86600018576155,4.751000185711768,0.8939999920075311
-0.05277778208255768,0.13330914080142975,9.913421630859375,-0.0835999995470047,0.06679999828338623,0.0982000008225441,-8.16600000184341,-2.648000094747063,-0.5020000142540139
-0.047031696885824203,0.12345461547374725,9.905635833740234,-0.08079999685287476,0.07899999618530273,0.08839999884366989,3.1289999453459325,-1.5339999763776857,0.2589999995945166
-0.048563987016677856,0.12304281443357468,9.918373107910156,-0.09449999779462814,0.07019999623298645,0.0982000008225441,3.61700009951383,5.243999824908704,0.07399999702553048
-0.0669323056936264,0.12355995923280716,9.91451358795166,-0.07989999651908875,0.05999999865889549,0.08839999884366989,5.004999979905733,4.432000042507731,-0.0019999999928448997
-0.05666596442461014,0.11326489597558975,9.935937881469727,-0.09229999780654907,0.09459999948740005,0.09809999912977219,-9.245999758689582,-1.2950000246530096,-0.3789999933288673
-0.04435976967215538,0.1194227859377861,9.908872604370117,-0.07159999758005142,0.07249999791383743,0.11769999563694,-7.197999979459815,-3.428999996382875,-0.149999998838045
-0.03254198655486107,0.12337800115346909,9.913651466369629,-0.06439999490976334,0.12680000066757202,0.09809999912977219,-2.214000056487521,-2.8719999905590394,0.283000003677472
-0.0634942278265953,0.13107775151729584,9.913192749023438,-0.1013999953866005,0.14229999482631683,0.0982000008225441,-6.817000074725456,-1.6549999791756351,0.24200000559589865
-0.037569813430309296,0.13303141295909882,9.90575122833252,-0.1013999953866005,0.14229999482631683,0.0982000008225441,5.448000073057236,1.362000018264309,0.19499999315337319
-0.058763287961483,0.12014104425907135,9.898444175720215,-0.10269999504089355,0.1395999938249588,0.07859999686479568,23.501000707478052,-2.3210000924776484,0.30100000673968863
-0.04547068104147911,0.1117326021194458,9.908374786376953,-0.08919999748468399,0.06509999930858612,0.08839999884366989,5.533999838670513,-0.18400000017549412,0.5260000183369693
-0.05530606210231781,0.12127110362052917,9.902782440185547,-0.09919999539852142,0.05949999764561653,0.0885000005364418,-1.8549999776263617,1.3359999426933036,0.1419999930303221
-0.058523863554000854,0.12785036861896515,9.905856132507324,-0.10509999841451645,0.07400000095367432,0.0885000005364418,-13.915000108320761,-8.41799983127103,-0.1620000008795227
-0.05240428447723389,0.11955685168504715,9.924665451049805,-0.120899997651577,0.10679999738931656,0.10819999873638153,-24.192999615690603,-6.599000073212514,0.03699999851276524
-0.055746592581272125,0.12136687338352203,9.914083480834961,-0.1362999975681305,0.16439999639987946,0.09869999438524246,18.353000045127526,-2.3120000375856873,-0.13700000107318186
-0.06001785025000572,0.11265197396278381,9.911477088928223,-0.15209999680519104,0.10399999469518661,0.08879999816417694,-5.0759997963280155,-10.372999754761903,-0.1189999980109653
-0.05637866258621216,0.13341449201107025,9.915298461914062,-0.17029999196529388,0.1370999962091446,0.09889999777078629,-20.015000221150483,-3.4740000573992695,-0.3049999896332302
-0.046102747321128845,0.11505575478076935,9.905980110168457,-0.16949999332427979,0.1816999912261963,0.08949999511241913,18.765999386123394,5.204000102694994,0.057000003026912535
-0.041764453053474426,0.12739068269729614,9.909791946411133,-0.15309999883174896,0.13329999148845673,0.08899999409914017,-0.12599999475508955,2.8729999729422118,-0.22199999774669807
-0.050939034670591354,0.12462298572063446,9.905654907226562,-0.15549999475479126,0.1331000030040741,0.08889999985694885,-14.676000148849718,6.850000133700373,0.26000000865811523
-0.05926128104329109,0.14170800149440765,9.914389610290527,-0.1460999995470047,0.1826999932527542,0.09869999438524246,23.19499969492502,-19.193999530083904,-0.3049999896332302
-0.04623682424426079,0.12666285037994385,9.91179370880127,-0.1785999983549118,0.10889999568462372,0.0892999991774559,-31.6400009715324,19.50099945780305,0.09500000059811649
-0.0405290462076664,0.10915643721818924,9.922452926635742,-0.12469999492168427,0.17549999058246613,0.10859999805688858,-3.8429999600921505,-16.768000006712708,-0.559000023951033
-0.055152833461761475,0.12578178942203522,9.914083480834961,-0.18569999933242798,0.20639999210834503,0.09950000047683716,31.85499825113148,-9.82699955515296,0.3579999897562813
-0.05476975813508034,0.12078268080949783,9.908777236938477,-0.2087000012397766,0.11979999393224716,0.08969999849796295,-47.77699907441536,-3.8619998388158336,0.26699999206202624
-0.06852205097675323,0.127486452460289,9.91325855255127,-0.21869999170303345,0.2500999867916107,0.11050000041723251,42.02700090654554,-19.13500035603333,1.083000024160805
-0.05649358406662941,0.11455776542425156,9.914475440979004,-0.26649999618530273,0.13599999248981476,0.10019999742507935,42.02700090654554,-19.13500035603333,1.083000024160805
-0.05184883251786232,0.11803413927555084,9.913278579711914,-0.2985999882221222,0.0009999999310821295,0.10189999639987946,-26.410000473101285,18.184999589660013,0.5069999795307276
-0.042645517736673355,0.11930786073207855,9.910242080688477,-0.16589999198913574,0.11679999530315399,0.08919999748468399,-10.959999872411139,-6.747000027242934,-0.2729999930827651
-0.06379111111164093,0.1216733306646347,9.912492752075195,-0.20329999923706055,0.14639998972415924,0.09929999709129333,2.6069999632633576,-0.5530000229302942,-0.5769999736523967
-0.05207867547869682,0.11899182200431824,9.926820755004883,-0.19439999759197235,0.1387999951839447,0.10909999907016754,12.093000189669317,-31.752999621161095,-0.7320000178084348
-0.041841067373752594,0.11662635207176208,9.923123359680176,-0.2708999812602997,0.10529999434947968,0.11079999804496765,12.294999619277858,-44.550998276580785,-0.6859999744088683
-0.05272989720106125,0.12160629034042358,9.911870002746582,-0.4170999825000763,0.06709999591112137,0.09559999406337738,1.3490000338396593,-31.92099836908131,-0.6930000111736323
-0.06378152966499329,0.12046664953231812,9.911564826965332,-0.502299964427948,0.06340000033378601,0.09879999607801437,-13.003999722108215,15.219999103031846,0.4889999764685111
-0.059539008885622025,0.12386641651391983,9.913249969482422,-0.45969998836517334,0.09879999607801437,0.10659999400377274,-13.220000185741638,-16.897000082019446,0.6320000185830715
-0.0573459193110466,0.13846147060394287,9.909236907958984,-0.4948999881744385,0.15429998934268951,0.09879999607801437,-11.942999843985728,7.2960003874448045,1.0940000438191106
-0.058993130922317505,0.13178643584251404,9.92264461517334,-0.483599990606308,0.1768999993801117,0.11759999394416809,4.057999801012166,7.978999667652215,0.44399999549339614
-0.0554497092962265,0.12393345683813095,9.899401664733887,-0.4479999840259552,0.15429998934268951,0.08699999749660492,-1.9429999214493945,-23.14299975722642,-0.9550000379589447
-0.050201620906591415,0.11687535047531128,9.908068656921387,-0.5020999908447266,0.15839999914169312,0.09929999709129333,-7.501999746586035,-11.021000291888521,0.9109999593257225
-0.057384226471185684,0.12689268589019775,9.91300106048584,-0.5309000015258789,0.188400000333786,0.11059999465942383,0.9740000234043334,22.639000098371177,0.36399999077702017
-0.044158656150102615,0.13341449201107025,9.90082836151123,-0.4578000009059906,0.18529999256134033,0.08799999952316284,4.361999995025209,-14.068999529763392,-0.7889999741446011
-0.041151538491249084,0.11903971433639526,9.915308952331543,-0.4948999881744385,0.16300000250339508,0.10920000076293945,-8.793000268593179,5.594000062321313,0.9080000121762061
-0.03303998336195946,0.11058338731527328,9.906651496887207,-0.4664999842643738,0.17989999055862427,0.09869999438524246,10.720999600521344,7.9870003804912395,-0.9879999902121556
-0.06056372448801994,0.1209838017821312,9.920327186584473,-0.47540000081062317,0.16349999606609344,0.10749999433755875,-9.965000112238483,3.866999964175106,0.9109999593257225
-0.04597824811935425,0.12496775388717651,9.922098159790039,-0.4438000023365021,0.20019999146461487,0.1168999969959259,0.0329999989439571,-15.924000361163401,-0.650000021645288
-0.05900270864367485,0.11948981136083603,9.899870872497559,-0.5055999755859375,0.18969999253749847,0.08940000087022781,4.267999943459731,-1.94099995668305,0.07799999992939192
-0.04524083808064461,0.11126334220170975,9.920355796813965,-0.48989999294281006,0.16769999265670776,0.10909999907016754,-7.7669999873251285,-11.443000114663175,0.34899998822517303
-0.03775177523493767,0.12042834609746933,9.91625690460205,-0.5138999819755554,0.20089998841285706,0.11089999973773956,7.774999846390506,0.9099999769425504,-0.9430000359174671
-0.04410119727253914,0.12574347853660583,9.917856216430664,-0.5200999975204468,0.1914999932050705,0.11059999465942383,-0.3349999947369245,5.025000054456,0.43600000302588643
-0.060554150491952896,0.11372458189725876,9.907417297363281,-0.5074999928474426,0.17270000278949738,0.09919999539852142,-4.698999821126345,-5.104000156830483,0.7519999856369958
-0.04386177286505699,0.12758222222328186,9.913451194763184,-0.5074999928474426,0.17270000278949738,0.09919999539852142,-2.506000035015675,-10.220000102259032,-0.2740000021463637
-0.045939940959215164,0.10224198549985886,9.913766860961914,-0.5004000067710876,0.20479999482631683,0.10969999432563782,1.8900000013676228,-4.524000129306864,-0.5119999981682943
-0.048468220978975296,0.13336661458015442,9.92837142944336,-0.5303999781608582,0.1824999898672104,0.11129999905824661,1.0789999879064105,-3.7029998651271065,-1.040000034632461
-0.04080677404999733,0.12158713489770889,9.913268089294434,-0.5483999848365784,0.19329999387264252,0.11209999769926071,5.888999774555572,5.027999788162105,-0.6639999884531101
-0.0507187694311142,0.12142433226108551,9.927011489868164,-0.5428999662399292,0.17659999430179596,0.12099999934434891,6.183999913676654,-6.475000123265048,-0.88700000860362
-0.054185573011636734,0.11234551668167114,9.91282844543457,-0.5590999722480774,0.14919999241828918,0.11189999431371689,-2.6740000635963628,-6.0520001046638106,-0.26699999206202624
-0.049445051699876785,0.12061987817287445,9.919962882995605,-0.576200008392334,0.16669999063014984,0.11289999634027481,-3.231000069420199,2.577000064881369,-0.008999999863581633
-0.053994037210941315,0.1210891455411911,9.91975212097168,-0.568399965763092,0.17389999330043793,0.11249999701976776,-2.6280000201967963,-3.983999823996955,0.4759999920438612
-0.04163995757699013,0.11637736111879349,9.904802322387695,-0.5679000020027161,0.18060000240802765,0.10329999774694443,-1.310999956227176,-1.352999963372348,0.49799997799961937
-0.047970227897167206,0.12256397306919098,9.914542198181152,-0.579800009727478,0.18379999697208405,0.11319999396800995,1.1659999493462712,1.2059999917250988,0.32299999269544677
-0.0345914252102375,0.12742899358272552,9.920297622680664,-0.5552999973297119,0.1899999976158142,0.11289999634027481,-1.8719998915837004,-4.123999918961999,0.14799999405106096
-0.05173391103744507,0.12188401818275452,9.91970443725586,-0.5859999656677246,0.18539999425411224,0.1136000007390976,-1.264000037166143,1.4609999817456474,0.690999993046435
-0.0469263531267643,0.11877156049013138,9.908634185791016,-0.5710999965667725,0.18799999356269836,0.10349999368190765,2.771000062311357,4.860999955408,-0.6339999833494159
-0.0453844889998436,0.1261935830116272,9.91615104675293,-0.5561999678611755,0.18959999084472656,0.11239999532699585,-0.9399999820462447,-5.67500012946214,-0.007999999971379599
-0.04440765455365181,0.12448891252279282,9.910529136657715,-0.5701999664306641,0.1818999946117401,0.10339999943971634,2.2880000335027315,6.414000130674487,0.7879999917614289
-0.03978205472230911,0.11490252614021301,9.905760765075684,-0.5509999990463257,0.16539999842643738,0.1022999957203865,1.8280000263938898,-2.277000013844426,-0.8930000096243589
-0.04569094628095627,0.11920251697301865,9.90420913696289,-0.5564999580383301,0.16899999976158142,0.10260000079870224,-1.57900003739408,2.998999887656022,0.9289999623879391
-0.046840161085128784,0.11888648569583893,9.905378341674805,-0.5476999878883362,0.17239999771118164,0.10209999978542328,-2.3539999380091534,-3.499000043865397,-0.0539999991814898
-0.05929001420736313,0.11516110599040985,9.91232967376709,-0.5753999948501587,0.17829999327659607,0.11239999532699585,2.65100004189658,-4.633000130063335,-0.7299999996812375
-0.05246174708008766,0.12799403071403503,9.908164024353027,-0.57669997215271,0.18029999732971191,0.10319999605417252,-2.065999889013688,1.3920000233680034,0.6510000040284603
-0.05324704572558403,0.12342588603496552,9.905272483825684,-0.5712999701499939,0.17569999396800995,0.10289999842643738,-0.34800000584200086,2.591000031689191,0.06200000165415938
-0.04557602480053902,0.12901873886585236,9.930813789367676,-0.5519999861717224,0.18609999120235443,0.12199999392032623,-2.2339999175943763,-3.752999838059362,-0.536999984634422
-0.04839160665869713,0.125944584608078,9.914302825927734,-0.5691999793052673,0.19089999794960022,0.11259999871253967,2.0619999594809997,-1.7709999633360178,-1.0199999600821943
-0.05363012105226517,0.12030384689569473,9.901086807250977,-0.5724999904632568,0.16499999165534973,0.1225999966263771,-0.5949999767146132,2.4920000682078527,0.38100001145606455
-0.059280432760715485,0.12797486782073975,9.916601181030273,-0.5625999569892883,0.16619999706745148,0.09259999543428421,-2.215000038870693,2.8090000332021345,1.151000000155277
-0.047778692096471786,0.1201314628124237,9.911162376403809,-0.5640000104904175,0.17719998955726624,0.11169999837875366,-2.7529999525274347,-1.1120000468813271,0.8320000170337981
-0.03990655392408371,0.11679873615503311,9.904112815856934,-0.5353999733924866,0.1800999939441681,0.1014999970793724,-2.350999990859637,0.4019999883482241,0.6219999813079381
-0.03503195941448212,0.13215993344783783,9.915922164916992,-0.5230000019073486,0.19599999487400055,0.11129999905824661,0.4019999883482241,0.2920000052085803,0.41600000851689906
-0.05277778208255768,0.13304099440574646,9.909658432006836,-0.5403000116348267,0.19439999759197235,0.10130000114440918,-0.06200000165415938,0.6200000165415938,-0.17700000343136985
-0.0449056476354599,0.1269884556531906,9.916247367858887,-0.5273000001907349,0.19409999251365662,0.11099999397993088,0.1610000051561373,-1.2249999771704876,0.4459999869401669
-0.04483860731124878,0.11546756327152252,9.906900405883789,-0.5295999646186829,0.1832999885082245,0.10130000114440918,1.0559999662066273,1.3159999748647426,-0.15999999609253868
-0.03618117421865463,0.11443326622247696,9.902034759521484,-0.5152999758720398,0.1704999953508377,0.09119999408721924,0.2800000031671026,-1.744999994486718,-0.8459999838416202
-0.054424989968538284,0.11441411077976227,9.917511940002441,-0.5381999611854553,0.16910000145435333,0.11099999397993088,0.23499999551156117,1.3449999975852647,-0.15900000036915327
-0.04873637109994888,0.12420160323381424,9.900923728942871,-0.5331000089645386,0.1777999997138977,0.09109999984502792,1.284000004994704,1.5360000478657359,-0.8639999869038368
-0.0585334450006485,0.12520717084407806,9.907809257507324,-0.5372999906539917,0.1834999918937683,0.1005999967455864,-0.2699999925723957,-1.8939999309003115,-0.39399999588071444
-0.04977066442370415,0.12762053310871124,9.91166877746582,-0.5318999886512756,0.18379999697208405,0.10080000013113022,-0.5690000078653135,0.8230000155026899,1.6549999791756351
-0.06316861510276794,0.13672807812690735,9.916524887084961,-0.5382999777793884,0.1946999877691269,0.11050000041723251,0.9080000121762061,1.291999970781787,-0.8819999899660533
-0.039255332201719284,0.12271720170974731,9.91392993927002,-0.5137999653816223,0.171999990940094,0.11019999533891678,-0.9190000318345116,-1.1070000282437604,0.7829999731238623
-0.05431964993476868,0.10595779120922089,9.926015853881836,-0.5252000093460083,0.16429999470710754,0.1200999990105629,0.8930000096243589,-0.36099999026665075,-0.585999975183505
-0.04516422376036644,0.12247778475284576,9.906794548034668,-0.5149999856948853,0.1711999922990799,0.10040000081062317,0.35499998924591186,-0.6159999802871993,-0.18900000547284757
-0.0550953708589077,0.1314225196838379,9.92259693145752,-0.5254999995231628,0.179299995303154,0.1200999990105629,0.7249999810436709,-0.8299999989066009,-0.6360000014766131
-0.040979158133268356,0.11449072510004044,9.914551734924316,-0.5162000060081482,0.15760000050067902,0.11029999703168869,-0.5189999815722054,0.3759999928184979,0.7560000218913903
-0.04599740356206894,0.12695972621440887,9.926226615905762,-0.5137999653816223,0.17829999327659607,0.11999999731779099,-0.048000001495804245,-0.517000016805861,-0.6239999994351354
-0.05266286060214043,0.13510958850383759,9.919417381286621,-0.5235999822616577,0.18769998848438263,0.11019999533891678,1.0269999434861052,-1.2379999615951374,-0.37800001094569513
-0.051906291395425797,0.1154005229473114,9.905482292175293,-0.5256999731063843,0.1647000014781952,0.10049999505281448,-0.0009999999964224499,-1.674999947004196,0.5630000068445746
-0.04223372042179108,0.12714168429374695,9.899688720703125,-0.5196999907493591,0.17419999837875366,0.09079999476671219,1.8099999166099674,1.0239999963365887,-1.1970000435548434
-0.054827217012643814,0.12974658608436584,9.91331672668457,-0.5256999731063843,0.16929998993873596,0.11019999533891678,0.36499999984061876,1.3219999758854815,0.3789999933288673
-0.0612628310918808,0.12254482507705688,9.916754722595215,-0.5257999897003174,0.15779998898506165,0.10969999432563782,-0.67699997287776,-0.16400000566650674,1.2650000195493152
-0.05512410029768944,0.11699984967708588,9.912971496582031,-0.5151000022888184,0.15940000116825104,0.10969999432563782,-0.901000028772295,-0.2570000081477458,1.0950000262022828
-0.05051765590906143,0.12985192239284515,9.933609962463379,-0.5151000022888184,0.15940000116825104,0.10969999432563782,-0.7249999810436709,0.2570000081477458,1.56399998148138
-0.04739561676979065,0.10658986121416092,9.919905662536621,-0.5027999877929688,0.15359999239444733,0.1096000000834465,-0.7759999897199512,-0.46000000710884187,-0.24200000559589865
-0.0406343899667263,0.12319604307413101,9.911056518554688,-0.5027999877929688,0.16509999334812164,0.0997999981045723,-0.6450000030077214,-0.5630000068445746,0.8699999879245757
-0.0637432262301445,0.13040737807750702,9.921849250793457,-0.522599995136261,0.17639999091625214,0.11939999461174011,-0.05099999867112037,-0.3369999861836953,1.1899999534292265
-0.04557602480053902,0.1182544082403183,9.90890121459961,-0.5026000142097473,0.1665000021457672,0.0997999981045723,0.19200000598321698,1.0249999787197608,1.4369999776626918
-0.058399368077516556,0.11923124641180038,9.916754722595215,-0.517799973487854,0.16569998860359192,0.10939999669790268,0.06899999839828364,0.4759999920438612,-0.8729999884349451
-0.058590903878211975,0.1314033716917038,9.91103744506836,-0.5153999924659729,0.17479999363422394,0.09950000047683716,0.22100000202331266,1.3010000256737484,-1.7889999663982343
-0.05182967707514763,0.12020807713270187,9.916754722595215,-0.5006999969482422,0.16369999945163727,0.10899999737739563,0.4840000111917973,-0.2589999995945166,-3.1250000158132436
-0.05182967707514763,0.12020807713270187,9.916754722595215,-0.5006999969482422,0.16369999945163727,0.10899999737739563,0.4840000111917973,-0.2589999995945166,-3.1250000158132436
-0.05806417763233185,0.11359050869941711,9.913776397705078,-0.5112999677658081,0.15219999849796295,0.10909999907016754,-0.6969999940671738,-0.8089999953340149,0.88700000860362
-0.043804313987493515,0.1116272583603859,9.92856216430664,-0.48909997940063477,0.15279999375343323,0.11879999935626984,0.49099999459570837,-1.151000000155277,-4.319999881158331
-0.03549164533615112,0.13121181726455688,9.908184051513672,-0.4820999801158905,0.17080000042915344,0.09929999709129333,0.18700000068586353,1.271000020570054,6.178000019377621
-0.04792233929038048,0.12014104425907135,9.916534423828125,-0.498199999332428,0.16120000183582306,0.10889999568462372,-0.07900000232288394,0.6159999802871993,-7.420999679445208
-0.04792233929038048,0.12014104425907135,9.916534423828125,-0.498199999332428,0.16120000183582306,0.10889999568462372,-0.07900000232288394,0.6159999802871993,-7.420999679445208
-0.05632119998335838,0.1140884980559349,9.913871765136719,-0.49779999256134033,0.15269999206066132,0.10889999568462372,0.18900000547284757,1.118000047902066,0.12799999954207358
-0.049464207142591476,0.12223836779594421,9.896998405456543,-0.494299978017807,0.16200000047683716,0.08909999579191208,0.05499999823992851,0.78199999074069,2.3980000166423756
-0.04890875145792961,0.11994951218366623,9.912808418273926,-0.49239999055862427,0.16210000216960907,0.10859999805688858,-0.5750000088860524,-1.0129999766782831,-5.520999854245863
-0.05162856727838516,0.13614389300346375,9.909534454345703,-0.4952999949455261,0.1825999915599823,0.0989999994635582,0.8149999963547537,1.57900003739408,6.178999788317381
-0.05359181389212608,0.11570698022842407,9.92225170135498,-0.4908999800682068,0.1614999920129776,0.11840000003576279,-0.8889999733699644,0.031999999885518396,-0.6579999874323713
-0.046198517084121704,0.11366712301969528,9.918373107910156,-0.48099997639656067,0.15410000085830688,0.10859999805688858,-0.4190000090272685,-1.2609999832949206,-0.29699999716572056
-0.05454949289560318,0.12155841290950775,9.925335884094238,-0.49469998478889465,0.16509999334812164,0.11859999597072601,-0.007000000079177565,-1.2859999697610482,0.9999999922536332
-0.05428134277462959,0.1276971399784088,9.909897804260254,-0.4878999888896942,0.17509999871253967,0.11869999766349792,0.7189999800229321,0.885999972859595,3.051000038798033
-0.05428134277462959,0.1276971399784088,9.909897804260254,-0.4952999949455261,0.17350000143051147,0.0989999994635582,0.6309999828390465,0.37400000137172706,0.941999946812589
-0.05951985716819763,0.11641566455364227,9.915653228759766,-0.5040000081062317,0.16210000216960907,0.10869999974966049,0.859000021627123,0.26699999206202624,2.020000059057533
-0.05362053960561752,0.11554417759180069,9.910481452941895,-0.493399977684021,0.1599999964237213,0.09889999777078629,0.5029999966371861,1.1620000198135825,1.0379999631444108
-0.047778692096471786,0.11862790584564209,9.921371459960938,-0.47669997811317444,0.15860000252723694,0.10839999467134476,-0.4199999914104407,0.19499999315337319,0.0429999995335041
-0.05673300102353096,0.12555193901062012,9.924310684204102,-0.48589998483657837,0.16949999332427979,0.11809999495744705,0.39200000443394367,0.22400000253368207,0.9440000183006392
-0.05948155000805855,0.12562856078147888,9.913795471191406,-0.4950999915599823,0.16859999299049377,0.10830000042915344,0.11200000126684104,-0.7500000208706514,0.5360000022512498
-0.049588706344366074,0.13431471586227417,9.917990684509277,-0.48729997873306274,0.17809998989105225,0.10839999467134476,0.0659999978879142,-0.6320000185830715,-0.12599999475508955
-0.04959828034043312,0.11123461276292801,9.899918556213379,-0.4892999827861786,0.148499995470047,0.08889999985694885,-0.20599999947146552,-0.838000018054537,-0.30400000725005805
-0.03892971947789192,0.11878113448619843,9.921839714050293,-0.4813999831676483,0.15869998931884766,0.11840000003576279,0.014999999216793838,0.9289999623879391,-0.13400000056281244
-0.05147533863782883,0.12766841053962708,9.925383567810059,-0.4887000024318695,0.16849999129772186,0.11829999834299088,0.41600000851689906,0.04500000098543482,0.2250000115972807
-0.04488649219274521,0.11925996840000153,9.914389610290527,-0.4786999821662903,0.15760000050067902,0.10839999467134476,-0.6919999754296072,-0.6669999889634796,-0.08700000146050021
-0.04488649219274521,0.11925996840000153,9.914389610290527,-0.4786999821662903,0.15760000050067902,0.10839999467134476,-0.6919999754296072,-0.6669999889634796,-0.08700000146050021
-0.05477933585643768,0.11441411077976227,9.909638404846191,-0.4903999865055084,0.14959999918937683,0.09869999438524246,0.49099999459570837,0.920999996600856,0.02800000031671026
-0.04426399990916252,0.11725842207670212,9.927854537963867,-0.47939997911453247,0.1581999957561493,0.11829999834299088,-0.31999999218507735,0.4769999744270334,0.17400000292100043
-0.04718492925167084,0.11904928833246231,9.909428596496582,-0.47939997911453247,0.1581999957561493,0.11829999834299088,0.1629999966029081,-0.5279999831033136,0.10400000212922476
-0.0541568398475647,0.11271901428699493,9.916324615478516,-0.4781000018119812,0.1590999960899353,0.09860000014305115,-0.2609999910412874,-0.3579999897562813,-0.2810000122307012
-0.0590122826397419,0.11453860998153687,9.905367851257324,-0.5,0.14949999749660492,0.09869999438524246,-0.43499999396228783,-0.6269999999455048,-0.14799999405106096
-0.04748180881142616,0.12272677570581436,9.921916961669922,-0.4822999835014343,0.1605999916791916,0.11840000003576279,0.44699999600376555,0.09200000008774706,0.14900000311465958
-0.0501154288649559,0.1280514895915985,9.917366981506348,-0.4918999969959259,0.16929998993873596,0.10859999805688858,-0.4630000076192113,-0.03100000082707969,0.07399999702553048
-0.046715665608644485,0.11455776542425156,9.913575172424316,-0.4820999801158905,0.1509999930858612,0.10859999805688858,-0.07099999651516105,-1.1359999442425768,-0.16599999711327754
-0.052787356078624725,0.11803413927555084,9.911497116088867,-0.4949999749660492,0.16089999675750732,0.0989999994635582,-0.48199999306460006,-0.6080000145001161,0.13799999679656727
-0.05540182814002037,0.13237062096595764,9.926916122436523,-0.4966999888420105,0.1720999926328659,0.11869999766349792,0.38699998579637696,0.5579999882070079,0.1189999980109653
-0.051887139678001404,0.12555193901062012,9.917387008666992,-0.4948999881744385,0.17090000212192535,0.1087999939918518,0.09600000299160849,0.5290000188473387,0.0429999995335041
-0.03589387238025665,0.12527421116828918,9.9019775390625,-0.4739999771118164,0.17069999873638153,0.08909999579191208,0.23099998593759313,0.7570000042745624,-0.10999999647985702
-0.04663905128836632,0.12060073018074036,9.904448509216309,-0.48169997334480286,0.16019999980926514,0.09879999607801437,0.09600000299160849,0.11599999750059588,-0.05999999686717535
-0.04706043004989624,0.13346238434314728,9.92100715637207,-0.4810999929904938,0.1695999950170517,0.10859999805688858,-0.37299999230812847,-0.15399999507179982,-0.1319999957758284
-0.049109868705272675,0.11844594776630402,9.909839630126953,-0.49139997363090515,0.16089999675750732,0.09879999607801437,-0.03999999902313467,-0.5780000093964218,-0.38999998630674637
-0.04876509681344032,0.11839806288480759,9.9153470993042,-0.49289998412132263,0.16099999845027924,0.10869999974966049,-0.0030000000934877653,0.390999995370345,-0.18700000068586353
-0.05891651660203934,0.11890563368797302,9.907350540161133,-0.501800000667572,0.16099999845027924,0.09879999607801437,0.7729999892095818,0.536999984634422,-0.07199999890865307
-0.0472806952893734,0.13475525379180908,9.921964645385742,-0.4805999994277954,0.17839999496936798,0.11829999834299088,-0.012000000373951061,0.3529999977991411,-0.08200000283325337
-0.043258439749479294,0.12576262652873993,9.921083450317383,-0.4795999825000763,0.16859999299049377,0.10849999636411667,0.28799999563461226,0.01700000066872456,-0.1419999930303221
-0.03962882608175278,0.11405976861715317,9.927250862121582,-0.4794999957084656,0.14819999039173126,0.11829999834299088,-0.36399999077702017,-0.7369999830851486,-0.15399999507179982
-0.05589982122182846,0.12576262652873993,9.925651550292969,-0.49149999022483826,0.1688999980688095,0.11840000003576279,0.06299999737754478,0.07900000232288394,-0.29500000571894974
-0.03794331103563309,0.11753614991903305,9.910538673400879,-0.471699982881546,0.15889999270439148,0.09879999607801437,0.041000001416626686,0.3319999942265551,0.14300000209392072
-0.061052143573760986,0.12251608818769455,9.918583869934082,-0.5001000165939331,0.15879999101161957,0.10849999636411667,0.11099999887334903,0.06899999839828364,0.019999999511567335
-0.05051765590906143,0.1142129972577095,9.912118911743164,-0.48979997634887695,0.1485999971628189,0.10849999636411667,0.007000000079177565,0.4720000091503196,0.01700000066872456
-0.04530787095427513,0.11577402055263519,9.910405158996582,-0.4786999821662903,0.1582999974489212,0.09860000014305115,0.031999999885518396,-0.733000000191607,-0.07799999992939192
-0.05026865750551224,0.1140884980559349,9.934682846069336,-0.49069997668266296,0.14839999377727509,0.10849999636411667,0.07000000079177565,0.6290000180727021,0.07099999651516105
-0.04393838718533516,0.1333857774734497,9.913230895996094,-0.48909997940063477,0.14819999039173126,0.12809999287128448,-0.13499999628619785,0.49499997748924995,-0.05200000106461238
-0.0542621873319149,0.13162362575531006,9.914015769958496,-0.47859999537467957,0.16749998927116394,0.10839999467134476,-0.30100000673968863,0.021000000237532696,0.08200000283325337
-0.04502056911587715,0.12462298572063446,9.914034843444824,-0.4770999848842621,0.16869999468326569,0.10839999467134476,-0.2710000016359943,0.20599999947146552,-0.12799999954207358
-0.050891149789094925,0.1160038635134697,9.905089378356934,-0.4861999750137329,0.15969999134540558,0.09849999845027924,0.03999999902313467,0.33000000277978425,0.27200001069959295
-0.05585193634033203,0.12874101102352142,9.905990600585938,-0.4852999746799469,0.16939999163150787,0.09849999845027924,0.008999999863581633,0.24899998899980968,0.14099999730693671
-0.05157110467553139,0.11076535284519196,9.920433044433594,-0.484499990940094,0.14970000088214874,0.10830000042915344,0.029999998433587676,0.06299999737754478,0.20099999417411205
-0.05193502455949783,0.11925039440393448,9.915087699890137,-0.48399999737739563,0.15929999947547913,0.10819999873638153,0.07799999992939192,0.2379999960219306,-0.10199999734224074
-0.04568136855959892,0.11881944537162781,9.933782577514648,-0.47349998354911804,0.1590999960899353,0.12780000269412994,0.08700000146050021,0.19099999691961836,0.2570000081477458
-0.05387911573052406,0.13020627200603485,9.914868354797363,-0.48259997367858887,0.16859999299049377,0.10819999873638153,-0.2039999946844815,0.1800000039417393,0.1070000026395942
-0.04807556793093681,0.10380300879478455,9.912598609924316,-0.4820999801158905,0.1396999955177307,0.10819999873638153,-0.12700000381868817,0.6080000145001161,0.021999999295971403
-0.05208825320005417,0.1283387839794159,9.911660194396973,-0.4802999794483185,0.16939999163150787,0.09829999506473541,0.19900000272734125,0.24399999704266945,0.07399999702553048
-0.05187756195664406,0.12801317870616913,9.91174602508545,-0.4795999825000763,0.1687999963760376,0.0982000008225441,-0.06299999737754478,-0.13799999679656727,0.12400000330831876
-0.04737646505236626,0.11363838613033295,9.91174602508545,-0.4696999788284302,0.1492999941110611,0.0982000008225441,0.0030000000934877653,-0.4280000105583768,-0.05099999867112037
-0.05441541597247124,0.1047319546341896,9.92410945892334,-0.48069998621940613,0.13939999043941498,0.11789999902248383,-0.26500000061525547,-0.15399999507179982,0.11699999322398127
-0.04921520873904228,0.1249869093298912,9.91234016418457,-0.48099997639656067,0.16949999332427979,0.10809999704360962,-0.14900000311465958,-0.06500000216452881,-0.10199999734224074
-0.059797581285238266,0.12045707553625107,9.906929016113281,-0.49059998989105225,0.1598999947309494,0.09829999506473541,-0.049999999612681666,-0.29899998861249133,0.0749999994190225
-0.05465483292937279,0.13144168257713318,9.921801567077637,-0.4814999997615814,0.16979999840259552,0.11789999902248383,-0.24599998848944027,0.257999990530918,-0.01700000066872456
-0.054616525769233704,0.11541009694337845,9.930315017700195,-0.4805999994277954,0.1605999916791916,0.11789999902248383,0.16599999711327754,-0.07099999651516105,0.03699999851276524
-0.05893566831946373,0.11488337814807892,9.912942886352539,-0.4901999831199646,0.1501999944448471,0.10809999704360962,-0.11699999322398127,0.08700000146050021,-0.07000000079177565
-0.05352477356791496,0.11282436549663544,9.909964561462402,-0.4797999858856201,0.15029999613761902,0.09829999506473541,-0.048000001495804245,0.29899998861249133,0.02600000053230619
-0.04443638399243355,0.12909534573554993,9.91162109375,-0.468999981880188,0.17000000178813934,0.0982000008225441,-0.12199999852133472,-0.4429999864297975,0.021999999295971403
-0.04556644707918167,0.12553277611732483,9.907819747924805,-0.4700999855995178,0.17029999196529388,0.09829999506473541,0.08700000146050021,0.8029999943132761,-0.23300000406479038
-0.062076862901449203,0.11485464125871658,9.91572093963623,-0.48739999532699585,0.15039999783039093,0.10799999535083771,0.0009999999964224499,-0.4210000004740393,-0.13300000483942703
-0.0547410286962986,0.12283211946487427,9.919905662536621,-0.4787999987602234,0.16009999811649323,0.10799999535083771,0.37800001094569513,0.5290000188473387,-0.031999999885518396
-0.05492299050092697,0.12889423966407776,9.921801567077637,-0.4781999886035919,0.16929998993873596,0.11779999732971191,-0.007000000079177565,-0.23199999500119176,-0.1529999993484144
-0.05966350436210632,0.13453498482704163,9.915730476379395,-0.4884999990463257,0.17899999022483826,0.10799999535083771,-0.06800000267489824,-0.3750000104353257,0.04500000098543482
-0.044896069914102554,0.11422257125377655,9.926092147827148,-0.4697999954223633,0.14970000088214874,0.11789999902248383,0.1319999957758284,-0.41600000851689906,-0.0329999989439571
-0.05286397039890289,0.125944584608078,9.912569046020508,-0.48069998621940613,0.1688999980688095,0.10809999704360962,0.03999999902313467,0.3220000103122746,0.05499999823992851
-0.029534872621297836,0.12206597626209259,9.91517448425293,-0.4601999819278717,0.15889999270439148,0.10809999704360962,0.30100000673968863,0.12400000330831876,0.12299999424472013
-0.051389146596193314,0.13261961936950684,9.904294967651367,-0.47929999232292175,0.1678999960422516,0.0982000008225441,-0.128999995265459,0.19200000598321698,0.15900000036915327
-0.060678645968437195,0.12065818905830383,9.911008834838867,-0.4884999990463257,0.15839999914169312,0.0982000008225441,0.0749999994190225,0.14300000209392072,0.0269999995907449
-0.04898536577820778,0.1263372302055359,9.915040016174316,-0.4777999818325043,0.16779999434947968,0.10799999535083771,0.5709999726316578,0.22400000253368207,0.07399999702553048
-0.04458003491163254,0.11793837696313858,9.910750389099121,-0.46709999442100525,0.15619999170303345,0.09809999912977219,0.2909999961449817,0.28600000418784144,0.046999999102312236
-0.04401500150561333,0.12751518189907074,9.91745376586914,-0.46629998087882996,0.16529999673366547,0.1078999936580658,0.15999999609253868,-0.2899999870813831,-0.15900000036915327
-0.04161122441291809,0.11186668276786804,9.913019180297852,-0.4668999910354614,0.14509999752044678,0.1078999936580658,-0.24399999704266945,-0.6570000050491991,-0.07999999804626934
-0.055957283824682236,0.11863747984170914,9.926217079162598,-0.47839999198913574,0.15549999475479126,0.11779999732971191,-0.06299999737754478,-0.25100000712700693,0.041000001416626686
-0.037617698311805725,0.12841540575027466,9.9133939743042,-0.4592999815940857,0.1655000001192093,0.10799999535083771,0.21299999621558977,-0.09300000248123906,-0.0019999999928448997
-0.05014416202902794,0.13108733296394348,9.925909996032715,-0.4790000021457672,0.1647000014781952,0.11779999732971191,0.04600000004387353,0.19699999794035722,0.03100000082707969
-0.047807417809963226,0.11783303320407867,9.913240432739258,-0.4681999981403351,0.15469999611377716,0.10799999535083771,-0.3510000063523703,-0.30100000673968863,-0.06200000165415938
-0.049205634742975235,0.12277466803789139,9.90971565246582,-0.4786999821662903,0.15549999475479126,0.0982000008225441,0.05799999875029794,-0.15800000464576788,-0.15900000036915327
-0.03658340126276016,0.12033258378505707,9.931580543518066,-0.4592999815940857,0.15529999136924744,0.12759999930858612,0.2699999925723957,0.1390000058601659,0.11500000177721047
-0.04066311940550804,0.1091277152299881,9.91953182220459,-0.46859997510910034,0.14469999074935913,0.10799999535083771,-0.07399999702553048,-0.2810000122307012,-0.1620000008795227
-0.046457089483737946,0.12828132510185242,9.908068656921387,-0.4693000018596649,0.16439999639987946,0.0982000008225441,0.39299998681711584,0.3849999943496062,-0.04200000047506539
-0.05237555876374245,0.1279269903898239,9.922961235046387,-0.4779999852180481,0.16339999437332153,0.11779999732971191,-0.009999999755783667,-0.4999999961268166,-0.1419999930303221
-0.04891832917928696,0.1182544082403183,9.900014877319336,-0.47909998893737793,0.15359999239444733,0.08839999884366989,0.44399999549339614,0.3139999911643385,-0.015999999942759198
-0.05207867547869682,0.1318439096212387,9.915922164916992,-0.4781000018119812,0.16210000216960907,0.1078999936580658,-0.09800000110848592,0.24099999653230003,-0.09899999683187131
-0.06433699280023575,0.12993811070919037,9.912511825561523,-0.4869999885559082,0.1622999906539917,0.1078999936580658,0.14099999730693671,0.07900000232288394,0.0039999999856897995
-0.033116597682237625,0.11940362304449081,9.900243759155273,-0.4666000008583069,0.1615999937057495,0.09809999912977219,0.23000000355442093,0.2680000011256249,0.03400000133744912
-0.056407392024993896,0.11843637377023697,9.919062614440918,-0.47369998693466187,0.15129999816417694,0.10769999772310257,0.0019999999928448997,-0.21899999723632863,-0.1800000039417393
-0.0437181256711483,0.13205459713935852,9.899152755737305,-0.4642999768257141,0.16099999845027924,0.08810000121593475,-0.0659999978879142,-0.5440000213991859,0.10900000075647161
-0.053208738565444946,0.13881580531597137,9.922999382019043,-0.47540000081062317,0.17090000212192535,0.11759999394416809,0.12499999903170415,-0.09300000248123906,-0.11599999750059588
-0.051006071269512177,0.12308112531900406,9.919723510742188,-0.47540000081062317,0.17090000212192535,0.11759999394416809,0.04900000055424296,0.4139999903897018,0.14900000311465958
-0.05125506967306137,0.12220963090658188,9.928668022155762,-0.4739999771118164,0.15060000121593475,0.11759999394416809,0.038000000906257256,0.22199999774669807,-0.11200000126684104
-0.049751508980989456,0.1190684363245964,9.92859172821045,-0.4730999767780304,0.15039999783039093,0.11749999970197678,0.09500000059811649,0.4019999883482241,0.05799999875029794
-0.04910028725862503,0.11891520768404007,9.90944766998291,-0.4717999994754791,0.14999999105930328,0.09779999405145645,0.014999999216793838,-0.057000003026912535,0.12700000381868817
-0.05227978900074959,0.11744996160268784,9.90562629699707,-0.4712999761104584,0.14980000257492065,0.09779999405145645,-0.03999999902313467,-0.0269999995907449,0.01400000015835513
-0.05162856727838516,0.1206294521689415,9.924541473388672,-0.4708999991416931,0.14970000088214874,0.11739999800920486,-0.128999995265459,-0.33600000380052314,-0.149999998838045
-0.0595964714884758,0.1209838017821312,9.90090560913086,-0.4811999797821045,0.14989998936653137,0.08799999952316284,-0.4280000105583768,-0.3059999986968288,0.14600000260429016
-0.044445961713790894,0.10654197633266449,9.9146089553833,-0.46219998598098755,0.141199991106987,0.10769999772310257,0.22100000202331266,0,-0.09200000008774706
-0.05056554079055786,0.12899000942707062,9.902752876281738,-0.4717999994754791,0.16009999811649323,0.09779999405145645,0.24299998797907083,0.564999971610919,0.1729999938574018
-0.04779784381389618,0.1271704137325287,9.899660110473633,-0.4601999819278717,0.15940000116825104,0.08799999952316284,0.26200000010488605,-0.11200000126684104,0.03999999902313467
-0.04803726077079773,0.12437399476766586,9.915519714355469,-0.4700999855995178,0.14869999885559082,0.10759999603033066,-0.10499999785261017,-0.26000000865811523,-0.07300000130214508
-0.0488225594162941,0.12000696361064911,9.933475494384766,-0.47049999237060547,0.14890000224113464,0.12719999253749847,0.17899999487814064,0.11699999322398127,-0.0009999999964224499
-0.048899173736572266,0.12918154895305634,9.921734809875488,-0.46959999203681946,0.15799999237060547,0.11739999800920486,0.02899999937514897,-0.2920000052085803,-0.06399999977103679
-0.06099468097090721,0.10446380823850632,9.91092300415039,-0.4799000024795532,0.12839999794960022,0.09779999405145645,0.043999998591942806,0.16400000566650674,0.16899999762364695
-0.051695603877305984,0.12004527449607849,9.925488471984863,-0.46939998865127563,0.1477999985218048,0.11729999631643295,0.13700000107318186,-0.3089999992071983,-0.10299999973573276
-0.05471229553222656,0.11547713726758957,9.914973258972168,-0.4700999855995178,0.14729999005794525,0.10759999603033066,0.11599999750059588,0.4510000055777336,0.33000000277978425
-0.05158068239688873,0.13876792788505554,9.911602973937988,-0.46869999170303345,0.1665000021457672,0.09769999980926514,0.03599999945432653,-0.20099999417411205,0.14499999354069154
-0.053639695048332214,0.12416329979896545,9.913469314575195,-0.468999981880188,0.14669999480247498,0.10749999433755875,0.24399999704266945,-0.149999998838045,0.012000000373951061
-0.055488016456365585,0.12016019225120544,9.904017448425293,-0.4690999984741211,0.1459999978542328,0.09769999980926514,0.0030000000934877653,0.3029999981864594,0.048000001495804245
-0.04410119727253914,0.11288182437419891,9.92420482635498,-0.45819997787475586,0.13599999248981476,0.11729999631643295,0.041000001416626686,-0.0019999999928448997,-0.0329999989439571
-0.0543866828083992,0.11912590265274048,9.913431167602539,-0.45749998092651367,0.14549998939037323,0.09759999811649323,-0.1199999937343507,0.20599999947146552,-0.07699999753589991
-0.052030790597200394,0.1209646463394165,9.920433044433594,-0.4668999910354614,0.1454000025987625,0.10740000009536743,0.17400000292100043,0.2570000081477458,0.0659999978879142
-0.04203260317444801,0.11953770369291306,9.923736572265625,-0.4553000032901764,0.14509999752044678,0.11710000038146973,0.43799999447265725,0.3089999992071983,0.0429999995335041
-0.044963106513023376,0.1345062553882599,9.914380073547363,-0.45409998297691345,0.16339999437332153,0.10729999840259552,0.0030000000934877653,0.0539999991814898,-0.1719999981340164
-0.05678088590502739,0.13077129423618317,9.922911643981934,-0.46320000290870667,0.15330000221729279,0.11710000038146973,-0.128999995265459,0.14499999354069154,0.12100000279794933
-0.06381026655435562,0.12921027839183807,9.902887344360352,-0.47189998626708984,0.1533999890089035,0.0973999947309494,0.05799999875029794,0.1319999957758284,0.0019999999928448997
-0.056934114545583725,0.12527421116828918,9.914868354797363,-0.460999995470047,0.15299999713897705,0.10719999670982361,0.11599999750059588,0.1849999958988795,0.08799999718388561
-0.0507187694311142,0.1320067048072815,9.909170150756836,-0.4601999819278717,0.1525999903678894,0.09730000048875809,0.04500000098543482,-0.16699999283666295,-0.08299999855663877
-0.04817133769392967,0.1204858124256134,9.914294242858887,-0.4599999785423279,0.14239999651908875,0.1070999950170517,-0.06200000165415938,-0.16699999283666295,-0.05999999686717535
-0.05101565271615982,0.12374191731214523,9.910654067993164,-0.45979997515678406,0.14239999651908875,0.09730000048875809,0.013000000266153095,0.14399999781730613,0.03400000133744912
-0.041151538491249084,0.12368446588516235,9.907934188842773,-0.4488999843597412,0.142099991440773,0.09719999879598618,-0.4319999934519184,-0.048000001495804245,0.09600000299160849
-0.043306320905685425,0.11798626184463501,9.929243087768555,-0.4486999809741974,0.14319999516010284,0.1168999969959259,-0.009999999755783667,0.048000001495804245,-0.007999999971379599
-0.04431188479065895,0.1304265260696411,9.916629791259766,-0.4478999972343445,0.15279999375343323,0.10700000077486038,0.12299999424472013,0.18799999640924894,-0.16899999762364695
-0.049138594418764114,0.12703633308410645,9.91025161743164,-0.4567999839782715,0.15230000019073486,0.09719999879598618,0.029999998433587676,-0.18199999538851008,-0.20200000323771067
-0.05523902177810669,0.11797668784856796,9.908384323120117,-0.4569999873638153,0.14229999482631683,0.09719999879598618,0.10299999973573276,0.13100000005244303,0.12299999424472013
-0.052806511521339417,0.1139640063047409,9.90237045288086,-0.4558999836444855,0.13199999928474426,0.08729999512434006,0.10900000075647161,0.11099999887334903,-0.03599999945432653
-0.06154056265950203,0.12254482507705688,9.911094665527344,-0.46459999680519104,0.1412999927997589,0.09709999710321426,-0.02800000031671026,0.05600000063342052,0.10100000161885533
-0.0390925258398056,0.11909716576337814,9.90361499786377,-0.4440999925136566,0.1410999894142151,0.09699999541044235,0.09500000059811649,0.0030000000934877653,0.0329999989439571
-0.05996038764715195,0.13181516528129578,9.914571762084961,-0.46289998292922974,0.15039999783039093,0.10679999738931656,0.22299999347008345,-0.3259999932058162,0.0429999995335041
-0.061598021537065506,0.12497732788324356,9.920422554016113,-0.4635999798774719,0.14959999918937683,0.10679999738931656,0.14799999405106096,0.21299999621558977,0.02800000031671026
-0.05566997826099396,0.10137049853801727,9.899430274963379,-0.4528999924659729,0.11969999969005585,0.08720000088214874,-0.08400000095013078,0.0329999989439571,0.03999999902313467
-0.04952166602015495,0.12159671634435654,9.925440788269043,-0.4520999789237976,0.13939999043941498,0.11659999936819077,-0.16999999334703236,-0.20800000425844953,-0.03100000082707969
-0.04388092830777168,0.13279201090335846,9.918909072875977,-0.4424999952316284,0.14949999749660492,0.10679999738931656,-0.19799999366374263,0.024999999806340833,-0.11699999322398127
-0.048832137137651443,0.1269022673368454,9.88725757598877,-0.4518999755382538,0.14989998936653137,0.07729999721050262,0,-0.03899999996469596,-0.057000003026912535
-0.05682877078652382,0.12368446588516235,9.916199684143066,-0.4512999951839447,0.14959999918937683,0.10669999569654465,0.16800000190026157,0.128999995265459,-0.149999998838045
-0.04078762233257294,0.12813767790794373,9.931550979614258,-0.4505999982357025,0.1396999955177307,0.10669999569654465,0.13100000005244303,0.20099999417411205,0
-0.038996756076812744,0.11924082040786743,9.930947303771973,-0.4390999972820282,0.13859999179840088,0.11639999598264694,-0.029999998433587676,0.2890000046982109,-0.0269999995907449
-0.05007712170481682,0.12389514595270157,9.915241241455078,-0.4477999806404114,0.13849999010562897,0.10659999400377274,-0.13499999628619785,0.17400000292100043,-0.035000000395887826
-0.057384226471185684,0.12237243354320526,9.91566276550293,-0.4465000033378601,0.1386999934911728,0.10649999976158142,-0.23399998644796255,-0.05600000063342052,0.07699999753589991
-0.05027823522686958,0.11809160560369492,9.901317596435547,-0.4461999833583832,0.13910000026226044,0.08689999580383301,0.12100000279794933,0.09600000299160849,0.06899999839828364
-0.052174441516399384,0.12834836542606354,9.90513801574707,-0.44519999623298645,0.14829999208450317,0.09669999778270721,0.18199999538851008,0.2899999870813831,0.03999999902313467
-0.041362229734659195,0.1265287697315216,9.89789867401123,-0.4341999888420105,0.1476999968290329,0.0867999941110611,0.007000000079177565,-0.34800000584200086,0.05300000012305109
-0.04080677404999733,0.11597512662410736,9.912023544311523,-0.43469998240470886,0.13769999146461487,0.10639999806880951,0.023000000021936765,0.2770000026567332,-0.01700000066872456
-0.05251920595765114,0.11580274999141693,9.909534454345703,-0.4432999789714813,0.13750000298023224,0.0965999960899353,0.024999999806340833,-0.12199999852133472,-0.08200000283325337
-0.05231809616088867,0.13849978148937225,9.914475440979004,-0.44279998540878296,0.15680000185966492,0.10639999806880951,0.14600000260429016,-0.021999999295971403,0.008999999863581633
-0.04383304715156555,0.11945150792598724,9.917147636413574,-0.43230000138282776,0.13650000095367432,0.1062999963760376,0.07199999890865307,-0.1509999945614304,0.06200000165415938
-0.0515327975153923,0.12195105850696564,9.90220832824707,-0.4415999948978424,0.13599999248981476,0.08669999986886978,-0.10299999973573276,0.19699999794035722,0.11099999887334903
-0.041266459971666336,0.1258009374141693,9.911707878112793,-0.4307999908924103,0.1459999978542328,0.09649999439716339,0.19600000221697184,0.024999999806340833,0.031999999885518396
-0.06227797269821167,0.1382412165403366,9.91081714630127,-0.4494999945163727,0.15489999949932098,0.09640000015497208,0.0039999999856897995,0.0859999990670082,-0.07300000130214508
-0.05004839226603508,0.1142321527004242,9.90851879119873,-0.43860000371932983,0.12520000338554382,0.09640000015497208,-0.23000000355442093,0.009999999755783667,-0.09099999769425504
-0.04673481732606888,0.12655749917030334,9.919426918029785,-0.4283999800682068,0.1453000009059906,0.10619999468326569,-0.03400000133744912,0.16599999711327754,-0.013000000266153095
-0.04519294947385788,0.13123098015785217,9.905550003051758,-0.4271000027656555,0.14509999752044678,0.09629999846220016,0.0749999994190225,0.03899999996469596,0.013000000266153095
-0.04625597596168518,0.11854171752929688,9.928888320922852,-0.4262999892234802,0.13490000367164612,0.11589999496936798,-0.04600000004387353,0.20800000425844953,0.035000000395887826
-0.05705861747264862,0.12074437737464905,9.925105094909668,-0.43469998240470886,0.1348000019788742,0.11580000072717667,-0.06800000267489824,0.3059999986968288,0.004999999877891834
-0.04604528844356537,0.12422076612710953,9.906545639038086,-0.4236999750137329,0.1348000019788742,0.09619999676942825,-0.26300000916848465,0.12199999852133472,0.10299999973573276
-0.044896069914102554,0.12853990495204926,9.900981903076172,-0.42289999127388,0.1451999992132187,0.08630000054836273,0.013000000266153095,-0.038000000906257256,0.02600000053230619
-0.06394433975219727,0.11791922152042389,9.910472869873047,-0.44179999828338623,0.13499999046325684,0.09609999507665634,0.0539999991814898,0.16699999283666295,0.06399999977103679
-0.0669323056936264,0.12195105850696564,9.914034843444824,-0.4404999911785126,0.1347000002861023,0.10589999705553055,-0.02600000053230619,0.1930000017066024,-0.09399999820462447
-0.0524904802441597,0.12572431564331055,9.923008918762207,-0.4390999972820282,0.14429999887943268,0.10579999536275864,-0.07300000130214508,0.17100000241063099,0.08899999957737763
-0.054511185735464096,0.12412498891353607,9.918526649475098,-0.42819997668266296,0.14419999718666077,0.11559999734163284,0.0659999978879142,0.19900000272734125,0.11299999699022645
-0.051743488758802414,0.12871228158473969,9.914791107177734,-0.4260999858379364,0.14389999210834503,0.10569999366998672,0.13600000534979648,0.0030000000934877653,-0.21899999723632863
-0.05926128104329109,0.12820471823215485,9.915318489074707,-0.43539997935295105,0.14329999685287476,0.10569999366998672,0.17400000292100043,-0.0429999995335041,0.09999999922536333
-0.04558560252189636,0.10999920964241028,9.913766860961914,-0.43539997935295105,0.14329999685287476,0.10569999366998672,-0.12700000381868817,0.21299999621558977,0.06500000216452881
-0.05104437842965126,0.11680831015110016,9.90721607208252,-0.42399999499320984,0.13289999961853027,0.0957999974489212,-0.3240000017590454,0.007999999971379599,-0.1719999981340164
-0.04877467826008797,0.11867579072713852,9.917195320129395,-0.4235000014305115,0.13359999656677246,0.10559999942779541,-0.07000000079177565,-0.057000003026912535,0.05600000063342052
-0.045202530920505524,0.12508267164230347,9.914264678955078,-0.4129999876022339,0.14329999685287476,0.10559999942779541,0.06299999737754478,0.07399999702553048,-0.08200000283325337
-0.07189308851957321,0.12072522938251495,9.918153762817383,-0.4413999915122986,0.1331000030040741,0.1054999977350235,0.1199999937343507,0.11500000177721047,0.1610000051561373
-0.043421242386102676,0.13332830369472504,9.920747756958008,-0.41110000014305115,0.14239999651908875,0.1054999977350235,0.09200000008774706,0.05900000114378995,0.043999998591942806
-0.05272989720106125,0.10674308985471725,9.903117179870605,-0.41990000009536743,0.12229999899864197,0.09559999406337738,-0.10100000161885533,0.08299999855663877,-0.08700000146050021
-0.05636908486485481,0.1180245652794838,9.914380073547363,-0.4188999831676483,0.13210000097751617,0.10539999604225159,0.019000000453128628,-0.05999999686717535,-0.06200000165415938
-0.05381207540631294,0.12077310681343079,9.905904769897461,-0.4180999994277954,0.13179999589920044,0.09559999406337738,0.010999999647985701,-0.019999999511567335,0.11699999322398127
-0.061693791300058365,0.11096645891666412,9.922405242919922,-0.42719998955726624,0.1216999962925911,0.11509999632835388,0.17400000292100043,-0.07099999651516105,0.09800000110848592
-0.05623500794172287,0.1272183060646057,9.920891761779785,-0.41679999232292175,0.1404999941587448,0.10529999434947968,0.22299999347008345,0.2609999910412874,-0.1400000015835513
-0.06518932431936264,0.12390472739934921,9.908374786376953,-0.42549997568130493,0.12999999523162842,0.09549999982118607,-0.20800000425844953,-0.019000000453128628,0.0749999994190225
-0.04978024214506149,0.1144619956612587,9.914772033691406,-0.4148999750614166,0.12049999833106995,0.10520000010728836,-0.09300000248123906,-0.04200000047506539,-0.07099999651516105
-0.0428849421441555,0.12545616924762726,9.895207405090332,-0.4043000042438507,0.14000000059604645,0.08559999614953995,0.07900000232288394,-0.1180000022875799,-0.007999999971379599
-0.038498762995004654,0.11330319941043854,9.911937713623047,-0.40369999408721924,0.11989999562501907,0.09539999812841415,-0.24099999653230003,-0.1620000008795227,-0.12700000381868817
-0.0580546036362648,0.12293747067451477,9.914935111999512,-0.42329999804496765,0.13030000030994415,0.10520000010728836,0.11500000177721047,0.12199999852133472,0.013000000266153095
-0.0499909333884716,0.12563812732696533,9.907282829284668,-0.4122999906539917,0.1394999921321869,0.09529999643564224,0.07000000079177565,-0.10199999734224074,-0.02899999937514897
-0.05588066950440407,0.12518802285194397,9.932010650634766,-0.41179999709129333,0.13910000026226044,0.12469999492168427,-0.15900000036915327,0.04900000055424296,0.021000000237532696
-0.05132210999727249,0.12815682590007782,9.920441627502441,-0.4108999967575073,0.13920000195503235,0.10509999841451645,0.0969999987149939,-0.18199999538851008,0.0659999978879142
-0.0527203232049942,0.12106041610240936,9.922845840454102,-0.4105999767780304,0.12889999151229858,0.11490000039339066,0.28499999512424284,0.11099999887334903,0.03999999902313467
-0.05377376824617386,0.1306946873664856,9.916380882263184,-0.4096999764442444,0.13769999146461487,0.10499999672174454,0.12100000279794933,0.03899999996469596,0.0539999991814898
-0.04191768169403076,0.11306378245353699,9.912847518920898,-0.4283999800682068,0.12729999423027039,0.10499999672174454,0.1390000058601659,0.16899999762364695,0.07199999890865307
-0.04193683713674545,0.12162545323371887,9.911401748657227,-0.3967999815940857,0.1265999972820282,0.09510000050067902,-0.5829999746731356,-0.049999999612681666,-0.09300000248123906
-0.05177221819758415,0.12166375666856766,9.899430274963379,-0.40619999170303345,0.12799999117851257,0.08529999852180481,0.15500000413539844,0.12299999424472013,-0.01700000066872456
-0.04400542750954628,0.12331096827983856,9.923449516296387,-0.40619999170303345,0.12799999117851257,0.08529999852180481,-0.038000000906257256,0.13799999679656727,-0.07900000232288394
-0.04916732758283615,0.11901097744703293,9.913451194763184,-0.40389999747276306,0.12709999084472656,0.10480000078678131,0.07799999992939192,-0.06500000216452881,-0.09300000248123906
-0.046811431646347046,0.11467268317937851,9.925919532775879,-0.3935000002384186,0.11679999530315399,0.11459999531507492,-0.22700000304405152,-0.05900000114378995,-0.02600000053230619
-0.061530981212854385,0.1039179340004921,9.905932426452637,-0.41269999742507935,0.10740000009536743,0.0949999988079071,0.07199999890865307,0.031999999885518396,-0.024999999806340833
-0.049636587500572205,0.12248735874891281,9.924684524536133,-0.40199998021125793,0.1265999972820282,0.11459999531507492,-0.2039999946844815,-0.01700000066872456,-0.0659999978879142
-0.05300762504339218,0.11088027060031891,9.926255226135254,-0.40129998326301575,0.11719999462366104,0.11449999362230301,0.07600000181251451,0.13499999628619785,-0.06899999839828364
-0.04898536577820778,0.12410584092140198,9.907092094421387,-0.3999999761581421,0.1264999955892563,0.09489999711513519,-0.02600000053230619,0.04500000098543482,-0.06200000165415938
-0.05007712170481682,0.13359645009040833,9.916467666625977,-0.39899998903274536,0.13609999418258667,0.10459999740123749,0.12299999424472013,0.029999998433587676,0
-0.0453844889998436,0.11608047783374786,9.910845756530762,-0.38819998502731323,0.1256999969482422,0.09479999542236328,0.07099999651516105,-0.12799999954207358,-0.04900000055424296
-0.041103653609752655,0.11902055144309998,9.9059419631958,-0.38769999146461487,0.12520000338554382,0.09479999542236328,0.16400000566650674,0.128999995265459,0.024999999806340833
-0.050086699426174164,0.12763968110084534,9.906393051147461,-0.3960999846458435,0.13419999182224274,0.09470000118017197,-0.17899999487814064,-0.010999999647985701,-0.024999999806340833
-0.04552813991904259,0.1161283552646637,9.918478965759277,-0.3854999840259552,0.12449999898672104,0.10449999570846558,0.5249999825929442,-0.06700000028140622,-0.08100000043976135
-0.0513029545545578,0.12944012880325317,9.914093017578125,-0.39489999413490295,0.13259999454021454,0.10449999570846558,-0.27200001069959295,-0.03400000133744912,0.11400000605382507
-0.051245495676994324,0.1179000735282898,9.914667129516602,-0.3944000005722046,0.1233999952673912,0.10449999570846558,0.08899999957737763,0.05799999875029794,0.08200000283325337
-0.053994037210941315,0.11720095574855804,9.914973258972168,-0.3933999836444855,0.12289999425411224,0.10439999401569366,-0.06899999839828364,-0.10600000024610218,-0.05300000012305109
-0.044608764350414276,0.1290666162967682,9.909390449523926,-0.382999986410141,0.13259999454021454,0.09459999948740005,0.29999999767609,-0.048000001495804245,-0.06500000216452881
-0.04262636601924896,0.1253412514925003,9.90661334991455,-0.3823999762535095,0.13159999251365662,0.09459999948740005,0.3669999912873896,-0.1070000026395942,-0.048000001495804245
-0.04374685138463974,0.10810299962759018,9.910941123962402,-0.382099986076355,0.11069999635219574,0.09459999948740005,0.36399999077702017,-0.18600000496247812,-0.11299999699022645
-0.04009808972477913,0.13014879822731018,9.909026145935059,-0.38199999928474426,0.1290999948978424,0.09459999948740005,-0.09000000197086964,-0.09099999769425504,0.046999999102312236
-0.03983951732516289,0.12143390625715256,9.90949535369873,-0.3813000023365021,0.1193000003695488,0.09449999779462814,-0.03100000082707969,-0.013000000266153095,-0.06200000165415938
-0.04748180881142616,0.13382630050182343,9.898262023925781,-0.38040000200271606,0.11899999529123306,0.09449999779462814,0.008999999863581633,-0.3989999878378547,0.012000000373951061
-0.04263594374060631,0.13215993344783783,9.896749496459961,-0.3790999948978424,0.12849999964237213,0.08460000157356262,-0.019999999511567335,0.017999999727163266,0.05900000114378995
-0.04168783873319626,0.12832920253276825,9.906478881835938,-0.37959998846054077,0.1282999962568283,0.08469999581575394,0.22299999347008345,-0.13700000107318186,-0.06800000267489824
-0.04942589998245239,0.12276508659124374,9.903117179870605,-0.3880999982357025,0.11729999631643295,0.09439999610185623,-0.2959999881021219,-0.20899999998183494,0.0039999999856897995
-0.04711788892745972,0.1235886886715889,9.886079788208008,-0.3782999813556671,0.11800000071525574,0.07479999959468842,0.03599999945432653,-0.27899999410350396,-0.04200000047506539
-0.05583278089761734,0.12200852483510971,9.886751174926758,-0.3880999982357025,0.11769999563694,0.07479999959468842,-0.1509999945614304,-0.10900000075647161,-0.04500000098543482
-0.05385996401309967,0.11626243591308594,9.907044410705566,-0.38749998807907104,0.11779999732971191,0.09439999610185623,-0.5560000234406636,-0.07699999753589991,-0.07699999753589991
-0.06021896004676819,0.11984416097402573,9.902801513671875,-0.3967999815940857,0.11909999698400497,0.09439999610185623,0.11099999887334903,0.1189999980109653,-0.15399999507179982
-0.0479893796145916,0.12780249118804932,9.888694763183594,-0.3854999840259552,0.1281999945640564,0.0746999979019165,0.20299999896109608,0.019000000453128628,-0.06099999926066736
-0.06057330220937729,0.1195664256811142,9.898452758789062,-0.39419999718666077,0.11739999800920486,0.08449999988079071,0.1830000044521087,0.2399999874687014,0.07399999702553048
-0.053429003804922104,0.11559205502271652,9.900550842285156,-0.3831000030040741,0.11669999361038208,0.0843999981880188,0.07699999753589991,0.08700000146050021,0.09300000248123906
-0.061310719698667526,0.12668199837207794,9.879241943359375,-0.39139997959136963,0.125900000333786,0.06480000168085098,0.08700000146050021,0.19900000272734125,0.017999999727163266
-0.05037400498986244,0.12352165579795837,9.88535213470459,-0.3798999786376953,0.11549999564886093,0.07449999451637268,0.3139999911643385,0.015999999942759198,0.12299999424472013
-0.05501875653862953,0.13914142549037933,9.886463165283203,-0.3791999816894531,0.1340000033378601,0.07449999451637268,0.4459999869401669,0.4759999920438612,0.06899999839828364
-0.04770207777619362,0.12568601965904236,9.891212463378906,-0.36719998717308044,0.1225999966263771,0.07440000027418137,0.1390000058601659,-0.2609999910412874,0.09500000059811649
-0.04345954954624176,0.12954546511173248,9.898626327514648,-0.36719998717308044,0.12199999392032623,0.08419999480247498,0.1419999930303221,0.03999999902313467,0.023000000021936765
-0.05646485090255737,0.12064861506223679,9.88895320892334,-0.3756999969482422,0.11149999499320984,0.07440000027418137,0.057000003026912535,-0.09800000110848592,0.09600000299160849
-0.044991835951805115,0.1289229691028595,9.891222953796387,-0.3650999963283539,0.12079999595880508,0.07429999858140945,0.06299999737754478,-0.14399999781730613,-0.07099999651516105
-0.05929001420736313,0.11607089638710022,9.900138854980469,-0.3840999901294708,0.11050000041723251,0.08410000056028366,-0.2399999874687014,-0.021000000237532696,-0.13300000483942703
-0.05815994739532471,0.12312900274991989,9.902235984802246,-0.38339999318122864,0.11099999397993088,0.08410000056028366,-0.10100000161885533,0.21200000049220435,0.12700000381868817
-0.05589982122182846,0.12097422033548355,9.91122817993164,-0.3725000023841858,0.11099999397993088,0.09389999508857727,0.049999999612681666,0.18700000068586353,-0.12400000330831876
-0.05033569782972336,0.12598289549350739,9.88273811340332,-0.37129998207092285,0.12039999663829803,0.06439999490976334,0.1849999958988795,-0.14699999832767557,-0.07600000181251451
-0.05846640467643738,0.12627018988132477,9.898347854614258,-0.3807999789714813,0.11969999969005585,0.08399999886751175,0.29800000622931916,0.1719999981340164,-0.012000000373951061
-0.058073755353689194,0.1137533113360405,9.879961013793945,-0.37959998846054077,0.0989999994635582,0.06439999490976334,-0.2729999930827651,-0.128999995265459,-0.035000000395887826
-0.040797196328639984,0.12401964515447617,9.889412879943848,-0.3596999943256378,0.11919999867677689,0.08399999886751175,0.08100000043976135,0.07199999890865307,-0.007000000079177565
-0.04526956379413605,0.11602301895618439,9.884212493896484,-0.35760000348091125,0.10899999737739563,0.07409999519586563,0.2250000115972807,-0.17100000241063099,-0.07600000181251451
-0.0581790991127491,0.12661495804786682,9.888254165649414,-0.37700000405311584,0.11789999902248383,0.07409999519586563,-0.15999999609253868,0.12199999852133472,0.09000000197086964
-0.055909398943185806,0.12416329979896545,9.876388549804688,-0.36559998989105225,0.10819999873638153,0.06419999897480011,0.0329999989439571,0.10900000075647161,0.05900000114378995
-0.05566997826099396,0.12817597389221191,9.890226364135742,-0.36409997940063477,0.11749999970197678,0.07400000095367432,-0.0030000000934877653,-0.021000000237532696,0.0030000000934877653
-0.06302496790885925,0.11083238571882248,9.8955717086792,-0.37289997935295105,0.09759999811649323,0.08379999548196793,0.05900000114378995,0.2609999910412874,-0.14300000209392072
-0.0490524061024189,0.11847467720508575,9.88247013092041,-0.36169999837875366,0.10700000077486038,0.0640999972820282,-0.07300000130214508,-0.26600000967885407,-0.04200000047506539
-0.04863102361559868,0.12107956409454346,9.897323608398438,-0.36169999837875366,0.10700000077486038,0.08370000123977661,-0.05300000012305109,-0.2519999895101791,-0.1939999974299878
-0.06296750903129578,0.11163683235645294,9.892698287963867,-0.3714999854564667,0.09699999541044235,0.0738999992609024,-0.0019999999928448997,0.0019999999928448997,0.05799999875029794
-0.05617754906415939,0.12555193901062012,9.885908126831055,-0.3604999780654907,0.11629999428987503,0.0738999992609024,-0.0429999995335041,0.2770000026567332,-0.06700000028140622
-0.05634992942214012,0.11533348262310028,9.897323608398438,-0.35909998416900635,0.1062999963760376,0.0835999995470047,0.11699999322398127,-0.06899999839828364,-0.05900000114378995
-0.052643708884716034,0.12414415180683136,9.89167308807373,-0.35819998383522034,0.10569999366998672,0.0737999975681305,-0.11299999699022645,0.0009999999964224499,0.015999999942759198
-0.05156152695417404,0.12480494379997253,9.900713920593262,-0.3570999801158905,0.11539999395608902,0.0835999995470047,-0.19200000598321698,0.283000003677472,-0.008999999863581633
-0.051101841032505035,0.12354081124067307,9.902523040771484,-0.3555999994277954,0.10589999705553055,0.093299999833107,0.0009999999964224499,0.014999999216793838,0.05799999875029794
-0.05436753109097481,0.14172716438770294,9.907934188842773,-0.3545999825000763,0.12520000338554382,0.093299999833107,-0.09500000059811649,0.16899999762364695,-0.031999999885518396
-0.05436753109097481,0.11582189798355103,9.896902084350586,-0.3531999886035919,0.1054999977350235,0.08339999616146088,0.19499999315337319,-0.22199999774669807,-0.08799999718388561
-0.04450342059135437,0.1293826550245285,9.891768455505371,-0.3432999849319458,0.11449999362230301,0.07360000163316727,0.10499999785261017,0.10100000161885533,0.023000000021936765
-0.051293376833200455,0.13692918419837952,9.88709545135498,-0.3515999913215637,0.12359999865293503,0.07360000163316727,0.20099999417411205,0.02800000031671026,0.07699999753589991
-0.04392881318926811,0.11377246677875519,9.895282745361328,-0.3407000005245209,0.09339999407529831,0.08329999446868896,0.05099999867112037,0.03100000082707969,0.006000000186975531
-0.05263412743806839,0.12519758939743042,9.888092041015625,-0.34929999709129333,0.11249999701976776,0.07349999994039536,-0.30700000776042746,0.14900000311465958,-0.0269999995907449
-0.04353616386651993,0.13976392149925232,9.902121543884277,-0.3382999897003174,0.12269999831914902,0.08329999446868896,0.05600000063342052,0.12799999954207358,-0.05600000063342052
-0.04580586776137352,0.10734643042087555,9.899267196655273,-0.3369999825954437,0.09290000051259995,0.08320000022649765,-0.13400000056281244,-0.049999999612681666,-0.0009999999964224499
-0.03808695822954178,0.12930604815483093,9.90491771697998,-0.3263999819755554,0.11259999871253967,0.09299999475479126,-0.30400000725005805,-0.0039999999856897995,0.0269999995907449
-0.053850382566452026,0.12799403071403503,9.901604652404785,-0.34529998898506165,0.11309999972581863,0.08320000022649765,-0.0429999995335041,0.12199999852133472,0.038000000906257256
-0.049914319068193436,0.1263180822134018,9.899133682250977,-0.33409997820854187,0.1030999943614006,0.08309999853372574,0.22700000304405152,0.019000000453128628,0.0659999978879142
-0.06691315025091171,0.1214626356959343,9.902600288391113,-0.3515999913215637,0.10209999978542328,0.09290000051259995,-0.11200000126684104,-0.12199999852133472,-0.024999999806340833
-0.053429003804922104,0.13076171278953552,9.901134490966797,-0.34109997749328613,0.11189999431371689,0.08309999853372574,-0.03899999996469596,-0.15900000036915327,-0.09999999922536333
-0.05869624763727188,0.11450988054275513,9.908930778503418,-0.35040000081062317,0.09209999442100525,0.09279999881982803,-0.09099999769425504,-0.16400000566650674,-0.007999999971379599
-0.04543237388134003,0.12425906956195831,9.90797233581543,-0.3303999900817871,0.10189999639987946,0.09279999881982803,0.13400000056281244,-0.12599999475508955,-0.1749999986443858
-0.05270116776227951,0.12223836779594421,9.896653175354004,-0.33969998359680176,0.10130000114440918,0.08299999684095383,0.015999999942759198,-0.13799999679656727,0.012000000373951061
-0.04638047516345978,0.11759361624717712,9.906373023986816,-0.3292999863624573,0.10099999606609344,0.09279999881982803,0.05300000012305109,-0.035000000395887826,-0.06299999737754478
-0.059749700129032135,0.10972147434949875,9.900080680847168,-0.3479999899864197,0.09079999476671219,0.08299999684095383,0.08400000095013078,-0.12499999903170415,-0.1079999983629796
-0.03959051892161369,0.1240483745932579,9.9111328125,-0.3278000056743622,0.10009999573230743,0.09279999881982803,0.01400000015835513,0.03699999851276524,-0.007999999971379599
-0.044398076832294464,0.10939586907625198,9.897964477539062,-0.32670000195503235,0.08989999443292618,0.08289999514818192,-0.029999998433587676,0.049999999612681666,0.14699999832767557
-0.05687665566802025,0.11722011864185333,9.901144981384277,-0.3352999985218048,0.09950000047683716,0.08289999514818192,0.28600000418784144,0.13100000005244303,0.03999999902313467
-0.05197333171963692,0.11934617161750793,9.906881332397461,-0.334199994802475,0.09849999845027924,0.09269999712705612,0.05499999823992851,-0.12599999475508955,-0.05200000106461238
-0.05961562320590019,0.12242031842470169,9.906852722167969,-0.3434000015258789,0.09799999743700027,0.09259999543428421,-0.07799999992939192,0.019000000453128628,-0.0329999989439571
-0.04872678965330124,0.12185529619455338,9.903491020202637,-0.3325999975204468,0.09799999743700027,0.09259999543428421,0.22199999774669807,0.20899999998183494,-0.035000000395887826
-0.05422388017177582,0.12235328555107117,9.903692245483398,-0.3310999870300293,0.09699999541044235,0.09259999543428421,-0.1939999974299878,-0.1830000044521087,0.03699999851276524
-0.06817728281021118,0.12622231245040894,9.913575172424316,-0.35029998421669006,0.10700000077486038,0.10239999741315842,0.18099999966512467,0.19000000119623298,0.1180000022875799
-0.039820361882448196,0.12732364237308502,9.916352272033691,-0.319599986076355,0.10619999468326569,0.1022999957203865,-0.17899999487814064,0.28799999563461226,0.02899999937514897
-0.05289270356297493,0.12078268080949783,9.923995018005371,-0.3278000056743622,0.09669999778270721,0.11209999769926071,0.19099999691961836,0.28600000418784144,-0.5149999986786638
