Accelerometer_Gx,Accelerometer_Gy,Accelerometer_Gz,Accelerometer_X,Accelerometer_Y,Accelerometer_Z,Gyroscope_Z,Gyroscope_X,Gyroscope_Y
0.346954345703125,0.1028900146484375,9.65264892578125,0.2843935489654541,-0.5175732374191284,0.09896532446146011,-0.004371321068808161,-0.018359548488994275,-0.03147351169541876
0.2727813720703125,0.16510009765625,9.68853759765625,0.27088049054145813,-0.4903324842453003,0.12620019912719727,-0.004371321068808161,-0.018359548488994275,-0.03147351169541876
0.2847442626953125,0.15313720703125,9.669403076171875,0.31174153089523315,-0.5311935544013977,0.12620019912719727,-0.004371321068808161,-0.018359548488994275,-0.03147351169541876
0.2464599609375,0.169891357421875,9.671783447265625,0.31174153089523315,-0.5311935544013977,0.12620019912719727,-0.004371321068808161,-0.018359548488994275,-0.03147351169541876
0.2679901123046875,0.181854248046875,9.669403076171875,0.31174153089523315,-0.5311935544013977,0.12620019912719727,-0.07431245816973873,-0.018359548488994275,0.03934188961927344
0.2584228515625,0.1722869873046875,9.671783447265625,0.3253580331802368,-0.5311935544013977,0.1125757023692131,-0.004371321068808161,-0.018359548488994275,0.10840876250644238
0.2608184814453125,0.18902587890625,9.669403076171875,0.3253537714481354,-0.5311935544013977,0.11257153749465942,-0.1442535952706693,-0.08917494980368648,0.10840876250644238
0.251251220703125,0.17706298828125,9.674179077148438,0.32567185163497925,-0.5311935544013977,0.12616528570652008,0.0655698160321224,-0.08917494980368648,0.03934188961927344
0.2584228515625,0.1842498779296875,9.681365966796875,0.31226640939712524,-0.544813871383667,0.11253246665000916,-0.07431245816973873,-0.018359548488994275,0.10840876250644238
0.2584228515625,0.157928466796875,9.693328857421875,0.31226640939712524,-0.544813871383667,0.11253246665000916,-0.1442535952706693,0.050707324398174665,-0.03147351169541876
0.2799530029296875,0.1483612060546875,9.693328857421875,0.3122623562812805,-0.544813871383667,0.11252831667661667,-0.07431245816973873,-0.018359548488994275,-0.03147351169541876
0.2488555908203125,0.181854248046875,9.659820556640625,0.3258827030658722,-0.5311935544013977,0.09889549762010574,-0.07431245816973873,-0.08917494980368648,0.03934188961927344
0.2679901123046875,0.1674957275390625,9.690933227539062,0.32599011063575745,-0.544813871383667,0.1261262148618698,-0.1442535952706693,-0.018359548488994275,-0.10141464879634933
0.2560272216796875,0.18902587890625,9.674179077148438,0.32599011063575745,-0.544813871383667,0.1261262148618698,-0.07431245816973873,-0.018359548488994275,0.10840876250644238
0.2464599609375,0.1722869873046875,9.67657470703125,0.3123737871646881,-0.558434247970581,0.1124892309308052,-0.1442535952706693,-0.08917494980368648,0.03934188961927344
0.253631591796875,0.169891357421875,9.683746337890625,0.3260974884033203,-0.544813871383667,0.11247511208057404,-0.07431245816973873,0.050707324398174665,0.03934188961927344
0.2943115234375,0.15313720703125,9.683746337890625,0.3260974884033203,-0.544813871383667,0.11247511208057404,-0.004371321068808161,-0.018359548488994275,0.10840876250644238
0.263214111328125,0.1722869873046875,9.683746337890625,0.2852284610271454,-0.5175732374191284,0.11247511208057404,-0.004371321068808161,-0.08917494980368648,0.03934188961927344
0.253631591796875,0.169891357421875,9.68853759765625,0.32619279623031616,-0.5311935544013977,0.09884811192750931,0.0655698160321224,-0.018359548488994275,-0.03147351169541876
0.263214111328125,0.16510009765625,9.68853759765625,0.32619279623031616,-0.5311935544013977,0.09884811192750931,-0.1442535952706693,-0.018359548488994275,-0.03147351169541876
0.253631591796875,0.181854248046875,9.683746337890625,0.3261968493461609,-0.5311935544013977,0.1124643012881279,-0.004371321068808161,-0.08917494980368648,0.10840876250644238
0.2703857421875,0.1746826171875,9.702896118164062,0.32651486992836,-0.544813871383667,0.11243769526481628,0.0655698160321224,-0.08917494980368648,0.03934188961927344
0.2321014404296875,0.1794586181640625,9.66461181640625,0.3132125437259674,-0.544813871383667,0.0987982302904129,0.0655698160321224,-0.018359548488994275,-0.10141464879634933
0.2679901123046875,0.1914215087890625,9.690933227539062,0.32694438099861145,-0.544813871383667,0.1124160885810852,-0.1442535952706693,-0.22905722400554762,0.03934188961927344
0.2608184814453125,0.169891357421875,9.66461181640625,0.3136543929576874,-0.544813871383667,0.09876497834920883,0.0655698160321224,0.050707324398174665,0.03934188961927344
0.263214111328125,0.1746826171875,9.695724487304688,0.31365013122558594,-0.544813871383667,0.09876497834920883,-0.21419473237159986,-0.29987262532023984,0.10840876250644238
0.2679901123046875,0.17706298828125,9.698104858398438,0.31354275345802307,-0.5311935544013977,0.09875915199518204,0.20545209023398356,-0.08917494980368648,0.1792241638211346
0.2488555908203125,0.157928466796875,9.667007446289062,0.3136378824710846,-0.5311935544013977,0.09875666350126266,-0.4248924078881532,-0.29987262532023984,-0.03147351169541876
0.2584228515625,0.1627044677734375,9.669403076171875,0.3136378824710846,-0.5311935544013977,0.09874086081981659,0.0655698160321224,0.4703541470037581,-0.311238060099141
0.287139892578125,0.1603240966796875,9.68853759765625,0.32736560702323914,-0.5175732374191284,0.12597908079624176,0.3453343644358447,0.1905895986000358,0.1792241638211346
0.2823486328125,0.17706298828125,9.693328857421875,0.3002241253852844,-0.5175732374191284,0.09873255342245102,-0.49395928077532214,-0.018359548488994275,-0.24129692299821046
0.251251220703125,0.1746826171875,9.66461181640625,0.30023226141929626,-0.5175732374191284,0.09870760887861252,-0.21419473237159986,0.6810518225203114,-0.3811791972000716
0.2679901123046875,0.169891357421875,9.707687377929688,0.31320422887802124,-0.5311935544013977,0.09874918311834335,0.27626749154867575,1.0307575080249642,-0.24129692299821046
0.2584228515625,0.1746826171875,9.669403076171875,0.313510000705719,-0.5311935544013977,0.08511386811733246,0.4161497657505369,0.7501186954074803,-0.3811791972000716
0.2608184814453125,0.169891357421875,9.68853759765625,0.313510000705719,-0.5311935544013977,0.08511386811733246,-0.35407700657346103,-0.8594017221276844,0.38817331091016466
0.2584228515625,0.15313720703125,9.714859008789062,0.3145756125450134,-0.5311935544013977,0.09866355359554291,-0.4248924078881532,-1.3489896818341984,0.5280555851120258
0.2440643310546875,0.17706298828125,9.686141967773438,0.3150092363357544,-0.5175732374191284,0.08500995486974716,0.625098912839567,-0.8594017221276844,0.6679378593138869
0.2679901123046875,0.1627044677734375,9.698104858398438,0.31469106674194336,-0.5175732374191284,0.0850457027554512,1.2554434109617036,1.0307575080249642,0.24829103670830352
0.2464599609375,0.1794586181640625,9.686141967773438,0.3142697215080261,-0.5175732374191284,0.08506149798631668,-0.8445392304937366,-1.6296284944516823,0.4589887122248569
0.263214111328125,0.1603240966796875,9.690933227539062,0.32789018750190735,-0.5311935544013977,0.11228639632463455,0.9756788625579814,-0.5088217724092698,0.8086943977295097
0.2584228515625,0.1674957275390625,9.686141967773438,0.32776227593421936,-0.5311935544013977,0.11233711242675781,-0.4248924078881532,1.3105220564286866,-1.0106494311084468
0.2656097412109375,0.1866455078125,9.710067749023438,0.31406334042549133,-0.5175732374191284,0.09867020696401596,-1.0543626417965284,-2.119216454158196,0.5280555851120258
0.2775726318359375,0.1555328369140625,9.702896118164062,0.31656262278556824,-0.544813871383667,0.08494012802839279,-1.1942449159983894,1.3105220564286866,-1.1514059695240695
0.2703857421875,0.1674957275390625,9.705291748046875,0.3144890367984772,-0.5311935544013977,0.09861616790294647,1.4661410864782571,-0.8594017221276844,1.3690977587507158
0.2775726318359375,0.1627044677734375,9.686141967773438,0.31430402398109436,-0.5311935544013977,0.08516956865787506,-1.6147660028177346,0.5411695483184503,-1.0814648324231388
0.275177001953125,0.169891357421875,9.698104858398438,0.3016044497489929,-0.5311935544013977,0.09857210516929626,2.2354935945884935,0.6102364212056193,0.6679378593138869
0.2847442626953125,0.181854248046875,9.72442626953125,0.2983086109161377,-0.5311935544013977,0.08519534021615982,1.1155611367598426,-1.1391662705314067,1.508980032952577
0.2656097412109375,0.1603240966796875,9.710067749023438,0.31468966603279114,-0.5311935544013977,0.0851612538099289,-1.6147660028177346,-0.7195194479258232,-0.3811791972000716
0.2727813720703125,0.17706298828125,9.719650268554688,0.3311431407928467,-0.5311935544013977,0.0848054513335228,-0.8445392304937366,1.590286604832409,-1.4311705179277918
0.2560272216796875,0.1746826171875,9.70050048828125,0.32897916436195374,-0.5311935544013977,0.08485034108161926,1.395325685163565,2.0807488287526845,-0.311238060099141
0.2775726318359375,0.1603240966796875,9.698104858398438,0.2935652434825897,-0.5311935544013977,0.08543974906206131,1.8149725077691483,1.0998243809121333,0.24829103670830352
0.2656097412109375,0.1914215087890625,9.71246337890625,0.3039071559906006,-0.5311935544013977,0.09951066970825195,2.5843250158793847,-0.5088217724092698,1.3690977587507158
0.2847442626953125,0.16510009765625,9.717254638671875,0.3044711649417877,-0.5175732374191284,0.09963454306125641,1.1155611367598426,-0.9284685950148533,1.4381646316378849
0.2608184814453125,0.1674957275390625,9.695724487304688,0.308389276266098,-0.5175732374191284,0.08594103157520294,3.1456026411143525,0.12152272571286686,1.2982823574360236
0.2656097412109375,0.17706298828125,9.70050048828125,0.3081374168395996,-0.5039528608322144,0.09986481070518494,3.2854849153162133,0.12152272571286686,1.2292154845488548
0.275177001953125,0.1555328369140625,9.693328857421875,0.3081374168395996,-0.5039528608322144,0.09986481070518494,0.6959143141542592,2.220631102954546,-0.3811791972000716
0.2727813720703125,0.15313720703125,9.686141967773438,0.30209577083587646,-0.5039528608322144,0.08686546236276627,-0.6338415549771833,2.0807488287526845,-1.6409939292305835
0.2703857421875,0.1674957275390625,9.693328857421875,0.2822093665599823,-0.4903324842453003,0.10075847804546356,-1.5439506015030424,-0.8594017221276844,-0.5219357356156944
0.2656097412109375,0.17706298828125,9.7220458984375,0.2823854982852936,-0.4903324842453003,0.10064958035945892,-0.4248924078881532,-1.7695107686535434,0.8786355348304403
0.2584228515625,0.1722869873046875,9.667007446289062,0.2872488796710968,-0.5039528608322144,0.07307302951812744,2.2354935945884935,0.959942106710272,0.8786355348304403
0.2703857421875,0.1627044677734375,9.707687377929688,0.29759708046913147,-0.5039528608322144,0.08703754842281342,-2.034412825423318,1.4504043306305476,-1.4311705179277918
0.2608184814453125,0.1746826171875,9.690933227539062,0.2948848009109497,-0.5039528608322144,0.0871090367436409,-1.9644716883223874,-1.3489896818341984,0.03934188961927344
0.2799530029296875,0.1603240966796875,9.707687377929688,0.29934513568878174,-0.5039528608322144,0.08671831339597702,1.7459056348819793,1.3795889293158554,-0.03147351169541876
0.2560272216796875,0.1722869873046875,9.693328857421875,0.3093832731246948,-0.5039528608322144,0.07332824915647507,-1.1942449159983894,-1.6296284944516823,0.24829103670830352
0.2727813720703125,0.1627044677734375,9.705291748046875,0.3123827278614044,-0.5175732374191284,0.0730680376291275,0.556032039952398,2.0099334274379923,-0.8707671569065856
0.251251220703125,0.1746826171875,9.695724487304688,0.297680526971817,-0.5039528608322144,0.08683469891548157,-1.3341271902002507,-0.15911608690461704,-0.1713557858972799
0.251251220703125,0.1794586181640625,9.686141967773438,0.2976533770561218,-0.5039528608322144,0.10041680932044983,-0.4248924078881532,2.3605133771564066,-1.0814648324231388
0.2560272216796875,0.1794586181640625,9.683746337890625,0.30938711762428284,-0.5175732374191284,0.0868396908044815,1.2554434109617036,-0.7195194479258232,0.5280555851120258
0.2727813720703125,0.157928466796875,9.695724487304688,0.29887351393699646,-0.5175732374191284,0.07300403714179993,1.0464942638726737,-0.8594017221276844,0.9494509361451325
0.2679901123046875,0.169891357421875,9.70050048828125,0.29866263270378113,-0.5175732374191284,0.10026467591524124,-1.4740094644021118,-1.2790485447332678,0.5280555851120258
0.2943115234375,0.1603240966796875,9.695724487304688,0.2984517812728882,-0.5175732374191284,0.10020565241575241,0.7649811870414281,0.050707324398174665,-0.03147351169541876
0.2847442626953125,0.1722869873046875,9.714859008789062,0.287401020526886,-0.5175732374191284,0.0864032506942749,0.9756788625579814,1.3105220564286866,-0.1713557858972799
0.2608184814453125,0.1387786865234375,9.717254638671875,0.28687191009521484,-0.5039528608322144,0.07275795936584473,0.625098912839567,0.40128727411658915,-0.10141464879634933
0.275177001953125,0.1722869873046875,9.693328857421875,0.28677240014076233,-0.5039528608322144,0.07276461273431778,0.3453343644358447,0.8900009696093415,-0.3811791972000716
0.2679901123046875,0.1746826171875,9.705291748046875,0.30126383900642395,-0.5039528608322144,0.07269977033138275,-0.1442535952706693,-0.7195194479258232,0.4589887122248569
0.263214111328125,0.16510009765625,9.717254638671875,0.3019161522388458,-0.5175732374191284,0.08621952682733536,0.556032039952398,-0.5088217724092698,0.38817331091016466
0.2703857421875,0.17706298828125,9.7220458984375,0.3019161522388458,-0.5175732374191284,0.08621952682733536,0.1363852173468146,0.8900009696093415,-0.1713557858972799
0.2560272216796875,0.1866455078125,9.698104858398438,0.30287477374076843,-0.5175732374191284,0.08615218847990036,0.1363852173468146,0.4703541470037581,-0.10141464879634933
0.2703857421875,0.1794586181640625,9.710067749023438,0.303308367729187,-0.5311935544013977,0.08611229062080383,-0.004371321068808161,0.6102364212056193,-0.1713557858972799
0.2679901123046875,0.1722869873046875,9.707687377929688,0.30341973900794983,-0.5311935544013977,0.08609732240438461,-0.1442535952706693,-0.5796371737239621,-0.03147351169541876
0.2775726318359375,0.1627044677734375,9.70050048828125,0.3048158586025238,-0.5175732374191284,0.08598509430885315,0.1363852173468146,-0.43975489952210095,0.1792241638211346
0.2608184814453125,0.1746826171875,9.70050048828125,0.29226940870285034,-0.5175732374191284,0.08590029925107956,0.20545209023398356,-0.22905722400554762,0.10840876250644238
0.2703857421875,0.1722869873046875,9.726821899414062,0.2929217517375946,-0.5175732374191284,0.08582215011119843,0.0655698160321224,0.12152272571286686,-0.1713557858972799
0.2679901123046875,0.169891357421875,9.71246337890625,0.30709511041641235,-0.5175732374191284,0.08575481921434402,0.4852166386377058,-0.08917494980368648,0.1792241638211346
0.263214111328125,0.1722869873046875,9.729217529296875,0.294441282749176,-0.5311935544013977,0.0720546618103981,0.0655698160321224,-0.018359548488994275,0.10840876250644238
0.263214111328125,0.181854248046875,9.731613159179688,0.29476338624954224,-0.5311935544013977,0.07201974838972092,-0.004371321068808161,0.33047187280189694,-0.03147351169541876
0.2847442626953125,0.1914215087890625,9.726821899414062,0.29520103335380554,-0.544813871383667,0.058342039585113525,0.0655698160321224,-0.15911608690461704,-0.03147351169541876
0.275177001953125,0.1627044677734375,9.698104858398438,0.30968859791755676,-0.5311935544013977,0.08550043404102325,0.1363852173468146,0.050707324398174665,0.03934188961927344
0.2823486328125,0.193817138671875,9.731613159179688,0.3100147545337677,-0.5311935544013977,0.09908587485551834,-0.07431245816973873,0.12152272571286686,0.03934188961927344
0.2656097412109375,0.1674957275390625,9.72442626953125,0.31055575609207153,-0.5311935544013977,0.08539402484893799,-0.07431245816973873,-0.22905722400554762,-0.03147351169541876
0.29193115234375,0.16510009765625,9.710067749023438,0.29791003465652466,-0.5311935544013977,0.07168057560920715,-0.1442535952706693,-0.08917494980368648,0.10840876250644238
0.2679901123046875,0.157928466796875,9.714859008789062,0.29823216795921326,-0.5311935544013977,0.07164149731397629,-0.004371321068808161,-0.08917494980368648,0.10840876250644238
0.2656097412109375,0.193817138671875,9.738784790039062,0.29888060688972473,-0.5311935544013977,0.07157083600759506,-0.004371321068808161,-0.018359548488994275,0.03934188961927344
0.2656097412109375,0.1555328369140625,9.71246337890625,0.32665830850601196,-0.5175732374191284,0.07153508812189102,0.0655698160321224,-0.018359548488994275,0.03934188961927344
0.2847442626953125,0.1842498779296875,9.72442626953125,0.32687294483184814,-0.5175732374191284,0.07152261584997177,0.1363852173468146,0.050707324398174665,0.03934188961927344
0.2847442626953125,0.157928466796875,9.705291748046875,0.31357476115226746,-0.5175732374191284,0.08514463156461716,-0.07431245816973873,0.12152272571286686,0.03934188961927344
0.287139892578125,0.181854248046875,9.731613159179688,0.3134714663028717,-0.5311935544013977,0.07152178883552551,-0.004371321068808161,-0.08917494980368648,0.03934188961927344
0.2799530029296875,0.1842498779296875,9.72442626953125,0.3134714663028717,-0.5311935544013977,0.07152178883552551,-0.004371321068808161,-0.15911608690461704,0.10840876250644238
0.2703857421875,0.169891357421875,9.717254638671875,0.300598680973053,-0.5311935544013977,0.07147856056690216,0.0655698160321224,-0.018359548488994275,-0.03147351169541876
0.2656097412109375,0.1746826171875,9.710067749023438,0.31421902775764465,-0.544813871383667,0.057858213782310486,-0.1442535952706693,-0.018359548488994275,-0.03147351169541876
0.2560272216796875,0.17706298828125,9.702896118164062,0.31432637572288513,-0.544813871383667,0.057848237454891205,0.0655698160321224,-0.018359548488994275,0.03934188961927344
0.2679901123046875,0.14117431640625,9.719650268554688,0.314433753490448,-0.5311935544013977,0.07146193087100983,-0.1442535952706693,-0.15911608690461704,-0.03147351169541876
0.2775726318359375,0.1794586181640625,9.717254638671875,0.30102813243865967,-0.5311935544013977,0.071441151201725,0.1363852173468146,-0.08917494980368648,0.10840876250644238
0.275177001953125,0.157928466796875,9.70050048828125,0.30102813243865967,-0.5311935544013977,0.071441151201725,-0.1442535952706693,-0.08917494980368648,-0.03147351169541876
0.2727813720703125,0.157928466796875,9.702896118164062,0.3149665296077728,-0.5175732374191284,0.08503822237253189,-0.004371321068808161,-0.018359548488994275,-0.03147351169541876
0.2775726318359375,0.1722869873046875,9.72442626953125,0.28783324360847473,-0.558434247970581,0.05778339132666588,0.1363852173468146,-0.08917494980368648,0.10840876250644238
0.2679901123046875,0.1722869873046875,9.717254638671875,0.2879366874694824,-0.558434247970581,0.05778505653142929,0.1363852173468146,-0.15911608690461704,0.10840876250644238
0.2775726318359375,0.16510009765625,9.7220458984375,0.315388023853302,-0.5311935544013977,0.07138462364673615,-0.004371321068808161,0.12152272571286686,-0.03147351169541876
0.2656097412109375,0.1722869873046875,9.705291748046875,0.30165618658065796,-0.5311935544013977,0.0713912695646286,-0.07431245816973873,0.1905895986000358,-0.03147351169541876
0.2703857421875,0.1746826171875,9.731613159179688,0.30165618658065796,-0.5311935544013977,0.0713912695646286,0.0655698160321224,0.050707324398174665,-0.10141464879634933
0.2847442626953125,0.1842498779296875,9.72442626953125,0.31538379192352295,-0.5311935544013977,0.07138045877218246,0.0655698160321224,0.050707324398174665,-0.03147351169541876
0.2656097412109375,0.169891357421875,9.717254638671875,0.30187085270881653,-0.544813871383667,0.07137381285429001,-0.004371321068808161,-0.22905722400554762,0.10840876250644238
0.275177001953125,0.17706298828125,9.726821899414062,0.30197829008102417,-0.544813871383667,0.07136799395084381,0.0655698160321224,-0.08917494980368648,0.10840876250644238
0.251251220703125,0.17706298828125,9.702896118164062,0.3018708825111389,-0.544813871383667,0.05774930864572525,0.1363852173468146,0.050707324398174665,0.03934188961927344
0.2727813720703125,0.1674957275390625,9.695724487304688,0.3290042579174042,-0.5311935544013977,0.057755958288908005,-0.1442535952706693,0.1905895986000358,-0.10141464879634933
0.2823486328125,0.18902587890625,9.7340087890625,0.328793466091156,-0.5311935544013977,0.05776426941156387,0.0655698160321224,0.050707324398174665,0.03934188961927344
0.2440643310546875,0.1722869873046875,9.73638916015625,0.30155277252197266,-0.544813871383667,0.07138045877218246,-0.1442535952706693,0.050707324398174665,-0.03147351169541876
0.2727813720703125,0.1674957275390625,9.719650268554688,0.3014412820339203,-0.544813871383667,0.05775928497314453,0.0655698160321224,-0.018359548488994275,0.1792241638211346
0.2799530029296875,0.1674957275390625,9.7220458984375,0.3014412820339203,-0.544813871383667,0.05775928497314453,-0.004371321068808161,0.050707324398174665,0.03934188961927344
0.2608184814453125,0.169891357421875,9.695724487304688,0.30153635144233704,-0.5311935544013977,0.07136882841587067,0.0655698160321224,-0.08917494980368648,-0.03147351169541876
0.2679901123046875,0.1722869873046875,9.726821899414062,0.31537142395973206,-0.5311935544013977,0.08497670292854309,-0.07431245816973873,-0.018359548488994275,-0.10141464879634933
0.2656097412109375,0.1746826171875,9.719650268554688,0.31537553668022156,-0.5311935544013977,0.08497254550457001,-0.004371321068808161,0.12152272571286686,0.10840876250644238
0.2679901123046875,0.1746826171875,9.717254638671875,0.3152681589126587,-0.5311935544013977,0.07135801762342453,-0.1442535952706693,-0.08917494980368648,-0.03147351169541876
0.263214111328125,0.1722869873046875,9.693328857421875,0.30164772272109985,-0.544813871383667,0.05773351341485977,-0.004371321068808161,-0.018359548488994275,0.03934188961927344
0.2703857421875,0.169891357421875,9.72442626953125,0.30164772272109985,-0.544813871383667,0.05773351341485977,-0.004371321068808161,-0.08917494980368648,0.10840876250644238
0.2727813720703125,0.1674957275390625,9.719650268554688,0.3154788017272949,-0.5311935544013977,0.08496173471212387,-0.004371321068808161,-0.018359548488994275,0.03934188961927344
0.263214111328125,0.1722869873046875,9.73638916015625,0.30185842514038086,-0.5311935544013977,0.07134139537811279,0.0655698160321224,-0.018359548488994275,0.03934188961927344
0.2775726318359375,0.1722869873046875,9.714859008789062,0.30185842514038086,-0.5311935544013977,0.07134139537811279,-0.07431245816973873,-0.018359548488994275,0.03934188961927344
0.2656097412109375,0.1746826171875,9.72442626953125,0.30185842514038086,-0.5311935544013977,0.07133723050355911,-0.004371321068808161,-0.018359548488994275,0.03934188961927344
0.2703857421875,0.1842498779296875,9.73638916015625,0.30185842514038086,-0.5175732374191284,0.08495758473873138,-0.004371321068808161,-0.018359548488994275,0.03934188961927344
0.2895355224609375,0.18902587890625,9.729217529296875,0.30185842514038086,-0.5175732374191284,0.08495758473873138,0.0655698160321224,-0.08917494980368648,0.10840876250644238
0.2679901123046875,0.1435699462890625,9.717254638671875,0.3019617199897766,-0.5175732374191284,0.07133972644805908,-0.004371321068808161,-0.018359548488994275,-0.03147351169541876
0.2703857421875,0.1603240966796875,9.719650268554688,0.3155820965766907,-0.5175732374191284,0.07133972644805908,-0.004371321068808161,-0.018359548488994275,-0.03147351169541876
0.2727813720703125,0.1722869873046875,9.72442626953125,0.3155820965766907,-0.5175732374191284,0.07133972644805908,-0.004371321068808161,-0.08917494980368648,0.03934188961927344
0.2679901123046875,0.1674957275390625,9.71246337890625,0.2884487211704254,-0.5311935544013977,0.08495259284973145,-0.07431245816973873,-0.08917494980368648,0.10840876250644238
0.2847442626953125,0.157928466796875,9.693328857421875,0.30227985978126526,-0.5175732374191284,0.08493679761886597,-0.004371321068808161,-0.08917494980368648,0.03934188961927344
0.2823486328125,0.1842498779296875,9.7220458984375,0.30227577686309814,-0.5175732374191284,0.08493679761886597,-0.07431245816973873,-0.08917494980368648,0.03934188961927344
0.2823486328125,0.1746826171875,9.717254638671875,0.302486389875412,-0.544813871383667,0.057678647339344025,-0.004371321068808161,-0.018359548488994275,0.03934188961927344
0.2703857421875,0.157928466796875,9.714859008789062,0.3161066770553589,-0.5311935544013977,0.08491518348455429,-0.004371321068808161,-0.018359548488994275,0.03934188961927344
0.2656097412109375,0.1627044677734375,9.71246337890625,0.3161066770553589,-0.5311935544013977,0.08491518348455429,-0.004371321068808161,0.050707324398174665,-0.03147351169541876
0.2727813720703125,0.1627044677734375,9.714859008789062,0.3162098824977875,-0.5311935544013977,0.0849093645811081,-0.004371321068808161,-0.08917494980368648,0.03934188961927344
0.2727813720703125,0.16510009765625,9.695724487304688,0.30269697308540344,-0.5311935544013977,0.0849035456776619,-0.004371321068808161,-0.018359548488994275,0.03934188961927344
0.2703857421875,0.1555328369140625,9.719650268554688,0.30269289016723633,-0.5311935544013977,0.08490271866321564,0.0655698160321224,-0.15911608690461704,0.1792241638211346
0.2703857421875,0.1794586181640625,9.729217529296875,0.31640419363975525,-0.5311935544013977,0.08489689975976944,-0.07431245816973873,-0.018359548488994275,0.10840876250644238
0.275177001953125,0.16510009765625,9.70050048828125,0.3027796745300293,-0.5311935544013977,0.07127654552459717,-0.004371321068808161,-0.018359548488994275,-0.03147351169541876
0.29193115234375,0.16510009765625,9.719650268554688,0.3027796745300293,-0.5311935544013977,0.07127239555120468,-0.004371321068808161,-0.018359548488994275,0.03934188961927344
0.2584228515625,0.1842498779296875,9.698104858398438,0.3027796745300293,-0.5175732374191284,0.07127239555120468,0.1363852173468146,-0.08917494980368648,0.03934188961927344
0.2775726318359375,0.1722869873046875,9.7220458984375,0.30288708209991455,-0.544813871383667,0.07126989960670471,0.0655698160321224,-0.08917494980368648,0.03934188961927344
0.2703857421875,0.17706298828125,9.731613159179688,0.30299443006515503,-0.544813871383667,0.07126324623823166,-0.1442535952706693,-0.018359548488994275,-0.10141464879634933
0.2775726318359375,0.15313720703125,9.705291748046875,0.3031060993671417,-0.5175732374191284,0.08486946672201157,-0.07431245816973873,-0.08917494980368648,0.1792241638211346
0.287139892578125,0.1794586181640625,9.714859008789062,0.3032052218914032,-0.544813871383667,0.07124246656894684,-0.07431245816973873,-0.08917494980368648,0.03934188961927344
0.275177001953125,0.1627044677734375,9.707687377929688,0.30320507287979126,-0.5311935544013977,0.07123830914497375,0.0655698160321224,-0.018359548488994275,-0.03147351169541876
0.2727813720703125,0.181854248046875,9.731613159179688,0.30320507287979126,-0.5311935544013977,0.07123830914497375,-0.004371321068808161,-0.018359548488994275,0.03934188961927344
0.287139892578125,0.18902587890625,9.717254638671875,0.30320507287979126,-0.544813871383667,0.05761796236038208,0.0655698160321224,-0.08917494980368648,0.03934188961927344
0.2727813720703125,0.1914215087890625,9.73638916015625,0.3033125698566437,-0.544813871383667,0.05761214345693588,-0.004371321068808161,-0.08917494980368648,0.03934188961927344
0.2703857421875,0.169891357421875,9.707687377929688,0.3306565582752228,-0.5311935544013977,0.030361469835042953,-0.1442535952706693,-0.018359548488994275,0.10840876250644238
0.2703857421875,0.1722869873046875,9.714859008789062,0.317032128572464,-0.5311935544013977,0.07121419906616211,-0.07431245816973873,-0.018359548488994275,0.03934188961927344
0.275177001953125,0.1962127685546875,9.729217529296875,0.317032128572464,-0.5311935544013977,0.07121419906616211,-0.004371321068808161,-0.08917494980368648,-0.03147351169541876
0.2727813720703125,0.1746826171875,9.72442626953125,0.31724685430526733,-0.544813871383667,0.07119674235582352,-0.07431245816973873,0.050707324398174665,-0.03147351169541876
0.251251220703125,0.1794586181640625,9.68853759765625,0.30362239480018616,-0.544813871383667,0.05757223814725876,-0.004371321068808161,-0.08917494980368648,0.10840876250644238
0.2823486328125,0.1627044677734375,9.717254638671875,0.30362239480018616,-0.544813871383667,0.05757223814725876,-0.07431245816973873,-0.018359548488994275,0.03934188961927344
0.2703857421875,0.16510009765625,9.7220458984375,0.3038289248943329,-0.5175732374191284,0.07118011265993118,-0.004371321068808161,-0.018359548488994275,0.03934188961927344
0.2703857421875,0.157928466796875,9.710067749023438,0.31755661964416504,-0.5175732374191284,0.07117430120706558,-0.004371321068808161,-0.018359548488994275,0.10840876250644238
0.2584228515625,0.1603240966796875,9.710067749023438,0.31755250692367554,-0.5175732374191284,0.07117430120706558,-0.004371321068808161,-0.018359548488994275,0.10840876250644238
0.2608184814453125,0.1555328369140625,9.710067749023438,0.3175444006919861,-0.5311935544013977,0.057553116232156754,-0.07431245816973873,-0.018359548488994275,-0.03147351169541876
0.2679901123046875,0.1746826171875,9.714859008789062,0.3175444006919861,-0.5175732374191284,0.07116930931806564,-0.07431245816973873,-0.018359548488994275,0.03934188961927344
0.253631591796875,0.16510009765625,9.7340087890625,0.3175443112850189,-0.5175732374191284,0.07116515189409256,-0.07431245816973873,-0.018359548488994275,0.03934188961927344
0.2703857421875,0.1603240966796875,9.7220458984375,0.31754446029663086,-0.5311935544013977,0.07115766406059265,-0.004371321068808161,-0.15911608690461704,0.10840876250644238
0.2823486328125,0.181854248046875,9.72442626953125,0.3042421042919159,-0.5311935544013977,0.08475474268198013,-0.1442535952706693,0.050707324398174665,0.03934188961927344
0.2847442626953125,0.1746826171875,9.717254638671875,0.3042421042919159,-0.5311935544013977,0.08474642783403397,-0.004371321068808161,-0.018359548488994275,-0.03147351169541876
0.2895355224609375,0.1986083984375,9.741180419921875,0.29062172770500183,-0.544813871383667,0.05750573053956032,0.0655698160321224,-0.08917494980368648,0.03934188961927344
0.2823486328125,0.1674957275390625,9.714859008789062,0.31807711720466614,-0.5311935544013977,0.08473395556211472,-0.07431245816973873,0.050707324398174665,0.03934188961927344
0.2847442626953125,0.1986083984375,9.73638916015625,0.31807711720466614,-0.5311935544013977,0.08473395556211472,-0.07431245816973873,-0.018359548488994275,0.03934188961927344
0.2847442626953125,0.1507415771484375,9.714859008789062,0.30445677042007446,-0.5311935544013977,0.07110945135354996,-0.07431245816973873,-0.018359548488994275,-0.03147351169541876
0.3014984130859375,0.16510009765625,9.71246337890625,0.3316974639892578,-0.544813871383667,0.08472564816474915,-0.07431245816973873,-0.018359548488994275,0.03934188961927344
0.2703857421875,0.1674957275390625,9.729217529296875,0.33169764280319214,-0.544813871383667,0.08472564816474915,-0.1442535952706693,-0.018359548488994275,0.03934188961927344
0.263214111328125,0.16510009765625,9.72442626953125,0.31807735562324524,-0.5311935544013977,0.08471733331680298,-0.004371321068808161,-0.08917494980368648,0.03934188961927344
0.2799530029296875,0.1914215087890625,9.729217529296875,0.31818467378616333,-0.5311935544013977,0.07109033316373825,-0.004371321068808161,-0.018359548488994275,-0.03147351169541876
0.2656097412109375,0.1722869873046875,9.719650268554688,0.31818467378616333,-0.5311935544013977,0.07109033316373825,-0.004371321068808161,-0.018359548488994275,0.03934188961927344
0.2775726318359375,0.1627044677734375,9.714859008789062,0.3182879090309143,-0.544813871383667,0.05746333301067352,-0.1442535952706693,-0.018359548488994275,-0.03147351169541876
0.2823486328125,0.16510009765625,9.717254638671875,0.3182879090309143,-0.544813871383667,0.05746333301067352,-0.07431245816973873,-0.018359548488994275,-0.03147351169541876
0.2656097412109375,0.1722869873046875,9.719650268554688,0.30466338992118835,-0.5311935544013977,0.05745585262775421,-0.1442535952706693,-0.08917494980368648,-0.03147351169541876
0.2584228515625,0.1603240966796875,9.729217529296875,0.33201149106025696,-0.5311935544013977,0.057436730712652206,-0.07431245816973873,-0.018359548488994275,0.10840876250644238
0.2703857421875,0.17706298828125,9.729217529296875,0.3183870017528534,-0.5311935544013977,0.07105708122253418,-0.07431245816973873,0.050707324398174665,-0.03147351169541876
0.2703857421875,0.1842498779296875,9.741180419921875,0.3183870017528534,-0.5311935544013977,0.07105708122253418,-0.004371321068808161,-0.018359548488994275,-0.10141464879634933
0.2656097412109375,0.1627044677734375,9.7220458984375,0.33201566338539124,-0.5311935544013977,0.07105708122253418,-0.07431245816973873,0.050707324398174665,0.10840876250644238
0.2727813720703125,0.1914215087890625,9.729217529296875,0.31839117407798767,-0.544813871383667,0.057436730712652206,0.0655698160321224,-0.08917494980368648,0.10840876250644238
0.2727813720703125,0.1962127685546875,9.719650268554688,0.31849849224090576,-0.544813871383667,0.05743091553449631,0.0655698160321224,-0.08917494980368648,-0.03147351169541876
0.2823486328125,0.1722869873046875,9.719650268554688,0.318709135055542,-0.544813871383667,0.0574176087975502,-0.004371321068808161,-0.08917494980368648,0.10840876250644238
0.2703857421875,0.1794586181640625,9.726821899414062,0.3190229535102844,-0.544813871383667,0.05739849433302879,-0.004371321068808161,-0.15911608690461704,0.10840876250644238
0.2775726318359375,0.16510009765625,9.707687377929688,0.3190229535102844,-0.544813871383667,0.05739849433302879,-0.07431245816973873,-0.018359548488994275,0.10840876250644238
0.30389404296875,0.16510009765625,9.698104858398438,0.31901875138282776,-0.544813871383667,0.05739516764879227,-0.1442535952706693,-0.018359548488994275,-0.03147351169541876
0.2608184814453125,0.1794586181640625,9.719650268554688,0.30561313033103943,-0.5311935544013977,0.07100221514701843,-0.004371321068808161,-0.08917494980368648,-0.10141464879634933
0.2703857421875,0.169891357421875,9.726821899414062,0.31934499740600586,-0.544813871383667,0.07098725438117981,-0.004371321068808161,-0.018359548488994275,0.03934188961927344
0.2823486328125,0.193817138671875,9.743576049804688,0.3057247996330261,-0.5311935544013977,0.05736690014600754,-0.07431245816973873,-0.018359548488994275,0.03934188961927344
0.2703857421875,0.1866455078125,9.73638916015625,0.3193451464176178,-0.544813871383667,0.05735858902335167,-0.07431245816973873,-0.08917494980368648,0.10840876250644238
0.275177001953125,0.17706298828125,9.72442626953125,0.31933683156967163,-0.544813871383667,0.057354435324668884,-0.004371321068808161,-0.018359548488994275,0.10840876250644238
0.275177001953125,0.1603240966796875,9.71246337890625,0.31933265924453735,-0.544813871383667,0.05735526233911514,-0.004371321068808161,-0.018359548488994275,-0.03147351169541876
0.2847442626953125,0.1794586181640625,9.714859008789062,0.31933265924453735,-0.5311935544013977,0.08459595590829849,-0.07431245816973873,-0.08917494980368648,0.10840876250644238
0.2895355224609375,0.1962127685546875,9.72442626953125,0.3330604135990143,-0.5311935544013977,0.05734362453222275,-0.004371321068808161,0.050707324398174665,0.10840876250644238
0.2799530029296875,0.1794586181640625,9.719650268554688,0.3330562710762024,-0.5311935544013977,0.05734362453222275,-0.07431245816973873,-0.018359548488994275,0.10840876250644238
0.2703857421875,0.1603240966796875,9.702896118164062,0.30581140518188477,-0.544813871383667,0.0709606483578682,-0.07431245816973873,-0.018359548488994275,0.10840876250644238
0.2799530029296875,0.157928466796875,9.705291748046875,0.3058072030544281,-0.5311935544013977,0.07095233350992203,-0.004371321068808161,-0.018359548488994275,0.10840876250644238
0.29193115234375,0.1555328369140625,9.705291748046875,0.3058072030544281,-0.5311935544013977,0.07095233350992203,-0.004371321068808161,-0.08917494980368648,-0.03147351169541876
0.287139892578125,0.1722869873046875,9.717254638671875,0.305910587310791,-0.5175732374191284,0.08456603437662125,-0.004371321068808161,-0.018359548488994275,-0.03147351169541876
0.2775726318359375,0.1627044677734375,9.717254638671875,0.305910587310791,-0.5311935544013977,0.07094568014144897,-0.004371321068808161,-0.018359548488994275,0.03934188961927344
0.2823486328125,0.169891357421875,9.717254638671875,0.3059104382991791,-0.5311935544013977,0.07094568014144897,-0.07431245816973873,-0.08917494980368648,-0.03147351169541876
0.2703857421875,0.1627044677734375,9.698104858398438,0.30601778626441956,-0.544813871383667,0.05731036886572838,-0.004371321068808161,-0.018359548488994275,0.03934188961927344
0.275177001953125,0.16510009765625,9.705291748046875,0.30601778626441956,-0.544813871383667,0.07093071937561035,0.0655698160321224,-0.018359548488994275,0.03934188961927344
0.275177001953125,0.1914215087890625,9.755538940429688,0.3060179352760315,-0.544813871383667,0.07093071937561035,-0.004371321068808161,-0.018359548488994275,0.10840876250644238
0.2895355224609375,0.1674957275390625,9.705291748046875,0.3060137927532196,-0.5311935544013977,0.07093071937561035,-0.07431245816973873,-0.018359548488994275,0.03934188961927344
0.275177001953125,0.1603240966796875,9.714859008789062,0.3061211407184601,-0.5175732374191284,0.07092074304819107,-0.004371321068808161,-0.018359548488994275,-0.03147351169541876
0.2703857421875,0.169891357421875,9.693328857421875,0.3061211407184601,-0.5175732374191284,0.07092074304819107,-0.004371321068808161,-0.08917494980368648,0.03934188961927344
0.2823486328125,0.193817138671875,9.729217529296875,0.3062284588813782,-0.544813871383667,0.0845302864909172,-0.004371321068808161,-0.08917494980368648,-0.03147351169541876
0.2679901123046875,0.1674957275390625,9.726821899414062,0.3064431846141815,-0.544813871383667,0.0708933100104332,-0.07431245816973873,-0.018359548488994275,0.03934188961927344
0.2775726318359375,0.1746826171875,9.7220458984375,0.3064431846141815,-0.544813871383667,0.0708933100104332,-0.004371321068808161,-0.018359548488994275,0.03934188961927344
0.263214111328125,0.1722869873046875,9.7220458984375,0.306439071893692,-0.5311935544013977,0.08451365679502487,-0.07431245816973873,-0.018359548488994275,0.03934188961927344
0.2488555908203125,0.169891357421875,9.7340087890625,0.333679735660553,-0.5311935544013977,0.05727296322584152,-0.004371321068808161,-0.08917494980368648,-0.03147351169541876
0.2823486328125,0.1722869873046875,9.714859008789062,0.333679735660553,-0.5311935544013977,0.05727296322584152,-0.07431245816973873,0.050707324398174665,0.03934188961927344
0.2464599609375,0.1627044677734375,9.738784790039062,0.3200594186782837,-0.5311935544013977,0.07088915258646011,-0.004371321068808161,0.12152272571286686,0.10840876250644238
0.2608184814453125,0.1674957275390625,9.702896118164062,0.3200593590736389,-0.5311935544013977,0.07088499516248703,-0.004371321068808161,-0.08917494980368648,0.03934188961927344
0.263214111328125,0.1794586181640625,9.73638916015625,0.3201669156551361,-0.5311935544013977,0.07087834924459457,-0.07431245816973873,-0.08917494980368648,0.03934188961927344
0.263214111328125,0.169891357421875,9.72442626953125,0.3202742338180542,-0.5311935544013977,0.07086753845214844,-0.004371321068808161,-0.018359548488994275,0.10840876250644238
0.2775726318359375,0.157928466796875,9.710067749023438,0.3202700912952423,-0.5311935544013977,0.07087169587612152,-0.07431245816973873,-0.018359548488994275,0.03934188961927344
0.2608184814453125,0.18902587890625,9.726821899414062,0.3066495954990387,-0.5175732374191284,0.08448788523674011,-0.07431245816973873,0.050707324398174665,-0.03147351169541876
0.2679901123046875,0.1794586181640625,9.72442626953125,0.3203774392604828,-0.5311935544013977,0.07085756212472916,-0.004371321068808161,0.050707324398174665,-0.03147351169541876
0.2727813720703125,0.169891357421875,9.7220458984375,0.3203774392604828,-0.5311935544013977,0.07085756212472916,0.0655698160321224,0.050707324398174665,0.03934188961927344
0.2823486328125,0.1722869873046875,9.714859008789062,0.3203774392604828,-0.5311935544013977,0.07085756212472916,-0.004371321068808161,0.050707324398174665,0.03934188961927344
0.2656097412109375,0.17706298828125,9.714859008789062,0.3203732669353485,-0.5311935544013977,0.08447790890932083,-0.07431245816973873,-0.018359548488994275,0.10840876250644238
0.2703857421875,0.1627044677734375,9.726821899414062,0.32036492228507996,-0.5311935544013977,0.07085756212472916,-0.004371321068808161,0.050707324398174665,0.10840876250644238
0.2799530029296875,0.1866455078125,9.719650268554688,0.3203607499599457,-0.5311935544013977,0.07085756212472916,-0.07431245816973873,-0.018359548488994275,0.03934188961927344
0.2584228515625,0.18902587890625,9.741180419921875,0.3067404329776764,-0.558434247970581,0.0572330579161644,0.0655698160321224,-0.08917494980368648,0.03934188961927344
0.2799530029296875,0.1746826171875,9.72442626953125,0.3067404329776764,-0.5311935544013977,0.0572330579161644,0.0655698160321224,-0.018359548488994275,0.03934188961927344
0.2847442626953125,0.17706298828125,9.729217529296875,0.3067404329776764,-0.5311935544013977,0.0572330579161644,-0.004371321068808161,-0.018359548488994275,0.1792241638211346
0.2679901123046875,0.169891357421875,9.710067749023438,0.3067404329776764,-0.5311935544013977,0.0572330579161644,-0.07431245816973873,-0.018359548488994275,0.03934188961927344
0.287139892578125,0.1555328369140625,9.714859008789062,0.30673208832740784,-0.544813871383667,0.0708450973033905,-0.10141464879634933,0.040216153833035076,0
0.2703857421875,0.1746826171875,9.72442626953125,0.30673208832740784,-0.544813871383667,0.0708450973033905,-0.10141464879634933,-0.02885071905413386,0.06906687288716894
0.2847442626953125,0.1627044677734375,9.7220458984375,0.30672794580459595,-0.5311935544013977,0.07082846760749817,-0.10141464879634933,-0.02885071905413386,0
0.2703857421875,0.1483612060546875,9.705291748046875,0.30672794580459595,-0.5175732374191284,0.07082431018352509,-0.03147351169541876,-0.02885071905413386,0.06906687288716894
0.2727813720703125,0.1555328369140625,9.710067749023438,0.30672794580459595,-0.5175732374191284,0.07082431018352509,-0.03147351169541876,-0.09966612036882606,-0.0708154013146922
0.2560272216796875,0.1866455078125,9.707687377929688,0.29321908950805664,-0.558434247970581,0.07081349939107895,-0.10141464879634933,-0.02885071905413386,-0.0708154013146922
0.2679901123046875,0.1555328369140625,9.717254638671875,0.32046815752983093,-0.5311935544013977,0.0708085149526596,-0.03147351169541876,-0.02885071905413386,-0.0708154013146922
0.2823486328125,0.1842498779296875,9.705291748046875,0.32046815752983093,-0.5311935544013977,0.07080519199371338,0.03846762540551182,-0.02885071905413386,0
0.2847442626953125,0.2010040283203125,9.729217529296875,0.30684781074523926,-0.544813871383667,0.0708010345697403,-0.10141464879634933,-0.02885071905413386,0
0.275177001953125,0.1722869873046875,9.707687377929688,0.3068394958972931,-0.558434247970581,0.043556179851293564,-0.03147351169541876,0.040216153833035076,0
0.2679901123046875,0.169891357421875,9.731613159179688,0.32045984268188477,-0.5311935544013977,0.05717653036117554,-0.03147351169541876,-0.02885071905413386,0
0.2679901123046875,0.16510009765625,9.693328857421875,0.3068394958972931,-0.5311935544013977,0.08441722393035889,-0.03147351169541876,0.040216153833035076,-0.0708154013146922
0.2823486328125,0.1722869873046875,9.705291748046875,0.3205673396587372,-0.5311935544013977,0.07079022377729416,-0.03147351169541876,-0.02885071905413386,0
0.275177001953125,0.1627044677734375,9.702896118164062,0.32056719064712524,-0.5311935544013977,0.07079022377729416,-0.10141464879634933,-0.09966612036882606,0
0.2823486328125,0.157928466796875,9.714859008789062,0.3070583939552307,-0.5311935544013977,0.07077194005250931,-0.1713557858972799,-0.02885071905413386,-0.0708154013146922
0.2584228515625,0.1794586181640625,9.714859008789062,0.3345138430595398,-0.558434247970581,0.08436651527881622,-0.03147351169541876,-0.09966612036882606,0
0.2656097412109375,0.169891357421875,9.702896118164062,0.3345138430595398,-0.558434247970581,0.08436651527881622,-0.03147351169541876,-0.02885071905413386,0
0.2656097412109375,0.181854248046875,9.72442626953125,0.32089346647262573,-0.544813871383667,0.08436651527881622,0.03846762540551182,-0.02885071905413386,0
0.2727813720703125,0.1674957275390625,9.717254638671875,0.32089346647262573,-0.544813871383667,0.07074616849422455,0.03846762540551182,-0.02885071905413386,-0.0708154013146922
0.2679901123046875,0.181854248046875,9.7340087890625,0.32089346647262573,-0.544813871383667,0.07074616849422455,-0.03147351169541876,-0.02885071905413386,0.06906687288716894
0.2656097412109375,0.1674957275390625,9.714859008789062,0.3209966719150543,-0.544813871383667,0.08435570448637009,-0.03147351169541876,-0.02885071905413386,0
0.2679901123046875,0.1842498779296875,9.717254638671875,0.30737632513046265,-0.558434247970581,0.057110853493213654,-0.10141464879634933,-0.09966612036882606,0
0.2703857421875,0.1603240966796875,9.7220458984375,0.30737632513046265,-0.558434247970581,0.057110853493213654,-0.10141464879634933,-0.02885071905413386,0
0.275177001953125,0.1722869873046875,9.731613159179688,0.307591050863266,-0.544813871383667,0.057090070098638535,-0.03147351169541876,-0.02885071905413386,0
0.2727813720703125,0.169891357421875,9.717254638671875,0.307591050863266,-0.544813871383667,0.07071042060852051,-0.03147351169541876,0.040216153833035076,0
0.2464599609375,0.17706298828125,9.705291748046875,0.30759111046791077,-0.544813871383667,0.07070626318454742,-0.03147351169541876,0.040216153833035076,0.06906687288716894
0.2967071533203125,0.2010040283203125,9.72442626953125,0.29396235942840576,-0.5720545649528503,0.07069794833660126,-0.10141464879634933,-0.02885071905413386,0.06906687288716894
0.275177001953125,0.17706298828125,9.72442626953125,0.32131046056747437,-0.544813871383667,0.07068713754415512,-0.1713557858972799,-0.09966612036882606,0
0.2799530029296875,0.1914215087890625,9.738784790039062,0.3213105797767639,-0.544813871383667,0.07068298757076263,-0.10141464879634933,-0.09966612036882606,0
0.275177001953125,0.1722869873046875,9.72442626953125,0.3077974319458008,-0.558434247970581,0.057048507034778595,-0.03147351169541876,-0.09966612036882606,0.06906687288716894
0.2775726318359375,0.17706298828125,9.726821899414062,0.3079007863998413,-0.544813871383667,0.057032711803913116,-0.1713557858972799,-0.02885071905413386,0
0.2656097412109375,0.16510009765625,9.717254638671875,0.32152098417282104,-0.544813871383667,0.07065305858850479,-0.10141464879634933,-0.02885071905413386,0.06906687288716894
0.2656097412109375,0.169891357421875,9.72442626953125,0.32152098417282104,-0.544813871383667,0.07065305858850479,0.03846762540551182,-0.09966612036882606,0
0.2656097412109375,0.1674957275390625,9.72442626953125,0.3081112504005432,-0.544813871383667,0.07064890116453171,-0.10141464879634933,-0.02885071905413386,0
0.2656097412109375,0.157928466796875,9.710067749023438,0.3081112504005432,-0.544813871383667,0.07064890116453171,0.03846762540551182,-0.02885071905413386,0
0.2679901123046875,0.1722869873046875,9.710067749023438,0.3081071078777313,-0.544813871383667,0.07066220045089722,-0.10141464879634933,-0.02885071905413386,0.06906687288716894
0.2799530029296875,0.169891357421875,9.72442626953125,0.3082144558429718,-0.544813871383667,0.057038530707359314,-0.03147351169541876,-0.09966612036882606,0
0.2656097412109375,0.18902587890625,9.741180419921875,0.3083217740058899,-0.544813871383667,0.0570368655025959,-0.10141464879634933,-0.09966612036882606,-0.0708154013146922
0.263214111328125,0.1674957275390625,9.719650268554688,0.3083217740058899,-0.544813871383667,0.0570368655025959,-0.03147351169541876,-0.02885071905413386,0
0.2656097412109375,0.169891357421875,9.714859008789062,0.3220495581626892,-0.544813871383667,0.07065971195697784,-0.03147351169541876,-0.02885071905413386,0
0.2823486328125,0.1914215087890625,9.72442626953125,0.3220495581626892,-0.544813871383667,0.07065971195697784,0.03846762540551182,-0.02885071905413386,0.06906687288716894
0.2847442626953125,0.1674957275390625,9.705291748046875,0.32225584983825684,-0.558434247970581,0.07064224779605865,-0.03147351169541876,-0.09966612036882606,0.06906687288716894
0.253631591796875,0.1603240966796875,9.717254638671875,0.32225584983825684,-0.558434247970581,0.07064224779605865,-0.03147351169541876,-0.02885071905413386,0
0.2608184814453125,0.17706298828125,9.702896118164062,0.33607831597328186,-0.5311935544013977,0.07062978297472,-0.03147351169541876,-0.09966612036882606,0.06906687288716894
0.2679901123046875,0.1483612060546875,9.719650268554688,0.32256123423576355,-0.5311935544013977,0.0706239640712738,-0.10141464879634933,-0.02885071905413386,-0.0708154013146922
0.2679901123046875,0.1555328369140625,9.717254638671875,0.32256123423576355,-0.544813871383667,0.07061897218227386,0.03846762540551182,-0.02885071905413386,0
0.2679901123046875,0.1627044677734375,9.717254638671875,0.32256123423576355,-0.544813871383667,0.07061897218227386,-0.03147351169541876,-0.02885071905413386,0
0.2656097412109375,0.1746826171875,9.710067749023438,0.32256123423576355,-0.544813871383667,0.07061897218227386,-0.10141464879634933,-0.02885071905413386,-0.0708154013146922
0.2560272216796875,0.17706298828125,9.698104858398438,0.32266849279403687,-0.544813871383667,0.08422020077705383,-0.24129692299821046,-0.02885071905413386,0.06906687288716894
0.2727813720703125,0.16510009765625,9.714859008789062,0.32266849279403687,-0.544813871383667,0.08422020077705383,-0.03147351169541876,-0.09966612036882606,0.13988227420186114
0.2799530029296875,0.1627044677734375,9.707687377929688,0.32266849279403687,-0.544813871383667,0.08421189337968826,-0.03147351169541876,-0.02885071905413386,0.06906687288716894
0.2656097412109375,0.169891357421875,9.71246337890625,0.322767436504364,-0.544813871383667,0.07058489322662354,-0.03147351169541876,-0.02885071905413386,0
0.263214111328125,0.15313720703125,9.707687377929688,0.322767436504364,-0.544813871383667,0.07058489322662354,-0.03147351169541876,-0.02885071905413386,0.06906687288716894
0.2679901123046875,0.16510009765625,9.698104858398438,0.32277169823646545,-0.5311935544013977,0.08420523256063461,-0.03147351169541876,-0.09966612036882606,0.06906687288716894
0.2799530029296875,0.1603240966796875,9.710067749023438,0.30925020575523376,-0.544813871383667,0.0705740824341774,-0.10141464879634933,-0.09966612036882606,-0.0708154013146922
0.2799530029296875,0.18902587890625,9.73638916015625,0.30925020575523376,-0.544813871383667,0.0705740824341774,-0.10141464879634933,-0.09966612036882606,0.06906687288716894
0.2656097412109375,0.1746826171875,9.717254638671875,0.30935755372047424,-0.544813871383667,0.07056494057178497,-0.03147351169541876,-0.02885071905413386,0.06906687288716894
0.2679901123046875,0.16510009765625,9.702896118164062,0.3231842815876007,-0.544813871383667,0.07054664939641953,-0.03147351169541876,-0.09966612036882606,0
0.2823486328125,0.1627044677734375,9.7220458984375,0.30966711044311523,-0.544813871383667,0.08415286242961884,0.03846762540551182,0.040216153833035076,0
0.263214111328125,0.1866455078125,9.73638916015625,0.30966711044311523,-0.544813871383667,0.08414871245622635,-0.03147351169541876,-0.02885071905413386,0
0.275177001953125,0.1866455078125,9.741180419921875,0.30977457761764526,-0.558434247970581,0.056901365518569946,0.03846762540551182,-0.09966612036882606,0
0.2656097412109375,0.16510009765625,9.705291748046875,0.30977457761764526,-0.558434247970581,0.056901365518569946,-0.03147351169541876,-0.09966612036882606,0
0.2799530029296875,0.1627044677734375,9.70050048828125,0.3097744584083557,-0.558434247970581,0.056901365518569946,-0.10141464879634933,0.040216153833035076,0.13988227420186114
0.2727813720703125,0.157928466796875,9.705291748046875,0.32349807024002075,-0.544813871383667,0.07051505893468857,-0.03147351169541876,-0.02885071905413386,0
0.2823486328125,0.1627044677734375,9.705291748046875,0.32348960638046265,-0.5311935544013977,0.08413208276033401,0.03846762540551182,-0.02885071905413386,0
0.263214111328125,0.1746826171875,9.729217529296875,0.32348960638046265,-0.544813871383667,0.07051173597574234,0.03846762540551182,0.040216153833035076,0.06906687288716894
0.2656097412109375,0.1603240966796875,9.717254638671875,0.32348960638046265,-0.544813871383667,0.07051173597574234,-0.03147351169541876,0.040216153833035076,0.06906687288716894
0.287139892578125,0.193817138671875,9.729217529296875,0.32348960638046265,-0.544813871383667,0.056891389191150665,0.10928302672020401,-0.02885071905413386,-0.0708154013146922
0.275177001953125,0.1722869873046875,9.726821899414062,0.3098692297935486,-0.544813871383667,0.05689471215009689,0.03846762540551182,-0.09966612036882606,0.06906687288716894
0.2727813720703125,0.1866455078125,9.7340087890625,0.3098692297935486,-0.544813871383667,0.05689471215009689,0.03846762540551182,0.040216153833035076,0
0.2823486328125,0.16510009765625,9.71246337890625,0.3235969841480255,-0.558434247970581,0.05688806250691414,-0.03147351169541876,-0.02885071905413386,-0.0708154013146922
0.2679901123046875,0.1746826171875,9.726821899414062,0.3237042725086212,-0.558434247970581,0.05687808617949486,-0.03147351169541876,-0.02885071905413386,0.06906687288716894
0.2823486328125,0.15313720703125,9.707687377929688,0.31008392572402954,-0.544813871383667,0.07049843668937683,-0.03147351169541876,-0.09966612036882606,0
0.2703857421875,0.1866455078125,9.7340087890625,0.3102986514568329,-0.5311935544013977,0.08410131931304932,-0.10141464879634933,0.040216153833035076,-0.0708154013146922
0.2943115234375,0.1986083984375,9.729217529296875,0.3239232301712036,-0.558434247970581,0.0704818069934845,0.10928302672020401,-0.09966612036882606,0.13988227420186114
0.2727813720703125,0.18902587890625,9.729217529296875,0.2966783344745636,-0.558434247970581,0.07047681510448456,0.03846762540551182,0.040216153833035076,0
0.2727813720703125,0.1746826171875,9.7220458984375,0.3104018568992615,-0.558434247970581,0.05685481056571007,-0.03147351169541876,-0.02885071905413386,0
0.2679901123046875,0.1627044677734375,9.719650268554688,0.31040170788764954,-0.558434247970581,0.05685481056571007,0.03846762540551182,-0.09966612036882606,0.06906687288716894
0.2703857421875,0.1555328369140625,9.702896118164062,0.3240220546722412,-0.544813871383667,0.07047515362501144,-0.03147351169541876,-0.02885071905413386,0
0.2608184814453125,0.1555328369140625,9.707687377929688,0.3242368996143341,-0.5311935544013977,0.07046185433864594,-0.03147351169541876,-0.02885071905413386,0
0.2584228515625,0.181854248046875,9.70050048828125,0.3242368996143341,-0.5311935544013977,0.07046185433864594,-0.03147351169541876,0.040216153833035076,0.06906687288716894
0.2679901123046875,0.16510009765625,9.702896118164062,0.3242368996143341,-0.5311935544013977,0.08407804369926453,-0.03147351169541876,-0.02885071905413386,0
0.2775726318359375,0.1627044677734375,9.710067749023438,0.3242368996143341,-0.544813871383667,0.08407804369926453,-0.03147351169541876,-0.02885071905413386,-0.0708154013146922
0.2895355224609375,0.1866455078125,9.726821899414062,0.3242368996143341,-0.544813871383667,0.08407804369926453,-0.10141464879634933,-0.02885071905413386,0.06906687288716894
0.2703857421875,0.1674957275390625,9.710067749023438,0.310624897480011,-0.544813871383667,0.07045437395572662,-0.10141464879634933,-0.09966612036882606,0.06906687288716894
0.29193115234375,0.1627044677734375,9.70050048828125,0.3243441879749298,-0.544813871383667,0.07043857872486115,-0.03147351169541876,0.040216153833035076,-0.14075653841562277
0.2727813720703125,0.157928466796875,9.71246337890625,0.3243441879749298,-0.544813871383667,0.07043857872486115,-0.10141464879634933,-0.02885071905413386,-0.14075653841562277
0.2775726318359375,0.1674957275390625,9.719650268554688,0.3107365071773529,-0.544813871383667,0.07043857872486115,-0.03147351169541876,-0.02885071905413386,0
0.2847442626953125,0.16510009765625,9.695724487304688,0.32436108589172363,-0.544813871383667,0.07043442130088806,0.03846762540551182,-0.02885071905413386,0
0.2656097412109375,0.15313720703125,9.70050048828125,0.32436108589172363,-0.544813871383667,0.07043442130088806,-0.10141464879634933,-0.02885071905413386,0
0.2895355224609375,0.16510009765625,9.705291748046875,0.32436108589172363,-0.5311935544013977,0.08405144512653351,-0.10141464879634933,-0.02885071905413386,0.06906687288716894
0.2560272216796875,0.181854248046875,9.698104858398438,0.31074073910713196,-0.544813871383667,0.07042194902896881,-0.10141464879634933,-0.09966612036882606,0.06906687288716894
0.2847442626953125,0.1986083984375,9.731613159179688,0.3107365071773529,-0.544813871383667,0.07041779905557632,-0.03147351169541876,-0.09966612036882606,-0.0708154013146922
0.2656097412109375,0.1627044677734375,9.707687377929688,0.3245674967765808,-0.558434247970581,0.07040116935968399,-0.10141464879634933,-0.09966612036882606,0
0.2799530029296875,0.1627044677734375,9.698104858398438,0.324678897857666,-0.544813871383667,0.08401070535182953,0.03846762540551182,0.040216153833035076,0
0.2799530029296875,0.16510009765625,9.70050048828125,0.31116172671318054,-0.544813871383667,0.08400405943393707,-0.03147351169541876,-0.09966612036882606,0
0.2703857421875,0.1674957275390625,9.714859008789062,0.31116172671318054,-0.544813871383667,0.0703837126493454,-0.1713557858972799,-0.02885071905413386,0
0.2775726318359375,0.1627044677734375,9.710067749023438,0.32488948106765747,-0.544813871383667,0.07036874443292618,-0.03147351169541876,-0.09966612036882606,0.06906687288716894
0.2703857421875,0.1555328369140625,9.695724487304688,0.3113764226436615,-0.5311935544013977,0.08397828787565231,-0.03147351169541876,-0.09966612036882606,-0.0708154013146922
0.263214111328125,0.1794586181640625,9.693328857421875,0.32500097155570984,-0.5311935544013977,0.08397413045167923,-0.03147351169541876,-0.16960725746975663,0
0.2727813720703125,0.1674957275390625,9.717254638671875,0.31159543991088867,-0.558434247970581,0.08396165817975998,0.03846762540551182,-0.02885071905413386,-0.0708154013146922
0.2656097412109375,0.1746826171875,9.714859008789062,0.31170275807380676,-0.558434247970581,0.08395501226186752,-0.03147351169541876,-0.09966612036882606,0
0.2895355224609375,0.1722869873046875,9.719650268554688,0.3119216561317444,-0.544813871383667,0.0703221932053566,0.03846762540551182,-0.02885071905413386,0
0.2727813720703125,0.1722869873046875,9.705291748046875,0.2983013093471527,-0.544813871383667,0.0703221932053566,-0.03147351169541876,-0.02885071905413386,0
0.2775726318359375,0.1674957275390625,9.705291748046875,0.2984086573123932,-0.544813871383667,0.07031138986349106,-0.03147351169541876,-0.02885071905413386,0.06906687288716894
0.2823486328125,0.1914215087890625,9.726821899414062,0.3257567584514618,-0.544813871383667,0.0839209258556366,-0.10141464879634933,-0.16960725746975663,0
0.2703857421875,0.1674957275390625,9.72442626953125,0.3123469352722168,-0.558434247970581,0.07028395682573318,0.03846762540551182,-0.02885071905413386,-0.14075653841562277
0.2727813720703125,0.1674957275390625,9.714859008789062,0.3123469352722168,-0.558434247970581,0.07028395682573318,-0.03147351169541876,0.11103155514772728,0
0.2799530029296875,0.1603240966796875,9.70050048828125,0.32608288526535034,-0.544813871383667,0.08389349281787872,-0.03147351169541876,-0.09966612036882606,0.06906687288716894
0.275177001953125,0.1674957275390625,9.7220458984375,0.3125700056552887,-0.544813871383667,0.08388767391443253,-0.03147351169541876,0.11103155514772728,0
0.2775726318359375,0.1842498779296875,9.73638916015625,0.3125700056552887,-0.544813871383667,0.08388767391443253,-0.03147351169541876,-0.09966612036882606,0
0.2727813720703125,0.1603240966796875,9.707687377929688,0.3126773536205292,-0.558434247970581,0.056639496237039566,0.03846762540551182,-0.09966612036882606,0.13988227420186114
0.2679901123046875,0.1674957275390625,9.695724487304688,0.3127805292606354,-0.5311935544013977,0.08387021720409393,-0.10141464879634933,-0.09966612036882606,0.06906687288716894
0.2895355224609375,0.1507415771484375,9.70050048828125,0.3127805292606354,-0.5311935544013977,0.08387021720409393,0.03846762540551182,-0.09966612036882606,0
0.2703857421875,0.1603240966796875,9.71246337890625,0.32661551237106323,-0.5311935544013977,0.07023241370916367,-0.10141464879634933,-0.02885071905413386,-0.0708154013146922
0.2679901123046875,0.1627044677734375,9.707687377929688,0.3266197741031647,-0.5311935544013977,0.08384860306978226,-0.03147351169541876,-0.02885071905413386,0
0.2799530029296875,0.1603240966796875,9.702896118164062,0.32662391662597656,-0.5311935544013977,0.08384860306978226,-0.03147351169541876,-0.09966612036882606,-0.0708154013146922
0.253631591796875,0.15313720703125,9.726821899414062,0.3131152391433716,-0.5311935544013977,0.09746229648590088,-0.03147351169541876,-0.02885071905413386,0
0.275177001953125,0.16510009765625,9.710067749023438,0.34046322107315063,-0.5311935544013977,0.07021578401327133,-0.10141464879634933,-0.09966612036882606,-0.0708154013146922
0.2656097412109375,0.1722869873046875,9.710067749023438,0.32705339789390564,-0.544813871383667,0.08381035923957825,-0.03147351169541876,-0.02885071905413386,0
0.2799530029296875,0.1842498779296875,9.729217529296875,0.32705339789390564,-0.544813871383667,0.08381035923957825,-0.03147351169541876,-0.16960725746975663,0
0.2703857421875,0.1722869873046875,9.710067749023438,0.31354039907455444,-0.544813871383667,0.07017505168914795,-0.10141464879634933,-0.09966612036882606,0
0.2608184814453125,0.17706298828125,9.698104858398438,0.31396982073783875,-0.544813871383667,0.0837613120675087,-0.10141464879634933,-0.16960725746975663,0.06906687288716894
0.2703857421875,0.1674957275390625,9.719650268554688,0.3278007209300995,-0.558434247970581,0.05649900436401367,-0.03147351169541876,-0.16960725746975663,-0.0708154013146922
0.2560272216796875,0.1674957275390625,9.68853759765625,0.3145067095756531,-0.544813871383667,0.07010022550821304,-0.03147351169541876,-0.2395483945706872,0
0.2727813720703125,0.1842498779296875,9.7220458984375,0.3145067095756531,-0.544813871383667,0.07010022550821304,-0.03147351169541876,-0.16960725746975663,0.06906687288716894
0.275177001953125,0.15313720703125,9.698104858398438,0.34195369482040405,-0.544813871383667,0.09732263535261154,-0.03147351169541876,-0.09966612036882606,0.06906687288716894
0.2799530029296875,0.1555328369140625,9.68853759765625,0.34195369482040405,-0.544813871383667,0.09732263535261154,-0.03147351169541876,-0.02885071905413386,-0.0708154013146922
0.2656097412109375,0.16510009765625,9.707687377929688,0.3147130012512207,-0.5311935544013977,0.08370228856801987,0.03846762540551182,-0.2395483945706872,0
0.263214111328125,0.1674957275390625,9.686141967773438,0.32876282930374146,-0.544813871383667,0.08367735147476196,-0.10141464879634933,0.11103155514772728,-0.0708154013146922
0.2823486328125,0.1435699462890625,9.70050048828125,0.32865968346595764,-0.544813871383667,0.08368399739265442,-0.03147351169541876,-0.16960725746975663,0
0.2847442626953125,0.1794586181640625,9.7220458984375,0.31504368782043457,-0.5175732374191284,0.08367901295423508,0.03846762540551182,0.040216153833035076,0.06906687288716894
0.2775726318359375,0.157928466796875,9.690933227539062,0.31482890248298645,-0.544813871383667,0.08369231224060059,-0.10141464879634933,-0.16960725746975663,0.06906687288716894
0.2703857421875,0.1674957275390625,9.681365966796875,0.31482890248298645,-0.544813871383667,0.0836881548166275,-0.03147351169541876,0.040216153833035076,-0.0708154013146922
0.251251220703125,0.17706298828125,9.686141967773438,0.31471729278564453,-0.544813871383667,0.08369480818510056,-0.10141464879634933,0.11103155514772728,-0.0708154013146922
0.2679901123046875,0.1674957275390625,9.719650268554688,0.34185487031936646,-0.544813871383667,0.09731681644916534,-0.10141464879634933,-0.16960725746975663,0
0.2679901123046875,0.1794586181640625,9.72442626953125,0.34196218848228455,-0.544813871383667,0.09730684757232666,-0.03147351169541876,-0.02885071905413386,0.06906687288716894
0.2799530029296875,0.1914215087890625,9.7220458984375,0.32811859250068665,-0.544813871383667,0.07008276879787445,-0.10141464879634933,0.11103155514772728,0.06906687288716894
0.2727813720703125,0.1986083984375,9.743576049804688,0.3146013617515564,-0.5720545649528503,0.056451618671417236,-0.03147351169541876,-0.16960725746975663,0.06906687288716894
0.2727813720703125,0.169891357421875,9.714859008789062,0.3418378233909607,-0.558434247970581,0.09731265902519226,-0.03147351169541876,-0.16960725746975663,0
0.263214111328125,0.1363983154296875,9.717254638671875,0.3144855201244354,-0.5311935544013977,0.09731515496969223,0.03846762540551182,-0.09966612036882606,-0.0708154013146922
0.2679901123046875,0.1674957275390625,9.693328857421875,0.3278953731060028,-0.5175732374191284,0.07008692622184753,-0.03147351169541876,-0.09966612036882606,-0.0708154013146922
0.2584228515625,0.181854248046875,9.68853759765625,0.32779228687286377,-0.5175732374191284,0.0700894221663475,-0.03147351169541876,0.11103155514772728,-0.0708154013146922
0.275177001953125,0.15313720703125,9.710067749023438,0.32769346237182617,-0.544813871383667,0.09733177721500397,-0.03147351169541876,-0.09966612036882606,0
0.2799530029296875,0.1722869873046875,9.731613159179688,0.3274786174297333,-0.5311935544013977,0.08371642231941223,-0.03147351169541876,-0.02885071905413386,0
0.2799530029296875,0.1746826171875,9.7220458984375,0.3273712694644928,-0.5311935544013977,0.08372224122285843,-0.10141464879634933,-0.02885071905413386,0
0.2608184814453125,0.181854248046875,9.707687377929688,0.3137509524822235,-0.544813871383667,0.07009773701429367,-0.03147351169541876,-0.09966612036882606,-0.0708154013146922
0.2608184814453125,0.1435699462890625,9.71246337890625,0.32726815342903137,-0.558434247970581,0.0837247371673584,-0.03147351169541876,-0.02885071905413386,-0.0708154013146922
0.2799530029296875,0.1603240966796875,9.70050048828125,0.32726815342903137,-0.558434247970581,0.0837247371673584,-0.03147351169541876,-0.02885071905413386,-0.0708154013146922
0.2679901123046875,0.1866455078125,9.731613159179688,0.32695043087005615,-0.544813871383667,0.09736420214176178,-0.03147351169541876,-0.09966612036882606,-0.0708154013146922
0.2679901123046875,0.1794586181640625,9.719650268554688,0.3134416937828064,-0.558434247970581,0.07011353224515915,-0.03147351169541876,-0.02885071905413386,-0.0708154013146922
0.2775726318359375,0.1674957275390625,9.702896118164062,0.3134416937828064,-0.558434247970581,0.07011353224515915,-0.10141464879634933,-0.02885071905413386,-0.14075653841562277
0.2679901123046875,0.1627044677734375,9.702896118164062,0.3132268488407135,-0.544813871383667,0.08374219387769699,-0.03147351169541876,-0.02885071905413386,0
0.2799530029296875,0.16510009765625,9.714859008789062,0.3266325294971466,-0.544813871383667,0.08375465869903564,-0.03147351169541876,-0.02885071905413386,0
0.263214111328125,0.17706298828125,9.698104858398438,0.3265252709388733,-0.544813871383667,0.0837613120675087,0.03846762540551182,-0.02885071905413386,-0.0708154013146922
0.2656097412109375,0.1674957275390625,9.7220458984375,0.3127976059913635,-0.544813871383667,0.08376380801200867,-0.03147351169541876,-0.02885071905413386,-0.0708154013146922
0.2608184814453125,0.169891357421875,9.68853759765625,0.3262074291706085,-0.544813871383667,0.07015592604875565,-0.03147351169541876,-0.02885071905413386,0
0.2560272216796875,0.1316070556640625,9.710067749023438,0.3260999917984009,-0.544813871383667,0.0701625794172287,-0.03147351169541876,-0.02885071905413386,0
0.275177001953125,0.1674957275390625,9.70050048828125,0.3258853554725647,-0.5175732374191284,0.08379539847373962,-0.03147351169541876,-0.09966612036882606,0
0.2727813720703125,0.181854248046875,9.71246337890625,0.31215766072273254,-0.544813871383667,0.08380205184221268,0.03846762540551182,-0.02885071905413386,0
0.253631591796875,0.1842498779296875,9.683746337890625,0.3256707191467285,-0.544813871383667,0.07018835097551346,-0.03147351169541876,-0.02885071905413386,0
0.2727813720703125,0.1794586181640625,9.726821899414062,0.3254558742046356,-0.558434247970581,0.08382117003202438,-0.1713557858972799,-0.02885071905413386,-0.0708154013146922
0.263214111328125,0.157928466796875,9.717254638671875,0.31162503361701965,-0.558434247970581,0.07019998878240585,-0.10141464879634933,-0.02885071905413386,-0.0708154013146922
0.2799530029296875,0.1627044677734375,9.70050048828125,0.31152212619781494,-0.558434247970581,0.07020746916532516,-0.03147351169541876,-0.02885071905413386,-0.0708154013146922
0.253631591796875,0.17706298828125,9.690933227539062,0.3250350058078766,-0.5311935544013977,0.07021412253379822,-0.10141464879634933,-0.02885071905413386,0.06906687288716894
0.2727813720703125,0.1722869873046875,9.70050048828125,0.3250264823436737,-0.544813871383667,0.08382948487997055,-0.03147351169541876,0.040216153833035076,0.06906687288716894
0.263214111328125,0.1722869873046875,9.705291748046875,0.3250221908092499,-0.544813871383667,0.08382948487997055,-0.03147351169541876,-0.02885071905413386,-0.14075653841562277
0.2847442626953125,0.1603240966796875,9.707687377929688,0.32503071427345276,-0.544813871383667,0.08382948487997055,-0.10141464879634933,-0.09966612036882606,0.06906687288716894
0.275177001953125,0.169891357421875,9.705291748046875,0.3115091621875763,-0.5311935544013977,0.0838111937046051,-0.10141464879634933,-0.02885071905413386,0
0.2560272216796875,0.169891357421875,9.70050048828125,0.3115091621875763,-0.5311935544013977,0.0838111937046051,-0.03147351169541876,-0.02885071905413386,0
0.2703857421875,0.181854248046875,9.698104858398438,0.32512953877449036,-0.544813871383667,0.08380620181560516,-0.10141464879634933,-0.02885071905413386,-0.0708154013146922
0.263214111328125,0.18902587890625,9.7340087890625,0.32512953877449036,-0.558434247970581,0.08379373699426651,-0.03147351169541876,-0.02885071905413386,0
0.2584228515625,0.1674957275390625,9.70050048828125,0.32512953877449036,-0.558434247970581,0.08379373699426651,-0.10141464879634933,-0.02885071905413386,-0.0708154013146922
0.2560272216796875,0.1627044677734375,9.731613159179688,0.3251338303089142,-0.5175732374191284,0.08378458768129349,-0.03147351169541876,-0.02885071905413386,0
0.275177001953125,0.1627044677734375,9.717254638671875,0.3251338303089142,-0.544813871383667,0.07016424089670181,-0.10141464879634933,-0.09966612036882606,-0.0708154013146922
0.2703857421875,0.16510009765625,9.70050048828125,0.3252454400062561,-0.544813871383667,0.07015426456928253,-0.10141464879634933,-0.02885071905413386,0
0.2703857421875,0.17706298828125,9.72442626953125,0.31183987855911255,-0.544813871383667,0.08375299721956253,-0.1713557858972799,-0.09966612036882606,-0.0708154013146922
0.2775726318359375,0.1914215087890625,9.726821899414062,0.32567498087882996,-0.558434247970581,0.08372307568788528,-0.10141464879634933,-0.02885071905413386,0.06906687288716894
0.2799530029296875,0.15313720703125,9.698104858398438,0.32567065954208374,-0.558434247970581,0.08371808379888535,-0.03147351169541876,-0.02885071905413386,0.06906687288716894
0.2727813720703125,0.1627044677734375,9.683746337890625,0.3121533989906311,-0.5311935544013977,0.09732845425605774,0.03846762540551182,-0.02885071905413386,0.06906687288716894
0.29193115234375,0.1722869873046875,9.717254638671875,0.3121533989906311,-0.544813871383667,0.09732845425605774,0.03846762540551182,-0.02885071905413386,-0.14075653841562277
0.2775726318359375,0.1746826171875,9.72442626953125,0.3257780373096466,-0.544813871383667,0.08370810747146606,-0.03147351169541876,0.040216153833035076,-0.0708154013146922
0.251251220703125,0.16510009765625,9.695724487304688,0.3257780373096466,-0.544813871383667,0.07008776068687439,-0.03147351169541876,-0.02885071905413386,0
0.2608184814453125,0.1722869873046875,9.695724487304688,0.33950573205947876,-0.544813871383667,0.08369646966457367,-0.03147351169541876,-0.09966612036882606,-0.0708154013146922
0.2799530029296875,0.169891357421875,9.714859008789062,0.339613139629364,-0.544813871383667,0.08368649333715439,-0.03147351169541876,-0.02885071905413386,0.06906687288716894
0.2679901123046875,0.169891357421875,9.719650268554688,0.3259885013103485,-0.544813871383667,0.05644579976797104,-0.03147351169541876,-0.09966612036882606,0.06906687288716894
0.263214111328125,0.1722869873046875,9.71246337890625,0.3124711215496063,-0.544813871383667,0.08367984741926193,0.03846762540551182,-0.02885071905413386,0.06906687288716894
0.2560272216796875,0.1746826171875,9.702896118164062,0.3124711215496063,-0.544813871383667,0.08367984741926193,-0.03147351169541876,-0.09966612036882606,0
0.2799530029296875,0.1746826171875,9.72442626953125,0.3261988162994385,-0.544813871383667,0.08367319405078888,-0.10141464879634933,-0.16960725746975663,-0.0708154013146922
0.2727813720703125,0.1555328369140625,9.705291748046875,0.31279751658439636,-0.5311935544013977,0.0836515799164772,-0.10141464879634933,-0.02885071905413386,0
0.2727813720703125,0.1794586181640625,9.729217529296875,0.31279751658439636,-0.5311935544013977,0.0836515799164772,-0.1713557858972799,0.040216153833035076,0
0.263214111328125,0.1603240966796875,9.695724487304688,0.31279751658439636,-0.544813871383667,0.0700146034359932,-0.03147351169541876,-0.09966612036882606,0
0.263214111328125,0.1603240966796875,9.695724487304688,0.31279751658439636,-0.544813871383667,0.0700146034359932,-0.03147351169541876,-0.09966612036882606,0
0.2775726318359375,0.169891357421875,9.693328857421875,0.32663270831108093,-0.544813871383667,0.09724199771881104,-0.10141464879634933,-0.02885071905413386,0
0.2727813720703125,0.1722869873046875,9.717254638671875,0.3131195902824402,-0.544813871383667,0.09722702950239182,-0.10141464879634933,0.040216153833035076,0
0.263214111328125,0.16510009765625,9.690933227539062,0.32673993706703186,-0.544813871383667,0.08360669016838074,-0.03147351169541876,-0.02885071905413386,0
0.2560272216796875,0.169891357421875,9.710067749023438,0.32673993706703186,-0.544813871383667,0.08360669016838074,-0.03147351169541876,-0.02885071905413386,0
0.2727813720703125,0.16510009765625,9.702896118164062,0.34036457538604736,-0.544813871383667,0.08361583203077316,-0.10141464879634933,-0.02885071905413386,-0.0708154013146922
0.29193115234375,0.17706298828125,9.719650268554688,0.31312817335128784,-0.544813871383667,0.09724032878875732,-0.10141464879634933,-0.16960725746975663,0.06906687288716894
0.275177001953125,0.1674957275390625,9.705291748046875,0.3133385479450226,-0.544813871383667,0.09722702950239182,-0.03147351169541876,-0.09966612036882606,0
0.275177001953125,0.1674957275390625,9.705291748046875,0.3133385479450226,-0.544813871383667,0.09722702950239182,-0.03147351169541876,-0.09966612036882606,0
0.2799530029296875,0.1483612060546875,9.68853759765625,0.3272811472415924,-0.5311935544013977,0.06997969001531601,-0.10141464879634933,-0.09966612036882606,0.06906687288716894
0.2727813720703125,0.169891357421875,9.698104858398438,0.3272811472415924,-0.5311935544013977,0.06997969001531601,-0.1713557858972799,-0.02885071905413386,0
0.2847442626953125,0.1722869873046875,9.70050048828125,0.3272811472415924,-0.5311935544013977,0.06997969001531601,-0.03147351169541876,0.040216153833035076,-0.0708154013146922
0.3014984130859375,0.1603240966796875,9.698104858398438,0.3138754665851593,-0.544813871383667,0.08358839899301529,-0.03147351169541876,-0.02885071905413386,0
0.2584228515625,0.169891357421875,9.695724487304688,0.3138754665851593,-0.5311935544013977,0.09721622616052628,-0.03147351169541876,-0.02885071905413386,0
0.2847442626953125,0.181854248046875,9.717254638671875,0.3138754665851593,-0.5311935544013977,0.09722121804952621,-0.1713557858972799,-0.09966612036882606,-0.0708154013146922
0.2608184814453125,0.1746826171875,9.690933227539062,0.32771047949790955,-0.544813871383667,0.0972079187631607,0.03846762540551182,-0.09966612036882606,0.06906687288716894
0.2727813720703125,0.17706298828125,9.70050048828125,0.32771047949790955,-0.544813871383667,0.09721289575099945,-0.03147351169541876,-0.02885071905413386,0.06906687288716894
0.2584228515625,0.157928466796875,9.7220458984375,0.32771047949790955,-0.544813871383667,0.09721289575099945,-0.10141464879634933,-0.09966612036882606,0
0.2847442626953125,0.1722869873046875,9.729217529296875,0.32781779766082764,-0.544813871383667,0.0835900604724884,-0.10141464879634933,-0.02885071905413386,-0.0708154013146922
0.2823486328125,0.169891357421875,9.714859008789062,0.3142060339450836,-0.544813871383667,0.05635352060198784,-0.03147351169541876,-0.02885071905413386,0
0.2703857421875,0.169891357421875,9.702896118164062,0.3142060339450836,-0.544813871383667,0.05635352060198784,0.03846762540551182,-0.02885071905413386,-0.0708154013146922
0.2775726318359375,0.1627044677734375,9.702896118164062,0.32783064246177673,-0.544813871383667,0.083607517182827,-0.03147351169541876,-0.02885071905413386,-0.0708154013146922
0.2679901123046875,0.1627044677734375,9.702896118164062,0.3142145872116089,-0.5311935544013977,0.08361583203077316,-0.03147351169541876,-0.09966612036882606,0
0.2775726318359375,0.1627044677734375,9.714859008789062,0.31432193517684937,-0.5311935544013977,0.0836091861128807,-0.10141464879634933,-0.02885071905413386,0.06906687288716894
0.2895355224609375,0.157928466796875,9.698104858398438,0.31442928314208984,-0.5311935544013977,0.08359837532043457,-0.03147351169541876,-0.02885071905413386,0
0.2703857421875,0.1363983154296875,9.71246337890625,0.3145366311073303,-0.558434247970581,0.06996721774339676,-0.10141464879634933,-0.09966612036882606,0
0.2679901123046875,0.1722869873046875,9.695724487304688,0.3146439790725708,-0.558434247970581,0.06995641440153122,0.03846762540551182,0.040216153833035076,-0.0708154013146922
0.2823486328125,0.1627044677734375,9.707687377929688,0.3146525025367737,-0.5311935544013977,0.06995225697755814,0.03846762540551182,-0.02885071905413386,0
0.2847442626953125,0.157928466796875,9.698104858398438,0.3146567642688751,-0.5311935544013977,0.08357260376214981,-0.10141464879634933,-0.09966612036882606,0
0.2799530029296875,0.1746826171875,9.707687377929688,0.31476399302482605,-0.5311935544013977,0.08356262743473053,-0.10141464879634933,-0.16960725746975663,0
0.253631591796875,0.17706298828125,9.678970336914062,0.3150905668735504,-0.544813871383667,0.06991817057132721,-0.10141464879634933,0.040216153833035076,-0.0708154013146922
0.2560272216796875,0.1794586181640625,9.693328857421875,0.34243857860565186,-0.544813871383667,0.09714806079864502,-0.03147351169541876,-0.02885071905413386,0
0.2560272216796875,0.17706298828125,9.702896118164062,0.34243857860565186,-0.558434247970581,0.09714806079864502,-0.03147351169541876,-0.02885071905413386,0
0.2679901123046875,0.1674957275390625,9.72442626953125,0.3288182020187378,-0.5311935544013977,0.08353602886199951,0.03846762540551182,-0.02885071905413386,-0.0708154013146922
0.2608184814453125,0.1627044677734375,9.702896118164062,0.3288182020187378,-0.544813871383667,0.06992482393980026,-0.03147351169541876,-0.02885071905413386,0
0.2679901123046875,0.17706298828125,9.707687377929688,0.32892554998397827,-0.544813871383667,0.06992232799530029,-0.03147351169541876,-0.09966612036882606,0.06906687288716894
0.263214111328125,0.16510009765625,9.717254638671875,0.3291402757167816,-0.544813871383667,0.0835343599319458,0.03846762540551182,0.040216153833035076,0.06906687288716894
0.2560272216796875,0.181854248046875,9.693328857421875,0.32913175225257874,-0.544813871383667,0.08353353291749954,-0.10141464879634933,-0.02885071905413386,0.06906687288716894
0.2895355224609375,0.17706298828125,9.710067749023438,0.32912755012512207,-0.544813871383667,0.08353020250797272,0.03846762540551182,-0.09966612036882606,0.06906687288716894
0.251251220703125,0.1722869873046875,9.698104858398438,0.3292306959629059,-0.558434247970581,0.08351939916610718,-0.03147351169541876,-0.02885071905413386,0.06906687288716894
0.2560272216796875,0.1794586181640625,9.690933227539062,0.3428424000740051,-0.544813871383667,0.0835152417421341,-0.03147351169541876,-0.02885071905413386,-0.0708154013146922
0.253631591796875,0.17706298828125,9.693328857421875,0.3428424000740051,-0.544813871383667,0.0835152417421341,-0.03147351169541876,-0.02885071905413386,0
0.2703857421875,0.169891357421875,9.698104858398438,0.31561020016670227,-0.544813871383667,0.08351440727710724,-0.03147351169541876,-0.02885071905413386,0
0.2608184814453125,0.1746826171875,9.70050048828125,0.32923051714897156,-0.5311935544013977,0.08351440727710724,-0.10141464879634933,-0.02885071905413386,0
0.2799530029296875,0.1842498779296875,9.719650268554688,0.3292306959629059,-0.5311935544013977,0.08351440727710724,-0.10141464879634933,-0.02885071905413386,-0.0708154013146922
0.253631591796875,0.169891357421875,9.68853759765625,0.34285101294517517,-0.544813871383667,0.09712643921375275,-0.10141464879634933,0.040216153833035076,0
0.2799530029296875,0.1746826171875,9.710067749023438,0.32922637462615967,-0.558434247970581,0.06988159567117691,-0.03147351169541876,-0.02885071905413386,-0.0708154013146922
0.2775726318359375,0.1842498779296875,9.71246337890625,0.32923048734664917,-0.558434247970581,0.06988159567117691,-0.03147351169541876,-0.02885071905413386,0
0.287139892578125,0.16510009765625,9.710067749023438,0.31561437249183655,-0.558434247970581,0.08350194245576859,-0.03147351169541876,0.040216153833035076,0
0.2584228515625,0.1866455078125,9.690933227539062,0.31561437249183655,-0.5175732374191284,0.0834977850317955,-0.03147351169541876,-0.02885071905413386,-0.0708154013146922
0.2488555908203125,0.1794586181640625,9.710067749023438,0.31561869382858276,-0.5175732374191284,0.0834977850317955,-0.03147351169541876,-0.02885071905413386,0.06906687288716894
0.2584228515625,0.1794586181640625,9.705291748046875,0.3429625928401947,-0.558434247970581,0.06987161934375763,0.03846762540551182,0.040216153833035076,-0.0708154013146922
0.2799530029296875,0.1866455078125,9.714859008789062,0.329342246055603,-0.558434247970581,0.0834919661283493,-0.03147351169541876,-0.09966612036882606,0
0.275177001953125,0.1627044677734375,9.693328857421875,0.329342246055603,-0.558434247970581,0.0834919661283493,0.03846762540551182,-0.02885071905413386,-0.14075653841562277
0.275177001953125,0.1627044677734375,9.690933227539062,0.31583350896835327,-0.5311935544013977,0.08348448574542999,-0.03147351169541876,-0.02885071905413386,0.06906687288716894
0.2703857421875,0.1483612060546875,9.71246337890625,0.32945385575294495,-0.544813871383667,0.09710483253002167,-0.03147351169541876,-0.09966612036882606,0.06906687288716894
0.2775726318359375,0.1627044677734375,9.710067749023438,0.3295612037181854,-0.544813871383667,0.09709817916154861,-0.10141464879634933,-0.02885071905413386,0
0.2799530029296875,0.16510009765625,9.707687377929688,0.31594082713127136,-0.544813871383667,0.0970906987786293,-0.03147351169541876,-0.09966612036882606,0
0.2727813720703125,0.1674957275390625,9.698104858398438,0.31604817509651184,-0.544813871383667,0.08346287161111832,-0.03147351169541876,-0.02885071905413386,-0.0708154013146922
0.253631591796875,0.1794586181640625,9.681365966796875,0.3160524368286133,-0.544813871383667,0.08346287161111832,-0.03147351169541876,-0.02885071905413386,-0.0708154013146922
0.2560272216796875,0.1914215087890625,9.68853759765625,0.31615984439849854,-0.544813871383667,0.08345705270767212,-0.03147351169541876,-0.02885071905413386,-0.0708154013146922
0.2560272216796875,0.17706298828125,9.705291748046875,0.3298962116241455,-0.544813871383667,0.09707074612379074,-0.03147351169541876,-0.16960725746975663,-0.0708154013146922
0.2799530029296875,0.1674957275390625,9.717254638671875,0.3298962116241455,-0.544813871383667,0.09707074612379074,-0.10141464879634933,-0.09966612036882606,0
0.2799530029296875,0.1603240966796875,9.695724487304688,0.3168168365955353,-0.544813871383667,0.08341382443904877,-0.10141464879634933,-0.09966612036882606,-0.0708154013146922
0.2823486328125,0.16510009765625,9.695724487304688,0.316928505897522,-0.544813871383667,0.08339885622262955,-0.1713557858972799,-0.02885071905413386,0
0.2464599609375,0.1794586181640625,9.67657470703125,0.316928505897522,-0.544813871383667,0.08339469879865646,-0.10141464879634933,-0.09966612036882606,0
0.2608184814453125,0.17706298828125,9.693328857421875,0.3306562304496765,-0.544813871383667,0.08338389545679092,-0.10141464879634933,-0.02885071905413386,-0.0708154013146922
0.2703857421875,0.157928466796875,9.702896118164062,0.33066055178642273,-0.544813871383667,0.0833747461438179,-0.03147351169541876,-0.02885071905413386,-0.0708154013146922
0.2775726318359375,0.145965576171875,9.681365966796875,0.3306647539138794,-0.544813871383667,0.0833747461438179,-0.10141464879634933,-0.02885071905413386,0
0.2560272216796875,0.1627044677734375,9.671783447265625,0.31704452633857727,-0.5311935544013977,0.09698677808046341,-0.03147351169541876,-0.02885071905413386,0
0.2799530029296875,0.1555328369140625,9.71246337890625,0.3443925678730011,-0.558434247970581,0.09697597473859787,-0.03147351169541876,-0.02885071905413386,0
0.2823486328125,0.1555328369140625,9.698104858398438,0.3443925678730011,-0.558434247970581,0.09697597473859787,-0.10141464879634933,-0.09966612036882606,0
0.275177001953125,0.1674957275390625,9.70050048828125,0.31736212968826294,-0.5311935544013977,0.0833381712436676,-0.10141464879634933,-0.09966612036882606,-0.0708154013146922
0.2775726318359375,0.15313720703125,9.710067749023438,0.31747379899024963,-0.5311935544013977,0.08332736045122147,-0.03147351169541876,-0.02885071905413386,0
0.263214111328125,0.193817138671875,9.686141967773438,0.31747379899024963,-0.5311935544013977,0.08332736045122147,-0.03147351169541876,-0.09966612036882606,0.06906687288716894
0.2584228515625,0.1794586181640625,9.695724487304688,0.31758129596710205,-0.544813871383667,0.08332071453332901,-0.10141464879634933,-0.02885071905413386,0.06906687288716894
0.263214111328125,0.1674957275390625,9.710067749023438,0.331304669380188,-0.544813871383667,0.08331073820590973,-0.03147351169541876,-0.02885071905413386,0.13988227420186114
0.2656097412109375,0.1674957275390625,9.693328857421875,0.3313003480434418,-0.544813871383667,0.08331073820590973,0.03846762540551182,-0.02885071905413386,-0.0708154013146922
0.2727813720703125,0.1722869873046875,9.710067749023438,0.30406397581100464,-0.5311935544013977,0.08331073820590973,-0.10141464879634933,-0.02885071905413386,-0.0708154013146922
0.2727813720703125,0.181854248046875,9.731613159179688,0.31769290566444397,-0.558434247970581,0.08330990374088287,-0.03147351169541876,-0.02885071905413386,0
0.2799530029296875,0.16510009765625,9.690933227539062,0.31769290566444397,-0.558434247970581,0.08330990374088287,0.03846762540551182,-0.09966612036882606,0
0.275177001953125,0.16510009765625,9.698104858398438,0.3179076015949249,-0.544813871383667,0.06967625766992569,-0.03147351169541876,-0.09966612036882606,0
0.2656097412109375,0.16510009765625,9.702896118164062,0.3181265890598297,-0.5311935544013977,0.06965464353561401,-0.10141464879634933,-0.09966612036882606,0
0.263214111328125,0.181854248046875,9.702896118164062,0.33185437321662903,-0.544813871383667,0.06964466720819473,-0.10141464879634933,-0.02885071905413386,0
0.2560272216796875,0.145965576171875,9.719650268554688,0.33185437321662903,-0.5311935544013977,0.06963635236024857,-0.03147351169541876,-0.02885071905413386,-0.0708154013146922
0.2608184814453125,0.1746826171875,9.70050048828125,0.3182426691055298,-0.544813871383667,0.08325587213039398,-0.03147351169541876,-0.02885071905413386,-0.14075653841562277
0.263214111328125,0.1746826171875,9.717254638671875,0.3182469606399536,-0.544813871383667,0.08325587213039398,-0.03147351169541876,0.040216153833035076,0
0.251251220703125,0.1722869873046875,9.70050048828125,0.33186736702919006,-0.5311935544013977,0.0832517147064209,-0.03147351169541876,-0.02885071905413386,-0.0708154013146922
0.275177001953125,0.1627044677734375,9.714859008789062,0.33197471499443054,-0.544813871383667,0.0832458883523941,-0.03147351169541876,-0.02885071905413386,0
0.2727813720703125,0.181854248046875,9.705291748046875,0.33197471499443054,-0.544813871383667,0.0832458883523941,-0.10141464879634933,-0.09966612036882606,0.13988227420186114
0.2656097412109375,0.1483612060546875,9.719650268554688,0.3185648024082184,-0.5311935544013977,0.08321928977966309,-0.10141464879634933,-0.02885071905413386,0
0.2799530029296875,0.1627044677734375,9.702896118164062,0.33218514919281006,-0.5311935544013977,0.08321513235569,-0.10141464879634933,0.040216153833035076,0
0.299102783203125,0.1674957275390625,9.698104858398438,0.33218514919281006,-0.5311935544013977,0.08321097493171692,-0.03147351169541876,0.040216153833035076,0.06906687288716894
0.2775726318359375,0.14117431640625,9.705291748046875,0.3049401342868805,-0.5311935544013977,0.08320682495832443,0.03846762540551182,0.040216153833035076,-0.0708154013146922
0.2679901123046875,0.193817138671875,9.741180419921875,0.33218520879745483,-0.544813871383667,0.09682716429233551,-0.10141464879634933,-0.09966612036882606,0
0.2584228515625,0.1555328369140625,9.702896118164062,0.33218520879745483,-0.544813871383667,0.09682716429233551,-0.10141464879634933,-0.02885071905413386,0.06906687288716894
0.2703857421875,0.1627044677734375,9.686141967773438,0.33228838443756104,-0.5311935544013977,0.09680721163749695,-0.10141464879634933,-0.02885071905413386,0.06906687288716894
0.2679901123046875,0.169891357421875,9.717254638671875,0.318663626909256,-0.5311935544013977,0.06956236809492111,0.03846762540551182,-0.02885071905413386,-0.0708154013146922
0.2679901123046875,0.1603240966796875,9.68853759765625,0.31866350769996643,-0.5311935544013977,0.06956236809492111,0.03846762540551182,-0.02885071905413386,0.06906687288716894
0.287139892578125,0.1603240966796875,9.71246337890625,0.3187710642814636,-0.544813871383667,0.08317606151103973,-0.10141464879634933,-0.02885071905413386,0
0.2727813720703125,0.169891357421875,9.70050048828125,0.3187710642814636,-0.544813871383667,0.08316276222467422,-0.1713557858972799,-0.02885071905413386,-0.0708154013146922
0.2464599609375,0.145965576171875,9.71246337890625,0.3187710642814636,-0.544813871383667,0.08316276222467422,-0.03147351169541876,-0.02885071905413386,-0.0708154013146922
0.287139892578125,0.1603240966796875,9.693328857421875,0.34611910581588745,-0.544813871383667,0.08315694332122803,-0.03147351169541876,-0.02885071905413386,0
0.2488555908203125,0.1746826171875,9.671783447265625,0.3189900815486908,-0.5311935544013977,0.08314530551433563,-0.03147351169541876,-0.02885071905413386,0.06906687288716894
0.2656097412109375,0.169891357421875,9.690933227539062,0.3326060473918915,-0.544813871383667,0.09676565229892731,-0.03147351169541876,-0.09966612036882606,0
0.2823486328125,0.1674957275390625,9.693328857421875,0.31909748911857605,-0.558434247970581,0.08313532918691635,0.03846762540551182,-0.02885071905413386,-0.0708154013146922
0.275177001953125,0.1555328369140625,9.68853759765625,0.3192135989665985,-0.5311935544013977,0.09674903005361557,-0.03147351169541876,-0.09966612036882606,0
0.287139892578125,0.1627044677734375,9.707687377929688,0.3193208873271942,-0.5311935544013977,0.09674237668514252,-0.03147351169541876,-0.02885071905413386,0
0.253631591796875,0.169891357421875,9.683746337890625,0.33294132351875305,-0.558434247970581,0.08311787247657776,-0.03147351169541876,-0.02885071905413386,0
0.2847442626953125,0.157928466796875,9.71246337890625,0.3331560492515564,-0.544813871383667,0.08309625834226608,-0.10141464879634933,-0.09966612036882606,0
0.2656097412109375,0.1507415771484375,9.71246337890625,0.3332633674144745,-0.544813871383667,0.08308545500040054,0.03846762540551182,-0.02885071905413386,0.13988227420186114
0.287139892578125,0.1627044677734375,9.702896118164062,0.3333665132522583,-0.544813871383667,0.0830787941813469,-0.10141464879634933,-0.02885071905413386,0
0.275177001953125,0.1483612060546875,9.717254638671875,0.31985360383987427,-0.544813871383667,0.0694434866309166,-0.10141464879634933,-0.09966612036882606,-0.0708154013146922
0.2703857421875,0.157928466796875,9.717254638671875,0.31985360383987427,-0.544813871383667,0.06943932920694351,-0.03147351169541876,-0.02885071905413386,-0.0708154013146922
0.2560272216796875,0.181854248046875,9.702896118164062,0.3334824740886688,-0.5720545649528503,0.08305884152650833,-0.03147351169541876,-0.09966612036882606,0.06906687288716894
0.2703857421875,0.1627044677734375,9.68853759765625,0.30634480714797974,-0.5720545649528503,0.06942852586507797,-0.03147351169541876,-0.02885071905413386,0
0.2703857421875,0.1603240966796875,9.698104858398438,0.30634480714797974,-0.5720545649528503,0.06942852586507797,-0.10141464879634933,-0.09966612036882606,0
0.2703857421875,0.1674957275390625,9.71246337890625,0.3336886167526245,-0.558434247970581,0.08303723484277725,-0.03147351169541876,-0.02885071905413386,0
0.2464599609375,0.1674957275390625,9.67657470703125,0.3336886167526245,-0.544813871383667,0.09665758162736893,-0.03147351169541876,0.040216153833035076,0
0.2727813720703125,0.1674957275390625,9.681365966796875,0.3336886167526245,-0.544813871383667,0.09665758162736893,0.03846762540551182,-0.02885071905413386,0
0.2608184814453125,0.169891357421875,9.705291748046875,0.32028305530548096,-0.558434247970581,0.083024762570858,-0.10141464879634933,-0.09966612036882606,0
0.2656097412109375,0.1746826171875,9.705291748046875,0.33411821722984314,-0.558434247970581,0.08300730586051941,-0.10141464879634933,-0.09966612036882606,-0.0708154013146922
0.2775726318359375,0.1627044677734375,9.7220458984375,0.3342255651950836,-0.558434247970581,0.08299566805362701,-0.03147351169541876,-0.02885071905413386,0
0.2703857421875,0.1627044677734375,9.695724487304688,0.32071250677108765,-0.544813871383667,0.08298984915018082,-0.03147351169541876,-0.09966612036882606,0
0.2608184814453125,0.1794586181640625,9.693328857421875,0.3208199739456177,-0.5720545649528503,0.06936367601156235,0.03846762540551182,-0.02885071905413386,-0.0708154013146922
0.2679901123046875,0.169891357421875,9.695724487304688,0.3344446122646332,-0.558434247970581,0.09660354256629944,-0.10141464879634933,-0.02885071905413386,-0.0708154013146922
0.29193115234375,0.1914215087890625,9.710067749023438,0.32104769349098206,-0.5720545649528503,0.08296158164739609,-0.03147351169541876,-0.02885071905413386,-0.0708154013146922
0.2560272216796875,0.181854248046875,9.693328857421875,0.3482883870601654,-0.558434247970581,0.11020228266716003,-0.03147351169541876,-0.09966612036882606,0.06906687288716894
0.253631591796875,0.1627044677734375,9.68853759765625,0.3483957350254059,-0.558434247970581,0.11019562929868698,-0.10141464879634933,-0.02885071905413386,-0.0708154013146922
0.2584228515625,0.169891357421875,9.690933227539062,0.32115939259529114,-0.544813871383667,0.0965752825140953,0.03846762540551182,-0.02885071905413386,0
0.2775726318359375,0.169891357421875,9.710067749023438,0.3347797393798828,-0.558434247970581,0.08295492827892303,-0.03147351169541876,-0.02885071905413386,0
0.275177001953125,0.169891357421875,9.693328857421875,0.3347797393798828,-0.558434247970581,0.08295492827892303,-0.03147351169541876,-0.02885071905413386,-0.0708154013146922
0.275177001953125,0.1627044677734375,9.705291748046875,0.33478844165802,-0.558434247970581,0.0965752825140953,-0.03147351169541876,-0.02885071905413386,0
0.251251220703125,0.17706298828125,9.67657470703125,0.33478844165802,-0.558434247970581,0.08295492827892303,-0.03147351169541876,-0.02885071905413386,0
0.2584228515625,0.1627044677734375,9.710067749023438,0.33478844165802,-0.558434247970581,0.08295492827892303,-0.10141464879634933,-0.02885071905413386,0.06906687288716894
0.287139892578125,0.1555328369140625,9.68853759765625,0.3484000563621521,-0.558434247970581,0.09656696021556854,-0.03147351169541876,-0.09966612036882606,0
0.2799530029296875,0.16510009765625,9.71246337890625,0.3213653564453125,-0.544813871383667,0.09655366837978363,-0.10141464879634933,-0.02885071905413386,0
0.2823486328125,0.16510009765625,9.702896118164062,0.3213653564453125,-0.544813871383667,0.09655366837978363,-0.10141464879634933,-0.02885071905413386,-0.0708154013146922
0.2608184814453125,0.1842498779296875,9.690933227539062,0.33499011397361755,-0.5720545649528503,0.09654119610786438,-0.03147351169541876,-0.02885071905413386,-0.0708154013146922
0.2775726318359375,0.1627044677734375,9.705291748046875,0.33499011397361755,-0.558434247970581,0.0829208493232727,-0.03147351169541876,-0.02885071905413386,-0.0708154013146922
0.2560272216796875,0.1746826171875,9.702896118164062,0.33499449491500854,-0.558434247970581,0.08291586488485336,-0.03147351169541876,0.040216153833035076,0
0.2584228515625,0.1746826171875,9.690933227539062,0.32137414813041687,-0.544813871383667,0.09653204679489136,-0.03147351169541876,-0.02885071905413386,0
0.275177001953125,0.169891357421875,9.714859008789062,0.33499449491500854,-0.558434247970581,0.08291170001029968,-0.03147351169541876,0.040216153833035076,0.06906687288716894
0.2823486328125,0.16510009765625,9.702896118164062,0.33499449491500854,-0.558434247970581,0.0829075500369072,-0.10141464879634933,-0.02885071905413386,0
0.2799530029296875,0.1627044677734375,9.68853759765625,0.32137420773506165,-0.558434247970581,0.08289840817451477,-0.03147351169541876,-0.02885071905413386,-0.0708154013146922
0.275177001953125,0.1627044677734375,9.702896118164062,0.3349989652633667,-0.544813871383667,0.09651375561952591,-0.10141464879634933,-0.09966612036882606,-0.0708154013146922
0.2703857421875,0.1603240966796875,9.707687377929688,0.3351106345653534,-0.544813871383667,0.08288343995809555,-0.10141464879634933,-0.02885071905413386,0.06906687288716894
0.2584228515625,0.181854248046875,9.67657470703125,0.3487266004085541,-0.5720545649528503,0.11011498421430588,-0.03147351169541876,-0.02885071905413386,0
0.287139892578125,0.1603240966796875,9.707687377929688,0.3214859366416931,-0.5720545649528503,0.06924978643655777,-0.03147351169541876,-0.02885071905413386,0.06906687288716894
0.2608184814453125,0.181854248046875,9.681365966796875,0.3214859366416931,-0.5720545649528503,0.06924978643655777,-0.03147351169541876,-0.02885071905413386,0.06906687288716894
0.2584228515625,0.1674957275390625,9.683746337890625,0.3351063132286072,-0.558434247970581,0.11011083424091339,-0.03147351169541876,0.040216153833035076,0
0.2703857421875,0.1603240966796875,9.702896118164062,0.3351063132286072,-0.558434247970581,0.08287014067173004,0.03846762540551182,-0.02885071905413386,0
0.263214111328125,0.1746826171875,9.683746337890625,0.3351063132286072,-0.558434247970581,0.08287014067173004,-0.03147351169541876,-0.02885071905413386,0.06906687288716894
0.2560272216796875,0.181854248046875,9.698104858398438,0.3351063132286072,-0.558434247970581,0.09649048745632172,-0.10141464879634933,-0.02885071905413386,0
0.2608184814453125,0.1746826171875,9.710067749023438,0.3351063132286072,-0.558434247970581,0.09649048745632172,-0.03147351169541876,-0.02885071905413386,0
0.2847442626953125,0.16510009765625,9.695724487304688,0.3351063132286072,-0.558434247970581,0.08286598324775696,-0.10141464879634933,-0.02885071905413386,0
0.253631591796875,0.169891357421875,9.690933227539062,0.3215934634208679,-0.558434247970581,0.08285018801689148,-0.10141464879634933,-0.09966612036882606,0
0.2847442626953125,0.16510009765625,9.710067749023438,0.3215934634208679,-0.558434247970581,0.08285018801689148,-0.03147351169541876,-0.09966612036882606,0
0.2799530029296875,0.15313720703125,9.710067749023438,0.3216964304447174,-0.5720545649528503,0.08283937722444534,-0.10141464879634933,-0.02885071905413386,0
0.2656097412109375,0.1555328369140625,9.705291748046875,0.3355315327644348,-0.544813871383667,0.08282192051410675,-0.10141464879634933,-0.02885071905413386,0
0.2608184814453125,0.1722869873046875,9.68853759765625,0.3355315625667572,-0.558434247970581,0.09643395990133286,-0.03147351169541876,-0.02885071905413386,0
0.2703857421875,0.1483612060546875,9.707687377929688,0.3355315625667572,-0.558434247970581,0.09643395990133286,-0.03147351169541876,-0.09966612036882606,0
0.2608184814453125,0.1866455078125,9.7220458984375,0.3357464373111725,-0.5720545649528503,0.06917580217123032,-0.10141464879634933,-0.09966612036882606,0
0.2775726318359375,0.157928466796875,9.705291748046875,0.3357464671134949,-0.544813871383667,0.08279116451740265,-0.03147351169541876,-0.02885071905413386,0
0.2775726318359375,0.1866455078125,9.726821899414062,0.33585381507873535,-0.544813871383667,0.08278533816337585,-0.03147351169541876,-0.02885071905413386,0
0.263214111328125,0.1722869873046875,9.690933227539062,0.33585381507873535,-0.544813871383667,0.08278533816337585,0.03846762540551182,-0.02885071905413386,-0.0708154013146922
0.2584228515625,0.17706298828125,9.695724487304688,0.3358626067638397,-0.558434247970581,0.09640901535749435,-0.10141464879634933,-0.02885071905413386,-0.0708154013146922
0.2584228515625,0.1746826171875,9.710067749023438,0.34948715567588806,-0.558434247970581,0.08278533816337585,-0.10141464879634933,-0.09966612036882606,0.06906687288716894
0.275177001953125,0.1746826171875,9.705291748046875,0.3360772132873535,-0.558434247970581,0.0963832437992096,-0.10141464879634933,-0.09966612036882606,0.06906687288716894
0.2656097412109375,0.169891357421875,9.693328857421875,0.33629196882247925,-0.5720545649528503,0.06912177056074142,-0.03147351169541876,-0.09966612036882606,0
0.2799530029296875,0.1722869873046875,9.7220458984375,0.3500196635723114,-0.558434247970581,0.09635498374700546,0.03846762540551182,0.040216153833035076,0
0.263214111328125,0.181854248046875,9.68853759765625,0.3363993167877197,-0.5720545649528503,0.09635498374700546,-0.10141464879634933,0.040216153833035076,-0.14075653841562277
0.2799530029296875,0.16510009765625,9.702896118164062,0.32278332114219666,-0.558434247970581,0.0963466614484787,-0.10141464879634933,-0.02885071905413386,0.06906687288716894
0.2703857421875,0.169891357421875,9.705291748046875,0.32278332114219666,-0.558434247970581,0.0963466614484787,-0.10141464879634933,-0.02885071905413386,0
0.263214111328125,0.181854248046875,9.695724487304688,0.33640366792678833,-0.558434247970581,0.09634251147508621,-0.03147351169541876,-0.02885071905413386,0.06906687288716894
0.263214111328125,0.1722869873046875,9.7220458984375,0.336502343416214,-0.558434247970581,0.06909516453742981,-0.03147351169541876,-0.09966612036882606,0.13988227420186114
0.2560272216796875,0.1603240966796875,9.702896118164062,0.3366052806377411,-0.558434247970581,0.06908851116895676,-0.03147351169541876,-0.09966612036882606,0
0.2895355224609375,0.181854248046875,9.71246337890625,0.336820125579834,-0.544813871383667,0.0963159054517746,-0.03147351169541876,-0.02885071905413386,-0.0708154013146922
0.275177001953125,0.1603240966796875,9.698104858398438,0.32320839166641235,-0.5311935544013977,0.0963159054517746,0.10928302672020401,-0.02885071905413386,-0.14075653841562277
0.275177001953125,0.1483612060546875,9.698104858398438,0.32320839166641235,-0.5311935544013977,0.0963159054517746,-0.03147351169541876,-0.09966612036882606,-0.0708154013146922
0.275177001953125,0.1674957275390625,9.717254638671875,0.3233290910720825,-0.558434247970581,0.08269307017326355,0.03846762540551182,-0.02885071905413386,0
0.2703857421875,0.16510009765625,9.698104858398438,0.3233290910720825,-0.558434247970581,0.09631340950727463,0.03846762540551182,-0.02885071905413386,0
0.2656097412109375,0.1555328369140625,9.698104858398438,0.3233290910720825,-0.558434247970581,0.09631340950727463,-0.03147351169541876,-0.09966612036882606,0.06906687288716894
0.251251220703125,0.169891357421875,9.686141967773438,0.3506770730018616,-0.558434247970581,0.096298448741436,-0.10141464879634933,-0.02885071905413386,0
0.2656097412109375,0.169891357421875,9.695724487304688,0.3370611369609833,-0.558434247970581,0.08267810195684433,-0.03147351169541876,-0.02885071905413386,-0.0708154013146922
0.2656097412109375,0.181854248046875,9.7220458984375,0.3370611369609833,-0.558434247970581,0.08267394453287125,-0.03147351169541876,0.040216153833035076,0.06906687288716894
0.2703857421875,0.1603240966796875,9.707687377929688,0.3370611369609833,-0.558434247970581,0.08267394453287125,0.03846762540551182,-0.09966612036882606,0
0.2727813720703125,0.1746826171875,9.690933227539062,0.32365548610687256,-0.558434247970581,0.09628098458051682,0.03846762540551182,-0.02885071905413386,-0.0708154013146922
0.2608184814453125,0.17706298828125,9.686141967773438,0.32376718521118164,-0.558434247970581,0.09626935422420502,-0.1713557858972799,-0.02885071905413386,-0.0708154013146922
0.2727813720703125,0.16510009765625,9.698104858398438,0.3373919725418091,-0.558434247970581,0.08263653516769409,-0.03147351169541876,-0.02885071905413386,0
0.2775726318359375,0.1627044677734375,9.702896118164062,0.3374992907047272,-0.558434247970581,0.09625023603439331,-0.03147351169541876,-0.09966612036882606,0
0.263214111328125,0.1842498779296875,9.693328857421875,0.35111966729164124,-0.558434247970581,0.10987058281898499,-0.03147351169541876,-0.02885071905413386,0
0.275177001953125,0.1794586181640625,9.702896118164062,0.3374992907047272,-0.5720545649528503,0.08262988924980164,-0.03147351169541876,-0.02885071905413386,-0.0708154013146922
0.275177001953125,0.1674957275390625,9.693328857421875,0.32388779520988464,-0.558434247970581,0.08262573182582855,-0.10141464879634933,-0.02885071905413386,-0.0708154013146922
0.2584228515625,0.18902587890625,9.717254638671875,0.3239995241165161,-0.558434247970581,0.08261409401893616,-0.03147351169541876,-0.02885071905413386,0
0.2823486328125,0.157928466796875,9.702896118164062,0.3239995241165161,-0.558434247970581,0.08261409401893616,-0.03147351169541876,-0.09966612036882606,0.06906687288716894
0.2799530029296875,0.16510009765625,9.68853759765625,0.32421424984931946,-0.544813871383667,0.09622196853160858,-0.03147351169541876,-0.09966612036882606,0.06906687288716894
0.253631591796875,0.1722869873046875,9.686141967773438,0.32432156801223755,-0.544813871383667,0.09621532261371613,-0.03147351169541876,-0.09966612036882606,0
0.275177001953125,0.169891357421875,9.698104858398438,0.32432156801223755,-0.544813871383667,0.09621532261371613,-0.10141464879634933,-0.16960725746975663,0
0.2775726318359375,0.1674957275390625,9.71246337890625,0.33826401829719543,-0.558434247970581,0.09619120508432388,-0.03147351169541876,-0.09966612036882606,0
0.2584228515625,0.16510009765625,9.705291748046875,0.32485854625701904,-0.558434247970581,0.08255340158939362,-0.03147351169541876,-0.09966612036882606,0
0.2560272216796875,0.1722869873046875,9.70050048828125,0.32485854625701904,-0.558434247970581,0.08255340158939362,-0.03147351169541876,-0.02885071905413386,0
0.2703857421875,0.16510009765625,9.702896118164062,0.3250732123851776,-0.558434247970581,0.08253594487905502,-0.03147351169541876,-0.02885071905413386,0
0.2656097412109375,0.1555328369140625,9.71246337890625,0.33880093693733215,-0.544813871383667,0.08252514153718948,-0.03147351169541876,-0.09966612036882606,-0.0708154013146922
0.2656097412109375,0.1627044677734375,9.698104858398438,0.33890846371650696,-0.544813871383667,0.08251848816871643,0.03846762540551182,-0.02885071905413386,0
0.2656097412109375,0.169891357421875,9.690933227539062,0.32539093494415283,-0.558434247970581,0.09613218158483505,-0.03147351169541876,-0.09966612036882606,0.13988227420186114
0.2656097412109375,0.1674957275390625,9.707687377929688,0.3527301847934723,-0.5720545649528503,0.0961255356669426,-0.10141464879634933,-0.02885071905413386,-0.0708154013146922
0.251251220703125,0.1794586181640625,9.678970336914062,0.35273027420043945,-0.5720545649528503,0.09612137824296951,-0.03147351169541876,-0.09966612036882606,0
0.2847442626953125,0.1555328369140625,9.710067749023438,0.3393246829509735,-0.558434247970581,0.09610392153263092,-0.03147351169541876,-0.02885071905413386,-0.0708154013146922
0.251251220703125,0.181854248046875,9.683746337890625,0.32570865750312805,-0.558434247970581,0.09609977155923843,-0.03147351169541876,-0.02885071905413386,0.06906687288716894
0.263214111328125,0.1722869873046875,9.705291748046875,0.32570427656173706,-0.558434247970581,0.09609977155923843,-0.03147351169541876,-0.09966612036882606,-0.0708154013146922
0.2679901123046875,0.157928466796875,9.705291748046875,0.33954373002052307,-0.558434247970581,0.08246611803770065,-0.1713557858972799,-0.09966612036882606,0.06906687288716894
0.2775726318359375,0.1603240966796875,9.698104858398438,0.33965107798576355,-0.558434247970581,0.08244616538286209,-0.10141464879634933,-0.02885071905413386,0.13988227420186114
0.2703857421875,0.1627044677734375,9.695724487304688,0.33965107798576355,-0.558434247970581,0.08244616538286209,-0.03147351169541876,-0.02885071905413386,0
0.2799530029296875,0.1555328369140625,9.702896118164062,0.35326695442199707,-0.5720545649528503,0.08244117349386215,0.03846762540551182,-0.09966612036882606,-0.0708154013146922
0.2727813720703125,0.1603240966796875,9.690933227539062,0.3261338174343109,-0.544813871383667,0.09605487436056137,0.03846762540551182,-0.09966612036882606,0
0.2727813720703125,0.16510009765625,9.702896118164062,0.326133668422699,-0.544813871383667,0.09605487436056137,-0.03147351169541876,-0.09966612036882606,0.06906687288716894
0.253631591796875,0.1746826171875,9.695724487304688,0.32634857296943665,-0.558434247970581,0.09603741765022278,-0.03147351169541876,-0.09966612036882606,-0.0708154013146922
0.275177001953125,0.17706298828125,9.690933227539062,0.35380828380584717,-0.558434247970581,0.08240459859371185,-0.10141464879634933,-0.09966612036882606,0.06906687288716894
0.2847442626953125,0.181854248046875,9.7220458984375,0.35391563177108765,-0.558434247970581,0.08239296078681946,-0.10141464879634933,-0.09966612036882606,-0.0708154013146922
0.2656097412109375,0.169891357421875,9.693328857421875,0.32678675651550293,-0.558434247970581,0.0960025042295456,-0.10141464879634933,-0.02885071905413386,-0.0708154013146922
0.2775726318359375,0.1507415771484375,9.695724487304688,0.32657209038734436,-0.558434247970581,0.06877095252275467,-0.03147351169541876,-0.02885071905413386,0
0.2608184814453125,0.1627044677734375,9.671783447265625,0.32657209038734436,-0.558434247970581,0.06877095252275467,-0.03147351169541876,-0.02885071905413386,0
0.263214111328125,0.15313720703125,9.705291748046875,0.340192586183548,-0.544813871383667,0.09601164609193802,-0.03147351169541876,-0.09966612036882606,-0.0708154013146922
0.263214111328125,0.1746826171875,9.714859008789062,0.3264647424221039,-0.558434247970581,0.08239711821079254,-0.10141464879634933,-0.09966612036882606,-0.0708154013146922
0.2703857421875,0.1627044677734375,9.717254638671875,0.3264646828174591,-0.558434247970581,0.08239296078681946,-0.03147351169541876,-0.02885071905413386,0
0.263214111328125,0.1746826171875,9.693328857421875,0.32635295391082764,-0.544813871383667,0.08239544928073883,-0.10141464879634933,-0.02885071905413386,-0.0708154013146922
0.2727813720703125,0.1746826171875,9.702896118164062,0.3398703336715698,-0.558434247970581,0.08239711821079254,-0.03147351169541876,-0.02885071905413386,0
0.2823486328125,0.1794586181640625,9.705291748046875,0.3398703336715698,-0.558434247970581,0.08239711821079254,-0.03147351169541876,-0.02885071905413386,0
0.2584228515625,0.181854248046875,9.68853759765625,0.32624998688697815,-0.558434247970581,0.09601746499538422,-0.03147351169541876,-0.09966612036882606,0
0.2799530029296875,0.157928466796875,9.690933227539062,0.3398703336715698,-0.544813871383667,0.08239711821079254,-0.03147351169541876,-0.09966612036882606,0
0.2608184814453125,0.1627044677734375,9.70050048828125,0.3398703336715698,-0.544813871383667,0.08239711821079254,-0.03147351169541876,-0.02885071905413386,0.06906687288716894
0.2703857421875,0.157928466796875,9.695724487304688,0.33975857496261597,-0.544813871383667,0.08240459859371185,-0.03147351169541876,-0.09966612036882606,0
0.251251220703125,0.1746826171875,9.686141967773438,0.35326722264289856,-0.558434247970581,0.1096511110663414,-0.03147351169541876,-0.02885071905413386,0.06906687288716894
0.2703857421875,0.16510009765625,9.71246337890625,0.33953946828842163,-0.558434247970581,0.09603741765022278,0.03846762540551182,-0.16960725746975663,0
0.2847442626953125,0.1603240966796875,9.698104858398438,0.3260264992713928,-0.558434247970581,0.08241041749715805,-0.03147351169541876,-0.09966612036882606,0
0.253631591796875,0.1746826171875,9.681365966796875,0.3396468758583069,-0.558434247970581,0.09603076428174973,-0.03147351169541876,-0.02885071905413386,0
0.2560272216796875,0.1746826171875,9.68853759765625,0.3396468758583069,-0.558434247970581,0.09602661430835724,-0.03147351169541876,-0.02885071905413386,0
0.2560272216796875,0.17706298828125,9.70050048828125,0.33953946828842163,-0.5720545649528503,0.09602910280227661,-0.03147351169541876,-0.09966612036882606,-0.0708154013146922
0.2727813720703125,0.1746826171875,9.705291748046875,0.33943212032318115,-0.558434247970581,0.08241457492113113,-0.03147351169541876,-0.02885071905413386,0
0.2679901123046875,0.1674957275390625,9.71246337890625,0.33943212032318115,-0.558434247970581,0.08241457492113113,-0.03147351169541876,-0.09966612036882606,0
0.275177001953125,0.1603240966796875,9.695724487304688,0.3393203616142273,-0.558434247970581,0.08242122083902359,0.10928302672020401,-0.02885071905413386,-0.0708154013146922
0.2703857421875,0.16510009765625,9.710067749023438,0.3391145169734955,-0.558434247970581,0.10967937856912613,-0.03147351169541876,-0.09966612036882606,0
0.263214111328125,0.169891357421875,9.690933227539062,0.3391145169734955,-0.558434247970581,0.10967937856912613,-0.1713557858972799,-0.09966612036882606,0
0.2608184814453125,0.1794586181640625,9.686141967773438,0.339007169008255,-0.558434247970581,0.09604822844266891,-0.1713557858972799,-0.09966612036882606,0.06906687288716894
0.2727813720703125,0.157928466796875,9.695724487304688,0.32538676261901855,-0.558434247970581,0.06879838556051254,-0.03147351169541876,-0.09966612036882606,0
0.2823486328125,0.157928466796875,9.690933227539062,0.32538676261901855,-0.558434247970581,0.06879838556051254,0.03846762540551182,-0.02885071905413386,0.06906687288716894
0.251251220703125,0.1722869873046875,9.686141967773438,0.3525201082229614,-0.558434247970581,0.09604572504758835,-0.03147351169541876,-0.02885071905413386,0
0.2464599609375,0.17706298828125,9.678970336914062,0.35241714119911194,-0.5720545649528503,0.0960523784160614,-0.03147351169541876,-0.02885071905413386,-0.0708154013146922
0.2847442626953125,0.1603240966796875,9.690933227539062,0.35230979323387146,-0.5720545649528503,0.09605902433395386,-0.10141464879634933,-0.02885071905413386,0
0.2775726318359375,0.1603240966796875,9.710067749023438,0.324966162443161,-0.558434247970581,0.09606068581342697,-0.1713557858972799,-0.02885071905413386,-0.0708154013146922
0.2895355224609375,0.145965576171875,9.693328857421875,0.3111400306224823,-0.5311935544013977,0.09606068581342697,-0.10141464879634933,-0.02885071905413386,-0.0708154013146922
0.2584228515625,0.169891357421875,9.695724487304688,0.31102806329727173,-0.5311935544013977,0.09606734663248062,-0.03147351169541876,-0.09966612036882606,0
0.2967071533203125,0.2010040283203125,9.702896118164062,0.32454562187194824,-0.5720545649528503,0.0824536457657814,-0.03147351169541876,-0.02885071905413386,0
0.2775726318359375,0.1555328369140625,9.710067749023438,0.324438214302063,-0.558434247970581,0.0688357949256897,-0.10141464879634933,-0.02885071905413386,0.06906687288716894
0.263214111328125,0.1627044677734375,9.702896118164062,0.324438214302063,-0.558434247970581,0.0688357949256897,-0.10141464879634933,-0.02885071905413386,-0.14075653841562277
0.2608184814453125,0.1722869873046875,9.693328857421875,0.3377496898174286,-0.558434247970581,0.09608645737171173,-0.10141464879634933,-0.09966612036882606,-0.14075653841562277
0.2679901123046875,0.17706298828125,9.68853759765625,0.33775410056114197,-0.558434247970581,0.09607897698879242,-0.10141464879634933,-0.09966612036882606,0
0.2703857421875,0.1627044677734375,9.67657470703125,0.33775410056114197,-0.558434247970581,0.09607400000095367,-0.10141464879634933,0.040216153833035076,0.06906687288716894
0.2679901123046875,0.1674957275390625,9.707687377929688,0.35137444734573364,-0.558434247970581,0.10968935489654541,-0.03147351169541876,-0.09966612036882606,0
0.2679901123046875,0.17706298828125,9.702896118164062,0.3376467525959015,-0.558434247970581,0.08245530724525452,-0.03147351169541876,-0.02885071905413386,0
0.2799530029296875,0.16510009765625,9.705291748046875,0.33754390478134155,-0.558434247970581,0.08246196061372757,-0.10141464879634933,0.040216153833035076,0
0.2775726318359375,0.181854248046875,9.690933227539062,0.323816180229187,-0.544813871383667,0.08246029913425446,-0.10141464879634933,-0.09966612036882606,0
0.263214111328125,0.17706298828125,9.702896118164062,0.323816180229187,-0.544813871383667,0.08246029913425446,-0.10141464879634933,-0.02885071905413386,0
0.263214111328125,0.16510009765625,9.707687377929688,0.3374365568161011,-0.558434247970581,0.08245114982128143,-0.03147351169541876,-0.02885071905413386,0
0.2560272216796875,0.1746826171875,9.683746337890625,0.3374409079551697,-0.558434247970581,0.09607149660587311,-0.1713557858972799,-0.09966612036882606,-0.0708154013146922
0.263214111328125,0.169891357421875,9.683746337890625,0.3374409079551697,-0.558434247970581,0.09607149660587311,-0.10141464879634933,-0.09966612036882606,0.06906687288716894
0.2608184814453125,0.1794586181640625,9.698104858398438,0.3375483751296997,-0.544813871383667,0.08243536204099655,-0.03147351169541876,-0.02885071905413386,0.06906687288716894
0.253631591796875,0.169891357421875,9.683746337890625,0.33754390478134155,-0.544813871383667,0.08243037015199661,-0.10141464879634933,-0.02885071905413386,-0.0708154013146922
0.2703857421875,0.1722869873046875,9.705291748046875,0.3511597812175751,-0.558434247970581,0.09604240208864212,-0.03147351169541876,-0.02885071905413386,0
0.2895355224609375,0.169891357421875,9.710067749023438,0.3239235281944275,-0.558434247970581,0.08241789788007736,-0.10141464879634933,-0.09966612036882606,-0.0708154013146922
0.2703857421875,0.169891357421875,9.70050048828125,0.3239235281944275,-0.558434247970581,0.08241789788007736,-0.10141464879634933,-0.09966612036882606,-0.0708154013146922
0.2727813720703125,0.1627044677734375,9.714859008789062,0.32414710521698,-0.558434247970581,0.08239544928073883,-0.03147351169541876,-0.02885071905413386,0
0.263214111328125,0.1746826171875,9.70050048828125,0.3377719223499298,-0.544813871383667,0.06877510994672775,-0.03147351169541876,-0.02885071905413386,0.06906687288716894
0.2656097412109375,0.1674957275390625,9.70050048828125,0.33787479996681213,-0.544813871383667,0.0687684565782547,-0.03147351169541876,-0.02885071905413386,0
0.263214111328125,0.181854248046875,9.702896118164062,0.32425445318222046,-0.544813871383667,0.08238880336284637,-0.10141464879634933,-0.02885071905413386,-0.0708154013146922
0.253631591796875,0.169891357421875,9.70050048828125,0.3378792703151703,-0.5720545649528503,0.08238464593887329,-0.10141464879634933,-0.02885071905413386,0
0.2799530029296875,0.1746826171875,9.707687377929688,0.3378792703151703,-0.5720545649528503,0.08238464593887329,-0.03147351169541876,-0.02885071905413386,-0.0708154013146922
0.2775726318359375,0.1674957275390625,9.710067749023438,0.32426780462265015,-0.558434247970581,0.08238048851490021,-0.03147351169541876,-0.02885071905413386,0
0.2679901123046875,0.181854248046875,9.70050048828125,0.32426780462265015,-0.544813871383667,0.08238048851490021,-0.03147351169541876,-0.09966612036882606,0.06906687288716894
0.2656097412109375,0.1674957275390625,9.690933227539062,0.3243751525878906,-0.544813871383667,0.08237384259700775,-0.10141464879634933,-0.02885071905413386,0
0.2775726318359375,0.16510009765625,9.698104858398438,0.3379910886287689,-0.558434247970581,0.09599003195762634,-0.10141464879634933,-0.02885071905413386,0
0.275177001953125,0.1674957275390625,9.719650268554688,0.3379910886287689,-0.558434247970581,0.09599003195762634,-0.03147351169541876,-0.16960725746975663,-0.0708154013146922
0.2679901123046875,0.157928466796875,9.698104858398438,0.3379954993724823,-0.558434247970581,0.09598919749259949,-0.10141464879634933,0.040216153833035076,0
