Accelerometer_Gx,Accelerometer_Gy,Accelerometer_Gz,Accelerometer_X,Accelerometer_Y,Accelerometer_Z,Gyroscope_Z,Gyroscope_X,Gyroscope_Y
0.30389404296875,0.1268157958984375,9.619140625,0.5217074751853943,-0.8036004900932312,0.057149097323417664,-0.03147351169541876,0.040216153833035076,0
0.263214111328125,0.17706298828125,9.693328857421875,0.4808466136455536,-0.7491191625595093,0.13886453211307526,-0.03147351169541876,0.040216153833035076,0
0.2656097412109375,0.1962127685546875,9.678970336914062,0.5217076539993286,-0.8036004900932312,0.08438313752412796,-0.03147351169541876,0.040216153833035076,0
0.2560272216796875,0.16510009765625,9.659820556640625,0.5217076539993286,-0.8036004900932312,0.08438313752412796,-0.03147351169541876,0.040216153833035076,0
0.239288330078125,0.1722869873046875,9.671783447265625,0.5217076539993286,-0.8036004900932312,0.08438313752412796,0.03846762540551182,0.040216153833035076,0.13988227420186114
0.2656097412109375,0.1627044677734375,9.659820556640625,0.5217006802558899,-0.7899801731109619,0.09800265729427338,0.03846762540551182,0.040216153833035076,-0.0708154013146922
0.2488555908203125,0.169891357421875,9.669403076171875,0.521607518196106,-0.7899801731109619,0.0980117991566658,-0.03147351169541876,-0.09966612036882606,0
0.2488555908203125,0.16510009765625,9.66461181640625,0.521607518196106,-0.7899801731109619,0.0980117991566658,-0.10141464879634933,-0.02885071905413386,0.06906687288716894
0.2464599609375,0.1722869873046875,9.65264892578125,0.53522789478302,-0.7899801731109619,0.08437815308570862,-0.10141464879634933,0.040216153833035076,0.06906687288716894
0.2560272216796875,0.16510009765625,9.683746337890625,0.5217075943946838,-0.7899801731109619,0.11160305142402649,-0.10141464879634933,-0.09966612036882606,0
0.2727813720703125,0.1627044677734375,9.643081665039062,0.5218144655227661,-0.7899801731109619,0.11158725619316101,-0.03147351169541876,0.040216153833035076,0
0.2703857421875,0.1962127685546875,9.674179077148438,0.5218214988708496,-0.8036004900932312,0.09796691685914993,0.10928302672020401,0.040216153833035076,0
0.263214111328125,0.1555328369140625,9.657424926757812,0.5355489253997803,-0.8036004900932312,0.09795859456062317,-0.10141464879634933,-0.02885071905413386,0.06906687288716894
0.275177001953125,0.16510009765625,9.655044555664062,0.5355489253997803,-0.8036004900932312,0.09795111417770386,-0.03147351169541876,0.040216153833035076,0
0.2608184814453125,0.181854248046875,9.66461181640625,0.5219285488128662,-0.7763597965240479,0.09795111417770386,-0.03147351169541876,-0.09966612036882606,0.06906687288716894
0.2584228515625,0.1674957275390625,9.667007446289062,0.5219285488128662,-0.7899801731109619,0.0979444608092308,-0.10141464879634933,0.11103155514772728,0
0.263214111328125,0.193817138671875,9.681365966796875,0.5218215584754944,-0.7899801731109619,0.09795277565717697,-0.03147351169541876,-0.02885071905413386,0
0.2608184814453125,0.1674957275390625,9.669403076171875,0.5354419350624084,-0.8036004900932312,0.08432578295469284,-0.10141464879634933,-0.09966612036882606,-0.0708154013146922
0.263214111328125,0.169891357421875,9.695724487304688,0.5219287276268005,-0.7899801731109619,0.08430998772382736,-0.03147351169541876,0.040216153833035076,0
0.2560272216796875,0.1674957275390625,9.67657470703125,0.5219287276268005,-0.7899801731109619,0.08430998772382736,-0.10141464879634933,-0.02885071905413386,-0.0708154013146922
0.2608184814453125,0.1674957275390625,9.683746337890625,0.5219426155090332,-0.7899801731109619,0.07067550718784332,-0.10141464879634933,0.040216153833035076,0.06906687288716894
0.253631591796875,0.1866455078125,9.681365966796875,0.5219285488128662,-0.8036004900932312,0.08428920060396194,-0.10141464879634933,-0.02885071905413386,0.06906687288716894
0.2560272216796875,0.16510009765625,9.681365966796875,0.5219285488128662,-0.8036004900932312,0.08428920060396194,-0.10141464879634933,-0.09966612036882606,0
0.2656097412109375,0.1794586181640625,9.671783447265625,0.5220357179641724,-0.7763597965240479,0.08424597233533859,0.03846762540551182,-0.02885071905413386,0.06906687288716894
0.287139892578125,0.17706298828125,9.719650268554688,0.5085153579711914,-0.8036004900932312,0.07060899585485458,0.10928302672020401,0.11103155514772728,0
0.2608184814453125,0.16510009765625,9.66461181640625,0.5083012580871582,-0.8036004900932312,0.07062645256519318,-0.1713557858972799,-0.02885071905413386,-0.14075653841562277
0.263214111328125,0.1794586181640625,9.686141967773438,0.5356630682945251,-0.7899801731109619,0.08422435820102692,0.17834989960737296,0.11103155514772728,0
0.2584228515625,0.1722869873046875,9.681365966796875,0.5220568180084229,-0.7899801731109619,0.0842168778181076,-0.3811791972000716,-0.3103637958853794,0
0.275177001953125,0.15313720703125,9.681365966796875,0.522270917892456,-0.7899801731109619,0.08417198061943054,0.3182321738092341,-0.09966612036882606,0.13988227420186114
0.2656097412109375,0.1627044677734375,9.695724487304688,0.5222779512405396,-0.7899801731109619,0.0841861218214035,-0.311238060099141,-0.3103637958853794,-0.0708154013146922
0.2703857421875,0.193817138671875,9.678970336914062,0.508878767490387,-0.7899801731109619,0.056942928582429886,-0.24129692299821046,0.11103155514772728,-0.3505799497184145
0.2823486328125,0.169891357421875,9.693328857421875,0.5088067650794983,-0.7899801731109619,0.05692962557077408,0.3890475751239263,0.6705606519551719,-0.0708154013146922
0.2608184814453125,0.1794586181640625,9.686141967773438,0.508792519569397,-0.7899801731109619,0.07056410610675812,-0.6609437456037939,-0.5901283442891017,-0.0708154013146922
0.2488555908203125,0.17706298828125,9.681365966796875,0.5366615056991577,-0.7899801731109619,0.08411877602338791,-0.800826019805655,-0.02885071905413386,-0.4205210868193451
0.2608184814453125,0.1794586181640625,9.686141967773438,0.5230624675750732,-0.7763597965240479,0.070456862449646,-0.4519945985147638,0.25091382934958845,-0.6303444981221368
0.2775726318359375,0.1627044677734375,9.695724487304688,0.5094491243362427,-0.7899801731109619,0.05686395615339279,-0.9407082940075162,0.11103155514772728,-0.6303444981221368
0.2703857421875,0.1722869873046875,9.698104858398438,0.5096701979637146,-0.7899801731109619,0.07046102732419968,0.7378789964148175,-0.16960725746975663,0.48871369549275234
0.2608184814453125,0.18902587890625,9.686141967773438,0.5098841190338135,-0.7899801731109619,0.07041613012552261,1.1592743474479241,0.5306783777533107,0.2797645484037223
0.2656097412109375,0.16510009765625,9.68853759765625,0.5238187313079834,-0.7899801731109619,0.07039617747068405,0.3182321738092341,1.0893332103469937,-0.4904622239202756
0.2775726318359375,0.181854248046875,9.7220458984375,0.5236906409263611,-0.7899801731109619,0.05683402344584465,-1.2213471066250001,0.18009842803489623,-0.8410421736386902
0.275177001953125,0.1603240966796875,9.705291748046875,0.5237537622451782,-0.7899801731109619,0.05673592910170555,1.4390388958516465,0.4598629764386185,0.34883142129089123
0.263214111328125,0.1603240966796875,9.690933227539062,0.5113412141799927,-0.7899801731109619,0.05668937414884567,-0.8716414211203473,0.4598629764386185,-1.1208067220424125
0.2656097412109375,0.1722869873046875,9.698104858398438,0.5366178154945374,-0.7763597965240479,0.04326688125729561,0.24916530092206515,-1.7091865379039908,0.8392936452111669
0.275177001953125,0.1746826171875,9.68853759765625,0.5366178154945374,-0.7763597965240479,0.04326688125729561,1.5081057687388155,2.1393245310747138,-0.4205210868193451
0.251251220703125,0.1794586181640625,9.690933227539062,0.5086626410484314,-0.7899801731109619,0.0706164762377739,-1.3612293808268612,-1.4294219895002684,0.2089491470890301
0.2608184814453125,0.1914215087890625,9.68853759765625,0.5388244986534119,-0.8036004900932312,0.07030556350946426,-0.800826019805655,0.6705606519551719,-1.190747859143343
0.2727813720703125,0.1627044677734375,9.690933227539062,0.5373378992080688,-0.8036004900932312,0.070372074842453,2.488155952365605,1.508980032952577,0.8392936452111669
0.2488555908203125,0.1507415771484375,9.705291748046875,0.50837242603302,-0.7763597965240479,0.05715325102210045,-3.041565199676718,-2.690110985744542,0.2089491470890301
0.2608184814453125,0.1722869873046875,9.681365966796875,0.5273325443267822,-0.7899801731109619,0.05635851249098778,-0.03147351169541876,1.6488623071544382,-1.4005712704461346
0.2584228515625,0.1842498779296875,9.681365966796875,0.5253318548202515,-0.7899801731109619,0.056495677679777145,-0.24129692299821046,1.6488623071544382,-1.0499913207277203
0.253631591796875,0.1746826171875,9.686141967773438,0.5197980403900146,-0.8036004900932312,0.08426176756620407,2.7679205007693275,0.9494509361451325,1.0499913207277203
0.251251220703125,0.17706298828125,9.68853759765625,0.5049279928207397,-0.7899801731109619,0.057691119611263275,1.088458946133232,-1.5693042637021297,1.6095204175351647
0.2656097412109375,0.169891357421875,9.68853759765625,0.5073248744010925,-0.7899801731109619,0.05760382488369942,-0.3811791972000716,-2.0597664876224053,1.3297558691314424
0.2679901123046875,0.1674957275390625,9.702896118164062,0.5272070169448853,-0.7899801731109619,0.0706164762377739,-0.24129692299821046,-2.269589898925197,1.3988227420186115
0.287139892578125,0.1627044677734375,9.698104858398438,0.5219816565513611,-0.7899801731109619,0.05623796954751015,-0.24129692299821046,-3.319581219652917,1.4696381433333037
0.2656097412109375,0.1722869873046875,9.695724487304688,0.5543155074119568,-0.8036004900932312,0.06940940022468567,-0.03147351169541876,-3.039816671249195,1.6785872904223338
0.287139892578125,0.157928466796875,9.698104858398438,0.535947859287262,-0.7899801731109619,0.05502922832965851,1.2991566216497854,-1.4294219895002684,1.4696381433333037
0.2703857421875,0.1603240966796875,9.698104858398438,0.5394238233566284,-0.7763597965240479,0.054968543350696564,1.7188034442553688,-0.16960725746975663,0.979175919413028
0.275177001953125,0.1722869873046875,9.705291748046875,0.5380114316940308,-0.7763597965240479,0.05525701493024826,0.5979967222129564,1.9994422568728527,-1.0499913207277203
0.2727813720703125,0.17706298828125,9.702896118164062,0.5316213965415955,-0.7627394795417786,0.06948837637901306,-1.641868193444345,-0.45024607008724055,-0.8410421736386902
0.251251220703125,0.1866455078125,9.678970336914062,0.5337792634963989,-0.7899801731109619,0.04178297519683838,1.088458946133232,-1.849068812105852,1.6785872904223338
0.251251220703125,0.1866455078125,9.678970336914062,0.5337792634963989,-0.7899801731109619,0.04178297519683838,1.088458946133232,-1.849068812105852,1.6785872904223338
0.2679901123046875,0.1746826171875,9.714859008789062,0.5434755682945251,-0.7899801731109619,0.06967293471097946,-2.9008086612610953,0.18009842803489623,-1.3306301333452042
0.2823486328125,0.16510009765625,9.707687377929688,0.5466833114624023,-0.7899801731109619,0.08261658251285553,2.6971050994546353,-0.16960725746975663,1.3297558691314424
0.2679901123046875,0.1603240966796875,9.70050048828125,0.5466833114624023,-0.7899801731109619,0.08261658251285553,-2.2713384273527204,-0.3103637958853794,-0.9809244478405512
0.2679901123046875,0.1722869873046875,9.690933227539062,0.5423970818519592,-0.7899801731109619,0.06939859688282013,0.3182321738092341,-1.849068812105852,1.1898735949295813
0.2703857421875,0.1555328369140625,9.70050048828125,0.5275920629501343,-0.7899801731109619,0.042372383177280426,-1.5011116550287225,1.300030885863547,-1.2606889962442736
0.2727813720703125,0.16510009765625,9.719650268554688,0.5272192358970642,-0.7899801731109619,0.04228924959897995,1.2283412203350932,1.7196777084691304,-0.14075653841562277
0.2943115234375,0.1746826171875,9.717254638671875,0.525754988193512,-0.7763597965240479,0.05603346228599548,0.8786355348304403,-0.7300106184909628,0.979175919413028
0.287139892578125,0.1603240966796875,9.698104858398438,0.5112127065658569,-0.7899801731109619,0.05609830841422081,-0.10141464879634933,1.160148611661686,-0.9809244478405512
0.2823486328125,0.1674957275390625,9.71246337890625,0.5112335681915283,-0.7899801731109619,0.05602847784757614,1.088458946133232,0.810442926157033,-0.14075653841562277
0.275177001953125,0.1746826171875,9.717254638671875,0.5372588634490967,-0.8036004900932312,0.05605674162507057,1.2991566216497854,0.11103155514772728,0.41964682260558345
0.2727813720703125,0.157928466796875,9.717254638671875,0.5362368822097778,-0.7899801731109619,0.056102462112903595,1.088458946133232,-0.02885071905413386,0.48871369549275234
0.2727813720703125,0.157928466796875,9.717254638671875,0.5362368822097778,-0.7899801731109619,0.056102462112903595,1.088458946133232,-0.02885071905413386,0.48871369549275234
0.2775726318359375,0.17706298828125,9.698104858398438,0.5356737971305847,-0.7899801731109619,0.05624379217624664,0.8786355348304403,0.25091382934958845,0.34883142129089123
0.2799530029296875,0.157928466796875,9.698104858398438,0.5331295132637024,-0.7899801731109619,0.04271571710705757,-0.3811791972000716,-0.7300106184909628,0.13988227420186114
0.275177001953125,0.17706298828125,9.7340087890625,0.5331295132637024,-0.7899801731109619,0.04271571710705757,-0.03147351169541876,0.7396275248423407,-0.4904622239202756
0.2895355224609375,0.157928466796875,9.710067749023438,0.5195300579071045,-0.7899801731109619,0.029053805395960808,0.24916530092206515,-0.6591952171762706,0.41964682260558345
0.2799530029296875,0.1746826171875,9.726821899414062,0.5185012221336365,-0.7763597965240479,0.06997387111186981,0.45811444801109524,0.31998070223675734,0
0.263214111328125,0.1722869873046875,9.707687377929688,0.51725834608078,-0.7763597965240479,0.04281630739569664,-0.311238060099141,0.25091382934958845,-0.2806388126174839
0.275177001953125,0.169891357421875,9.717254638671875,0.5169579982757568,-0.7763597965240479,0.04280051216483116,-0.1713557858972799,-0.45024607008724055,0.2089491470890301
0.275177001953125,0.169891357421875,9.710067749023438,0.5160293579101562,-0.7899801731109619,0.04285787045955658,-0.311238060099141,0.11103155514772728,-0.21069767551655336
0.2775726318359375,0.1914215087890625,9.726821899414062,0.5420411825180054,-0.8036004900932312,0.07014594972133636,0.24916530092206515,-0.2395483945706872,0.2089491470890301
0.2584228515625,0.1722869873046875,9.726821899414062,0.54172682762146,-0.8036004900932312,0.07017920911312103,-0.1713557858972799,0.040216153833035076,-0.0708154013146922
0.2560272216796875,0.1746826171875,9.698104858398438,0.5137715935707092,-0.8036004900932312,0.04294931888580322,-0.03147351169541876,-0.16960725746975663,0.06906687288716894
0.2608184814453125,0.1722869873046875,9.705291748046875,0.5399836897850037,-0.7899801731109619,0.05662785470485687,-0.03147351169541876,-0.16960725746975663,0
0.2703857421875,0.1627044677734375,9.71246337890625,0.5399836897850037,-0.7899801731109619,0.05662785470485687,-0.03147351169541876,0.11103155514772728,-0.14075653841562277
0.2679901123046875,0.15313720703125,9.707687377929688,0.5251626372337341,-0.7763597965240479,0.04305489733815193,-0.10141464879634933,0.11103155514772728,0
0.2703857421875,0.18902587890625,9.7340087890625,0.5105136632919312,-0.7763597965240479,0.05672678351402283,0.03846762540551182,-0.02885071905413386,0.06906687288716894
0.2703857421875,0.17706298828125,9.72442626953125,0.510099470615387,-0.7763597965240479,0.05674590542912483,-0.03147351169541876,-0.09966612036882606,0.06906687288716894
0.2727813720703125,0.1746826171875,9.705291748046875,0.5228911638259888,-0.8036004900932312,0.043159641325473785,-0.03147351169541876,-0.02885071905413386,-0.0708154013146922
0.2560272216796875,0.181854248046875,9.693328857421875,0.5219699144363403,-0.8036004900932312,0.056822385638952255,-0.10141464879634933,-0.02885071905413386,0
0.275177001953125,0.18902587890625,9.738784790039062,0.521455705165863,-0.8036004900932312,0.05684399977326393,-0.03147351169541876,-0.02885071905413386,0
0.263214111328125,0.17706298828125,9.717254638671875,0.5339404940605164,-0.8172208070755005,0.07053001970052719,-0.03147351169541876,0.040216153833035076,-0.0708154013146922
0.2727813720703125,0.1627044677734375,9.702896118164062,0.5192916989326477,-0.8036004900932312,0.029726341366767883,-0.03147351169541876,0.040216153833035076,0
0.2608184814453125,0.17706298828125,9.70050048828125,0.5187774896621704,-0.8036004900932312,0.02975543960928917,-0.03147351169541876,-0.09966612036882606,0
0.2823486328125,0.1842498779296875,9.729217529296875,0.5178561210632324,-0.8036004900932312,0.05703769624233246,-0.1713557858972799,-0.02885071905413386,0.06906687288716894
0.2775726318359375,0.1603240966796875,9.705291748046875,0.503207266330719,-0.8172208070755005,0.029839402064681053,0.03846762540551182,0.040216153833035076,0
0.2608184814453125,0.17706298828125,9.698104858398438,0.5163134932518005,-0.7899801731109619,0.04348801076412201,-0.10141464879634933,-0.02885071905413386,0
0.2703857421875,0.1722869873046875,9.710067749023438,0.5289052724838257,-0.8036004900932312,0.043517109006643295,0.10928302672020401,-0.09966612036882606,0
0.263214111328125,0.1483612060546875,9.714859008789062,0.5143638849258423,-0.8036004900932312,0.057192325592041016,-0.03147351169541876,0.11103155514772728,-0.0708154013146922
0.2703857421875,0.1555328369140625,9.702896118164062,0.5137426853179932,-0.8036004900932312,0.05722890421748161,-0.10141464879634933,0.040216153833035076,-0.0708154013146922
0.287139892578125,0.181854248046875,9.7220458984375,0.5133424401283264,-0.7899801731109619,0.05724220350384712,0.10928302672020401,0.11103155514772728,-0.0708154013146922
0.253631591796875,0.1746826171875,9.7220458984375,0.5133497714996338,-0.8036004900932312,0.030000679194927216,-0.03147351169541876,0.040216153833035076,0
0.275177001953125,0.1507415771484375,9.710067749023438,0.5133497714996338,-0.8036004900932312,0.030000679194927216,0.03846762540551182,0.18009842803489623,-0.0708154013146922
0.2703857421875,0.169891357421875,9.719650268554688,0.5269700884819031,-0.8036004900932312,0.04363598674535751,-0.3811791972000716,-0.09966612036882606,-0.14075653841562277
0.2656097412109375,0.1842498779296875,9.729217529296875,0.4998364746570587,-0.8036004900932312,0.04362019523978233,-0.10141464879634933,0.040216153833035076,0
0.2823486328125,0.157928466796875,9.714859008789062,0.4998364746570587,-0.8036004900932312,0.04362019523978233,0.03846762540551182,-0.16960725746975663,0
0.2895355224609375,0.16510009765625,9.710067749023438,0.4999435544013977,-0.7899801731109619,0.043611880391836166,-0.03147351169541876,-0.2395483945706872,0.06906687288716894
0.2799530029296875,0.1603240966796875,9.710067749023438,0.4864301085472107,-0.8036004900932312,0.05722308158874512,-0.03147351169541876,0.25091382934958845,-0.21069767551655336
0.2799530029296875,0.17706298828125,9.731613159179688,0.48632994294166565,-0.8036004900932312,0.05723804980516434,0.03846762540551182,0.18009842803489623,-0.21069767551655336
0.2679901123046875,0.1627044677734375,9.707687377929688,0.49995750188827515,-0.7899801731109619,0.057246360927820206,-0.03147351169541876,0.040216153833035076,-0.14075653841562277
0.2464599609375,0.169891357421875,9.719650268554688,0.5135778188705444,-0.8036004900932312,0.05725301057100296,-0.10141464879634933,-0.02885071905413386,-0.0708154013146922
0.287139892578125,0.1674957275390625,9.71246337890625,0.5135778188705444,-0.8036004900932312,0.05725301057100296,-0.03147351169541876,-0.09966612036882606,0.13988227420186114
0.2727813720703125,0.1507415771484375,9.714859008789062,0.5136778354644775,-0.8036004900932312,0.04362434893846512,-0.03147351169541876,0.040216153833035076,0
0.2727813720703125,0.1555328369140625,9.705291748046875,0.5136778354644775,-0.8036004900932312,0.04361686855554581,0.10928302672020401,0.040216153833035076,-0.0708154013146922
0.2799530029296875,0.1627044677734375,9.714859008789062,0.513684868812561,-0.8036004900932312,0.04362434893846512,-0.03147351169541876,0.040216153833035076,-0.0708154013146922
0.275177001953125,0.169891357421875,9.729217529296875,0.5001786351203918,-0.8036004900932312,0.04360855370759964,0.10928302672020401,-0.02885071905413386,0.13988227420186114
0.2775726318359375,0.1627044677734375,9.717254638671875,0.5001645684242249,-0.7899801731109619,0.0572214238345623,-0.10141464879634933,0.11103155514772728,0
0.2847442626953125,0.205780029296875,9.729217529296875,0.5272981524467468,-0.8036004900932312,0.07084426283836365,-0.03147351169541876,-0.09966612036882606,-0.0708154013146922
0.2703857421875,0.169891357421875,9.731613159179688,0.5136919021606445,-0.8172208070755005,0.05722308158874512,-0.03147351169541876,0.040216153833035076,-0.14075653841562277
0.2775726318359375,0.1722869873046875,9.71246337890625,0.500085711479187,-0.8036004900932312,0.04359608516097069,-0.03147351169541876,-0.02885071905413386,0
0.2775726318359375,0.1722869873046875,9.719650268554688,0.500085711479187,-0.8036004900932312,0.04359608516097069,-0.03147351169541876,-0.02885071905413386,0
0.2679901123046875,0.16510009765625,9.7220458984375,0.48646533489227295,-0.8036004900932312,0.043588604778051376,-0.10141464879634933,-0.02885071905413386,0
0.275177001953125,0.1627044677734375,9.717254638671875,0.5137060284614563,-0.7899801731109619,0.04358195140957832,-0.03147351169541876,0.040216153833035076,-0.0708154013146922
0.275177001953125,0.1746826171875,9.71246337890625,0.513705849647522,-0.7899801731109619,0.04358195140957832,-0.10141464879634933,0.040216153833035076,0.06906687288716894
0.2584228515625,0.1603240966796875,9.71246337890625,0.5000784397125244,-0.8036004900932312,0.04357447102665901,-0.03147351169541876,-0.02885071905413386,0
0.2943115234375,0.1842498779296875,9.726821899414062,0.5000784397125244,-0.8172208070755005,0.04357447102665901,-0.03147351169541876,-0.02885071905413386,0
0.2775726318359375,0.15313720703125,9.698104858398438,0.5000784397125244,-0.8172208070755005,0.04357447102665901,-0.03147351169541876,-0.09966612036882606,-0.0708154013146922
0.2679901123046875,0.1555328369140625,9.705291748046875,0.5138060450553894,-0.7899801731109619,0.04356615990400314,-0.10141464879634933,-0.02885071905413386,0.06906687288716894
0.2823486328125,0.16510009765625,9.710067749023438,0.48655828833580017,-0.8172208070755005,0.04355950653553009,-0.03147351169541876,-0.02885071905413386,0
0.2799530029296875,0.1674957275390625,9.693328857421875,0.48655828833580017,-0.8172208070755005,0.04355950653553009,-0.03147351169541876,-0.09966612036882606,-0.0708154013146922
0.2847442626953125,0.181854248046875,9.719650268554688,0.5139129161834717,-0.8036004900932312,0.04354371130466461,-0.03147351169541876,0.040216153833035076,0
0.2799530029296875,0.193817138671875,9.738784790039062,0.5139129161834717,-0.7899801731109619,0.04353706166148186,-0.03147351169541876,0.040216153833035076,0
0.2656097412109375,0.17706298828125,9.702896118164062,0.5139129161834717,-0.7899801731109619,0.04352957755327225,-0.03147351169541876,0.040216153833035076,0
0.2560272216796875,0.1722869873046875,9.698104858398438,0.5002925395965576,-0.8172208070755005,0.029909232631325722,0.03846762540551182,-0.02885071905413386,-0.0708154013146922
0.2847442626953125,0.16510009765625,9.717254638671875,0.5139198899269104,-0.8172208070755005,0.02990175038576126,-0.10141464879634933,0.040216153833035076,0
0.275177001953125,0.181854248046875,9.729217529296875,0.5139198899269104,-0.8172208070755005,0.029895098879933357,-0.03147351169541876,-0.09966612036882606,0.13988227420186114
0.2703857421875,0.169891357421875,9.7220458984375,0.5140200257301331,-0.8036004900932312,0.029879305511713028,-0.03147351169541876,-0.02885071905413386,0
0.2679901123046875,0.1722869873046875,9.717254638671875,0.5276403427124023,-0.8036004900932312,0.029879305511713028,-0.1713557858972799,-0.09966612036882606,0
0.2823486328125,0.169891357421875,9.705291748046875,0.5276403427124023,-0.8036004900932312,0.029879305511713028,-0.10141464879634933,-0.09966612036882606,-0.0708154013146922
0.2608184814453125,0.1746826171875,9.731613159179688,0.5142341256141663,-0.8036004900932312,0.04346140846610069,0.03846762540551182,-0.16960725746975663,0
0.2703857421875,0.1555328369140625,9.719650268554688,0.5143483281135559,-0.8036004900932312,0.04343896731734276,-0.10141464879634933,-0.02885071905413386,-0.0708154013146922
0.275177001953125,0.1914215087890625,9.7340087890625,0.5143483281135559,-0.8036004900932312,0.04343896731734276,-0.10141464879634933,0.11103155514772728,-0.14075653841562277
0.2799530029296875,0.145965576171875,9.719650268554688,0.5143554210662842,-0.8036004900932312,0.029818620532751083,0.03846762540551182,0.040216153833035076,0
0.2799530029296875,0.1842498779296875,9.7220458984375,0.5007351040840149,-0.8036004900932312,0.04343148320913315,-0.1713557858972799,0.040216153833035076,0
0.2584228515625,0.1794586181640625,9.729217529296875,0.5008421540260315,-0.8036004900932312,0.04342317208647728,-0.03147351169541876,0.040216153833035076,0.06906687288716894
0.275177001953125,0.1674957275390625,9.719650268554688,0.5145624876022339,-0.8036004900932312,0.04341485723853111,-0.03147351169541876,-0.02885071905413386,-0.0708154013146922
0.2679901123046875,0.1627044677734375,9.71246337890625,0.514676570892334,-0.7899801731109619,0.04339241236448288,-0.03147351169541876,0.040216153833035076,0
0.2823486328125,0.1603240966796875,9.714859008789062,0.514676570892334,-0.7899801731109619,0.04339241236448288,-0.10141464879634933,0.040216153833035076,0
0.2703857421875,0.169891357421875,9.717254638671875,0.5010561943054199,-0.7899801731109619,0.04338493198156357,-0.1713557858972799,-0.02885071905413386,0.06906687288716894
0.253631591796875,0.16510009765625,9.714859008789062,0.5146765112876892,-0.7763597965240479,0.043370798230171204,-0.03147351169541876,-0.09966612036882606,0
0.275177001953125,0.1674957275390625,9.710067749023438,0.5147835612297058,-0.7763597965240479,0.04336248338222504,0.03846762540551182,-0.09966612036882606,-0.0708154013146922
0.2727813720703125,0.181854248046875,9.726821899414062,0.5012773871421814,-0.8172208070755005,0.04335417225956917,-0.10141464879634933,-0.09966612036882606,0
0.275177001953125,0.1914215087890625,9.731613159179688,0.5148977637290955,-0.8172208070755005,0.029733825474977493,0.03846762540551182,-0.09966612036882606,0.06906687288716894
0.275177001953125,0.1674957275390625,9.7220458984375,0.5148977637290955,-0.8172208070755005,0.029733825474977493,-0.10141464879634933,0.040216153833035076,-0.0708154013146922
0.2464599609375,0.169891357421875,9.714859008789062,0.5148977637290955,-0.8172208070755005,0.029733825474977493,-0.10141464879634933,-0.02885071905413386,-0.0708154013146922
0.275177001953125,0.1746826171875,9.7220458984375,0.5150261521339417,-0.8036004900932312,0.043324243277311325,0.03846762540551182,0.040216153833035076,-0.0708154013146922
0.2679901123046875,0.1746826171875,9.719650268554688,0.5150261521339417,-0.8036004900932312,0.043324243277311325,-0.10141464879634933,-0.02885071905413386,0
0.2703857421875,0.1674957275390625,9.707687377929688,0.5150117874145508,-0.7899801731109619,0.05693711340427399,0.03846762540551182,-0.02885071905413386,-0.0708154013146922
0.2847442626953125,0.18902587890625,9.719650268554688,0.5150117874145508,-0.7899801731109619,0.05693711340427399,-0.10141464879634933,-0.02885071905413386,0
0.2560272216796875,0.1674957275390625,9.72442626953125,0.5150117874145508,-0.8036004900932312,0.05693711340427399,0.03846762540551182,0.040216153833035076,0
0.275177001953125,0.157928466796875,9.702896118164062,0.5150119662284851,-0.7899801731109619,0.056930456310510635,-0.10141464879634933,0.040216153833035076,-0.14075653841562277
0.2799530029296875,0.1627044677734375,9.717254638671875,0.5013984441757202,-0.8036004900932312,0.05691632628440857,-0.03147351169541876,-0.02885071905413386,0
0.2584228515625,0.1722869873046875,9.743576049804688,0.5013984441757202,-0.8036004900932312,0.05691632628440857,-0.10141464879634933,0.040216153833035076,-0.0708154013146922
0.2656097412109375,0.169891357421875,9.731613159179688,0.5150259733200073,-0.7899801731109619,0.05690884590148926,-0.10141464879634933,0.040216153833035076,0
0.2799530029296875,0.1674957275390625,9.710067749023438,0.501405656337738,-0.8036004900932312,0.04328101500868797,-0.03147351169541876,-0.02885071905413386,-0.0708154013146922
0.2608184814453125,0.181854248046875,9.710067749023438,0.501405656337738,-0.8036004900932312,0.04328101500868797,-0.03147351169541876,0.040216153833035076,-0.0708154013146922
0.2703857421875,0.1722869873046875,9.7220458984375,0.5150333046913147,-0.8036004900932312,0.05689471215009689,-0.10141464879634933,0.040216153833035076,-0.0708154013146922
0.2703857421875,0.1866455078125,9.73638916015625,0.4877997934818268,-0.8308412432670593,0.043267711997032166,-0.03147351169541876,-0.02885071905413386,0
0.2679901123046875,0.1794586181640625,9.72442626953125,0.5149405002593994,-0.8172208070755005,0.02965484745800495,-0.10141464879634933,0.040216153833035076,0
0.275177001953125,0.1603240966796875,9.705291748046875,0.5013201832771301,-0.8172208070755005,0.04326106607913971,0.03846762540551182,0.040216153833035076,-0.0708154013146922
0.2679901123046875,0.169891357421875,9.717254638671875,0.5149545669555664,-0.8036004900932312,0.04326189309358597,0.03846762540551182,0.040216153833035076,-0.0708154013146922
0.2799530029296875,0.181854248046875,9.72442626953125,0.5149545669555664,-0.8036004900932312,0.04326189309358597,-0.03147351169541876,-0.02885071905413386,-0.0708154013146922
0.2679901123046875,0.169891357421875,9.71246337890625,0.5149758458137512,-0.8036004900932312,0.04326189309358597,0.03846762540551182,-0.02885071905413386,0
0.2703857421875,0.17706298828125,9.726821899414062,0.5149758458137512,-0.8036004900932312,0.04326189309358597,0.03846762540551182,-0.02885071905413386,-0.0708154013146922
0.2727813720703125,0.16510009765625,9.71246337890625,0.5150899887084961,-0.8036004900932312,0.043252747505903244,-0.03147351169541876,-0.02885071905413386,-0.0708154013146922
0.2584228515625,0.1674957275390625,9.7340087890625,0.5150899887084961,-0.8036004900932312,0.043252747505903244,-0.10141464879634933,-0.02885071905413386,0
0.2823486328125,0.169891357421875,9.698104858398438,0.5015909075737,-0.8036004900932312,0.056850649416446686,-0.03147351169541876,-0.02885071905413386,0
0.2727813720703125,0.1435699462890625,9.698104858398438,0.5015979409217834,-0.8036004900932312,0.056843169033527374,-0.10141464879634933,-0.02885071905413386,0
0.2823486328125,0.1794586181640625,9.726821899414062,0.5015978813171387,-0.8172208070755005,0.02959582582116127,0.03846762540551182,0.040216153833035076,0
0.251251220703125,0.181854248046875,9.695724487304688,0.5015978813171387,-0.8172208070755005,0.02959582582116127,-0.03147351169541876,-0.02885071905413386,-0.0708154013146922
0.2703857421875,0.16510009765625,9.710067749023438,0.5016050338745117,-0.8172208070755005,0.02958834171295166,-0.10141464879634933,0.040216153833035076,-0.0708154013146922
0.275177001953125,0.169891357421875,9.7220458984375,0.5017194151878357,-0.8036004900932312,0.04319372773170471,0.03846762540551182,-0.02885071905413386,0
0.2608184814453125,0.1914215087890625,9.738784790039062,0.5153394937515259,-0.8036004900932312,0.029565896838903427,-0.03147351169541876,-0.02885071905413386,0
0.2727813720703125,0.1627044677734375,9.71246337890625,0.5153394937515259,-0.8036004900932312,0.029565896838903427,-0.10141464879634933,-0.02885071905413386,-0.0708154013146922
0.2895355224609375,0.181854248046875,9.72442626953125,0.4881131052970886,-0.8172208070755005,0.04317876324057579,-0.03147351169541876,0.040216153833035076,-0.0708154013146922
0.2703857421875,0.193817138671875,9.750747680664062,0.4881131052970886,-0.8172208070755005,0.04317876324057579,-0.03147351169541876,-0.02885071905413386,-0.14075653841562277
0.2775726318359375,0.193817138671875,9.731613159179688,0.5017475485801697,-0.8172208070755005,0.02954428270459175,0.03846762540551182,0.040216153833035076,0.06906687288716894
0.2775726318359375,0.17706298828125,9.729217529296875,0.5017405152320862,-0.8172208070755005,0.04316546022891998,-0.10141464879634933,0.040216153833035076,0
0.2608184814453125,0.1674957275390625,9.719650268554688,0.5153680443763733,-0.8036004900932312,0.04315797984600067,0.03846762540551182,-0.02885071905413386,-0.0708154013146922
0.2799530029296875,0.169891357421875,9.726821899414062,0.5153680443763733,-0.8036004900932312,0.04315797984600067,-0.03147351169541876,-0.02885071905413386,0
0.2656097412109375,0.1674957275390625,9.702896118164062,0.5153750777244568,-0.8036004900932312,0.05676419287919998,-0.10141464879634933,0.040216153833035076,0
0.2656097412109375,0.1674957275390625,9.7220458984375,0.5153750777244568,-0.8036004900932312,0.04313553497195244,-0.03147351169541876,-0.09966612036882606,0
0.275177001953125,0.157928466796875,9.707687377929688,0.5154822468757629,-0.8036004900932312,0.04312805458903313,-0.03147351169541876,-0.02885071905413386,0
0.299102783203125,0.18902587890625,9.731613159179688,0.4883485436439514,-0.8172208070755005,0.02949856035411358,0.03846762540551182,-0.02885071905413386,0
0.2608184814453125,0.1794586181640625,9.72442626953125,0.5157962441444397,-0.8036004900932312,0.04309479892253876,-0.10141464879634933,-0.09966612036882606,0.06906687288716894
0.275177001953125,0.193817138671875,9.738784790039062,0.5157891511917114,-0.8036004900932312,0.043088149279356,-0.03147351169541876,-0.09966612036882606,0
0.2823486328125,0.1627044677734375,9.693328857421875,0.5157891511917114,-0.8036004900932312,0.043088149279356,-0.03147351169541876,-0.02885071905413386,0.06906687288716894
0.2703857421875,0.18902587890625,9.743576049804688,0.5160033106803894,-0.8172208070755005,0.029451174661517143,-0.03147351169541876,-0.02885071905413386,-0.14075653841562277
0.2679901123046875,0.1842498779296875,9.7340087890625,0.5160106420516968,-0.8172208070755005,0.029442861676216125,-0.10141464879634933,0.040216153833035076,0
0.2727813720703125,0.1722869873046875,9.7220458984375,0.5023902654647827,-0.8036004900932312,0.043056558817625046,-0.10141464879634933,-0.02885071905413386,-0.0708154013146922
0.287139892578125,0.18902587890625,9.72442626953125,0.5023974776268005,-0.8172208070755005,0.04304990917444229,-0.10141464879634933,-0.02885071905413386,0
0.2727813720703125,0.1794586181640625,9.71246337890625,0.5023974776268005,-0.8172208070755005,0.04304990917444229,-0.1713557858972799,-0.02885071905413386,0
0.275177001953125,0.17706298828125,9.729217529296875,0.5025045871734619,-0.8172208070755005,0.04301249980926514,-0.10141464879634933,0.040216153833035076,0
0.275177001953125,0.1866455078125,9.7340087890625,0.5025115013122559,-0.8036004900932312,0.042997535318136215,-0.03147351169541876,0.040216153833035076,-0.14075653841562277
0.2679901123046875,0.1794586181640625,9.7340087890625,0.5025186538696289,-0.8036004900932312,0.04299836605787277,-0.03147351169541876,-0.09966612036882606,0.06906687288716894
0.2679901123046875,0.1627044677734375,9.698104858398438,0.5162460207939148,-0.8036004900932312,0.05661039799451828,-0.03147351169541876,-0.02885071905413386,-0.0708154013146922
0.2847442626953125,0.1627044677734375,9.710067749023438,0.5026327967643738,-0.8036004900932312,0.042982570827007294,-0.03147351169541876,0.040216153833035076,0.06906687288716894
0.2775726318359375,0.1794586181640625,9.7220458984375,0.5027329325675964,-0.8036004900932312,0.04296761006116867,0.03846762540551182,-0.02885071905413386,-0.14075653841562277
0.2608184814453125,0.145965576171875,9.726821899414062,0.5027399063110352,-0.8036004900932312,0.04296012595295906,-0.03147351169541876,-0.02885071905413386,-0.0708154013146922
0.2703857421875,0.1746826171875,9.726821899414062,0.5299876928329468,-0.7899801731109619,0.029339777305722237,-0.03147351169541876,0.040216153833035076,-0.0708154013146922
0.2727813720703125,0.16510009765625,9.693328857421875,0.5163745284080505,-0.8036004900932312,0.056580476462841034,-0.03147351169541876,0.040216153833035076,-0.0708154013146922
0.2703857421875,0.1627044677734375,9.717254638671875,0.5163745284080505,-0.8036004900932312,0.056580476462841034,-0.03147351169541876,0.040216153833035076,-0.0708154013146922
0.2799530029296875,0.1794586181640625,9.726821899414062,0.5163887739181519,-0.8172208070755005,0.029332296922802925,-0.10141464879634933,0.040216153833035076,0
0.2775726318359375,0.169891357421875,9.71246337890625,0.5163887739181519,-0.8172208070755005,0.029332296922802925,-0.1713557858972799,-0.02885071905413386,0
0.275177001953125,0.169891357421875,9.719650268554688,0.502768337726593,-0.8036004900932312,0.042938511818647385,0.03846762540551182,-0.02885071905413386,0
0.2799530029296875,0.1555328369140625,9.70050048828125,0.502768337726593,-0.7899801731109619,0.05655137822031975,-0.10141464879634933,0.040216153833035076,0
0.2727813720703125,0.1627044677734375,9.707687377929688,0.502768337726593,-0.7899801731109619,0.05655137822031975,0.03846762540551182,-0.02885071905413386,-0.14075653841562277
0.2703857421875,0.169891357421875,9.71246337890625,0.502768337726593,-0.7899801731109619,0.05655137822031975,-0.03147351169541876,-0.02885071905413386,-0.0708154013146922
0.2679901123046875,0.1674957275390625,9.714859008789062,0.5165171027183533,-0.8036004900932312,0.04290858283638954,-0.1713557858972799,-0.02885071905413386,0
0.2679901123046875,0.169891357421875,9.702896118164062,0.5165171027183533,-0.8036004900932312,0.04290110245347023,0.03846762540551182,-0.02885071905413386,0
0.287139892578125,0.1555328369140625,9.707687377929688,0.5165243148803711,-0.8036004900932312,0.056521449238061905,-0.03147351169541876,-0.02885071905413386,-0.0708154013146922
0.275177001953125,0.1746826171875,9.726821899414062,0.5165243148803711,-0.8036004900932312,0.056521449238061905,-0.10141464879634933,-0.02885071905413386,-0.0708154013146922
0.263214111328125,0.1627044677734375,9.726821899414062,0.5165314674377441,-0.7899801731109619,0.029273271560668945,-0.03147351169541876,0.040216153833035076,0.06906687288716894
0.2656097412109375,0.15313720703125,9.710067749023438,0.5166168808937073,-0.7899801731109619,0.056505654007196426,0.03846762540551182,0.040216153833035076,0.06906687288716894
0.287139892578125,0.157928466796875,9.702896118164062,0.502996563911438,-0.7899801731109619,0.04288530722260475,-0.03147351169541876,0.040216153833035076,-0.0708154013146922
0.2727813720703125,0.193817138671875,9.738784790039062,0.502996563911438,-0.7899801731109619,0.04288530722260475,-0.10141464879634933,-0.02885071905413386,0.06906687288716894
0.2727813720703125,0.1627044677734375,9.714859008789062,0.5030962824821472,-0.8036004900932312,0.04287034273147583,-0.03147351169541876,-0.09966612036882606,0.06906687288716894
0.2608184814453125,0.16510009765625,9.726821899414062,0.5167166590690613,-0.8036004900932312,0.029249995946884155,-0.10141464879634933,-0.02885071905413386,0
0.2799530029296875,0.1674957275390625,9.7220458984375,0.5167168974876404,-0.8036004900932312,0.029249995946884155,-0.10141464879634933,-0.02885071905413386,0
0.2727813720703125,0.1627044677734375,9.698104858398438,0.5167168974876404,-0.8036004900932312,0.029249995946884155,-0.03147351169541876,-0.02885071905413386,0
0.2943115234375,0.1914215087890625,9.72442626953125,0.4895831346511841,-0.8172208070755005,0.042853716760873795,-0.03147351169541876,-0.09966612036882606,0
0.2775726318359375,0.2010040283203125,9.73638916015625,0.5031961798667908,-0.8308412432670593,0.029227551072835922,-0.03147351169541876,0.040216153833035076,0.06906687288716894
0.2703857421875,0.169891357421875,9.72442626953125,0.5169306993484497,-0.8036004900932312,0.05645826831459999,-0.03147351169541876,-0.09966612036882606,-0.14075653841562277
0.2560272216796875,0.1722869873046875,9.70050048828125,0.5170592665672302,-0.7899801731109619,0.05645078420639038,-0.03147351169541876,0.040216153833035076,-0.14075653841562277
0.2656097412109375,0.1746826171875,9.726821899414062,0.5170592665672302,-0.7899801731109619,0.05645078420639038,-0.10141464879634933,-0.09966612036882606,-0.0708154013146922
0.2775726318359375,0.1746826171875,9.719650268554688,0.5170664191246033,-0.8036004900932312,0.02921009249985218,-0.03147351169541876,-0.02885071905413386,-0.0708154013146922
0.251251220703125,0.1627044677734375,9.71246337890625,0.5307937860488892,-0.8036004900932312,0.056413374841213226,-0.10141464879634933,-0.02885071905413386,0
0.263214111328125,0.16510009765625,9.707687377929688,0.5307937860488892,-0.8036004900932312,0.056413374841213226,-0.10141464879634933,-0.02885071905413386,-0.0708154013146922
0.251251220703125,0.1794586181640625,9.698104858398438,0.5171805620193481,-0.8172208070755005,0.02915854938328266,0.03846762540551182,-0.02885071905413386,-0.0708154013146922
0.251251220703125,0.1794586181640625,9.698104858398438,0.5171805620193481,-0.8172208070755005,0.02915854938328266,0.03846762540551182,-0.02885071905413386,-0.0708154013146922
0.2703857421875,0.15313720703125,9.72442626953125,0.517187774181366,-0.8172208070755005,0.02915106900036335,-0.10141464879634933,0.040216153833035076,0.06906687288716894
0.2775726318359375,0.18902587890625,9.729217529296875,0.5174016356468201,-0.8036004900932312,0.05636017024517059,-0.10141464879634933,-0.02885071905413386,0
0.2943115234375,0.1794586181640625,9.714859008789062,0.5174016356468201,-0.8036004900932312,0.05635352060198784,-0.03147351169541876,0.040216153833035076,-0.0708154013146922
0.2656097412109375,0.1555328369140625,9.71246337890625,0.5174016356468201,-0.8036004900932312,0.05635352060198784,-0.10141464879634933,0.040216153833035076,-0.0708154013146922
0.2679901123046875,0.157928466796875,9.717254638671875,0.5174016356468201,-0.8036004900932312,0.05635352060198784,-0.10141464879634933,-0.09966612036882606,-0.0708154013146922
0.263214111328125,0.17706298828125,9.705291748046875,0.5039098858833313,-0.8172208070755005,0.029090380296111107,0.03846762540551182,-0.09966612036882606,0.06906687288716894
0.2943115234375,0.18902587890625,9.719650268554688,0.517637312412262,-0.8036004900932312,0.042701587080955505,-0.03147351169541876,0.040216153833035076,-0.0708154013146922
0.275177001953125,0.1914215087890625,9.741180419921875,0.517637312412262,-0.8036004900932312,0.042701587080955505,-0.10141464879634933,0.040216153833035076,0
0.263214111328125,0.1603240966796875,9.72442626953125,0.5040169358253479,-0.8172208070755005,0.015454239211976528,-0.03147351169541876,-0.02885071905413386,-0.0708154013146922
0.2679901123046875,0.17706298828125,9.729217529296875,0.5176516771316528,-0.8036004900932312,0.04268745332956314,-0.03147351169541876,-0.09966612036882606,0
0.275177001953125,0.1507415771484375,9.705291748046875,0.5176516771316528,-0.8036004900932312,0.04268745332956314,-0.10141464879634933,-0.02885071905413386,0.13988227420186114
0.253631591796875,0.1507415771484375,9.714859008789062,0.5041311979293823,-0.8036004900932312,0.05629117041826248,-0.03147351169541876,-0.02885071905413386,0
0.2656097412109375,0.1746826171875,9.693328857421875,0.5313647389411926,-0.7899801731109619,0.04267165809869766,-0.10141464879634933,0.040216153833035076,0
0.2847442626953125,0.1627044677734375,9.710067749023438,0.5041311979293823,-0.8172208070755005,0.0426575243473053,-0.10141464879634933,0.040216153833035076,0
0.2847442626953125,0.1627044677734375,9.710067749023438,0.5041311979293823,-0.8172208070755005,0.0426575243473053,-0.10141464879634933,0.040216153833035076,0
0.2584228515625,0.1674957275390625,9.714859008789062,0.5177515149116516,-0.8036004900932312,0.05626373738050461,-0.03147351169541876,-0.02885071905413386,0
0.275177001953125,0.1842498779296875,9.719650268554688,0.5041311979293823,-0.8036004900932312,0.05626373738050461,-0.03147351169541876,-0.02885071905413386,0.06906687288716894
0.2703857421875,0.1627044677734375,9.7220458984375,0.5041240453720093,-0.8308412432670593,0.04262842983007431,-0.03147351169541876,0.040216153833035076,-0.0708154013146922
0.287139892578125,0.15313720703125,9.70050048828125,0.5041240453720093,-0.8036004900932312,0.056248776614665985,0.03846762540551182,-0.02885071905413386,0
0.2799530029296875,0.169891357421875,9.71246337890625,0.5041240453720093,-0.8036004900932312,0.056248776614665985,-0.03147351169541876,-0.02885071905413386,0
0.29193115234375,0.1866455078125,9.7220458984375,0.5041240453720093,-0.8172208070755005,0.04262842983007431,-0.10141464879634933,-0.02885071905413386,0
0.253631591796875,0.1794586181640625,9.731613159179688,0.5041239261627197,-0.8308412432670593,0.029001431539654732,-0.03147351169541876,-0.02885071905413386,-0.0708154013146922
0.2727813720703125,0.1746826171875,9.729217529296875,0.5041309595108032,-0.8308412432670593,0.029001431539654732,-0.10141464879634933,-0.02885071905413386,0
0.253631591796875,0.1722869873046875,9.71246337890625,0.5178584456443787,-0.8172208070755005,0.028985636308789253,-0.10141464879634933,-0.02885071905413386,-0.0708154013146922
0.2727813720703125,0.17706298828125,9.731613159179688,0.504252552986145,-0.8308412432670593,0.028978154063224792,-0.03147351169541876,-0.02885071905413386,-0.14075653841562277
0.2799530029296875,0.1842498779296875,9.72442626953125,0.504252552986145,-0.8308412432670593,0.028978154063224792,-0.03147351169541876,-0.02885071905413386,0
0.2679901123046875,0.1674957275390625,9.714859008789062,0.5042670369148254,-0.8308412432670593,0.04259850084781647,-0.10141464879634933,0.040216153833035076,0
0.2656097412109375,0.1794586181640625,9.698104858398438,0.5178872346878052,-0.8172208070755005,0.056204717606306076,-0.03147351169541876,-0.02885071905413386,0.06906687288716894
0.275177001953125,0.1674957275390625,9.693328857421875,0.5178872346878052,-0.8172208070755005,0.056204717606306076,-0.03147351169541876,0.040216153833035076,-0.0708154013146922
0.2775726318359375,0.16510009765625,9.71246337890625,0.5042812824249268,-0.8308412432670593,0.028964022174477577,-0.10141464879634933,0.040216153833035076,-0.0708154013146922
0.2703857421875,0.1603240966796875,9.705291748046875,0.5042884945869446,-0.8308412432670593,0.04257688671350479,-0.03147351169541876,-0.02885071905413386,0
0.275177001953125,0.1746826171875,9.719650268554688,0.5042884945869446,-0.8308412432670593,0.04257688671350479,-0.03147351169541876,-0.02885071905413386,0
0.263214111328125,0.1746826171875,9.710067749023438,0.5179088711738586,-0.8172208070755005,0.056197233498096466,-0.10141464879634933,0.040216153833035076,0.06906687288716894
0.253631591796875,0.1842498779296875,9.702896118164062,0.5179231762886047,-0.8036004900932312,0.04256940260529518,-0.03147351169541876,0.040216153833035076,-0.14075653841562277
0.2727813720703125,0.1674957275390625,9.710067749023438,0.5179377198219299,-0.8036004900932312,0.04257023707032204,0.03846762540551182,0.040216153833035076,0
0.2727813720703125,0.1674957275390625,9.705291748046875,0.5043171644210815,-0.8172208070755005,0.0561830997467041,-0.03147351169541876,-0.02885071905413386,0
0.275177001953125,0.1674957275390625,9.710067749023438,0.5043244957923889,-0.8308412432670593,0.042562756687402725,-0.03147351169541876,-0.02885071905413386,-0.0708154013146922
0.2727813720703125,0.1627044677734375,9.698104858398438,0.504331648349762,-0.8172208070755005,0.0561830997467041,-0.03147351169541876,-0.02885071905413386,0
0.275177001953125,0.1866455078125,9.72442626953125,0.5044386982917786,-0.8308412432670593,0.04254695773124695,-0.03147351169541876,-0.02885071905413386,0
0.2823486328125,0.1866455078125,9.7340087890625,0.5044386982917786,-0.8172208070755005,0.04254695773124695,-0.03147351169541876,0.040216153833035076,0
0.2775726318359375,0.1603240966796875,9.70050048828125,0.5044386982917786,-0.8172208070755005,0.04253947734832764,-0.10141464879634933,-0.02885071905413386,0
0.275177001953125,0.1435699462890625,9.702896118164062,0.5180587768554688,-0.8172208070755005,0.056145694106817245,-0.10141464879634933,-0.02885071905413386,0
0.2608184814453125,0.15313720703125,9.729217529296875,0.5180587768554688,-0.8036004900932312,0.04251786321401596,0.03846762540551182,0.040216153833035076,-0.0708154013146922
0.275177001953125,0.1746826171875,9.717254638671875,0.5180590152740479,-0.8036004900932312,0.04251786321401596,-0.03147351169541876,0.040216153833035076,-0.0708154013146922
0.2703857421875,0.17706298828125,9.726821899414062,0.5180660486221313,-0.8308412432670593,0.042517032474279404,-0.03147351169541876,-0.02885071905413386,0.06906687288716894
0.2727813720703125,0.1722869873046875,9.714859008789062,0.5180587768554688,-0.8308412432670593,0.028897516429424286,0.03846762540551182,-0.02885071905413386,0.06906687288716894
0.2656097412109375,0.169891357421875,9.719650268554688,0.5180587768554688,-0.8308412432670593,0.028897516429424286,-0.03147351169541876,-0.02885071905413386,0
0.2656097412109375,0.1842498779296875,9.729217529296875,0.5044386386871338,-0.8308412432670593,0.04251786321401596,-0.03147351169541876,-0.02885071905413386,0
0.275177001953125,0.1555328369140625,9.7220458984375,0.5180587768554688,-0.8036004900932312,0.04251120984554291,-0.10141464879634933,-0.02885071905413386,-0.0708154013146922
0.2608184814453125,0.1674957275390625,9.7220458984375,0.5180587768554688,-0.8036004900932312,0.042503729462623596,-0.03147351169541876,0.040216153833035076,0
0.2727813720703125,0.181854248046875,9.726821899414062,0.5180587768554688,-0.8308412432670593,0.028869250789284706,-0.10141464879634933,0.040216153833035076,0
0.251251220703125,0.15313720703125,9.7220458984375,0.5316789746284485,-0.8036004900932312,0.04247463494539261,-0.10141464879634933,-0.02885071905413386,0
0.2823486328125,0.1842498779296875,9.72442626953125,0.5316791534423828,-0.8036004900932312,0.042467985302209854,-0.10141464879634933,-0.09966612036882606,-0.0708154013146922
0.263214111328125,0.169891357421875,9.717254638671875,0.5045455694198608,-0.8172208070755005,0.042452190071344376,-0.10141464879634933,0.040216153833035076,0.06906687288716894
0.29193115234375,0.1842498779296875,9.72442626953125,0.49102500081062317,-0.8308412432670593,0.0424363948404789,-0.03147351169541876,-0.09966612036882606,0
0.2703857421875,0.1603240966796875,9.717254638671875,0.49102479219436646,-0.8308412432670593,0.0424363948404789,-0.03147351169541876,0.040216153833035076,-0.0708154013146922
0.2464599609375,0.1746826171875,9.70050048828125,0.5183798670768738,-0.8172208070755005,0.0560484305024147,-0.03147351169541876,0.040216153833035076,-0.14075653841562277
0.2560272216796875,0.1746826171875,9.707687377929688,0.5321287512779236,-0.8308412432670593,0.0696529820561409,-0.10141464879634933,0.040216153833035076,-0.0708154013146922
0.275177001953125,0.17706298828125,9.729217529296875,0.504888117313385,-0.8172208070755005,0.028784455731511116,-0.1713557858972799,-0.09966612036882606,0
0.275177001953125,0.1674957275390625,9.710067749023438,0.5049951672554016,-0.8172208070755005,0.04238152876496315,-0.10141464879634933,-0.02885071905413386,-0.0708154013146922
0.275177001953125,0.1674957275390625,9.702896118164062,0.5186154842376709,-0.8172208070755005,0.056001875549554825,-0.10141464879634933,-0.02885071905413386,-0.0708154013146922
0.275177001953125,0.1555328369140625,9.70050048828125,0.5186156630516052,-0.8172208070755005,0.05598773807287216,0.03846762540551182,-0.09966612036882606,-0.0708154013146922
0.253631591796875,0.1794586181640625,9.702896118164062,0.5186156630516052,-0.8172208070755005,0.05598773807287216,-0.03147351169541876,0.040216153833035076,0
0.2608184814453125,0.169891357421875,9.714859008789062,0.5187225937843323,-0.8172208070755005,0.042352430522441864,-0.10141464879634933,-0.02885071905413386,0
0.2656097412109375,0.17706298828125,9.71246337890625,0.5187225937843323,-0.8172208070755005,0.042352430522441864,-0.03147351169541876,-0.02885071905413386,0
0.2727813720703125,0.169891357421875,9.71246337890625,0.5187225937843323,-0.8172208070755005,0.0423441156744957,0.03846762540551182,0.040216153833035076,0
0.29193115234375,0.1986083984375,9.72442626953125,0.5187225937843323,-0.8308412432670593,0.04232998564839363,-0.10141464879634933,-0.02885071905413386,0
0.2775726318359375,0.169891357421875,9.71246337890625,0.4914819002151489,-0.8444615602493286,0.04232250154018402,-0.03147351169541876,0.040216153833035076,0
0.2656097412109375,0.1746826171875,9.707687377929688,0.4914819002151489,-0.8444615602493286,0.04232250154018402,-0.10141464879634933,-0.02885071905413386,0
0.2584228515625,0.1674957275390625,9.690933227539062,0.5051022171974182,-0.8172208070755005,0.05592871829867363,-0.03147351169541876,0.040216153833035076,0
0.2703857421875,0.1722869873046875,9.705291748046875,0.5051022171974182,-0.8172208070755005,0.05592871829867363,-0.03147351169541876,-0.02885071905413386,0
0.2703857421875,0.1746826171875,9.719650268554688,0.5051022171974182,-0.8172208070755005,0.05592871829867363,-0.03147351169541876,0.040216153833035076,0
0.2727813720703125,0.169891357421875,9.714859008789062,0.518722653388977,-0.8172208070755005,0.04229340702295303,-0.03147351169541876,0.040216153833035076,0
0.263214111328125,0.1483612060546875,9.70050048828125,0.5187223553657532,-0.8172208070755005,0.04227927699685097,-0.03147351169541876,-0.02885071905413386,0
0.2703857421875,0.16510009765625,9.695724487304688,0.5051019787788391,-0.8036004900932312,0.055899620056152344,-0.03147351169541876,-0.09966612036882606,0
0.2727813720703125,0.1722869873046875,9.719650268554688,0.505308985710144,-0.8172208070755005,0.04226264730095863,-0.03147351169541876,-0.09966612036882606,0.06906687288716894
0.2584228515625,0.181854248046875,9.717254638671875,0.505308985710144,-0.8172208070755005,0.04226264730095863,-0.03147351169541876,-0.02885071905413386,0.06906687288716894
0.2679901123046875,0.1674957275390625,9.719650268554688,0.505308985710144,-0.8172208070755005,0.04226264730095863,-0.03147351169541876,-0.02885071905413386,0
0.2584228515625,0.17706298828125,9.731613159179688,0.5189148187637329,-0.8172208070755005,0.04226264730095863,-0.03147351169541876,-0.02885071905413386,-0.0708154013146922
0.2847442626953125,0.157928466796875,9.70050048828125,0.5189148187637329,-0.8172208070755005,0.02864229865372181,-0.10141464879634933,-0.09966612036882606,0
0.2679901123046875,0.1746826171875,9.7220458984375,0.5052945613861084,-0.8036004900932312,0.05588299408555031,-0.03147351169541876,-0.02885071905413386,0
0.2847442626953125,0.1603240966796875,9.710067749023438,0.5190219879150391,-0.8172208070755005,0.04223937168717384,-0.10141464879634933,-0.02885071905413386,0.06906687288716894
0.2608184814453125,0.1674957275390625,9.690933227539062,0.5053943991661072,-0.8172208070755005,0.04223937168717384,-0.10141464879634933,0.040216153833035076,0.06906687288716894
0.2727813720703125,0.1842498779296875,9.731613159179688,0.505387008190155,-0.8172208070755005,0.04223188757896423,-0.03147351169541876,-0.02885071905413386,0
0.29193115234375,0.1627044677734375,9.705291748046875,0.5190000534057617,-0.8172208070755005,0.06947258114814758,-0.03147351169541876,-0.09966612036882606,0
0.2727813720703125,0.16510009765625,9.71246337890625,0.4918666481971741,-0.8036004900932312,0.055844757705926895,-0.10141464879634933,-0.09966612036882606,0
0.2584228515625,0.1555328369140625,9.72442626953125,0.50559401512146,-0.8036004900932312,0.042192816734313965,-0.10141464879634933,-0.09966612036882606,0
0.2847442626953125,0.1842498779296875,9.731613159179688,0.50559401512146,-0.8036004900932312,0.042192816734313965,-0.10141464879634933,-0.02885071905413386,0
0.2727813720703125,0.169891357421875,9.7220458984375,0.5057008266448975,-0.8308412432670593,0.028550023213028908,-0.10141464879634933,-0.02885071905413386,0
0.2823486328125,0.1603240966796875,9.705291748046875,0.5057008266448975,-0.8308412432670593,0.028550023213028908,-0.03147351169541876,-0.02885071905413386,-0.0708154013146922
0.2727813720703125,0.1746826171875,9.70050048828125,0.5058079361915588,-0.8172208070755005,0.05575995892286301,-0.10141464879634933,-0.09966612036882606,0
0.2895355224609375,0.1866455078125,9.731613159179688,0.5194283127784729,-0.8172208070755005,0.05575995892286301,-0.03147351169541876,-0.02885071905413386,0.06906687288716894
0.2703857421875,0.16510009765625,9.717254638671875,0.5195353031158447,-0.8172208070755005,0.05574416741728783,-0.10141464879634933,-0.09966612036882606,0
0.2703857421875,0.16510009765625,9.698104858398438,0.5196279287338257,-0.8172208070755005,0.042108021676540375,-0.10141464879634933,-0.09966612036882606,0
0.251251220703125,0.1794586181640625,9.68853759765625,0.5196278691291809,-0.8172208070755005,0.05572088435292244,-0.03147351169541876,-0.02885071905413386,-0.0708154013146922
0.2703857421875,0.1555328369140625,9.698104858398438,0.5196278691291809,-0.8172208070755005,0.05572088435292244,0.03846762540551182,-0.02885071905413386,0
0.2584228515625,0.1746826171875,9.705291748046875,0.5196278691291809,-0.8172208070755005,0.06933458894491196,-0.03147351169541876,-0.09966612036882606,-0.0708154013146922
0.2656097412109375,0.1674957275390625,9.729217529296875,0.5197421908378601,-0.8172208070755005,0.055698443204164505,-0.10141464879634933,-0.09966612036882606,-0.0708154013146922
0.2799530029296875,0.1674957275390625,9.719650268554688,0.5197349190711975,-0.8172208070755005,0.055698443204164505,0.03846762540551182,-0.02885071905413386,-0.0708154013146922
0.275177001953125,0.1603240966796875,9.690933227539062,0.5198564529418945,-0.8172208070755005,0.06929551064968109,-0.10141464879634933,-0.09966612036882606,0
0.2584228515625,0.1722869873046875,9.70050048828125,0.5063432455062866,-0.8036004900932312,0.06927971541881561,-0.10141464879634933,-0.16960725746975663,0
0.275177001953125,0.1674957275390625,9.72442626953125,0.5063432455062866,-0.8036004900932312,0.06927971541881561,0.03846762540551182,-0.09966612036882606,0.06906687288716894
0.275177001953125,0.1603240966796875,9.71246337890625,0.5065500140190125,-0.8172208070755005,0.042014915496110916,-0.03147351169541876,-0.09966612036882606,0
0.2560272216796875,0.1722869873046875,9.678970336914062,0.506657063961029,-0.8036004900932312,0.04199912026524544,-0.10141464879634933,-0.09966612036882606,0
0.2847442626953125,0.157928466796875,9.695724487304688,0.5066570043563843,-0.8036004900932312,0.04199163615703583,-0.03147351169541876,0.040216153833035076,-0.0708154013146922
0.2775726318359375,0.15313720703125,9.705291748046875,0.5066570043563843,-0.8036004900932312,0.06923232972621918,-0.03147351169541876,-0.02885071905413386,0
0.2775726318359375,0.1627044677734375,9.705291748046875,0.5066570043563843,-0.8036004900932312,0.0556119866669178,-0.03147351169541876,0.040216153833035076,0
0.2440643310546875,0.1746826171875,9.693328857421875,0.5066570043563843,-0.8036004900932312,0.0556119866669178,0.03846762540551182,-0.02885071905413386,0
0.2584228515625,0.1842498779296875,9.705291748046875,0.5066570043563843,-0.8172208070755005,0.04199163615703583,-0.03147351169541876,-0.02885071905413386,0
0.2584228515625,0.1866455078125,9.686141967773438,0.5341190695762634,-0.8308412432670593,0.055595360696315765,-0.03147351169541876,-0.09966612036882606,-0.0708154013146922
0.2775726318359375,0.169891357421875,9.70050048828125,0.5341190695762634,-0.8308412432670593,0.055595360696315765,-0.03147351169541876,-0.09966612036882606,0
0.2560272216796875,0.1746826171875,9.702896118164062,0.5206058621406555,-0.8308412432670593,0.04196586459875107,-0.10141464879634933,-0.09966612036882606,0
0.275177001953125,0.169891357421875,9.707687377929688,0.5208199620246887,-0.8172208070755005,0.05556293576955795,-0.10141464879634933,-0.02885071905413386,0.06906687288716894
0.2823486328125,0.1603240966796875,9.68853759765625,0.5208199620246887,-0.8172208070755005,0.055554624646902084,-0.03147351169541876,-0.02885071905413386,0.06906687288716894
0.2799530029296875,0.1507415771484375,9.702896118164062,0.5072920322418213,-0.8036004900932312,0.06916749477386475,0.03846762540551182,-0.09966612036882606,-0.0708154013146922
0.2703857421875,0.17706298828125,9.719650268554688,0.5073990821838379,-0.8036004900932312,0.05553799867630005,-0.10141464879634933,-0.09966612036882606,0
0.2775726318359375,0.181854248046875,9.72442626953125,0.5075061917304993,-0.8036004900932312,0.05552968382835388,-0.03147351169541876,-0.16960725746975663,0
0.263214111328125,0.1794586181640625,9.698104858398438,0.5214475989341736,-0.8308412432670593,0.05549643188714981,-0.03147351169541876,-0.16960725746975663,0
0.2703857421875,0.169891357421875,9.70050048828125,0.5218758583068848,-0.8308412432670593,0.05546234920620918,-0.03147351169541876,-0.09966612036882606,-0.0708154013146922
0.287139892578125,0.1603240966796875,9.710067749023438,0.5220897197723389,-0.8308412432670593,0.05544489249587059,0.03846762540551182,-0.16960725746975663,0
0.275177001953125,0.1794586181640625,9.719650268554688,0.4951774477958679,-0.8172208070755005,0.04179877042770386,-0.03147351169541876,-0.16960725746975663,-0.0708154013146922
0.2679901123046875,0.17706298828125,9.702896118164062,0.5089121460914612,-0.8172208070755005,0.04178297519683838,-0.03147351169541876,-0.09966612036882606,-0.0708154013146922
0.2727813720703125,0.1794586181640625,9.726821899414062,0.5089121460914612,-0.8172208070755005,0.04178297519683838,-0.10141464879634933,0.040216153833035076,0.06906687288716894
0.2775726318359375,0.1674957275390625,9.71246337890625,0.5089123845100403,-0.8308412432670593,0.02815597876906395,-0.03147351169541876,-0.09966612036882606,-0.14075653841562277
0.287139892578125,0.1722869873046875,9.717254638671875,0.5223113298416138,-0.8172208070755005,0.041778817772865295,0.03846762540551182,-0.2395483945706872,-0.0708154013146922
0.2656097412109375,0.1722869873046875,9.7340087890625,0.5224254727363586,-0.8172208070755005,0.04176967591047287,-0.10141464879634933,0.11103155514772728,0
0.251251220703125,0.1722869873046875,9.690933227539062,0.522325873374939,-0.8172208070755005,0.02815099060535431,0.03846762540551182,-0.09966612036882606,0.06906687288716894
0.2656097412109375,0.15313720703125,9.702896118164062,0.5358391404151917,-0.8172208070755005,0.06901369988918304,-0.03147351169541876,0.040216153833035076,0.06906687288716894
0.2727813720703125,0.1746826171875,9.714859008789062,0.5357176065444946,-0.8172208070755005,0.06902200728654861,-0.10141464879634933,-0.16960725746975663,0.06906687288716894
0.2560272216796875,0.17706298828125,9.705291748046875,0.5357030034065247,-0.8036004900932312,0.05539417639374733,0.03846762540551182,0.040216153833035076,-0.0708154013146922
0.253631591796875,0.1842498779296875,9.693328857421875,0.5355034470558167,-0.8172208070755005,0.055418290197849274,-0.10141464879634933,0.040216153833035076,0
0.2608184814453125,0.1746826171875,9.702896118164062,0.5355034470558167,-0.8172208070755005,0.055418290197849274,-0.03147351169541876,-0.02885071905413386,0
0.275177001953125,0.1555328369140625,9.717254638671875,0.5217833518981934,-0.8172208070755005,0.055404987186193466,-0.10141464879634933,-0.02885071905413386,0
0.2727813720703125,0.169891357421875,9.7220458984375,0.5079488754272461,-0.8036004900932312,0.04179461672902107,-0.03147351169541876,0.040216153833035076,-0.0708154013146922
0.2679901123046875,0.1507415771484375,9.717254638671875,0.5078418254852295,-0.8036004900932312,0.04179627448320389,-0.03147351169541876,0.040216153833035076,-0.0708154013146922
0.239288330078125,0.181854248046875,9.710067749023438,0.5212627053260803,-0.8036004900932312,0.04179877042770386,-0.03147351169541876,0.040216153833035076,-0.0708154013146922
0.2727813720703125,0.1746826171875,9.717254638671875,0.5482892990112305,-0.8172208070755005,0.04181539639830589,-0.10141464879634933,-0.02885071905413386,0
0.2608184814453125,0.1746826171875,9.72442626953125,0.5481821894645691,-0.8172208070755005,0.041817061603069305,-0.03147351169541876,-0.02885071905413386,0.06906687288716894
0.2608184814453125,0.169891357421875,9.72442626953125,0.5207274556159973,-0.8308412432670593,0.05544738098978996,-0.03147351169541876,-0.02885071905413386,-0.0708154013146922
0.2656097412109375,0.1914215087890625,9.738784790039062,0.5206203460693359,-0.8172208070755005,0.04183617979288101,-0.03147351169541876,0.040216153833035076,0
0.2656097412109375,0.169891357421875,9.705291748046875,0.5206274390220642,-0.8172208070755005,0.04183617979288101,-0.03147351169541876,-0.02885071905413386,0.06906687288716894
0.275177001953125,0.1483612060546875,9.71246337890625,0.5204060673713684,-0.8172208070755005,0.05547315254807472,-0.10141464879634933,-0.02885071905413386,-0.0708154013146922
0.2847442626953125,0.1674957275390625,9.71246337890625,0.5067858695983887,-0.8036004900932312,0.05546567216515541,-0.10141464879634933,-0.02885071905413386,0.06906687288716894
0.263214111328125,0.17706298828125,9.73638916015625,0.5067858695983887,-0.8036004900932312,0.05546567216515541,-0.1713557858972799,0.040216153833035076,0.06906687288716894
0.2608184814453125,0.1674957275390625,9.690933227539062,0.5200850963592529,-0.8172208070755005,0.028236616402864456,-0.03147351169541876,-0.02885071905413386,0
0.2799530029296875,0.1842498779296875,9.729217529296875,0.5198709964752197,-0.8172208070755005,0.05548645555973053,-0.03147351169541876,-0.02885071905413386,0
0.2608184814453125,0.17706298828125,9.698104858398438,0.5197640061378479,-0.8172208070755005,0.055495601147413254,-0.03147351169541876,-0.02885071905413386,0
0.275177001953125,0.15313720703125,9.70050048828125,0.5195498466491699,-0.8308412432670593,0.05550474673509598,0.03846762540551182,-0.02885071905413386,0.06906687288716894
0.2775726318359375,0.1722869873046875,9.71246337890625,0.5193357467651367,-0.8036004900932312,0.05551472306251526,-0.10141464879634933,-0.02885071905413386,-0.0708154013146922
0.2775726318359375,0.16510009765625,9.698104858398438,0.5193357467651367,-0.8036004900932312,0.05551472306251526,-0.03147351169541876,0.040216153833035076,-0.0708154013146922
0.2799530029296875,0.1555328369140625,9.71246337890625,0.5191289186477661,-0.8172208070755005,0.05552469938993454,-0.03147351169541876,-0.02885071905413386,0
0.275177001953125,0.1603240966796875,9.714859008789062,0.5053091049194336,-0.8036004900932312,0.0419209748506546,-0.03147351169541876,-0.02885071905413386,0.06906687288716894
0.251251220703125,0.1794586181640625,9.698104858398438,0.5053091049194336,-0.8036004900932312,0.0419209748506546,-0.03147351169541876,-0.09966612036882606,0
0.2703857421875,0.16510009765625,9.698104858398438,0.5187152624130249,-0.8172208070755005,0.05555878207087517,-0.10141464879634933,-0.09966612036882606,0
0.2488555908203125,0.1722869873046875,9.698104858398438,0.5186082720756531,-0.8172208070755005,0.06917330622673035,-0.1713557858972799,0.11103155514772728,0
0.2679901123046875,0.1603240966796875,9.70050048828125,0.5185012221336365,-0.8172208070755005,0.0691741406917572,-0.03147351169541876,0.040216153833035076,-0.0708154013146922
0.2679901123046875,0.17706298828125,9.707687377929688,0.5184014439582825,-0.8036004900932312,0.05554049462080002,-0.03147351169541876,-0.02885071905413386,0
0.2727813720703125,0.15313720703125,9.714859008789062,0.5047811269760132,-0.8172208070755005,0.05554049462080002,0.03846762540551182,-0.02885071905413386,0
0.253631591796875,0.181854248046875,9.68853759765625,0.5047811269760132,-0.8172208070755005,0.05554049462080002,-0.10141464879634933,-0.02885071905413386,0
0.2703857421875,0.1627044677734375,9.705291748046875,0.5047808885574341,-0.8036004900932312,0.05553301051259041,-0.03147351169541876,0.11103155514772728,0.13988227420186114
0.2560272216796875,0.1627044677734375,9.714859008789062,0.5182868838310242,-0.8172208070755005,0.05552718788385391,-0.03147351169541876,-0.02885071905413386,-0.0708154013146922
0.253631591796875,0.17706298828125,9.686141967773438,0.5182871222496033,-0.8172208070755005,0.05552718788385391,0.03846762540551182,-0.02885071905413386,0
0.2703857421875,0.16510009765625,9.702896118164062,0.5182942152023315,-0.8308412432670593,0.05552718788385391,-0.03147351169541876,-0.02885071905413386,0.06906687288716894
0.2847442626953125,0.16510009765625,9.690933227539062,0.518386721611023,-0.8172208070755005,0.055518876761198044,-0.03147351169541876,-0.02885071905413386,0.13988227420186114
0.2584228515625,0.181854248046875,9.695724487304688,0.5047517418861389,-0.8172208070755005,0.06913922727108002,-0.03147351169541876,-0.02885071905413386,0
0.2775726318359375,0.157928466796875,9.707687377929688,0.5183647871017456,-0.8172208070755005,0.055518876761198044,0.03846762540551182,0.040216153833035076,0.06906687288716894
0.2703857421875,0.1627044677734375,9.698104858398438,0.5047370791435242,-0.8308412432670593,0.04189852997660637,-0.03147351169541876,0.040216153833035076,-0.0708154013146922
0.2775726318359375,0.169891357421875,9.71246337890625,0.5047370791435242,-0.8308412432670593,0.04189852997660637,-0.10141464879634933,-0.02885071905413386,0
0.2608184814453125,0.17706298828125,9.710067749023438,0.5047370791435242,-0.8172208070755005,0.04189104586839676,-0.10141464879634933,-0.02885071905413386,0
0.2608184814453125,0.1603240966796875,9.710067749023438,0.5183574557304382,-0.8172208070755005,0.055497266352176666,-0.03147351169541876,0.040216153833035076,0
0.2823486328125,0.1794586181640625,9.729217529296875,0.5183574557304382,-0.8172208070755005,0.055497266352176666,-0.03147351169541876,-0.02885071905413386,-0.0708154013146922
0.2727813720703125,0.1866455078125,9.7220458984375,0.5047444105148315,-0.8036004900932312,0.055497266352176666,-0.10141464879634933,-0.02885071905413386,-0.0708154013146922
0.2823486328125,0.1842498779296875,9.717254638671875,0.5047517418861389,-0.8308412432670593,0.04186195135116577,-0.03147351169541876,-0.02885071905413386,0
0.2727813720703125,0.1674957275390625,9.7220458984375,0.5047517418861389,-0.8308412432670593,0.04186195135116577,-0.10141464879634933,-0.02885071905413386,0
0.2584228515625,0.1746826171875,9.714859008789062,0.518372118473053,-0.8172208070755005,0.04184698686003685,-0.10141464879634933,-0.02885071905413386,0.06906687288716894
0.2656097412109375,0.16510009765625,9.705291748046875,0.5183647871017456,-0.8172208070755005,0.05546068772673607,-0.03147351169541876,0.040216153833035076,-0.0708154013146922
0.263214111328125,0.1722869873046875,9.690933227539062,0.5183719992637634,-0.8172208070755005,0.05546068772673607,-0.03147351169541876,-0.02885071905413386,0
0.2679901123046875,0.145965576171875,9.717254638671875,0.5183719992637634,-0.8172208070755005,0.06908103078603745,-0.03147351169541876,-0.02885071905413386,0.06906687288716894
0.2560272216796875,0.1746826171875,9.690933227539062,0.518372118473053,-0.8036004900932312,0.05545320361852646,-0.10141464879634933,-0.02885071905413386,0.06906687288716894
0.2727813720703125,0.1722869873046875,9.71246337890625,0.5183722376823425,-0.8036004900932312,0.05544571951031685,-0.03147351169541876,0.040216153833035076,-0.0708154013146922
0.2847442626953125,0.1794586181640625,9.705291748046875,0.5183649063110352,-0.8172208070755005,0.06906607002019882,0.03846762540551182,-0.02885071905413386,0
0.275177001953125,0.181854248046875,9.71246337890625,0.5048589706420898,-0.8308412432670593,0.055436573922634125,0.03846762540551182,-0.02885071905413386,-0.0708154013146922
0.275177001953125,0.169891357421875,9.693328857421875,0.5048660039901733,-0.8308412432670593,0.05543740466237068,-0.10141464879634933,-0.02885071905413386,0
0.2560272216796875,0.181854248046875,9.702896118164062,0.5184865593910217,-0.8172208070755005,0.06905027478933334,-0.03147351169541876,-0.02885071905413386,0
0.2799530029296875,0.1627044677734375,9.70050048828125,0.5184792280197144,-0.8308412432670593,0.055423274636268616,-0.10141464879634933,-0.02885071905413386,-0.14075653841562277
0.2584228515625,0.17706298828125,9.68853759765625,0.5184792280197144,-0.8308412432670593,0.055423274636268616,-0.10141464879634933,0.040216153833035076,0
0.2560272216796875,0.1722869873046875,9.686141967773438,0.5321142077445984,-0.8308412432670593,0.06902782618999481,-0.03147351169541876,-0.02885071905413386,0
0.2656097412109375,0.1674957275390625,9.710067749023438,0.5184938311576843,-0.8172208070755005,0.06902782618999481,0.03846762540551182,-0.02885071905413386,0
0.275177001953125,0.1603240966796875,9.707687377929688,0.5184938311576843,-0.8172208070755005,0.06902782618999481,-0.10141464879634933,-0.02885071905413386,0.06906687288716894
0.2679901123046875,0.1746826171875,9.726821899414062,0.504973292350769,-0.8036004900932312,0.05539168789982796,-0.10141464879634933,-0.02885071905413386,0.06906687288716894
0.2656097412109375,0.169891357421875,9.70050048828125,0.504973292350769,-0.8172208070755005,0.04176468774676323,-0.03147351169541876,-0.02885071905413386,-0.14075653841562277
0.2847442626953125,0.1627044677734375,9.705291748046875,0.504987895488739,-0.8172208070755005,0.04176468774676323,-0.1713557858972799,-0.02885071905413386,0
0.2823486328125,0.157928466796875,9.707687377929688,0.5186082720756531,-0.8172208070755005,0.05537007004022598,-0.03147351169541876,-0.02885071905413386,0
0.2656097412109375,0.17706298828125,9.710067749023438,0.5049877762794495,-0.8036004900932312,0.05536342039704323,-0.10141464879634933,-0.02885071905413386,0
0.2823486328125,0.1674957275390625,9.702896118164062,0.5049877762794495,-0.8036004900932312,0.05535594001412392,-0.10141464879634933,0.040216153833035076,0
0.2560272216796875,0.1746826171875,9.690933227539062,0.5049953460693359,-0.8172208070755005,0.05534845590591431,-0.10141464879634933,-0.02885071905413386,0
0.29193115234375,0.1627044677734375,9.698104858398438,0.518622875213623,-0.8172208070755005,0.0553409717977047,-0.03147351169541876,0.040216153833035076,-0.0708154013146922
0.263214111328125,0.1627044677734375,9.702896118164062,0.5186229944229126,-0.8172208070755005,0.055333491414785385,-0.10141464879634933,-0.02885071905413386,-0.0708154013146922
0.2703857421875,0.16510009765625,9.70050048828125,0.518622875213623,-0.8172208070755005,0.05532684177160263,-0.10141464879634933,-0.02885071905413386,0
0.2775726318359375,0.1674957275390625,9.707687377929688,0.518622875213623,-0.8172208070755005,0.05532684177160263,-0.03147351169541876,-0.02885071905413386,0
0.275177001953125,0.1627044677734375,9.695724487304688,0.5050027966499329,-0.8172208070755005,0.05531187728047371,-0.10141464879634933,0.040216153833035076,-0.0708154013146922
0.263214111328125,0.1746826171875,9.698104858398438,0.5186304450035095,-0.8172208070755005,0.06891726702451706,-0.10141464879634933,-0.02885071905413386,-0.0708154013146922
0.2584228515625,0.157928466796875,9.710067749023438,0.5187520980834961,-0.8444615602493286,0.02804042585194111,-0.10141464879634933,-0.02885071905413386,0
0.263214111328125,0.1746826171875,9.695724487304688,0.5187520384788513,-0.8444615602493286,0.028032943606376648,-0.10141464879634933,-0.02885071905413386,0
0.2656097412109375,0.17706298828125,9.70050048828125,0.5187520980834961,-0.8308412432670593,0.06888650357723236,-0.03147351169541876,-0.02885071905413386,0
0.275177001953125,0.1603240966796875,9.714859008789062,0.5187520980834961,-0.8308412432670593,0.06888650357723236,-0.1713557858972799,-0.02885071905413386,0
0.2727813720703125,0.1555328369140625,9.707687377929688,0.5051318407058716,-0.8172208070755005,0.05525950342416763,-0.03147351169541876,-0.02885071905413386,0
0.253631591796875,0.17706298828125,9.70050048828125,0.5051318407058716,-0.8172208070755005,0.05525950342416763,-0.1713557858972799,-0.02885071905413386,0
0.2679901123046875,0.157928466796875,9.702896118164062,0.5187593102455139,-0.8172208070755005,0.05525202304124832,-0.03147351169541876,-0.02885071905413386,-0.0708154013146922
0.2823486328125,0.16510009765625,9.695724487304688,0.5187593102455139,-0.8172208070755005,0.05525202304124832,-0.03147351169541876,-0.02885071905413386,0
0.275177001953125,0.169891357421875,9.695724487304688,0.5188738703727722,-0.8172208070755005,0.055243708193302155,-0.10141464879634933,0.040216153833035076,-0.0708154013146922
0.2847442626953125,0.16510009765625,9.702896118164062,0.5052535533905029,-0.8308412432670593,0.06886406242847443,-0.03147351169541876,-0.09966612036882606,0.06906687288716894
0.2608184814453125,0.1603240966796875,9.702896118164062,0.5053606033325195,-0.8308412432670593,0.05524204671382904,-0.03147351169541876,-0.02885071905413386,-0.0708154013146922
0.263214111328125,0.1674957275390625,9.695724487304688,0.5053603649139404,-0.8308412432670593,0.05524204671382904,-0.03147351169541876,0.11103155514772728,-0.0708154013146922
0.2727813720703125,0.16510009765625,9.719650268554688,0.5189881324768066,-0.8172208070755005,0.05524953082203865,-0.03147351169541876,-0.02885071905413386,-0.0708154013146922
0.2656097412109375,0.17706298828125,9.71246337890625,0.5052754878997803,-0.8172208070755005,0.041652459651231766,-0.10141464879634933,-0.02885071905413386,0
0.2727813720703125,0.1627044677734375,9.707687377929688,0.5189032554626465,-0.8308412432670593,0.055279456079006195,-0.03147351169541876,0.040216153833035076,0.13988227420186114
0.2464599609375,0.1794586181640625,9.68853759765625,0.5189032554626465,-0.8172208070755005,0.05527280643582344,-0.10141464879634933,0.040216153833035076,0
0.2488555908203125,0.1794586181640625,9.681365966796875,0.5325090289115906,-0.8308412432670593,0.06890729069709778,-0.10141464879634933,-0.02885071905413386,0
0.275177001953125,0.1866455078125,9.729217529296875,0.5325090289115906,-0.8308412432670593,0.06890729069709778,-0.03147351169541876,-0.09966612036882606,0
0.253631591796875,0.1674957275390625,9.690933227539062,0.5052681565284729,-0.8308412432670593,0.04167407378554344,-0.03147351169541876,0.040216153833035076,0.06906687288716894
0.2560272216796875,0.1794586181640625,9.70050048828125,0.5189955234527588,-0.8172208070755005,0.05528610572218895,-0.03147351169541876,0.040216153833035076,0
0.2847442626953125,0.1722869873046875,9.71246337890625,0.5189957022666931,-0.8172208070755005,0.05528610572218895,-0.03147351169541876,0.040216153833035076,0
0.275177001953125,0.157928466796875,9.71246337890625,0.5189955234527588,-0.8172208070755005,0.041680723428726196,-0.10141464879634933,-0.02885071905413386,0
0.2703857421875,0.1674957275390625,9.710067749023438,0.5189955234527588,-0.8036004900932312,0.05530855432152748,-0.1713557858972799,-0.09966612036882606,-0.0708154013146922
0.2727813720703125,0.1746826171875,9.714859008789062,0.5191025733947754,-0.8036004900932312,0.05529940873384476,-0.03147351169541876,-0.02885071905413386,0.06906687288716894
0.263214111328125,0.16510009765625,9.695724487304688,0.5192168951034546,-0.8172208070755005,0.05529109761118889,-0.10141464879634933,0.040216153833035076,0.13988227420186114
0.275177001953125,0.1674957275390625,9.690933227539062,0.5192022919654846,-0.8172208070755005,0.06891892105340958,-0.03147351169541876,-0.09966612036882606,0
0.2584228515625,0.1627044677734375,9.70050048828125,0.5192022919654846,-0.8172208070755005,0.06891892105340958,-0.10141464879634933,-0.02885071905413386,0
0.2799530029296875,0.1674957275390625,9.698104858398438,0.5193093419075012,-0.8172208070755005,0.05529691278934479,-0.03147351169541876,0.040216153833035076,0.06906687288716894
0.2943115234375,0.157928466796875,9.695724487304688,0.5056890249252319,-0.8172208070755005,0.055305227637290955,-0.03147351169541876,-0.02885071905413386,0
0.2656097412109375,0.1627044677734375,9.702896118164062,0.5056887865066528,-0.8172208070755005,0.05531105026602745,-0.10141464879634933,0.040216153833035076,0
0.263214111328125,0.17706298828125,9.719650268554688,0.5193091630935669,-0.8036004900932312,0.05531853064894676,-0.10141464879634933,-0.09966612036882606,0
0.2847442626953125,0.1674957275390625,9.71246337890625,0.5193091630935669,-0.8308412432670593,0.041706494987010956,-0.10141464879634933,0.040216153833035076,-0.0708154013146922
0.29193115234375,0.1555328369140625,9.686141967773438,0.5193091630935669,-0.8308412432670593,0.04171397536993027,-0.03147351169541876,-0.02885071905413386,0
0.2799530029296875,0.169891357421875,9.693328857421875,0.5056887865066528,-0.8172208070755005,0.0553409717977047,-0.10141464879634933,0.040216153833035076,0
0.2703857421875,0.1507415771484375,9.705291748046875,0.5056886672973633,-0.8172208070755005,0.06896880269050598,-0.10141464879634933,-0.02885071905413386,0
0.2703857421875,0.1842498779296875,9.7220458984375,0.5056959986686707,-0.8036004900932312,0.05535510927438736,-0.10141464879634933,-0.02885071905413386,0
0.2847442626953125,0.157928466796875,9.698104858398438,0.5192092657089233,-0.8308412432670593,0.04175138846039772,-0.03147351169541876,0.040216153833035076,0
0.275177001953125,0.17706298828125,9.705291748046875,0.505588948726654,-0.8036004900932312,0.05537921562790871,-0.10141464879634933,-0.02885071905413386,0.06906687288716894
0.2560272216796875,0.1794586181640625,9.68853759765625,0.505588948726654,-0.8036004900932312,0.05538586527109146,-0.03147351169541876,0.040216153833035076,-0.0708154013146922
0.253631591796875,0.1722869873046875,9.705291748046875,0.5328297019004822,-0.8308412432670593,0.06901369988918304,-0.10141464879634933,-0.09966612036882606,0.06906687288716894
0.251251220703125,0.1746826171875,9.681365966796875,0.5329294204711914,-0.8172208070755005,0.06899790465831757,-0.03147351169541876,-0.02885071905413386,0
0.275177001953125,0.1627044677734375,9.714859008789062,0.5329293012619019,-0.8172208070755005,0.06900538504123688,-0.03147351169541876,-0.02885071905413386,-0.14075653841562277
0.2488555908203125,0.1746826171875,9.70050048828125,0.5329365134239197,-0.8172208070755005,0.06901203095912933,-0.03147351169541876,0.040216153833035076,0
0.2823486328125,0.16510009765625,9.71246337890625,0.5329439043998718,-0.8172208070755005,0.05540664866566658,-0.03147351169541876,-0.02885071905413386,-0.0708154013146922
0.2656097412109375,0.1842498779296875,9.710067749023438,0.532943844795227,-0.8172208070755005,0.05541413277387619,-0.03147351169541876,0.040216153833035076,-0.0708154013146922
0.2608184814453125,0.16510009765625,9.717254638671875,0.5057178139686584,-0.8036004900932312,0.04180043190717697,-0.10141464879634933,-0.09966612036882606,0.06906687288716894
0.287139892578125,0.1603240966796875,9.710067749023438,0.519537627696991,-0.8172208070755005,0.04179045930504799,-0.1713557858972799,-0.02885071905413386,-0.0708154013146922
0.2560272216796875,0.1627044677734375,9.678970336914062,0.519537627696991,-0.8172208070755005,0.04179045930504799,-0.03147351169541876,0.040216153833035076,0
0.263214111328125,0.1674957275390625,9.714859008789062,0.519537627696991,-0.8172208070755005,0.06903946399688721,-0.10141464879634933,-0.02885071905413386,-0.0708154013146922
0.275177001953125,0.1627044677734375,9.702896118164062,0.5195448398590088,-0.8172208070755005,0.05542660132050514,-0.03147351169541876,-0.02885071905413386,0.06906687288716894
0.2679901123046875,0.169891357421875,9.674179077148438,0.5195448398590088,-0.8172208070755005,0.05542660132050514,-0.10141464879634933,-0.02885071905413386,0
0.2775726318359375,0.1746826171875,9.698104858398438,0.5195448398590088,-0.8172208070755005,0.08266729861497879,-0.03147351169541876,-0.02885071905413386,0.06906687288716894
0.275177001953125,0.1746826171875,9.693328857421875,0.5059245824813843,-0.8308412432670593,0.04181290417909622,0.03846762540551182,-0.02885071905413386,0.06906687288716894
0.2727813720703125,0.1627044677734375,9.714859008789062,0.5059245824813843,-0.8308412432670593,0.04182038456201553,-0.10141464879634933,-0.02885071905413386,-0.0708154013146922
0.2703857421875,0.1722869873046875,9.705291748046875,0.5195449590682983,-0.8172208070755005,0.05544821545481682,-0.03147351169541876,0.040216153833035076,-0.0708154013146922
0.2656097412109375,0.1627044677734375,9.698104858398438,0.5195595026016235,-0.8172208070755005,0.05546234920620918,-0.10141464879634933,-0.02885071905413386,-0.0708154013146922
0.2703857421875,0.1722869873046875,9.693328857421875,0.5059463381767273,-0.8172208070755005,0.05546234920620918,-0.03147351169541876,-0.02885071905413386,0.06906687288716894
0.2608184814453125,0.1674957275390625,9.71246337890625,0.5059391260147095,-0.8172208070755005,0.055469829589128494,-0.03147351169541876,0.040216153833035076,-0.0708154013146922
0.263214111328125,0.16510009765625,9.71246337890625,0.5195738673210144,-0.8172208070755005,0.05547066405415535,-0.10141464879634933,-0.02885071905413386,0
0.2584228515625,0.16510009765625,9.695724487304688,0.5195740461349487,-0.8172208070755005,0.05547066405415535,-0.03147351169541876,-0.02885071905413386,-0.0708154013146922
0.2608184814453125,0.181854248046875,9.68853759765625,0.5331944227218628,-0.8172208070755005,0.05546234920620918,-0.03147351169541876,-0.02885071905413386,0.06906687288716894
0.275177001953125,0.1627044677734375,9.710067749023438,0.5195741057395935,-0.8308412432670593,0.05546234920620918,-0.03147351169541876,0.040216153833035076,0
0.2775726318359375,0.169891357421875,9.710067749023438,0.5195738673210144,-0.8308412432670593,0.05546234920620918,0.03846762540551182,-0.02885071905413386,-0.0708154013146922
0.2727813720703125,0.1746826171875,9.714859008789062,0.5059534907341003,-0.8036004900932312,0.04184199869632721,-0.10141464879634933,-0.02885071905413386,0
0.275177001953125,0.15313720703125,9.698104858398438,0.5059534907341003,-0.8172208070755005,0.0418345183134079,-0.03147351169541876,-0.02885071905413386,0.06906687288716894
0.2775726318359375,0.16510009765625,9.693328857421875,0.5059534907341003,-0.8172208070755005,0.0418345183134079,-0.03147351169541876,-0.02885071905413386,0
0.2727813720703125,0.1674957275390625,9.710067749023438,0.5195738673210144,-0.8036004900932312,0.05545486509799957,-0.03147351169541876,-0.02885071905413386,0
0.2823486328125,0.1746826171875,9.705291748046875,0.5059462189674377,-0.8172208070755005,0.05545569583773613,-0.03147351169541876,0.040216153833035076,0
0.2584228515625,0.157928466796875,9.695724487304688,0.5059462189674377,-0.8172208070755005,0.05545569583773613,-0.10141464879634933,-0.02885071905413386,-0.0708154013146922
0.287139892578125,0.169891357421875,9.717254638671875,0.519566535949707,-0.8036004900932312,0.05544821545481682,-0.03147351169541876,-0.09966612036882606,0
0.2727813720703125,0.1627044677734375,9.693328857421875,0.5060533285140991,-0.8172208070755005,0.05543242022395134,-0.03147351169541876,0.040216153833035076,-0.0708154013146922
0.275177001953125,0.1627044677734375,9.702896118164062,0.5060533285140991,-0.8172208070755005,0.05543242022395134,-0.03147351169541876,0.040216153833035076,0.06906687288716894
0.2943115234375,0.15313720703125,9.705291748046875,0.5060606002807617,-0.8172208070755005,0.05543242022395134,-0.1713557858972799,-0.02885071905413386,0
0.275177001953125,0.169891357421875,9.695724487304688,0.49244028329849243,-0.8172208070755005,0.04179710894823074,-0.03147351169541876,-0.02885071905413386,0
0.2895355224609375,0.157928466796875,9.695724487304688,0.49244028329849243,-0.8172208070755005,0.04179710894823074,-0.03147351169541876,0.040216153833035076,0
0.2679901123046875,0.1722869873046875,9.695724487304688,0.5060606002807617,-0.8172208070755005,0.05541745945811272,-0.03147351169541876,-0.02885071905413386,-0.14075653841562277
0.2727813720703125,0.1722869873046875,9.705291748046875,0.519695520401001,-0.8172208070755005,0.06903780251741409,-0.03147351169541876,0.040216153833035076,-0.0708154013146922
0.2943115234375,0.1722869873046875,9.705291748046875,0.5060824751853943,-0.8172208070755005,0.05541745945811272,-0.03147351169541876,-0.02885071905413386,0.06906687288716894
0.2488555908203125,0.1722869873046875,9.674179077148438,0.5060752630233765,-0.8172208070755005,0.06903032213449478,-0.03147351169541876,-0.02885071905413386,0
0.2823486328125,0.1555328369140625,9.695724487304688,0.5333159565925598,-0.8172208070755005,0.08265066891908646,-0.03147351169541876,-0.02885071905413386,-0.14075653841562277
0.2823486328125,0.157928466796875,9.707687377929688,0.5060896873474121,-0.8172208070755005,0.05540997162461281,0.03846762540551182,0.040216153833035076,-0.0708154013146922
0.263214111328125,0.1914215087890625,9.705291748046875,0.5061043500900269,-0.8036004900932312,0.055410802364349365,-0.03147351169541876,-0.02885071905413386,-0.0708154013146922
0.275177001953125,0.169891357421875,9.7220458984375,0.5333523750305176,-0.8308412432670593,0.05539584159851074,-0.03147351169541876,0.040216153833035076,0.06906687288716894
0.2703857421875,0.1746826171875,9.710067749023438,0.5333449840545654,-0.8308412432670593,0.05538836121559143,-0.03147351169541876,-0.02885071905413386,0
0.2584228515625,0.169891357421875,9.693328857421875,0.5060970187187195,-0.8172208070755005,0.041760530322790146,-0.03147351169541876,-0.02885071905413386,-0.14075653841562277
0.2775726318359375,0.1603240966796875,9.707687377929688,0.5333523154258728,-0.8172208070755005,0.041760530322790146,-0.03147351169541876,-0.02885071905413386,0
0.2679901123046875,0.1794586181640625,9.70050048828125,0.5333523154258728,-0.8172208070755005,0.041760530322790146,-0.03147351169541876,-0.02885071905413386,0
0.2775726318359375,0.169891357421875,9.690933227539062,0.5061116814613342,-0.8036004900932312,0.05538088083267212,0.03846762540551182,-0.02885071905413386,0
0.2560272216796875,0.181854248046875,9.683746337890625,0.5061043500900269,-0.8172208070755005,0.06900205463171005,-0.03147351169541876,-0.02885071905413386,-0.0708154013146922
0.2656097412109375,0.1842498779296875,9.726821899414062,0.5061043500900269,-0.8172208070755005,0.06900205463171005,-0.03147351169541876,-0.02885071905413386,-0.0708154013146922
0.275177001953125,0.18902587890625,9.7340087890625,0.5197465419769287,-0.8308412432670593,0.055381711572408676,-0.10141464879634933,0.040216153833035076,-0.0708154013146922
0.2608184814453125,0.169891357421875,9.702896118164062,0.5197538733482361,-0.8308412432670593,0.04175388067960739,-0.1713557858972799,-0.09966612036882606,0
0.2727813720703125,0.169891357421875,9.702896118164062,0.5197538733482361,-0.8308412432670593,0.04173891618847847,-0.10141464879634933,0.040216153833035076,-0.0708154013146922
0.2799530029296875,0.16510009765625,9.705291748046875,0.5061408281326294,-0.8172208070755005,0.05534430220723152,-0.10141464879634933,0.040216153833035076,0
0.275177001953125,0.1794586181640625,9.690933227539062,0.5061410069465637,-0.8036004900932312,0.05533016473054886,-0.03147351169541876,-0.02885071905413386,-0.0708154013146922
0.2560272216796875,0.181854248046875,9.683746337890625,0.506148099899292,-0.8036004900932312,0.05533016473054886,-0.10141464879634933,-0.09966612036882606,0
0.2799530029296875,0.17706298828125,9.71246337890625,0.5062624216079712,-0.8308412432670593,0.041694022715091705,-0.03147351169541876,0.040216153833035076,0
0.2703857421875,0.1603240966796875,9.705291748046875,0.5062624216079712,-0.8172208070755005,0.041694022715091705,-0.10141464879634933,-0.09966612036882606,0.06906687288716894
0.2584228515625,0.17706298828125,9.690933227539062,0.5063623189926147,-0.8172208070755005,0.041678231209516525,0.03846762540551182,-0.02885071905413386,0
0.2679901123046875,0.1483612060546875,9.702896118164062,0.5200897455215454,-0.8172208070755005,0.05528278276324272,-0.10141464879634933,-0.02885071905413386,-0.0708154013146922
0.2488555908203125,0.17706298828125,9.707687377929688,0.5200897455215454,-0.8036004900932312,0.05527530238032341,-0.10141464879634933,-0.09966612036882606,0
0.2727813720703125,0.169891357421875,9.695724487304688,0.5201966762542725,-0.8172208070755005,0.04163915663957596,0.03846762540551182,0.040216153833035076,-0.14075653841562277
0.253631591796875,0.1794586181640625,9.68853759765625,0.5202112793922424,-0.8172208070755005,0.05525950342416763,-0.03147351169541876,-0.02885071905413386,0.06906687288716894
0.2608184814453125,0.1722869873046875,9.702896118164062,0.5202039480209351,-0.8172208070755005,0.05525950342416763,-0.03147351169541876,0.040216153833035076,0
0.275177001953125,0.169891357421875,9.695724487304688,0.5202038288116455,-0.8172208070755005,0.05525950342416763,-0.10141464879634933,-0.02885071905413386,0
0.2895355224609375,0.16510009765625,9.690933227539062,0.5202039480209351,-0.8172208070755005,0.05525202304124832,-0.03147351169541876,0.040216153833035076,0
0.2560272216796875,0.17706298828125,9.70050048828125,0.5065836310386658,-0.8036004900932312,0.05524454265832901,-0.10141464879634933,0.040216153833035076,-0.0708154013146922
0.2679901123046875,0.181854248046875,9.686141967773438,0.5065909624099731,-0.8036004900932312,0.0552370585501194,-0.03147351169541876,-0.02885071905413386,0.06906687288716894
0.2727813720703125,0.157928466796875,9.70050048828125,0.5202039480209351,-0.8172208070755005,0.055237893015146255,-0.03147351169541876,0.040216153833035076,-0.0708154013146922
0.2847442626953125,0.1603240966796875,9.702896118164062,0.5065909624099731,-0.8036004900932312,0.0552370585501194,-0.10141464879634933,-0.02885071905413386,-0.14075653841562277
0.2608184814453125,0.181854248046875,9.695724487304688,0.5065909624099731,-0.8036004900932312,0.0552370585501194,-0.03147351169541876,0.040216153833035076,-0.0708154013146922
0.275177001953125,0.1746826171875,9.705291748046875,0.5202406048774719,-0.8172208070755005,0.06885075569152832,-0.03147351169541876,0.040216153833035076,0.06906687288716894
0.2608184814453125,0.1746826171875,9.690933227539062,0.5066201686859131,-0.8172208070755005,0.04160257801413536,-0.03147351169541876,-0.02885071905413386,0.06906687288716894
0.2847442626953125,0.15313720703125,9.693328857421875,0.5066204071044922,-0.8172208070755005,0.04159509763121605,-0.03147351169541876,0.040216153833035076,-0.0708154013146922
0.2656097412109375,0.16510009765625,9.702896118164062,0.50661301612854,-0.8036004900932312,0.0688357949256897,-0.03147351169541876,0.040216153833035076,-0.0708154013146922
0.2679901123046875,0.1746826171875,9.698104858398438,0.5202407240867615,-0.8172208070755005,0.055215444415807724,-0.03147351169541876,-0.02885071905413386,-0.0708154013146922
0.2799530029296875,0.1603240966796875,9.707687377929688,0.5202404856681824,-0.8172208070755005,0.055215444415807724,0.03846762540551182,0.040216153833035076,0
0.2656097412109375,0.16510009765625,9.690933227539062,0.5066201686859131,-0.8172208070755005,0.055215444415807724,-0.03147351169541876,-0.02885071905413386,-0.0708154013146922
0.2703857421875,0.18902587890625,9.73638916015625,0.5202478170394897,-0.8172208070755005,0.06883496046066284,-0.03147351169541876,0.040216153833035076,0.06906687288716894
0.2823486328125,0.1627044677734375,9.710067749023438,0.5202407240867615,-0.8172208070755005,0.0688357949256897,-0.03147351169541876,0.040216153833035076,-0.14075653841562277
0.2727813720703125,0.16510009765625,9.710067749023438,0.5065352320671082,-0.8036004900932312,0.05522459000349045,-0.10141464879634933,-0.02885071905413386,-0.0708154013146922
0.2847442626953125,0.1627044677734375,9.717254638671875,0.5065425634384155,-0.8172208070755005,0.04158927872776985,-0.10141464879634933,0.040216153833035076,0
0.287139892578125,0.16510009765625,9.707687377929688,0.49292221665382385,-0.8172208070755005,0.055202145129442215,-0.10141464879634933,-0.02885071905413386,0
0.287139892578125,0.16510009765625,9.710067749023438,0.4929223656654358,-0.8172208070755005,0.05518718436360359,-0.03147351169541876,-0.09966612036882606,0
0.2727813720703125,0.1674957275390625,9.695724487304688,0.49302932620048523,-0.8036004900932312,0.055171385407447815,-0.03147351169541876,0.040216153833035076,0
0.2727813720703125,0.1603240966796875,9.702896118164062,0.49302932620048523,-0.8036004900932312,0.055163901299238205,-0.03147351169541876,-0.02885071905413386,0
0.275177001953125,0.1842498779296875,9.7340087890625,0.5202699899673462,-0.8172208070755005,0.06878425180912018,-0.10141464879634933,-0.02885071905413386,0
0.2799530029296875,0.16510009765625,9.710067749023438,0.5203770995140076,-0.8308412432670593,0.05514146015048027,-0.10141464879634933,-0.09966612036882606,0
0.263214111328125,0.1842498779296875,9.731613159179688,0.5204840898513794,-0.8308412432670593,0.055124834179878235,-0.10141464879634933,-0.02885071905413386,-0.0708154013146922
0.2727813720703125,0.181854248046875,9.719650268554688,0.5068784356117249,-0.8308412432670593,0.06873852759599686,0.03846762540551182,-0.02885071905413386,0
0.275177001953125,0.17706298828125,9.7220458984375,0.5068783760070801,-0.8444615602493286,0.04148951917886734,-0.03147351169541876,-0.02885071905413386,0.06906687288716894
0.2488555908203125,0.181854248046875,9.686141967773438,0.5068783760070801,-0.8444615602493286,0.04148951917886734,-0.03147351169541876,-0.02885071905413386,0.06906687288716894
0.2608184814453125,0.157928466796875,9.7220458984375,0.5204987525939941,-0.8308412432670593,0.06873022019863129,-0.1713557858972799,-0.02885071905413386,0.06906687288716894
0.275177001953125,0.1603240966796875,9.698104858398438,0.5204988718032837,-0.8172208070755005,0.041475389152765274,0.03846762540551182,-0.02885071905413386,0.06906687288716894
0.2608184814453125,0.1722869873046875,9.683746337890625,0.5204988718032837,-0.8172208070755005,0.041475389152765274,-0.10141464879634933,-0.02885071905413386,0
0.2847442626953125,0.1603240966796875,9.705291748046875,0.5068785548210144,-0.8444615602493286,0.041467905044555664,-0.03147351169541876,-0.02885071905413386,0.06906687288716894
0.2703857421875,0.1603240966796875,9.7220458984375,0.5068859457969666,-0.8308412432670593,0.04146042466163635,-0.03147351169541876,0.040216153833035076,0
0.2584228515625,0.1794586181640625,9.695724487304688,0.5068859457969666,-0.8308412432670593,0.04146042466163635,-0.10141464879634933,0.040216153833035076,0.06906687288716894
0.2584228515625,0.181854248046875,9.705291748046875,0.5205062031745911,-0.8172208070755005,0.05506663769483566,-0.03147351169541876,-0.02885071905413386,0
0.2727813720703125,0.157928466796875,9.707687377929688,0.5068787336349487,-0.8308412432670593,0.05506663769483566,-0.10141464879634933,-0.02885071905413386,0
0.2727813720703125,0.1627044677734375,9.705291748046875,0.5068787336349487,-0.8308412432670593,0.05505915731191635,-0.03147351169541876,0.040216153833035076,0
0.2799530029296875,0.181854248046875,9.731613159179688,0.5205135941505432,-0.8308412432670593,0.05505915731191635,-0.03147351169541876,0.040216153833035076,0.06906687288716894
0.2656097412109375,0.1507415771484375,9.705291748046875,0.5068932771682739,-0.8308412432670593,0.027818461880087852,-0.03147351169541876,0.040216153833035076,0
0.2823486328125,0.169891357421875,9.705291748046875,0.5068932771682739,-0.8308412432670593,0.027818461880087852,-0.03147351169541876,-0.02885071905413386,0
0.263214111328125,0.1914215087890625,9.686141967773438,0.5205135941505432,-0.8444615602493286,0.041438810527324677,-0.03147351169541876,-0.02885071905413386,0
0.29193115234375,0.16510009765625,9.698104858398438,0.5205135941505432,-0.8444615602493286,0.06867202371358871,-0.03147351169541876,0.040216153833035076,0
0.2679901123046875,0.16510009765625,9.714859008789062,0.5205135941505432,-0.8444615602493286,0.06867202371358871,-0.03147351169541876,-0.09966612036882606,-0.0708154013146922
0.2703857421875,0.1627044677734375,9.707687377929688,0.4933873414993286,-0.8308412432670593,0.05504336208105087,-0.03147351169541876,-0.02885071905413386,0
0.287139892578125,0.1627044677734375,9.698104858398438,0.5070076584815979,-0.8308412432670593,0.041408050805330276,-0.03147351169541876,-0.09966612036882606,0
0.263214111328125,0.17706298828125,9.702896118164062,0.5071146488189697,-0.8308412432670593,0.04139890521764755,-0.03147351169541876,-0.02885071905413386,-0.0708154013146922
0.2656097412109375,0.16510009765625,9.695724487304688,0.5208494663238525,-0.8308412432670593,0.055011771619319916,-0.03147351169541876,0.040216153833035076,-0.21069767551655336
0.2584228515625,0.1722869873046875,9.690933227539062,0.507258415222168,-0.8308412432670593,0.06863129138946533,0.03846762540551182,-0.02885071905413386,-0.14075653841562277
0.2727813720703125,0.1627044677734375,9.695724487304688,0.507258415222168,-0.8308412432670593,0.06863129138946533,-0.03147351169541876,0.040216153833035076,0
0.2488555908203125,0.169891357421875,9.67657470703125,0.5208935737609863,-0.8172208070755005,0.055011771619319916,-0.03147351169541876,-0.02885071905413386,0
0.2727813720703125,0.157928466796875,9.70050048828125,0.5345138907432556,-0.8308412432670593,0.06863211840391159,-0.03147351169541876,-0.02885071905413386,0.06906687288716894
0.2679901123046875,0.157928466796875,9.707687377929688,0.5345140695571899,-0.8308412432670593,0.06862381100654602,-0.03147351169541876,-0.09966612036882606,0
0.2584228515625,0.18902587890625,9.693328857421875,0.5208936929702759,-0.8444615602493286,0.05500345677137375,-0.03147351169541876,-0.02885071905413386,-0.0708154013146922
0.2799530029296875,0.1627044677734375,9.70050048828125,0.5345140695571899,-0.8308412432670593,0.05499597638845444,-0.10141464879634933,-0.02885071905413386,0.06906687288716894
0.251251220703125,0.169891357421875,9.693328857421875,0.5345140099525452,-0.8308412432670593,0.05498932674527168,-0.10141464879634933,0.040216153833035076,-0.0708154013146922
0.2703857421875,0.1986083984375,9.731613159179688,0.5072731971740723,-0.8308412432670593,0.05498184636235237,-0.10141464879634933,-0.02885071905413386,-0.0708154013146922
0.275177001953125,0.1674957275390625,9.707687377929688,0.5209083557128906,-0.8172208070755005,0.0549602285027504,-0.10141464879634933,-0.02885071905413386,0
0.263214111328125,0.1746826171875,9.705291748046875,0.5209083557128906,-0.8172208070755005,0.054952748119831085,-0.10141464879634933,0.040216153833035076,0
0.2608184814453125,0.16510009765625,9.669403076171875,0.5072880983352661,-0.8308412432670593,0.05493778735399246,-0.03147351169541876,-0.02885071905413386,-0.0708154013146922
0.2799530029296875,0.181854248046875,9.719650268554688,0.5209084153175354,-0.8308412432670593,0.08217848092317581,-0.03147351169541876,-0.02885071905413386,-0.0708154013146922
0.29193115234375,0.181854248046875,9.72442626953125,0.5209158658981323,-0.8172208070755005,0.05493778735399246,-0.03147351169541876,0.040216153833035076,0
0.2775726318359375,0.1627044677734375,9.710067749023438,0.5072954893112183,-0.8308412432670593,0.05493778735399246,-0.03147351169541876,-0.02885071905413386,0.06906687288716894
0.2560272216796875,0.1794586181640625,9.695724487304688,0.5072880983352661,-0.8308412432670593,0.04131743684411049,-0.03147351169541876,-0.02885071905413386,0.06906687288716894
0.2727813720703125,0.1746826171875,9.707687377929688,0.5072880983352661,-0.8308412432670593,0.041310787200927734,-0.10141464879634933,-0.02885071905413386,-0.0708154013146922
0.2775726318359375,0.157928466796875,9.710067749023438,0.5073028206825256,-0.8172208070755005,0.06854316592216492,0.03846762540551182,-0.02885071905413386,-0.0708154013146922
0.2679901123046875,0.1794586181640625,9.705291748046875,0.5210449695587158,-0.8444615602493286,0.08215519785881042,-0.03147351169541876,-0.09966612036882606,0.06906687288716894
0.2727813720703125,0.1914215087890625,9.726821899414062,0.5211519598960876,-0.8444615602493286,0.08214689046144485,-0.10141464879634933,-0.09966612036882606,0
0.263214111328125,0.1483612060546875,9.707687377929688,0.521259069442749,-0.8308412432670593,0.05488956719636917,-0.10141464879634933,-0.02885071905413386,0
0.2847442626953125,0.181854248046875,9.7220458984375,0.5076460242271423,-0.8308412432670593,0.05488208681344986,-0.10141464879634933,0.040216153833035076,-0.0708154013146922
0.2727813720703125,0.1555328369140625,9.71246337890625,0.5076460242271423,-0.8308412432670593,0.05488208681344986,-0.10141464879634933,0.040216153833035076,0
0.253631591796875,0.1794586181640625,9.714859008789062,0.5212739109992981,-0.8308412432670593,0.054860468953847885,-0.10141464879634933,0.040216153833035076,0.06906687288716894
0.2560272216796875,0.1722869873046875,9.693328857421875,0.5348942279815674,-0.8444615602493286,0.05484633892774582,-0.03147351169541876,-0.09966612036882606,0
0.287139892578125,0.15313720703125,9.695724487304688,0.5350012183189392,-0.8444615602493286,0.054837193340063095,-0.10141464879634933,-0.02885071905413386,0
0.253631591796875,0.181854248046875,9.707687377929688,0.5078675746917725,-0.8172208070755005,0.06843426823616028,-0.10141464879634933,0.040216153833035076,-0.0708154013146922
0.275177001953125,0.157928466796875,9.698104858398438,0.5351229906082153,-0.8444615602493286,0.054806433618068695,-0.03147351169541876,0.040216153833035076,0
0.275177001953125,0.157928466796875,9.698104858398438,0.5351229906082153,-0.8444615602493286,0.054806433618068695,-0.03147351169541876,0.040216153833035076,0
0.2656097412109375,0.1603240966796875,9.714859008789062,0.5351229906082153,-0.8444615602493286,0.054806433618068695,-0.10141464879634933,-0.02885071905413386,0
0.29193115234375,0.169891357421875,9.707687377929688,0.5078825950622559,-0.8172208070755005,0.06841930001974106,-0.03147351169541876,-0.02885071905413386,0
0.2727813720703125,0.1483612060546875,9.710067749023438,0.49425455927848816,-0.8308412432670593,0.054798953235149384,0.03846762540551182,-0.02885071905413386,0
0.275177001953125,0.16510009765625,9.695724487304688,0.49425455927848816,-0.8308412432670593,0.054798953235149384,-0.03147351169541876,-0.02885071905413386,-0.0708154013146922
0.29193115234375,0.16510009765625,9.705291748046875,0.5215026140213013,-0.8308412432670593,0.06841930001974106,-0.10141464879634933,-0.02885071905413386,0
0.251251220703125,0.1722869873046875,9.693328857421875,0.5077754259109497,-0.8308412432670593,0.0548006147146225,-0.10141464879634933,0.040216153833035076,0
0.2464599609375,0.1866455078125,9.695724487304688,0.5350160002708435,-0.8444615602493286,0.0683993473649025,-0.10141464879634933,-0.02885071905413386,0
0.2679901123046875,0.1603240966796875,9.690933227539062,0.5350160002708435,-0.8444615602493286,0.0683993473649025,-0.03147351169541876,-0.09966612036882606,0.06906687288716894
0.275177001953125,0.169891357421875,9.71246337890625,0.5215027928352356,-0.8308412432670593,0.06838272511959076,-0.03147351169541876,-0.02885071905413386,0
0.2775726318359375,0.1627044677734375,9.710067749023438,0.5216100215911865,-0.8308412432670593,0.06837357580661774,-0.03147351169541876,0.040216153833035076,-0.0708154013146922
0.2608184814453125,0.181854248046875,9.7340087890625,0.5079897046089172,-0.8172208070755005,0.05475322902202606,-0.1713557858972799,-0.02885071905413386,-0.0708154013146922
0.2656097412109375,0.1603240966796875,9.70050048828125,0.5216248035430908,-0.8308412432670593,0.027498403564095497,-0.03147351169541876,-0.02885071905413386,0
0.275177001953125,0.17706298828125,9.702896118164062,0.5216246247291565,-0.8308412432670593,0.027498403564095497,-0.10141464879634933,-0.02885071905413386,-0.0708154013146922
0.2679901123046875,0.1722869873046875,9.70050048828125,0.5080119371414185,-0.8308412432670593,0.06834448128938675,-0.03147351169541876,-0.09966612036882606,-0.0708154013146922
0.2679901123046875,0.16510009765625,9.693328857421875,0.5217466950416565,-0.8308412432670593,0.054715823382139206,-0.03147351169541876,-0.02885071905413386,-0.14075653841562277
0.2608184814453125,0.1842498779296875,9.67657470703125,0.5217466950416565,-0.8308412432670593,0.054715823382139206,0.03846762540551182,-0.02885071905413386,-0.0708154013146922
0.2584228515625,0.1746826171875,9.68853759765625,0.5081484317779541,-0.8444615602493286,0.054708339273929596,-0.03147351169541876,-0.09966612036882606,-0.0708154013146922
0.2799530029296875,0.1674957275390625,9.695724487304688,0.5218831896781921,-0.8308412432670593,0.0683203786611557,-0.1713557858972799,0.040216153833035076,0
0.253631591796875,0.16510009765625,9.719650268554688,0.5218831896781921,-0.8308412432670593,0.0683203786611557,0.03846762540551182,0.040216153833035076,0
0.2679901123046875,0.1627044677734375,9.70050048828125,0.5355035066604614,-0.8308412432670593,0.04106471687555313,-0.10141464879634933,-0.02885071905413386,0
0.287139892578125,0.1627044677734375,9.698104858398438,0.5218831896781921,-0.8308412432670593,0.054677583277225494,-0.10141464879634933,-0.02885071905413386,0
0.2679901123046875,0.1674957275390625,9.695724487304688,0.5218831896781921,-0.8308412432670593,0.054670099169015884,-0.03147351169541876,-0.02885071905413386,0
0.2656097412109375,0.1483612060546875,9.705291748046875,0.4946424663066864,-0.8308412432670593,0.054670099169015884,-0.10141464879634933,0.040216153833035076,0
0.2608184814453125,0.1722869873046875,9.683746337890625,0.5218833684921265,-0.8172208070755005,0.05465513467788696,-0.10141464879634933,-0.09966612036882606,0
0.2608184814453125,0.1674957275390625,9.68853759765625,0.5219903588294983,-0.8172208070755005,0.054639339447021484,-0.03147351169541876,0.040216153833035076,0
0.2656097412109375,0.16510009765625,9.690933227539062,0.5221121311187744,-0.8172208070755005,0.054631028324365616,-0.10141464879634933,-0.02885071905413386,0
0.2608184814453125,0.1746826171875,9.667007446289062,0.5221121311187744,-0.8308412432670593,0.054623544216156006,-0.10141464879634933,-0.02885071905413386,0
0.2823486328125,0.1746826171875,9.71246337890625,0.5221121907234192,-0.8308412432670593,0.08185675740242004,-0.10141464879634933,-0.02885071905413386,0
0.263214111328125,0.1746826171875,9.70050048828125,0.5221123695373535,-0.8308412432670593,0.05460110306739807,-0.10141464879634933,-0.09966612036882606,0
0.2775726318359375,0.1722869873046875,9.705291748046875,0.5358397364616394,-0.8308412432670593,0.06821230053901672,0.03846762540551182,-0.02885071905413386,-0.0708154013146922
0.2656097412109375,0.17706298828125,9.68853759765625,0.5358469486236572,-0.8308412432670593,0.06821313500404358,-0.03147351169541876,-0.09966612036882606,0
0.2775726318359375,0.17706298828125,9.72442626953125,0.5223413109779358,-0.8308412432670593,0.06820482015609741,-0.03147351169541876,-0.02885071905413386,-0.0708154013146922
0.2823486328125,0.1674957275390625,9.7220458984375,0.5087209343910217,-0.8172208070755005,0.05458446964621544,-0.10141464879634933,-0.02885071905413386,0
0.2560272216796875,0.17706298828125,9.693328857421875,0.5087209343910217,-0.8172208070755005,0.05457615852355957,-0.03147351169541876,-0.09966612036882606,0.06906687288716894
0.2823486328125,0.1435699462890625,9.698104858398438,0.5088130235671997,-0.8308412432670593,0.05456867814064026,-0.03147351169541876,-0.02885071905413386,-0.0708154013146922
0.275177001953125,0.1627044677734375,9.714859008789062,0.53606116771698,-0.8308412432670593,0.06818819791078568,0.03846762540551182,0.040216153833035076,0
0.2727813720703125,0.1794586181640625,9.729217529296875,0.53606116771698,-0.8308412432670593,0.06818819791078568,-0.03147351169541876,-0.09966612036882606,-0.0708154013146922
0.2656097412109375,0.1627044677734375,9.707687377929688,0.5225480794906616,-0.8308412432670593,0.054559532552957535,-0.03147351169541876,-0.02885071905413386,0
0.2847442626953125,0.1627044677734375,9.707687377929688,0.5225480794906616,-0.8308412432670593,0.054559532552957535,-0.03147351169541876,-0.02885071905413386,0.06906687288716894
0.2584228515625,0.17706298828125,9.68853759765625,0.5225478410720825,-0.8308412432670593,0.054559532552957535,-0.03147351169541876,-0.02885071905413386,0.06906687288716894
0.251251220703125,0.1842498779296875,9.695724487304688,0.5226477384567261,-0.8172208070755005,0.054551221430301666,-0.03147351169541876,-0.09966612036882606,0
0.239288330078125,0.1866455078125,9.690933227539062,0.5227548480033875,-0.8444615602493286,0.05453542619943619,-0.10141464879634933,-0.02885071905413386,0
0.2775726318359375,0.1722869873046875,9.717254638671875,0.5227547287940979,-0.8444615602493286,0.05452711135149002,-0.10141464879634933,-0.02885071905413386,0
0.2775726318359375,0.1674957275390625,9.695724487304688,0.5363753437995911,-0.8444615602493286,0.06813332438468933,-0.10141464879634933,-0.02885071905413386,0
0.275177001953125,0.16510009765625,9.695724487304688,0.522754967212677,-0.8308412432670593,0.027264803647994995,-0.03147351169541876,-0.09966612036882606,0
0.2679901123046875,0.181854248046875,9.7340087890625,0.5228621363639832,-0.8308412432670593,0.02725565992295742,0.03846762540551182,0.040216153833035076,0
0.2823486328125,0.157928466796875,9.71246337890625,0.5228621363639832,-0.8444615602493286,0.02725565992295742,-0.03147351169541876,-0.02885071905413386,0
0.253631591796875,0.1794586181640625,9.70050048828125,0.5092417597770691,-0.8172208070755005,0.05449635162949562,0.03846762540551182,-0.02885071905413386,0
0.2584228515625,0.1866455078125,9.68853759765625,0.5092417597770691,-0.8172208070755005,0.05449635162949562,-0.10141464879634933,-0.02885071905413386,0
0.2464599609375,0.16510009765625,9.70050048828125,0.5228621363639832,-0.8308412432670593,0.05447474122047424,0.03846762540551182,-0.02885071905413386,0
0.275177001953125,0.1722869873046875,9.70050048828125,0.5228621363639832,-0.8308412432670593,0.05447474122047424,-0.10141464879634933,-0.02885071905413386,0.06906687288716894
0.253631591796875,0.1794586181640625,9.70050048828125,0.5228621959686279,-0.8308412432670593,0.05446726083755493,-0.03147351169541876,0.040216153833035076,0
0.2488555908203125,0.1722869873046875,9.68853759765625,0.5228548049926758,-0.8580818772315979,0.027211599051952362,-0.1713557858972799,0.040216153833035076,0.06906687288716894
0.2895355224609375,0.1842498779296875,9.717254638671875,0.5228474736213684,-0.8308412432670593,0.05442984774708748,-0.03147351169541876,-0.02885071905413386,0
0.2775726318359375,0.1555328369140625,9.686141967773438,0.5228474736213684,-0.8308412432670593,0.05442984774708748,-0.10141464879634933,-0.09966612036882606,-0.0708154013146922
0.263214111328125,0.157928466796875,9.702896118164062,0.5093415379524231,-0.8444615602493286,0.04078705608844757,-0.10141464879634933,0.040216153833035076,-0.0708154013146922
0.2656097412109375,0.1674957275390625,9.686141967773438,0.4957360029220581,-0.8172208070755005,0.05439908802509308,-0.03147351169541876,-0.09966612036882606,-0.0708154013146922
0.2799530029296875,0.169891357421875,9.705291748046875,0.4957360029220581,-0.8172208070755005,0.05439908802509308,-0.03147351169541876,0.040216153833035076,0.06906687288716894
0.2799530029296875,0.16510009765625,9.693328857421875,0.5094708204269409,-0.8308412432670593,0.0543832927942276,-0.03147351169541876,-0.02885071905413386,0
0.2727813720703125,0.1674957275390625,9.717254638671875,0.5094708204269409,-0.8308412432670593,0.0543832927942276,-0.10141464879634933,-0.09966612036882606,0.06906687288716894
0.2679901123046875,0.1746826171875,9.705291748046875,0.5095779895782471,-0.8308412432670593,0.05436750128865242,-0.03147351169541876,-0.02885071905413386,-0.0708154013146922
0.253631591796875,0.1746826171875,9.678970336914062,0.5232056379318237,-0.8308412432670593,0.0679878443479538,-0.10141464879634933,0.040216153833035076,-0.0708154013146922
0.2703857421875,0.17706298828125,9.705291748046875,0.5231059789657593,-0.8308412432670593,0.06798867881298065,-0.03147351169541876,-0.09966612036882606,-0.0708154013146922
0.2703857421875,0.16510009765625,9.698104858398438,0.5232130885124207,-0.8308412432670593,0.06798036396503448,-0.03147351169541876,-0.09966612036882606,0
0.2584228515625,0.1746826171875,9.683746337890625,0.5234271287918091,-0.8308412432670593,0.05434256047010422,-0.10141464879634933,-0.09966612036882606,0
0.2775726318359375,0.157928466796875,9.695724487304688,0.5099212527275085,-0.8172208070755005,0.054320111870765686,-0.10141464879634933,-0.02885071905413386,-0.0708154013146922
0.2560272216796875,0.1842498779296875,9.690933227539062,0.509928822517395,-0.8172208070755005,0.05431180074810982,-0.10141464879634933,-0.02885071905413386,-0.0708154013146922
0.2703857421875,0.157928466796875,9.71246337890625,0.523556649684906,-0.8308412432670593,0.054296836256980896,-0.03147351169541876,0.040216153833035076,0
0.2703857421875,0.169891357421875,9.698104858398438,0.5371769666671753,-0.8444615602493286,0.08153004944324493,-0.1713557858972799,-0.02885071905413386,0
0.253631591796875,0.1794586181640625,9.698104858398438,0.5371769666671753,-0.8444615602493286,0.08153004944324493,-0.03147351169541876,-0.02885071905413386,-0.0708154013146922
0.253631591796875,0.16510009765625,9.671783447265625,0.5371769666671753,-0.8308412432670593,0.05427522212266922,0.03846762540551182,-0.02885071905413386,0
0.2727813720703125,0.169891357421875,9.719650268554688,0.5235565900802612,-0.8308412432670593,0.0678955689072609,0.03846762540551182,0.040216153833035076,0
0.2679901123046875,0.1674957275390625,9.693328857421875,0.5235565900802612,-0.8444615602493286,0.08150843530893326,-0.10141464879634933,-0.02885071905413386,0
0.275177001953125,0.1627044677734375,9.71246337890625,0.5235565900802612,-0.8172208070755005,0.05426774173974991,-0.03147351169541876,0.040216153833035076,0.06906687288716894
0.2679901123046875,0.181854248046875,9.698104858398438,0.5235493779182434,-0.8308412432670593,0.05426690727472305,-0.10141464879634933,-0.09966612036882606,0
0.2727813720703125,0.1603240966796875,9.70050048828125,0.5236561894416809,-0.8308412432670593,0.05425111576914787,-0.03147351169541876,-0.02885071905413386,-0.0708154013146922
0.275177001953125,0.1722869873046875,9.698104858398438,0.5236636400222778,-0.8308412432670593,0.05425194650888443,-0.03147351169541876,0.040216153833035076,-0.0708154013146922
0.263214111328125,0.1722869873046875,9.710067749023438,0.5100581645965576,-0.8172208070755005,0.05424446612596512,-0.10141464879634933,-0.02885071905413386,0
0.253631591796875,0.1627044677734375,9.710067749023438,0.5236784815788269,-0.8308412432670593,0.06785733252763748,-0.10141464879634933,0.040216153833035076,0.06906687288716894
0.253631591796875,0.1746826171875,9.71246337890625,0.5237854719161987,-0.8172208070755005,0.05422784015536308,-0.10141464879634933,-0.02885071905413386,-0.0708154013146922
0.2775726318359375,0.16510009765625,9.702896118164062,0.5237854719161987,-0.8308412432670593,0.05422784015536308,-0.03147351169541876,-0.02885071905413386,0
0.2727813720703125,0.1674957275390625,9.693328857421875,0.5237857103347778,-0.8308412432670593,0.05422784015536308,-0.03147351169541876,-0.02885071905413386,0
0.2488555908203125,0.169891357421875,9.710067749023438,0.5374060869216919,-0.8308412432670593,0.08146104961633682,-0.10141464879634933,-0.09966612036882606,0
0.2823486328125,0.1627044677734375,9.72442626953125,0.5238927602767944,-0.8308412432670593,0.054204560816287994,-0.10141464879634933,-0.02885071905413386,0
0.251251220703125,0.1722869873046875,9.683746337890625,0.5238927602767944,-0.8308412432670593,0.054204560816287994,-0.10141464879634933,0.040216153833035076,0
0.2775726318359375,0.169891357421875,9.707687377929688,0.5238925218582153,-0.8308412432670593,0.054212041199207306,-0.10141464879634933,-0.02885071905413386,0.06906687288716894
0.2679901123046875,0.1555328369140625,9.705291748046875,0.523877739906311,-0.8444615602493286,0.04059917479753494,-0.10141464879634933,-0.02885071905413386,0
0.2679901123046875,0.1627044677734375,9.702896118164062,0.5238778591156006,-0.8444615602493286,0.04059917479753494,0.03846762540551182,-0.02885071905413386,-0.0708154013146922
0.275177001953125,0.181854248046875,9.7220458984375,0.5238927602767944,-0.8308412432670593,0.05423365533351898,0.03846762540551182,0.11103155514772728,-0.0708154013146922
0.287139892578125,0.157928466796875,9.690933227539062,0.52379310131073,-0.8444615602493286,0.05425028130412102,-0.1713557858972799,-0.16960725746975663,0
0.2727813720703125,0.1722869873046875,9.702896118164062,0.52379310131073,-0.8444615602493286,0.05425028130412102,-0.10141464879634933,-0.02885071905413386,0.06906687288716894
0.275177001953125,0.1627044677734375,9.710067749023438,0.5104862451553345,-0.8308412432670593,0.054217033088207245,-0.03147351169541876,-0.02885071905413386,0
0.2703857421875,0.1603240966796875,9.690933227539062,0.5104862451553345,-0.8172208070755005,0.054217033088207245,-0.10141464879634933,0.040216153833035076,-0.0708154013146922
0.2799530029296875,0.169891357421875,9.710067749023438,0.5104865431785583,-0.8172208070755005,0.054209548979997635,0.03846762540551182,-0.02885071905413386,0
0.2703857421875,0.1794586181640625,9.70050048828125,0.5241068601608276,-0.8308412432670593,0.06782989203929901,0.03846762540551182,0.040216153833035076,0
0.2656097412109375,0.1746826171875,9.707687377929688,0.5104865431785583,-0.8308412432670593,0.06782989203929901,-0.10141464879634933,-0.02885071905413386,0
0.251251220703125,0.1674957275390625,9.681365966796875,0.5105934739112854,-0.8308412432670593,0.06782158464193344,-0.10141464879634933,-0.02885071905413386,0
