Accelerometer_Gx,Accelerometer_Gy,Accelerometer_Gz,Accelerometer_X,Accelerometer_Y,Accelerometer_Z,Gyroscope_Z,Gyroscope_X,Gyroscope_Y
0.3613128662109375,0.1148529052734375,9.650253295898438,0.0435054711997509,-0.5311935544013977,0.1114700436592102,-0.01223969899266285,-0.010491170565139585,0.02885071905413386
0.2656097412109375,0.1794586181640625,9.690933227539062,-0.05183303728699684,-0.46309182047843933,0.15233108401298523,-0.01223969899266285,-0.010491170565139585,0.02885071905413386
0.2608184814453125,0.181854248046875,9.674179077148438,0.04350939393043518,-0.5175732374191284,0.12509039044380188,-0.01223969899266285,-0.010491170565139585,0.02885071905413386
0.2823486328125,0.169891357421875,9.65264892578125,0.04350939393043518,-0.5175732374191284,0.12509039044380188,0.05770143810826772,-0.08043230766607015,0.02885071905413386
0.2584228515625,0.17706298828125,9.662216186523438,0.04350939393043518,-0.5311935544013977,0.12509039044380188,-0.01223969899266285,0.20020650495141376,0.02885071905413386
0.2584228515625,0.1507415771484375,9.655044555664062,0.043401870876550674,-0.5175732374191284,0.13871406018733978,-0.01223969899266285,0.12939110363672154,0.02885071905413386
0.2560272216796875,0.15313720703125,9.657424926757812,0.04318676516413689,-0.5175732374191284,0.13872072100639343,-0.08218083609359342,-0.010491170565139585,0.09966612036882606
0.2656097412109375,0.1627044677734375,9.64068603515625,0.05680321529507637,-0.5039528608322144,0.15233691036701202,0.05770143810826772,-0.08043230766607015,0.02885071905413386
0.251251220703125,0.1674957275390625,9.667007446289062,0.04328257218003273,-0.5039528608322144,0.16596223413944244,0.05770143810826772,0.20020650495141376,0.09966612036882606
0.253631591796875,0.1722869873046875,9.674179077148438,0.04328257218003273,-0.5039528608322144,0.16596223413944244,0.05770143810826772,-0.010491170565139585,-0.04109041804679671
0.263214111328125,0.1842498779296875,9.66461181640625,0.04306362569332123,-0.5039528608322144,0.12510785460472107,-0.01223969899266285,0.060324230749552614,0.02885071905413386
0.2727813720703125,0.1722869873046875,9.655044555664062,0.04306362569332123,-0.5311935544013977,0.13872820138931274,-0.152121973194524,0.060324230749552614,0.02885071905413386
0.2679901123046875,0.1603240966796875,9.659820556640625,0.04306362569332123,-0.5311935544013977,0.13872404396533966,-0.01223969899266285,-0.010491170565139585,0.09966612036882606
0.253631591796875,0.15313720703125,9.678970336914062,0.05668007582426071,-0.5175732374191284,0.13872404396533966,-0.08218083609359342,0.060324230749552614,0.09966612036882606
0.2608184814453125,0.16510009765625,9.67657470703125,0.02943158708512783,-0.5311935544013977,0.13872404396533966,0.05770143810826772,0.060324230749552614,-0.04109041804679671
0.2560272216796875,0.1746826171875,9.66461181640625,0.04304803907871246,-0.5311935544013977,0.1251036822795868,-0.08218083609359342,0.060324230749552614,0.02885071905413386
0.2560272216796875,0.1746826171875,9.66461181640625,0.04304803907871246,-0.5311935544013977,0.1251036822795868,-0.08218083609359342,0.060324230749552614,0.02885071905413386
0.2679901123046875,0.1674957275390625,9.657424926757812,0.04304803907871246,-0.544813871383667,0.13871987164020538,-0.01223969899266285,0.060324230749552614,0.02885071905413386
0.253631591796875,0.169891357421875,9.657424926757812,0.043047983199357986,-0.544813871383667,0.13871987164020538,0.05770143810826772,-0.010491170565139585,0.02885071905413386
0.2488555908203125,0.1603240966796875,9.657424926757812,0.04315550997853279,-0.5039528608322144,0.12509620189666748,0.05770143810826772,-0.08043230766607015,0.09966612036882606
0.2608184814453125,0.1674957275390625,9.681365966796875,0.04293656349182129,-0.5175732374191284,0.12510785460472107,0.12764257520919828,0.12939110363672154,0.02885071905413386
0.263214111328125,0.181854248046875,9.674179077148438,0.042829036712646484,-0.5175732374191284,0.12511366605758667,-0.08218083609359342,-0.15037344476700074,0.168732993255995
0.253631591796875,0.1914215087890625,9.671783447265625,0.05654522031545639,-0.5311935544013977,0.12510785460472107,0.1984579765238905,0.060324230749552614,0.168732993255995
0.263214111328125,0.1483612060546875,9.662216186523438,0.04281345009803772,-0.5175732374191284,0.13873900473117828,-0.08218083609359342,-0.08043230766607015,-0.04109041804679671
0.2656097412109375,0.1483612060546875,9.674179077148438,0.04291708022356033,-0.5175732374191284,0.13873568177223206,0.33834025072575163,0.12939110363672154,0.168732993255995
0.2560272216796875,0.1627044677734375,9.66461181640625,0.04269031062722206,-0.5175732374191284,0.13875728845596313,-0.152121973194524,-0.3610711202835541,0.2395483945706872
0.263214111328125,0.16510009765625,9.657424926757812,0.04300122335553169,-0.5175732374191284,0.13875563442707062,0.33834025072575163,0.060324230749552614,0.09966612036882606
0.2775726318359375,0.1986083984375,9.66461181640625,0.042797863483428955,-0.5175732374191284,0.13875812292099,-0.08218083609359342,-0.3610711202835541,0.30861526745785617
0.263214111328125,0.1627044677734375,9.674179077148438,0.04257111996412277,-0.544813871383667,0.13877224922180176,-0.6425841971147996,-0.5009533944854152,-0.11103155514772728
0.2584228515625,0.181854248046875,9.683746337890625,0.057036034762859344,-0.5175732374191284,0.111493319272995,-0.29200424739638514,0.479971053355136,-0.25091382934958845
0.2703857421875,0.181854248046875,9.66461181640625,0.057036034762859344,-0.5175732374191284,0.111493319272995,0.2675248494110594,-0.430137993170723,0.6591952171762706
0.2488555908203125,0.1674957275390625,9.671783447265625,0.056064482778310776,-0.5175732374191284,0.1387597769498825,0.1984579765238905,-0.6408356686872764,0.5193129429744094
0.275177001953125,0.181854248046875,9.683746337890625,0.04222908243536949,-0.5175732374191284,0.12516272068023682,0.12764257520919828,-0.9905413541919292,0.5193129429744094
0.253631591796875,0.1674957275390625,9.667007446289062,0.04222908243536949,-0.5175732374191284,0.12516272068023682,0.12764257520919828,-0.6408356686872764,0.6591952171762706
0.2847442626953125,0.1722869873046875,9.693328857421875,0.028604812920093536,-0.5175732374191284,0.11154568940401077,-0.5027019229129385,0.549037926242305,-0.6705606519551719
0.263214111328125,0.1866455078125,9.671783447265625,0.04264354705810547,-0.5311935544013977,0.12513694167137146,-0.9922898826194525,-0.9206002170909986,-0.18097269224865786
0.263214111328125,0.16510009765625,9.690933227539062,0.04179118573665619,-0.5311935544013977,0.12517186999320984,-0.152121973194524,-1.4110624410112742,0.8690186284790623
0.2703857421875,0.1722869873046875,9.70050048828125,0.042543865740299225,-0.5175732374191284,0.13874565064907074,1.2484492972516106,0.6198533275569972,0.5193129429744094
0.251251220703125,0.1627044677734375,9.659820556640625,0.05730414018034935,-0.5175732374191284,0.13874398171901703,-0.5717687958001074,-1.5509447152131355,0.5193129429744094
0.251251220703125,0.1674957275390625,9.67657470703125,0.05531969666481018,-0.5175732374191284,0.13876725733280182,1.528213845655333,1.0386258859488189,0.37943066877254833
0.2560272216796875,0.1746826171875,9.66461181640625,0.05622528865933418,-0.5039528608322144,0.1251843273639679,-1.4119367052250358,0.3400887791532749,-0.9503252003588941
0.2679901123046875,0.1674957275390625,9.678970336914062,0.05622528865933418,-0.5039528608322144,0.1251843273639679,1.2484492972516106,-0.5009533944854152,1.009775166894685
0.2560272216796875,0.17706298828125,9.674179077148438,0.05328863114118576,-0.5175732374191284,0.12525665760040283,-0.36281964871107736,-1.5509447152131355,0.8690186284790623
0.2679901123046875,0.1674957275390625,9.693328857421875,0.04201468080282211,-0.5175732374191284,0.1114700436592102,-0.22206311029545456,1.5290881098690945,-1.2309640129763781
0.2656097412109375,0.1674957275390625,9.695724487304688,0.052409686148166656,-0.5039528608322144,0.11174354702234268,1.4573984443406407,-0.22118884608169292,1.3586065881855762
0.253631591796875,0.16510009765625,9.669403076171875,0.052409686148166656,-0.5039528608322144,0.11174354702234268,-1.6925755178425197,-1.6908269894149965,0.168732993255995
0.2584228515625,0.16510009765625,9.667007446289062,0.05406050756573677,-0.5039528608322144,0.11169200390577316,-1.6925755178425197,-0.3610711202835541,-0.741376053269864
0.275177001953125,0.16510009765625,9.693328857421875,0.05835765227675438,-0.5039528608322144,0.12498481571674347,0.12764257520919828,2.2284994808784004,-1.5107285613801003
0.2656097412109375,0.16510009765625,9.702896118164062,0.026778584346175194,-0.5175732374191284,0.11141268163919449,3.1368599989767363,1.8088526582728168,0.02885071905413386
0.2608184814453125,0.16510009765625,9.678970336914062,0.032251764088869095,-0.5039528608322144,0.11213260143995285,2.226750952450877,0.479971053355136,0.9389597655799929
0.2584228515625,0.16510009765625,9.669403076171875,0.032251764088869095,-0.5039528608322144,0.11213260143995285,1.1085670230497495,-0.08043230766607015,1.0788420397818541
0.263214111328125,0.1674957275390625,9.671783447265625,0.04554392024874687,-0.5039528608322144,0.13956035673618317,0.7579870733313351,-0.08043230766607015,1.0788420397818541
0.275177001953125,0.1603240966796875,9.686141967773438,0.04554392024874687,-0.5039528608322144,0.13956035673618317,1.3883315714534719,1.3892058356672334,0.5883798158615784
0.2727813720703125,0.1794586181640625,9.693328857421875,0.03144408389925957,-0.476712167263031,0.1260688602924347,0.6871716720166429,2.858843979000537,-0.741376053269864
0.2727813720703125,0.1794586181640625,9.695724487304688,0.024776868522167206,-0.4903324842453003,0.12639306485652924,-0.36281964871107736,3.20854966450519,-1.3009051500773086
0.2727813720703125,0.157928466796875,9.690933227539062,0.02021159790456295,-0.4903324842453003,0.1265302300453186,-3.3720370724786153,0.7597356017588583,-1.3009051500773086
0.251251220703125,0.181854248046875,9.671783447265625,0.013499467633664608,-0.4903324842453003,0.11286167800426483,-1.3419955681241054,-2.11047381202058,1.0788420397818541
0.2799530029296875,0.1603240966796875,9.681365966796875,0.017715508118271828,-0.5175732374191284,0.1260073333978653,3.207675400291428,1.109441287263511,0.7282620900634396
0.2727813720703125,0.1746826171875,9.68853759765625,0.02064165100455284,-0.5175732374191284,0.12596078217029572,1.0377516217350573,2.2993148821930927,-0.9503252003588941
0.2560272216796875,0.17706298828125,9.681365966796875,0.0036721222568303347,-0.5039528608322144,0.1262916475534439,-1.7616423907296888,-1.340247039696582,0.168732993255995
0.2799530029296875,0.1555328369140625,9.686141967773438,0.0322866253554821,-0.5039528608322144,0.12602312862873077,1.1085670230497495,0.6889202004441661,-0.04109041804679671
0.2703857421875,0.1794586181640625,9.686141967773438,0.03436445817351341,-0.5039528608322144,0.1260380893945694,-0.152121973194524,-1.200364765494721,0.4484975416597173
0.2679901123046875,0.1603240966796875,9.698104858398438,0.006666225381195545,-0.5039528608322144,0.11240693926811218,0.8978693475331962,0.060324230749552614,1.009775166894685
0.2823486328125,0.169891357421875,9.683746337890625,0.022375965490937233,-0.4903324842453003,0.09875084459781647,-0.7116510700019686,-1.2703059025956516,0.02885071905413386
0.2560272216796875,0.1603240966796875,9.693328857421875,0.022375965490937233,-0.4903324842453003,0.09875084459781647,0.6181047991294739,1.5290881098690945,-0.9503252003588941
0.253631591796875,0.181854248046875,9.681365966796875,0.023462682962417603,-0.4903324842453003,0.11235623061656952,1.1085670230497495,0.20020650495141376,0.4484975416597173
0.2727813720703125,0.1674957275390625,9.693328857421875,0.037747304886579514,-0.5175732374191284,0.12593084573745728,-0.7116510700019686,1.109441287263511,-0.9503252003588941
0.263214111328125,0.181854248046875,9.693328857421875,0.0371212437748909,-0.5175732374191284,0.1259458065032959,0.6871716720166429,1.8088526582728168,-0.6014937790680029
0.2656097412109375,0.157928466796875,9.66461181640625,0.024580053985118866,-0.5175732374191284,0.11227060109376907,1.0377516217350573,1.1785081601506802,-0.18097269224865786
0.2727813720703125,0.1555328369140625,9.686141967773438,0.02521754987537861,-0.4903324842453003,0.12588512897491455,1.1776338959369186,0.7597356017588583,-0.04109041804679671
0.2775726318359375,0.1603240966796875,9.68853759765625,0.026834310963749886,-0.4903324842453003,0.125806987285614,-1.2720544310231747,-1.340247039696582,0.02885071905413386
0.2608184814453125,0.1746826171875,9.678970336914062,0.015157146379351616,-0.4903324842453003,0.11209934949874878,-0.36281964871107736,-0.5009533944854152,0.30861526745785617
0.2656097412109375,0.1627044677734375,9.693328857421875,0.029630012810230255,-0.5039528608322144,0.1256864368915558,-0.22206311029545456,-0.9206002170909986,0.4484975416597173
0.253631591796875,0.1794586181640625,9.681365966796875,0.029630012810230255,-0.5039528608322144,0.1256864368915558,0.7579870733313351,-0.2902557189688619,0.5193129429744094
0.2703857421875,0.17706298828125,9.70050048828125,0.029326684772968292,-0.5039528608322144,0.11204947531223297,-0.5717687958001074,-0.430137993170723,0.02885071905413386
0.263214111328125,0.1746826171875,9.693328857421875,0.03070909157395363,-0.5039528608322144,0.09837175905704498,0.05770143810826772,-0.430137993170723,0.5193129429744094
0.2799530029296875,0.1555328369140625,9.690933227539062,0.030705220997333527,-0.5039528608322144,0.09837175905704498,0.4074071236129206,0.40915565204044385,0.02885071905413386
0.2703857421875,0.1603240966796875,9.71246337890625,0.01772618480026722,-0.4903324842453003,0.11194222420454025,-0.29200424739638514,-0.010491170565139585,-0.04109041804679671
0.2608184814453125,0.16510009765625,9.702896118164062,0.018789833411574364,-0.4903324842453003,0.09827449917793274,0.05770143810826772,0.3400887791532749,-0.18097269224865786
0.2775726318359375,0.1627044677734375,9.686141967773438,0.018908971920609474,-0.4903324842453003,0.09826035797595978,-0.08218083609359342,-0.22118884608169292,0.168732993255995
0.2775726318359375,0.1603240966796875,9.693328857421875,0.03349318355321884,-0.5039528608322144,0.09822295606136322,0.05770143810826772,0.12939110363672154,-0.04109041804679671
0.2679901123046875,0.1746826171875,9.70050048828125,0.020418284460902214,-0.5039528608322144,0.11179259419441223,0.05770143810826772,-0.010491170565139585,0.168732993255995
0.275177001953125,0.1794586181640625,9.729217529296875,0.02074468322098255,-0.5039528608322144,0.11178261786699295,-0.08218083609359342,-0.08043230766607015,0.168732993255995
0.2823486328125,0.1627044677734375,9.693328857421875,0.03532494604587555,-0.5175732374191284,0.08448539674282074,-0.01223969899266285,0.20020650495141376,0.02885071905413386
0.2560272216796875,0.181854248046875,9.693328857421875,0.022250045090913773,-0.5175732374191284,0.11168701201677322,0.05770143810826772,-0.08043230766607015,0.09966612036882606
0.2488555908203125,0.1866455078125,9.705291748046875,0.022250045090913773,-0.5175732374191284,0.11168701201677322,0.05770143810826772,-0.010491170565139585,0.09966612036882606
0.2703857421875,0.169891357421875,9.71246337890625,0.05067737400531769,-0.5311935544013977,0.09799600392580032,0.05770143810826772,-0.08043230766607015,-0.04109041804679671
0.253631591796875,0.16510009765625,9.702896118164062,0.037925053387880325,-0.5175732374191284,0.09794612228870392,0.05770143810826772,0.060324230749552614,0.02885071905413386
0.2847442626953125,0.193817138671875,9.72442626953125,0.038359105587005615,-0.5175732374191284,0.09792201966047287,-0.01223969899266285,0.060324230749552614,0.02885071905413386
0.263214111328125,0.17706298828125,9.72442626953125,0.025391681119799614,-0.544813871383667,0.08425843715667725,0.05770143810826772,0.060324230749552614,0.02885071905413386
0.2775726318359375,0.1555328369140625,9.707687377929688,0.03988008573651314,-0.5175732374191284,0.08420772850513458,-0.01223969899266285,-0.010491170565139585,0.09966612036882606
0.2703857421875,0.1507415771484375,9.705291748046875,0.04031021520495415,-0.5175732374191284,0.08418362587690353,-0.01223969899266285,0.060324230749552614,0.168732993255995
0.263214111328125,0.1794586181640625,9.729217529296875,0.0411623939871788,-0.5175732374191284,0.09776157885789871,0.12764257520919828,0.12939110363672154,0.02885071905413386
0.2560272216796875,0.17706298828125,9.681365966796875,0.04202652722597122,-0.5311935544013977,0.07047431915998459,0.05770143810826772,0.060324230749552614,0.168732993255995
0.2608184814453125,0.18902587890625,9.693328857421875,0.04202652722597122,-0.5311935544013977,0.07047431915998459,0.05770143810826772,0.12939110363672154,0.02885071905413386
0.2584228515625,0.157928466796875,9.705291748046875,0.042671605944633484,-0.5311935544013977,0.0840439647436142,-0.01223969899266285,-0.010491170565139585,0.09966612036882606
0.2799530029296875,0.1555328369140625,9.707687377929688,0.05639950558543205,-0.5175732374191284,0.09765266627073288,0.1984579765238905,0.060324230749552614,0.09966612036882606
0.275177001953125,0.1674957275390625,9.702896118164062,0.0565030574798584,-0.5175732374191284,0.0976485162973404,0.05770143810826772,0.12939110363672154,0.02885071905413386
0.275177001953125,0.16510009765625,9.690933227539062,0.028947731480002403,-0.5175732374191284,0.09765931963920593,-0.01223969899266285,-0.15037344476700074,0.09966612036882606
0.2847442626953125,0.1627044677734375,9.693328857421875,0.02894778549671173,-0.5175732374191284,0.09765516966581345,-0.01223969899266285,0.12939110363672154,-0.04109041804679671
0.263214111328125,0.1746826171875,9.698104858398438,0.028844207525253296,-0.5175732374191284,0.09765848517417908,0.1984579765238905,-0.08043230766607015,0.168732993255995
0.2727813720703125,0.1627044677734375,9.710067749023438,0.02895170822739601,-0.5039528608322144,0.11127467453479767,-0.152121973194524,0.060324230749552614,0.09966612036882606
0.263214111328125,0.1722869873046875,9.690933227539062,0.042572055011987686,-0.5039528608322144,0.09764684736728668,0.05770143810826772,-0.15037344476700074,0.30861526745785617
0.253631591796875,0.1746826171875,9.683746337890625,0.04277518391609192,-0.5039528608322144,0.097636878490448,-0.01223969899266285,0.060324230749552614,0.09966612036882606
0.275177001953125,0.1627044677734375,9.698104858398438,0.04234907776117325,-0.5311935544013977,0.09765765815973282,-0.08218083609359342,0.12939110363672154,-0.11103155514772728
0.253631591796875,0.1746826171875,9.693328857421875,0.04224947467446327,-0.5175732374191284,0.09767261892557144,0.12764257520919828,0.20020650495141376,-0.04109041804679671
0.2703857421875,0.1627044677734375,9.695724487304688,0.05586982145905495,-0.5175732374191284,0.11129296571016312,0.12764257520919828,0.20020650495141376,-0.04109041804679671
0.2584228515625,0.1794586181640625,9.698104858398438,0.028418051078915596,-0.5039528608322144,0.11130377650260925,-0.08218083609359342,-0.15037344476700074,-0.04109041804679671
0.2895355224609375,0.1555328369140625,9.698104858398438,0.041938796639442444,-0.5175732374191284,0.0976867601275444,-0.01223969899266285,-0.010491170565139585,0.168732993255995
0.2799530029296875,0.1746826171875,9.705291748046875,0.041938796639442444,-0.5175732374191284,0.0976867601275444,-0.08218083609359342,-0.08043230766607015,0.09966612036882606
0.2775726318359375,0.16510009765625,9.71246337890625,0.028422027826309204,-0.5175732374191284,0.09769173711538315,0.1984579765238905,-0.08043230766607015,0.168732993255995
0.2823486328125,0.15313720703125,9.702896118164062,0.028422027826309204,-0.5175732374191284,0.08407887816429138,-0.01223969899266285,0.060324230749552614,-0.11103155514772728
0.275177001953125,0.157928466796875,9.698104858398438,0.028426053002476692,-0.5175732374191284,0.08407887816429138,-0.01223969899266285,-0.010491170565139585,0.02885071905413386
0.2560272216796875,0.181854248046875,9.702896118164062,0.028430001810193062,-0.5039528608322144,0.09769923239946365,0.12764257520919828,-0.08043230766607015,0.09966612036882606
0.2584228515625,0.1722869873046875,9.693328857421875,0.05567459389567375,-0.5311935544013977,0.09770338237285614,0.12764257520919828,0.12939110363672154,0.09966612036882606
0.2703857421875,0.16510009765625,9.705291748046875,0.05567459389567375,-0.5311935544013977,0.09770338237285614,-0.01223969899266285,-0.08043230766607015,0.09966612036882606
0.2775726318359375,0.157928466796875,9.717254638671875,0.028433898463845253,-0.5175732374191284,0.09771502017974854,-0.08218083609359342,0.12939110363672154,0.09966612036882606
0.2823486328125,0.1674957275390625,9.698104858398438,0.028326449915766716,-0.5039528608322144,0.08409799635410309,0.1984579765238905,-0.08043230766607015,0.168732993255995
0.2823486328125,0.1627044677734375,9.717254638671875,0.028322424739599228,-0.5039528608322144,0.08410215377807617,-0.01223969899266285,-0.010491170565139585,-0.04109041804679671
0.2775726318359375,0.1603240966796875,9.710067749023438,0.02843002788722515,-0.5175732374191284,0.08410631120204926,0.05770143810826772,0.060324230749552614,0.09966612036882606
0.2847442626953125,0.1746826171875,9.717254638671875,0.02843400463461876,-0.5175732374191284,0.09772666543722153,0.05770143810826772,0.060324230749552614,0.02885071905413386
0.251251220703125,0.1722869873046875,9.705291748046875,0.02843795157968998,-0.5175732374191284,0.09772749245166779,-0.01223969899266285,-0.010491170565139585,0.02885071905413386
0.2727813720703125,0.1674957275390625,9.705291748046875,0.02844190038740635,-0.5175732374191284,0.09772749245166779,-0.01223969899266285,0.060324230749552614,0.09966612036882606
0.2560272216796875,0.1627044677734375,9.71246337890625,0.04206619784235954,-0.5175732374191284,0.09772749245166779,-0.01223969899266285,-0.010491170565139585,0.09966612036882606
0.2799530029296875,0.1914215087890625,9.731613159179688,0.04206619784235954,-0.5175732374191284,0.09772749245166779,0.05770143810826772,0.12939110363672154,0.02885071905413386
0.2703857421875,0.16510009765625,9.707687377929688,0.028230849653482437,-0.5311935544013977,0.08411296457052231,0.05770143810826772,0.060324230749552614,-0.04109041804679671
0.2967071533203125,0.169891357421875,9.70050048828125,0.041747622191905975,-0.5175732374191284,0.0977407842874527,0.05770143810826772,-0.010491170565139585,0.09966612036882606
0.2727813720703125,0.1507415771484375,9.693328857421875,0.041747622191905975,-0.5175732374191284,0.0977407842874527,0.05770143810826772,0.060324230749552614,0.09966612036882606
0.2775726318359375,0.1555328369140625,9.714859008789062,0.041755594313144684,-0.5039528608322144,0.09774494916200638,0.05770143810826772,0.060324230749552614,0.168732993255995
0.275177001953125,0.1674957275390625,9.717254638671875,0.028127245604991913,-0.5039528608322144,0.09774494916200638,0.05770143810826772,-0.08043230766607015,0.09966612036882606
0.29193115234375,0.169891357421875,9.71246337890625,0.028127245604991913,-0.5039528608322144,0.09774494916200638,0.05770143810826772,0.060324230749552614,0.09966612036882606
0.2727813720703125,0.1674957275390625,9.70050048828125,0.014618372544646263,-0.5175732374191284,0.08412044495344162,0.05770143810826772,0.060324230749552614,0.09966612036882606
0.275177001953125,0.169891357421875,9.717254638671875,0.028023643419146538,-0.5175732374191284,0.0977482721209526,0.05770143810826772,0.060324230749552614,0.09966612036882606
0.2656097412109375,0.17706298828125,9.717254638671875,0.028023745864629745,-0.5175732374191284,0.0977482721209526,0.05770143810826772,0.060324230749552614,0.09966612036882606
0.2560272216796875,0.15313720703125,9.705291748046875,0.04164804518222809,-0.5175732374191284,0.0977482721209526,-0.01223969899266285,0.060324230749552614,0.09966612036882606
0.275177001953125,0.1746826171875,9.717254638671875,0.05505731329321861,-0.5039528608322144,0.09775492548942566,0.05770143810826772,-0.010491170565139585,0.09966612036882606
0.2703857421875,0.169891357421875,9.719650268554688,0.05505731329321861,-0.5039528608322144,0.09775492548942566,0.05770143810826772,-0.010491170565139585,0.02885071905413386
0.2679901123046875,0.1603240966796875,9.707687377929688,0.027820566669106483,-0.5175732374191284,0.08413790166378021,0.05770143810826772,-0.08043230766607015,0.02885071905413386
0.2823486328125,0.1794586181640625,9.710067749023438,0.04134128615260124,-0.5175732374191284,0.0977657288312912,0.05770143810826772,-0.010491170565139585,0.02885071905413386
0.253631591796875,0.157928466796875,9.72442626953125,0.04134128615260124,-0.5175732374191284,0.09776988625526428,0.05770143810826772,0.060324230749552614,-0.04109041804679671
0.2679901123046875,0.169891357421875,9.702896118164062,0.054969582706689835,-0.5039528608322144,0.08415701985359192,-0.08218083609359342,0.060324230749552614,-0.04109041804679671
0.2847442626953125,0.1603240966796875,9.70050048828125,0.027736784890294075,-0.5311935544013977,0.0977773666381836,0.05770143810826772,0.060324230749552614,-0.04109041804679671
0.2847442626953125,0.1555328369140625,9.698104858398438,0.027740733698010445,-0.5311935544013977,0.0977773666381836,0.12764257520919828,-0.08043230766607015,0.09966612036882606
0.2703857421875,0.169891357421875,9.705291748046875,0.027744682505726814,-0.5175732374191284,0.09778152406215668,0.1984579765238905,-0.010491170565139585,0.168732993255995
0.2727813720703125,0.1603240966796875,9.68853759765625,0.04136500507593155,-0.5175732374191284,0.09778983891010284,-0.01223969899266285,0.12939110363672154,0.09966612036882606
0.2823486328125,0.1603240966796875,9.702896118164062,0.04125755652785301,-0.5175732374191284,0.09779232740402222,-0.01223969899266285,0.060324230749552614,0.168732993255995
0.287139892578125,0.15313720703125,9.690933227539062,0.02784428559243679,-0.5039528608322144,0.09778650850057602,-0.01223969899266285,0.12939110363672154,0.02885071905413386
0.2799530029296875,0.16510009765625,9.702896118164062,0.014116412028670311,-0.5039528608322144,0.11141018569469452,0.05770143810826772,0.12939110363672154,0.09966612036882606
0.275177001953125,0.157928466796875,9.717254638671875,0.014116412028670311,-0.5039528608322144,0.11141018569469452,-0.01223969899266285,0.060324230749552614,0.02885071905413386
0.263214111328125,0.16510009765625,9.707687377929688,0.027521731331944466,-0.5175732374191284,0.08418362587690353,0.05770143810826772,0.060324230749552614,0.09966612036882606
0.2775726318359375,0.15313720703125,9.707687377929688,0.027314551174640656,-0.5175732374191284,0.09781061857938766,-0.08218083609359342,0.060324230749552614,0.09966612036882606
0.2560272216796875,0.1746826171875,9.693328857421875,0.027314551174640656,-0.5175732374191284,0.09781061857938766,-0.01223969899266285,0.060324230749552614,0.02885071905413386
0.2823486328125,0.1603240966796875,9.695724487304688,0.054559171199798584,-0.5175732374191284,0.11143097281455994,0.1984579765238905,0.060324230749552614,0.02885071905413386
0.2967071533203125,0.157928466796875,9.702896118164062,0.027326347306370735,-0.5039528608322144,0.09781809896230698,0.1984579765238905,0.060324230749552614,0.02885071905413386
0.2799530029296875,0.16510009765625,9.698104858398438,0.027330296114087105,-0.5039528608322144,0.09783057123422623,0.12764257520919828,0.12939110363672154,0.02885071905413386
0.287139892578125,0.1627044677734375,9.693328857421875,0.02723064087331295,-0.5039528608322144,0.09784138202667236,0.12764257520919828,0.060324230749552614,0.09966612036882606
0.2775726318359375,0.1722869873046875,9.705291748046875,0.013610346242785454,-0.5039528608322144,0.11146920174360275,0.12764257520919828,0.060324230749552614,0.09966612036882606
0.2847442626953125,0.1722869873046875,9.705291748046875,0.02723069116473198,-0.5039528608322144,0.09785301238298416,0.12764257520919828,0.060324230749552614,0.02885071905413386
0.2656097412109375,0.169891357421875,9.693328857421875,0.0272385124117136,-0.5175732374191284,0.09786465764045715,0.05770143810826772,-0.010491170565139585,0.09966612036882606
0.263214111328125,0.16510009765625,9.690933227539062,0.040858861058950424,-0.5175732374191284,0.11148916184902191,0.05770143810826772,0.060324230749552614,0.09966612036882606
0.2847442626953125,0.16510009765625,9.690933227539062,0.040858861058950424,-0.5175732374191284,0.11148916184902191,-0.01223969899266285,0.060324230749552614,0.09966612036882606
0.253631591796875,0.1674957275390625,9.702896118164062,0.02723069116473198,-0.5039528608322144,0.11148916184902191,0.05770143810826772,-0.010491170565139585,0.09966612036882606
0.2560272216796875,0.1842498779296875,9.686141967773438,0.04074735939502716,-0.5175732374191284,0.11149248480796814,-0.01223969899266285,-0.010491170565139585,0.02885071905413386
0.2679901123046875,0.169891357421875,9.705291748046875,0.04075136035680771,-0.5175732374191284,0.11149248480796814,0.12764257520919828,0.060324230749552614,0.09966612036882606
0.2703857421875,0.1603240966796875,9.693328857421875,0.054160527884960175,-0.5311935544013977,0.0978829488158226,0.05770143810826772,0.060324230749552614,0.09966612036882606
0.2703857421875,0.1746826171875,9.719650268554688,0.04053625464439392,-0.5039528608322144,0.1115066185593605,0.05770143810826772,-0.010491170565139585,0.02885071905413386
0.2584228515625,0.17706298828125,9.698104858398438,0.04054025560617447,-0.5039528608322144,0.1115066185593605,-0.01223969899266285,-0.010491170565139585,0.09966612036882606
0.2608184814453125,0.1794586181640625,9.71246337890625,0.05415667966008186,-0.5311935544013977,0.1115066185593605,-0.01223969899266285,0.060324230749552614,0.02885071905413386
0.2847442626953125,0.1603240966796875,9.698104858398438,0.04054025560617447,-0.5175732374191284,0.08426592499017715,0.05770143810826772,-0.010491170565139585,-0.04109041804679671
0.2703857421875,0.169891357421875,9.717254638671875,0.04054025560617447,-0.5175732374191284,0.08426592499017715,-0.01223969899266285,0.12939110363672154,0.02885071905413386
0.2656097412109375,0.157928466796875,9.714859008789062,0.040440574288368225,-0.5175732374191284,0.08427340537309647,0.05770143810826772,-0.010491170565139585,0.02885071905413386
0.2847442626953125,0.1986083984375,9.729217529296875,0.0404483936727047,-0.5039528608322144,0.09789790958166122,0.05770143810826772,-0.010491170565139585,0.09966612036882606
0.2703857421875,0.1722869873046875,9.71246337890625,0.040452294051647186,-0.5039528608322144,0.0979062169790268,0.05770143810826772,-0.010491170565139585,0.02885071905413386
0.251251220703125,0.1842498779296875,9.690933227539062,0.0404483936727047,-0.5175732374191284,0.08428587019443512,0.05770143810826772,-0.010491170565139585,0.09966612036882606
0.2847442626953125,0.17706298828125,9.719650268554688,0.05406874418258667,-0.5175732374191284,0.11152657121419907,0.05770143810826772,0.060324230749552614,0.09966612036882606
0.2679901123046875,0.1866455078125,9.714859008789062,0.05406874418258667,-0.5175732374191284,0.11152657121419907,0.12764257520919828,0.060324230749552614,0.09966612036882606
0.2727813720703125,0.1627044677734375,9.710067749023438,0.026831945404410362,-0.5311935544013977,0.09790954738855362,-0.01223969899266285,-0.010491170565139585,0.09966612036882606
0.2703857421875,0.1674957275390625,9.698104858398438,0.026835894212126732,-0.5039528608322144,0.09790954738855362,0.12764257520919828,-0.08043230766607015,0.02885071905413386
0.2847442626953125,0.1722869873046875,9.714859008789062,0.02694731578230858,-0.5311935544013977,0.0842900350689888,0.05770143810826772,-0.010491170565139585,0.09966612036882606
0.29193115234375,0.1794586181640625,9.71246337890625,0.02695123851299286,-0.5175732374191284,0.0842900350689888,-0.08218083609359342,0.060324230749552614,0.09966612036882606
0.2727813720703125,0.157928466796875,9.702896118164062,0.02695123851299286,-0.5311935544013977,0.09791038185358047,-0.01223969899266285,0.060324230749552614,0.09966612036882606
0.263214111328125,0.169891357421875,9.698104858398438,0.02694731578230858,-0.5311935544013977,0.09791038185358047,0.05770143810826772,0.060324230749552614,0.02885071905413386
0.263214111328125,0.169891357421875,9.698104858398438,0.04056766256690025,-0.5175732374191284,0.11153072863817215,0.05770143810826772,0.060324230749552614,0.02885071905413386
0.2608184814453125,0.16510009765625,9.71246337890625,0.040571585297584534,-0.5175732374191284,0.09791038185358047,0.05770143810826772,-0.010491170565139585,0.02885071905413386
0.2679901123046875,0.157928466796875,9.717254638671875,0.040575508028268814,-0.5175732374191284,0.09791038185358047,0.05770143810826772,0.060324230749552614,0.02885071905413386
0.2727813720703125,0.1627044677734375,9.695724487304688,0.040583331137895584,-0.5039528608322144,0.09791038185358047,-0.08218083609359342,0.060324230749552614,0.09966612036882606
0.2823486328125,0.16510009765625,9.705291748046875,0.02695905975997448,-0.5039528608322144,0.0979062169790268,-0.01223969899266285,0.12939110363672154,0.09966612036882606
0.2727813720703125,0.1603240966796875,9.702896118164062,0.026851611211895943,-0.5039528608322144,0.09790954738855362,0.12764257520919828,0.060324230749552614,0.09966612036882606
0.2823486328125,0.1914215087890625,9.731613159179688,0.026748009026050568,-0.5175732374191284,0.08429253101348877,0.05770143810826772,-0.010491170565139585,0.09966612036882606
0.2775726318359375,0.1746826171875,9.710067749023438,0.02674400806427002,-0.5311935544013977,0.08429253101348877,0.05770143810826772,0.12939110363672154,0.2395483945706872
0.2823486328125,0.1603240966796875,9.70050048828125,0.02674400806427002,-0.5311935544013977,0.08429253101348877,0.12764257520919828,-0.010491170565139585,0.168732993255995
0.2823486328125,0.1627044677734375,9.710067749023438,0.02674400806427002,-0.5311935544013977,0.08429253101348877,0.12764257520919828,0.12939110363672154,-0.04109041804679671
0.2799530029296875,0.1603240966796875,9.705291748046875,0.026628633961081505,-0.5039528608322144,0.09793615341186523,0.12764257520919828,-0.08043230766607015,0.09966612036882606
0.2967071533203125,0.16510009765625,9.698104858398438,0.02652895450592041,-0.5039528608322144,0.09794612228870392,0.05770143810826772,-0.010491170565139585,0.09966612036882606
0.2560272216796875,0.16510009765625,9.707687377929688,0.02653287723660469,-0.5039528608322144,0.097950279712677,0.05770143810826772,-0.010491170565139585,0.02885071905413386
0.2799530029296875,0.169891357421875,9.72442626953125,0.02653287723660469,-0.5039528608322144,0.097950279712677,0.12764257520919828,-0.010491170565139585,0.168732993255995
0.2799530029296875,0.169891357421875,9.717254638671875,0.02653287723660469,-0.5175732374191284,0.08433409035205841,0.05770143810826772,0.060324230749552614,0.168732993255995
0.2775726318359375,0.1674957275390625,9.717254638671875,0.0265289805829525,-0.5175732374191284,0.08433409035205841,0.12764257520919828,0.060324230749552614,0.168732993255995
0.2727813720703125,0.1674957275390625,9.695724487304688,0.026521161198616028,-0.5039528608322144,0.0843382477760315,0.12764257520919828,-0.010491170565139585,0.02885071905413386
0.2584228515625,0.1555328369140625,9.710067749023438,0.026525083929300308,-0.5175732374191284,0.11158975213766098,0.05770143810826772,0.060324230749552614,0.09966612036882606
0.2656097412109375,0.16510009765625,9.693328857421875,0.040149327367544174,-0.5039528608322144,0.08434905111789703,-0.01223969899266285,0.060324230749552614,0.02885071905413386
0.275177001953125,0.1627044677734375,9.690933227539062,0.03993038088083267,-0.5175732374191284,0.1116047129034996,0.05770143810826772,0.060324230749552614,0.09966612036882606
0.2847442626953125,0.16510009765625,9.705291748046875,0.03993427753448486,-0.5039528608322144,0.11160554736852646,0.05770143810826772,0.060324230749552614,0.09966612036882606
0.2823486328125,0.1603240966796875,9.693328857421875,0.03993427753448486,-0.5039528608322144,0.11160554736852646,-0.01223969899266285,0.060324230749552614,0.02885071905413386
0.2799530029296875,0.1555328369140625,9.702896118164062,0.02609887719154358,-0.5039528608322144,0.11161136627197266,0.05770143810826772,0.060324230749552614,0.09966612036882606
0.2679901123046875,0.1674957275390625,9.695724487304688,0.02611064724624157,-0.5175732374191284,0.09799101948738098,0.12764257520919828,0.060324230749552614,0.02885071905413386
0.251251220703125,0.17706298828125,9.669403076171875,0.02611064724624157,-0.5175732374191284,0.09799101948738098,-0.01223969899266285,0.060324230749552614,-0.04109041804679671
0.29193115234375,0.1627044677734375,9.683746337890625,0.039738789200782776,-0.5175732374191284,0.09799517691135406,0.05770143810826772,0.12939110363672154,0.02885071905413386
0.2727813720703125,0.1603240966796875,9.70050048828125,0.012398384511470795,-0.5175732374191284,0.11161884665489197,0.05770143810826772,-0.010491170565139585,0.09966612036882606
0.2608184814453125,0.17706298828125,9.690933227539062,0.01229085959494114,-0.5175732374191284,0.11162550002336502,0.05770143810826772,-0.010491170565139585,0.09966612036882606
0.2703857421875,0.1507415771484375,9.705291748046875,0.025911206379532814,-0.5175732374191284,0.09800514578819275,0.05770143810826772,-0.010491170565139585,0.02885071905413386
0.29193115234375,0.1603240966796875,9.705291748046875,0.03953545168042183,-0.5039528608322144,0.09800931066274643,0.05770143810826772,0.060324230749552614,0.02885071905413386
0.2823486328125,0.181854248046875,9.70050048828125,0.03953545168042183,-0.5039528608322144,0.09800931066274643,0.12764257520919828,0.060324230749552614,0.02885071905413386
0.2679901123046875,0.1603240966796875,9.714859008789062,0.025819240137934685,-0.5175732374191284,0.09801679104566574,-0.01223969899266285,0.060324230749552614,0.02885071905413386
0.2799530029296875,0.1842498779296875,9.731613159179688,0.0394473597407341,-0.5175732374191284,0.09802012145519257,-0.01223969899266285,0.060324230749552614,0.09966612036882606
0.2775726318359375,0.15313720703125,9.693328857421875,0.03944740816950798,-0.5175732374191284,0.09802012145519257,-0.01223969899266285,0.060324230749552614,0.02885071905413386
0.275177001953125,0.15313720703125,9.707687377929688,0.025615930557250977,-0.5039528608322144,0.1116471067070961,0.05770143810826772,0.060324230749552614,0.09966612036882606
0.2608184814453125,0.181854248046875,9.695724487304688,0.025615930557250977,-0.5039528608322144,0.08440642058849335,0.05770143810826772,0.060324230749552614,0.09966612036882606
0.2727813720703125,0.1674957275390625,9.71246337890625,0.025615930557250977,-0.5039528608322144,0.08440642058849335,0.05770143810826772,0.060324230749552614,0.09966612036882606
0.2727813720703125,0.169891357421875,9.690933227539062,0.03923627734184265,-0.5175732374191284,0.1116471067070961,0.05770143810826772,0.060324230749552614,0.02885071905413386
0.2560272216796875,0.1722869873046875,9.707687377929688,0.025619802996516228,-0.5175732374191284,0.1116471067070961,0.05770143810826772,-0.010491170565139585,-0.04109041804679671
0.253631591796875,0.1794586181640625,9.698104858398438,0.03924015164375305,-0.5175732374191284,0.09802675992250443,-0.01223969899266285,-0.010491170565139585,0.09966612036882606
0.275177001953125,0.16510009765625,9.717254638671875,0.05286439135670662,-0.5175732374191284,0.1116471067070961,-0.01223969899266285,-0.08043230766607015,-0.04109041804679671
0.253631591796875,0.169891357421875,9.698104858398438,0.025738993659615517,-0.5175732374191284,0.0844072476029396,-0.01223969899266285,-0.010491170565139585,0.09966612036882606
0.2679901123046875,0.1627044677734375,9.710067749023438,0.025742890313267708,-0.5175732374191284,0.0844072476029396,0.05770143810826772,-0.08043230766607015,0.168732993255995
0.2679901123046875,0.169891357421875,9.710067749023438,0.03935934230685234,-0.5175732374191284,0.09802760183811188,-0.01223969899266285,-0.010491170565139585,0.09966612036882606
0.2656097412109375,0.15313720703125,9.719650268554688,0.03935546800494194,-0.5175732374191284,0.09802760183811188,-0.01223969899266285,-0.010491170565139585,0.09966612036882606
0.2775726318359375,0.1603240966796875,9.705291748046875,0.03935546800494194,-0.5175732374191284,0.09802760183811188,0.05770143810826772,0.060324230749552614,0.02885071905413386
0.2679901123046875,0.193817138671875,9.729217529296875,0.03936323896050453,-0.5039528608322144,0.0844072476029396,0.05770143810826772,0.060324230749552614,0.09966612036882606
0.2799530029296875,0.1722869873046875,9.710067749023438,0.03936713561415672,-0.544813871383667,0.0844072476029396,0.05770143810826772,0.060324230749552614,0.09966612036882606
0.2775726318359375,0.1603240966796875,9.698104858398438,0.03936713561415672,-0.544813871383667,0.0844072476029396,0.05770143810826772,0.060324230749552614,0.02885071905413386
0.2679901123046875,0.1603240966796875,9.729217529296875,0.02575463242828846,-0.5175732374191284,0.09802760183811188,0.12764257520919828,-0.010491170565139585,0.02885071905413386
0.2847442626953125,0.1674957275390625,9.702896118164062,0.039378877729177475,-0.4903324842453003,0.07079105824232101,-0.01223969899266285,0.12939110363672154,0.09966612036882606
0.2775726318359375,0.1603240966796875,9.693328857421875,0.039378877729177475,-0.4903324842453003,0.07079105824232101,0.05770143810826772,0.12939110363672154,0.09966612036882606
0.2799530029296875,0.16510009765625,9.719650268554688,0.03905632346868515,-0.5175732374191284,0.11165709048509598,0.05770143810826772,-0.08043230766607015,0.02885071905413386
0.275177001953125,0.1507415771484375,9.71246337890625,0.02544374391436577,-0.5175732374191284,0.08441722393035889,-0.07431245816973873,-0.018359548488994275,-0.03147351169541876
0.2775726318359375,0.169891357421875,9.714859008789062,0.0254515390843153,-0.5039528608322144,0.0844130665063858,0.0655698160321224,-0.08917494980368648,0.03934188961927344
0.2775726318359375,0.17706298828125,9.714859008789062,0.025562962517142296,-0.5175732374191284,0.08441390097141266,-0.004371321068808161,-0.15911608690461704,-0.03147351169541876
0.2823486328125,0.1674957275390625,9.70050048828125,0.0260008592158556,-0.5311935544013977,0.08440059423446655,-0.07431245816973873,-0.08917494980368648,0.10840876250644238
0.2656097412109375,0.157928466796875,9.68853759765625,0.026108307763934135,-0.5311935544013977,0.08439727127552032,-0.004371321068808161,-0.018359548488994275,0.03934188961927344
0.2895355224609375,0.1842498779296875,9.72442626953125,0.026116101071238518,-0.5175732374191284,0.098017618060112,0.1363852173468146,-0.018359548488994275,-0.03147351169541876
0.2823486328125,0.15313720703125,9.702896118164062,0.012495805509388447,-0.5175732374191284,0.08440475165843964,-0.004371321068808161,-0.018359548488994275,-0.03147351169541876
0.2799530029296875,0.1603240966796875,9.702896118164062,0.026116153225302696,-0.4903324842453003,0.08440475165843964,-0.004371321068808161,-0.08917494980368648,-0.03147351169541876
0.2823486328125,0.16510009765625,9.717254638671875,0.026223601773381233,-0.4903324842453003,0.09802260994911194,-0.004371321068808161,-0.018359548488994275,-0.03147351169541876
0.2727813720703125,0.1722869873046875,9.714859008789062,0.026219705119729042,-0.5039528608322144,0.08440225571393967,-0.07431245816973873,-0.08917494980368648,0.03934188961927344
0.287139892578125,0.1914215087890625,9.7340087890625,0.012706909328699112,-0.4903324842453003,0.09801845252513885,-0.004371321068808161,-0.018359548488994275,0.03934188961927344
0.287139892578125,0.1603240966796875,9.71246337890625,0.026327254250645638,-0.5175732374191284,0.0707777589559555,-0.004371321068808161,-0.018359548488994275,0.03934188961927344
0.251251220703125,0.1674957275390625,9.71246337890625,0.026327254250645638,-0.4903324842453003,0.08439810574054718,-0.07431245816973873,-0.018359548488994275,-0.03147351169541876
0.253631591796875,0.17706298828125,9.690933227539062,0.026327254250645638,-0.4903324842453003,0.08439810574054718,-0.004371321068808161,-0.018359548488994275,-0.03147351169541876
0.2584228515625,0.1627044677734375,9.717254638671875,0.053564030677080154,-0.5039528608322144,0.09801927953958511,-0.004371321068808161,-0.018359548488994275,0.10840876250644238
0.2679901123046875,0.1603240966796875,9.693328857421875,0.026315564289689064,-0.4903324842453003,0.08439810574054718,-0.004371321068808161,-0.08917494980368648,0.03934188961927344
0.2967071533203125,0.1555328369140625,9.686141967773438,0.02642306499183178,-0.4903324842453003,0.08439477533102036,-0.07431245816973873,-0.08917494980368648,0.03934188961927344
0.2775726318359375,0.157928466796875,9.707687377929688,0.04015094041824341,-0.5039528608322144,0.09800847619771957,-0.07431245816973873,-0.08917494980368648,-0.03147351169541876
0.2775726318359375,0.157928466796875,9.705291748046875,0.026745643466711044,-0.5039528608322144,0.09799350798130035,-0.07431245816973873,-0.08917494980368648,-0.03147351169541876
0.2703857421875,0.1842498779296875,9.719650268554688,0.026745643466711044,-0.5039528608322144,0.09799350798130035,-0.004371321068808161,-0.018359548488994275,0.03934188961927344
0.275177001953125,0.1722869873046875,9.690933227539062,0.02685317024588585,-0.5175732374191284,0.0979868546128273,0.1363852173468146,-0.08917494980368648,0.03934188961927344
0.2703857421875,0.17706298828125,9.7220458984375,0.02695685252547264,-0.5175732374191284,0.09799101948738098,-0.004371321068808161,0.050707324398174665,0.03934188961927344
0.275177001953125,0.16510009765625,9.714859008789062,0.026956772431731224,-0.5175732374191284,0.09799101948738098,-0.004371321068808161,-0.018359548488994275,0.03934188961927344
0.2656097412109375,0.1674957275390625,9.693328857421875,0.026956772431731224,-0.5175732374191284,0.11161136627197266,-0.004371321068808161,-0.018359548488994275,-0.10141464879634933
0.2584228515625,0.1603240966796875,9.705291748046875,0.027064325287938118,-0.5175732374191284,0.11160803586244583,-0.004371321068808161,-0.018359548488994275,0.03934188961927344
0.251251220703125,0.1722869873046875,9.671783447265625,0.027064325287938118,-0.5175732374191284,0.11160803586244583,-0.004371321068808161,-0.018359548488994275,0.03934188961927344
0.251251220703125,0.1746826171875,9.717254638671875,0.054412517696619034,-0.5039528608322144,0.09798436611890793,-0.004371321068808161,-0.15911608690461704,0.1792241638211346
0.2775726318359375,0.16510009765625,9.71246337890625,0.040999483317136765,-0.5039528608322144,0.1115988940000534,-0.004371321068808161,-0.08917494980368648,0.10840876250644238
0.2775726318359375,0.16510009765625,9.717254638671875,0.04110310971736908,-0.5311935544013977,0.11159556359052658,-0.004371321068808161,-0.08917494980368648,-0.03147351169541876
0.2703857421875,0.1555328369140625,9.702896118164062,0.041210610419511795,-0.5175732374191284,0.09797189384698868,0.0655698160321224,-0.018359548488994275,0.03934188961927344
0.2727813720703125,0.1603240966796875,9.71246337890625,0.0413181371986866,-0.4903324842453003,0.09797189384698868,0.1363852173468146,-0.018359548488994275,0.03934188961927344
0.2656097412109375,0.17706298828125,9.71246337890625,0.027697790414094925,-0.5039528608322144,0.08435570448637009,-0.004371321068808161,-0.018359548488994275,0.03934188961927344
0.2775726318359375,0.1674957275390625,9.710067749023438,0.027697790414094925,-0.5039528608322144,0.11159640550613403,-0.07431245816973873,-0.08917494980368648,0.03934188961927344
0.2608184814453125,0.169891357421875,9.695724487304688,0.041425611823797226,-0.5039528608322144,0.0979694053530693,-0.004371321068808161,-0.08917494980368648,-0.03147351169541876
0.2488555908203125,0.1746826171875,9.693328857421875,0.041425611823797226,-0.5039528608322144,0.0979694053530693,0.0655698160321224,-0.08917494980368648,-0.10141464879634933
0.2560272216796875,0.1603240966796875,9.707687377929688,0.05526488274335861,-0.5039528608322144,0.11158642172813416,-0.004371321068808161,-0.018359548488994275,-0.10141464879634933
0.2727813720703125,0.1674957275390625,9.726821899414062,0.028028059750795364,-0.4903324842453003,0.09796607494354248,-0.004371321068808161,-0.018359548488994275,-0.03147351169541876
0.2703857421875,0.1722869873046875,9.70050048828125,0.028028059750795364,-0.4903324842453003,0.09796607494354248,-0.004371321068808161,-0.08917494980368648,-0.03147351169541876
0.2679901123046875,0.1746826171875,9.695724487304688,0.028247032314538956,-0.5039528608322144,0.09795942157506943,-0.004371321068808161,-0.08917494980368648,0.10840876250644238
0.2608184814453125,0.16510009765625,9.71246337890625,0.041971009224653244,-0.5039528608322144,0.11157229542732239,-0.004371321068808161,-0.08917494980368648,0.03934188961927344
0.275177001953125,0.1555328369140625,9.71246337890625,0.041971009224653244,-0.5039528608322144,0.11157229542732239,-0.004371321068808161,0.050707324398174665,0.03934188961927344
0.2847442626953125,0.1722869873046875,9.707687377929688,0.028454292565584183,-0.5039528608322144,0.09794945269823074,-0.004371321068808161,-0.018359548488994275,0.03934188961927344
0.275177001953125,0.157928466796875,9.695724487304688,0.028454292565584183,-0.5039528608322144,0.09794945269823074,-0.004371321068808161,-0.018359548488994275,0.03934188961927344
0.2823486328125,0.1603240966796875,9.683746337890625,0.028454292565584183,-0.5039528608322144,0.09794945269823074,-0.004371321068808161,-0.018359548488994275,-0.03147351169541876
0.2799530029296875,0.157928466796875,9.71246337890625,0.028454292565584183,-0.4903324842453003,0.11156979948282242,-0.004371321068808161,-0.08917494980368648,-0.03147351169541876
0.275177001953125,0.1555328369140625,9.707687377929688,0.04218216612935066,-0.5039528608322144,0.1115664690732956,-0.07431245816973873,-0.018359548488994275,-0.03147351169541876
0.2967071533203125,0.1722869873046875,9.71246337890625,0.042182113975286484,-0.5175732374191284,0.1115623190999031,-0.07431245816973873,-0.08917494980368648,-0.03147351169541876
0.2799530029296875,0.1603240966796875,9.698104858398438,0.028669290244579315,-0.5039528608322144,0.11155898869037628,-0.004371321068808161,-0.018359548488994275,-0.03147351169541876
0.263214111328125,0.14117431640625,9.705291748046875,0.028669290244579315,-0.5175732374191284,0.08431829512119293,-0.004371321068808161,-0.08917494980368648,0.03934188961927344
0.2727813720703125,0.1603240966796875,9.698104858398438,0.02877679094672203,-0.5175732374191284,0.0843149721622467,-0.004371321068808161,-0.018359548488994275,-0.10141464879634933
0.287139892578125,0.1555328369140625,9.707687377929688,0.02878066524863243,-0.5175732374191284,0.09793531894683838,-0.004371321068808161,-0.08917494980368648,0.03934188961927344
0.253631591796875,0.1674957275390625,9.681365966796875,0.028999611735343933,-0.5039528608322144,0.09792867302894592,-0.004371321068808161,-0.018359548488994275,-0.03147351169541876
0.2679901123046875,0.181854248046875,9.70050048828125,0.04261995851993561,-0.5039528608322144,0.08430831879377365,-0.004371321068808161,-0.15911608690461704,0.10840876250644238
0.253631591796875,0.1722869873046875,9.693328857421875,0.02920687198638916,-0.5175732374191284,0.09792201966047287,0.0655698160321224,-0.018359548488994275,0.03934188961927344
0.2703857421875,0.157928466796875,9.71246337890625,0.056555092334747314,-0.5039528608322144,0.09792284667491913,-0.004371321068808161,-0.08917494980368648,0.03934188961927344
0.2847442626953125,0.16510009765625,9.717254638671875,0.05666253715753555,-0.5039528608322144,0.0979195311665535,-0.004371321068808161,-0.018359548488994275,-0.03147351169541876
0.2823486328125,0.1555328369140625,9.671783447265625,0.043034449219703674,-0.4903324842453003,0.09791868925094604,-0.004371321068808161,-0.08917494980368648,0.10840876250644238
0.275177001953125,0.17706298828125,9.717254638671875,0.029517782852053642,-0.4903324842453003,0.09791620075702667,-0.1442535952706693,-0.08917494980368648,0.03934188961927344
0.263214111328125,0.157928466796875,9.705291748046875,0.029625309631228447,-0.5039528608322144,0.09790872037410736,-0.004371321068808161,-0.018359548488994275,-0.03147351169541876
0.2727813720703125,0.1627044677734375,9.698104858398438,0.043353158980607986,-0.5039528608322144,0.09790206700563431,-0.004371321068808161,-0.08917494980368648,0.03934188961927344
0.29193115234375,0.1674957275390625,9.70050048828125,0.029951708391308784,-0.5175732374191284,0.09789542108774185,-0.07431245816973873,-0.08917494980368648,-0.03147351169541876
0.287139892578125,0.1603240966796875,9.70050048828125,0.029951708391308784,-0.5175732374191284,0.09789542108774185,0.0655698160321224,-0.018359548488994275,0.10840876250644238
0.2703857421875,0.1435699462890625,9.707687377929688,0.03015901707112789,-0.5039528608322144,0.0978887677192688,-0.07431245816973873,-0.08917494980368648,0.10840876250644238
0.2823486328125,0.1794586181640625,9.70050048828125,0.043994415551424026,-0.5039528608322144,0.0978771299123764,-0.004371321068808161,-0.08917494980368648,0.03934188961927344
0.2799530029296875,0.1674957275390625,9.698104858398438,0.04410186782479286,-0.5039528608322144,0.09787463396787643,-0.004371321068808161,-0.08917494980368648,-0.03147351169541876
0.275177001953125,0.1627044677734375,9.690933227539062,0.017076248303055763,-0.5039528608322144,0.09786798804998398,-0.004371321068808161,-0.018359548488994275,-0.03147351169541876
0.2775726318359375,0.1627044677734375,9.683746337890625,0.04442444443702698,-0.5039528608322144,0.09786465764045715,-0.004371321068808161,0.050707324398174665,-0.03147351169541876
0.275177001953125,0.1914215087890625,9.731613159179688,0.04442444443702698,-0.5039528608322144,0.09786465764045715,-0.004371321068808161,-0.018359548488994275,-0.03147351169541876
0.2679901123046875,0.1722869873046875,9.695724487304688,0.030911650508642197,-0.5175732374191284,0.09786133468151093,-0.004371321068808161,0.050707324398174665,0.03934188961927344
0.2608184814453125,0.169891357421875,9.693328857421875,0.04453199729323387,-0.5039528608322144,0.111481674015522,-0.07431245816973873,-0.08917494980368648,0.03934188961927344
0.2799530029296875,0.1603240966796875,9.714859008789062,0.044639524072408676,-0.5039528608322144,0.11147419363260269,0.0655698160321224,-0.018359548488994275,-0.03147351169541876
0.2727813720703125,0.1627044677734375,9.702896118164062,0.03112667426466942,-0.5039528608322144,0.0978463739156723,-0.1442535952706693,-0.018359548488994275,-0.03147351169541876
0.251251220703125,0.1842498779296875,9.705291748046875,0.04474704712629318,-0.5311935544013977,0.11145923286676407,-0.004371321068808161,0.050707324398174665,-0.10141464879634933
0.2488555908203125,0.1674957275390625,9.731613159179688,0.044750917702913284,-0.5175732374191284,0.08421853929758072,-0.004371321068808161,-0.08917494980368648,0.10840876250644238
0.2823486328125,0.169891357421875,9.70050048828125,0.04485847055912018,-0.5039528608322144,0.09783556312322617,-0.07431245816973873,-0.018359548488994275,-0.03147351169541876
0.2608184814453125,0.157928466796875,9.707687377929688,0.031238045543432236,-0.5175732374191284,0.09783140569925308,-0.07431245816973873,-0.018359548488994275,0.03934188961927344
0.2823486328125,0.1674957275390625,9.710067749023438,0.031238097697496414,-0.5175732374191284,0.0978272408246994,-0.004371321068808161,-0.018359548488994275,-0.03147351169541876
0.2847442626953125,0.1914215087890625,9.72442626953125,0.044965893030166626,-0.5039528608322144,0.09782475233078003,-0.004371321068808161,-0.08917494980368648,-0.10141464879634933
0.29193115234375,0.17706298828125,9.71246337890625,0.03156449645757675,-0.5175732374191284,0.09781809896230698,-0.07431245816973873,0.050707324398174665,0.03934188961927344
0.2584228515625,0.16510009765625,9.702896118164062,0.03156447038054466,-0.5175732374191284,0.09781394898891449,-0.07431245816973873,-0.018359548488994275,-0.03147351169541876
0.2823486328125,0.17706298828125,9.702896118164062,0.03156449645757675,-0.5175732374191284,0.0978023111820221,-0.07431245816973873,-0.018359548488994275,0.03934188961927344
0.2775726318359375,0.1627044677734375,9.71246337890625,0.031564414501190186,-0.5039528608322144,0.09779398888349533,-0.004371321068808161,-0.018359548488994275,0.03934188961927344
0.2679901123046875,0.16510009765625,9.693328857421875,0.031564414501190186,-0.5039528608322144,0.09779398888349533,-0.004371321068808161,-0.018359548488994275,-0.03147351169541876
0.2656097412109375,0.1483612060546875,9.698104858398438,0.04528844729065895,-0.5039528608322144,0.11141102015972137,-0.004371321068808161,0.050707324398174665,0.03934188961927344
0.275177001953125,0.157928466796875,9.717254638671875,0.04528844729065895,-0.5039528608322144,0.0977906659245491,-0.004371321068808161,-0.08917494980368648,-0.03147351169541876
0.275177001953125,0.16510009765625,9.71246337890625,0.04539591819047928,-0.5039528608322144,0.09778817743062973,-0.004371321068808161,-0.08917494980368648,0.03934188961927344
0.2679901123046875,0.1603240966796875,9.702896118164062,0.045503418892621994,-0.5311935544013977,0.11140436679124832,-0.004371321068808161,-0.018359548488994275,-0.03147351169541876
0.253631591796875,0.1794586181640625,9.710067749023438,0.05912769213318825,-0.5175732374191284,0.11140436679124832,-0.07431245816973873,-0.018359548488994275,-0.03147351169541876
0.2464599609375,0.1674957275390625,9.67657470703125,0.05912769213318825,-0.5175732374191284,0.11140436679124832,-0.07431245816973873,-0.15911608690461704,-0.03147351169541876
0.2799530029296875,0.16510009765625,9.714859008789062,0.05934271961450577,-0.5175732374191284,0.11139439791440964,0.0655698160321224,-0.08917494980368648,0.03934188961927344
0.2775726318359375,0.1674957275390625,9.719650268554688,0.059450238943099976,-0.5311935544013977,0.12501473724842072,-0.004371321068808161,-0.018359548488994275,0.10840876250644238
0.275177001953125,0.1794586181640625,9.726821899414062,0.05944634601473808,-0.5311935544013977,0.12501473724842072,0.0655698160321224,-0.018359548488994275,-0.03147351169541876
0.2560272216796875,0.169891357421875,9.686141967773438,0.045933496206998825,-0.5175732374191284,0.09777072072029114,-0.004371321068808161,-0.018359548488994275,-0.10141464879634933
0.2799530029296875,0.1627044677734375,9.690933227539062,0.04604881629347801,-0.5039528608322144,0.09776739776134491,-0.004371321068808161,-0.08917494980368648,-0.03147351169541876
0.2823486328125,0.1962127685546875,9.726821899414062,0.018808122724294662,-0.5175732374191284,0.08414704352617264,-0.004371321068808161,-0.018359548488994275,0.10840876250644238
0.2584228515625,0.1746826171875,9.702896118164062,0.018696725368499756,-0.5311935544013977,0.08415037393569946,-0.004371321068808161,-0.018359548488994275,0.03934188961927344
0.2799530029296875,0.15313720703125,9.695724487304688,0.04603710025548935,-0.5175732374191284,0.09776822477579117,-0.07431245816973873,-0.15911608690461704,0.10840876250644238
0.263214111328125,0.1674957275390625,9.669403076171875,0.04614073038101196,-0.5175732374191284,0.09776489436626434,-0.004371321068808161,-0.08917494980368648,0.03934188961927344
0.2560272216796875,0.1866455078125,9.693328857421875,0.04624828323721886,-0.5039528608322144,0.11138108372688293,0.0655698160321224,0.050707324398174665,-0.10141464879634933
0.2775726318359375,0.1746826171875,9.695724487304688,0.04625605046749115,-0.5311935544013977,0.08414454758167267,-0.004371321068808161,-0.018359548488994275,-0.10141464879634933
0.29193115234375,0.18902587890625,9.705291748046875,0.04625996947288513,-0.5311935544013977,0.08414454758167267,-0.07431245816973873,-0.15911608690461704,-0.03147351169541876
0.263214111328125,0.16510009765625,9.702896118164062,0.03285465016961098,-0.5311935544013977,0.09775076806545258,-0.07431245816973873,-0.22905722400554762,-0.03147351169541876
0.2560272216796875,0.17706298828125,9.690933227539062,0.04690510407090187,-0.5039528608322144,0.09773330390453339,0.0655698160321224,-0.08917494980368648,-0.03147351169541876
0.2727813720703125,0.1674957275390625,9.686141967773438,0.04690510407090187,-0.5039528608322144,0.09773330390453339,-0.004371321068808161,0.050707324398174665,-0.10141464879634933
0.2895355224609375,0.17706298828125,9.719650268554688,0.03350367769598961,-0.5175732374191284,0.0977233350276947,-0.07431245816973873,-0.15911608690461704,-0.03147351169541876
0.263214111328125,0.1627044677734375,9.693328857421875,0.04723155125975609,-0.5039528608322144,0.09771917015314102,-0.004371321068808161,-0.08917494980368648,0.03934188961927344
0.263214111328125,0.1627044677734375,9.714859008789062,0.047338999807834625,-0.5039528608322144,0.09771502017974854,-0.004371321068808161,0.050707324398174665,-0.03147351169541876
0.2703857421875,0.1507415771484375,9.714859008789062,0.047338999807834625,-0.5039528608322144,0.08409467339515686,-0.004371321068808161,-0.08917494980368648,-0.03147351169541876
0.2727813720703125,0.1914215087890625,9.729217529296875,0.047338999807834625,-0.5175732374191284,0.08409467339515686,-0.07431245816973873,-0.018359548488994275,-0.03147351169541876
0.287139892578125,0.1674957275390625,9.702896118164062,0.047338999807834625,-0.5175732374191284,0.08409467339515686,-0.004371321068808161,-0.08917494980368648,0.03934188961927344
0.275177001953125,0.1674957275390625,9.714859008789062,0.047554027289152145,-0.5311935544013977,0.11132954806089401,-0.004371321068808161,-0.018359548488994275,-0.03147351169541876
0.263214111328125,0.17706298828125,9.68853759765625,0.047554027289152145,-0.5175732374191284,0.09770920127630234,0.0655698160321224,-0.08917494980368648,0.03934188961927344
0.2775726318359375,0.1603240966796875,9.702896118164062,0.04766152799129486,-0.5175732374191284,0.09770587086677551,-0.07431245816973873,-0.018359548488994275,-0.03147351169541876
0.2679901123046875,0.1722869873046875,9.705291748046875,0.034148626029491425,-0.5175732374191284,0.0976983904838562,-0.004371321068808161,-0.018359548488994275,-0.03147351169541876
0.2584228515625,0.181854248046875,9.693328857421875,0.061389319598674774,-0.5311935544013977,0.11131873726844788,-0.07431245816973873,0.050707324398174665,-0.03147351169541876
0.2560272216796875,0.181854248046875,9.690933227539062,0.0477689728140831,-0.5175732374191284,0.08407804369926453,-0.004371321068808161,-0.08917494980368648,-0.03147351169541876
0.275177001953125,0.169891357421875,9.68853759765625,0.04798400029540062,-0.5039528608322144,0.09769173711538315,-0.004371321068808161,-0.08917494980368648,0.03934188961927344
0.2679901123046875,0.1603240966796875,9.702896118164062,0.04819905385375023,-0.5175732374191284,0.11130543798208237,-0.004371321068808161,-0.018359548488994275,0.03934188961927344
0.2823486328125,0.18902587890625,9.726821899414062,0.048306602984666824,-0.5175732374191284,0.11130210757255554,-0.07431245816973873,-0.08917494980368648,-0.03147351169541876
0.2823486328125,0.157928466796875,9.698104858398438,0.0349012054502964,-0.5175732374191284,0.09767428785562515,-0.07431245816973873,-0.15911608690461704,0.03934188961927344
0.2823486328125,0.1555328369140625,9.695724487304688,0.04852155223488808,-0.5175732374191284,0.11129462718963623,-0.004371321068808161,-0.15911608690461704,-0.03147351169541876
0.2703857421875,0.157928466796875,9.714859008789062,0.048629049211740494,-0.5175732374191284,0.11129213869571686,-0.004371321068808161,-0.08917494980368648,-0.03147351169541876
0.2608184814453125,0.157928466796875,9.717254638671875,0.03522375598549843,-0.5039528608322144,0.09766014665365219,-0.004371321068808161,-0.15911608690461704,-0.03147351169541876
0.2847442626953125,0.1842498779296875,9.731613159179688,0.03543878346681595,-0.5175732374191284,0.1112780049443245,-0.004371321068808161,-0.22905722400554762,-0.03147351169541876
0.2775726318359375,0.1627044677734375,9.70050048828125,0.03543878346681595,-0.5175732374191284,0.1112780049443245,-0.07431245816973873,-0.08917494980368648,0.03934188961927344
0.2847442626953125,0.16510009765625,9.71246337890625,0.035761334002017975,-0.5175732374191284,0.09764352440834045,0.0655698160321224,-0.018359548488994275,0.10840876250644238
0.2775726318359375,0.1674957275390625,9.71246337890625,0.0357535146176815,-0.5039528608322144,0.1112605482339859,-0.1442535952706693,-0.15911608690461704,0.03934188961927344
0.2727813720703125,0.1674957275390625,9.719650268554688,0.03586101531982422,-0.5039528608322144,0.11125306785106659,-0.07431245816973873,-0.018359548488994275,-0.10141464879634933
0.2775726318359375,0.17706298828125,9.7220458984375,0.0357535146176815,-0.5039528608322144,0.11125223338603973,-0.004371321068808161,-0.08917494980368648,0.03934188961927344
0.2943115234375,0.181854248046875,9.714859008789062,0.0357535146176815,-0.5175732374191284,0.09763188660144806,-0.004371321068808161,-0.018359548488994275,-0.03147351169541876
0.2703857421875,0.1627044677734375,9.705291748046875,0.0357535146176815,-0.5175732374191284,0.09763188660144806,-0.07431245816973873,0.050707324398174665,-0.03147351169541876
0.2823486328125,0.1627044677734375,9.698104858398438,0.03575356677174568,-0.5175732374191284,0.08400821685791016,-0.004371321068808161,-0.08917494980368648,0.10840876250644238
0.263214111328125,0.1746826171875,9.695724487304688,0.03575356677174568,-0.5175732374191284,0.08400821685791016,-0.07431245816973873,0.050707324398174665,0.03934188961927344
0.2608184814453125,0.1746826171875,9.674179077148438,0.049585044384002686,-0.5175732374191284,0.11123394221067429,-0.07431245816973873,0.050707324398174665,-0.03147351169541876
0.2656097412109375,0.1627044677734375,9.70050048828125,0.03574967011809349,-0.5175732374191284,0.09761276096105576,0.0655698160321224,-0.15911608690461704,-0.03147351169541876
0.2847442626953125,0.1627044677734375,9.719650268554688,0.03574967011809349,-0.5039528608322144,0.11123311519622803,0.0655698160321224,-0.22905722400554762,-0.10141464879634933
0.2775726318359375,0.1603240966796875,9.70050048828125,0.035861119627952576,-0.5311935544013977,0.09761276096105576,-0.1442535952706693,-0.08917494980368648,0.03934188961927344
0.2799530029296875,0.1674957275390625,9.698104858398438,0.035861119627952576,-0.5311935544013977,0.09761276096105576,-0.004371321068808161,0.050707324398174665,0.03934188961927344
0.2943115234375,0.1435699462890625,9.683746337890625,0.0354311466217041,-0.5039528608322144,0.11124309152364731,-0.004371321068808161,-0.018359548488994275,0.03934188961927344
0.2584228515625,0.16510009765625,9.683746337890625,0.03553866967558861,-0.5039528608322144,0.111235611140728,-0.004371321068808161,-0.08917494980368648,0.03934188961927344
0.275177001953125,0.1674957275390625,9.710067749023438,0.03553866967558861,-0.5039528608322144,0.111235611140728,-0.07431245816973873,-0.15911608690461704,0.03934188961927344
0.2679901123046875,0.1842498779296875,9.68853759765625,0.03575369715690613,-0.5175732374191284,0.09760445356369019,-0.07431245816973873,-0.15911608690461704,0.03934188961927344
0.253631591796875,0.1746826171875,9.671783447265625,0.04915901646018028,-0.5175732374191284,0.11122730374336243,0.1363852173468146,-0.018359548488994275,0.03934188961927344
0.263214111328125,0.1674957275390625,9.686141967773438,0.04915901646018028,-0.5175732374191284,0.11123145371675491,0.0655698160321224,0.050707324398174665,-0.03147351169541876
0.2775726318359375,0.157928466796875,9.690933227539062,0.04905148968100548,-0.5175732374191284,0.08399824053049088,-0.07431245816973873,-0.08917494980368648,-0.03147351169541876
0.263214111328125,0.1842498779296875,9.702896118164062,0.04905148968100548,-0.5175732374191284,0.08399824053049088,-0.07431245816973873,-0.08917494980368648,-0.03147351169541876
0.2656097412109375,0.181854248046875,9.702896118164062,0.04905148968100548,-0.5175732374191284,0.08399824053049088,-0.004371321068808161,-0.08917494980368648,-0.03147351169541876
0.2895355224609375,0.169891357421875,9.714859008789062,0.03532351553440094,-0.5175732374191284,0.09761858731508255,0.0655698160321224,0.050707324398174665,-0.03147351169541876
0.2703857421875,0.1722869873046875,9.70050048828125,0.03521611914038658,-0.5175732374191284,0.09762108325958252,-0.004371321068808161,-0.08917494980368648,-0.03147351169541876
0.2656097412109375,0.1603240966796875,9.686141967773438,0.03500498831272125,-0.5175732374191284,0.09762856364250183,-0.07431245816973873,-0.018359548488994275,-0.03147351169541876
0.2656097412109375,0.1603240966796875,9.686141967773438,0.03500498831272125,-0.5175732374191284,0.09762856364250183,-0.07431245816973873,-0.018359548488994275,-0.03147351169541876
0.2775726318359375,0.169891357421875,9.707687377929688,0.0484142079949379,-0.5311935544013977,0.1112547218799591,-0.004371321068808161,-0.08917494980368648,-0.03147351169541876
0.2823486328125,0.1627044677734375,9.710067749023438,0.0484142079949379,-0.5311935544013977,0.1112547218799591,-0.07431245816973873,-0.08917494980368648,0.03934188961927344
0.275177001953125,0.1794586181640625,9.731613159179688,0.03468630835413933,-0.5175732374191284,0.09763853251934052,-0.07431245816973873,-0.018359548488994275,0.03934188961927344
0.2608184814453125,0.1722869873046875,9.686141967773438,0.034471284598112106,-0.5175732374191284,0.07039701193571091,-0.07431245816973873,-0.018359548488994275,0.10840876250644238
0.2608184814453125,0.1794586181640625,9.698104858398438,0.03435993567109108,-0.5175732374191284,0.07039617747068405,-0.004371321068808161,-0.08917494980368648,0.10840876250644238
0.2703857421875,0.1746826171875,9.714859008789062,0.047976259142160416,-0.5175732374191284,0.09764019399881363,-0.004371321068808161,-0.08917494980368648,0.03934188961927344
0.2847442626953125,0.1746826171875,9.717254638671875,0.04798028618097305,-0.5175732374191284,0.09764019399881363,0.0655698160321224,-0.018359548488994275,0.03934188961927344
0.253631591796875,0.17706298828125,9.683746337890625,0.03425230830907822,-0.5175732374191284,0.08402816206216812,-0.004371321068808161,-0.018359548488994275,0.10840876250644238
0.2823486328125,0.1674957275390625,9.683746337890625,0.034037359058856964,-0.5175732374191284,0.09765433520078659,-0.07431245816973873,-0.018359548488994275,-0.03147351169541876
0.2799530029296875,0.1507415771484375,9.717254638671875,0.03382235765457153,-0.5175732374191284,0.11127384752035141,-0.004371321068808161,-0.08917494980368648,0.10840876250644238
0.2847442626953125,0.1603240966796875,9.71246337890625,0.03381841257214546,-0.5175732374191284,0.11127384752035141,-0.004371321068808161,-0.018359548488994275,0.03934188961927344
0.2679901123046875,0.169891357421875,9.705291748046875,0.033706989139318466,-0.5039528608322144,0.08403647691011429,0.0655698160321224,-0.018359548488994275,-0.03147351169541876
0.2895355224609375,0.1603240966796875,9.693328857421875,0.03359946236014366,-0.5175732374191284,0.08403980731964111,-0.004371321068808161,-0.08917494980368648,0.03934188961927344
0.2823486328125,0.15313720703125,9.690933227539062,0.03359946236014366,-0.5175732374191284,0.08403980731964111,-0.07431245816973873,-0.018359548488994275,0.03934188961927344
0.2895355224609375,0.1722869873046875,9.714859008789062,0.03338056430220604,-0.5175732374191284,0.09766347706317902,-0.004371321068808161,-0.018359548488994275,-0.03147351169541876
0.275177001953125,0.15313720703125,9.707687377929688,0.03338056430220604,-0.5175732374191284,0.09766347706317902,-0.004371321068808161,-0.15911608690461704,0.10840876250644238
0.2584228515625,0.17706298828125,9.698104858398438,0.06040623411536217,-0.5175732374191284,0.11128631979227066,-0.07431245816973873,-0.08917494980368648,0.10840876250644238
0.2560272216796875,0.1722869873046875,9.683746337890625,0.04677017033100128,-0.5175732374191284,0.0976618155837059,0.0655698160321224,-0.08917494980368648,0.03934188961927344
0.275177001953125,0.15313720703125,9.705291748046875,0.060175467282533646,-0.5175732374191284,0.11129296571016312,-0.07431245816973873,-0.018359548488994275,0.03934188961927344
0.275177001953125,0.1627044677734375,9.702896118164062,0.06006401404738426,-0.5175732374191284,0.11129629611968994,-0.004371321068808161,0.050707324398174665,-0.03147351169541876
0.2775726318359375,0.1627044677734375,9.695724487304688,0.018987998366355896,-0.5039528608322144,0.111302949488163,-0.004371321068808161,-0.08917494980368648,0.10840876250644238
0.2775726318359375,0.1746826171875,9.693328857421875,0.04611716791987419,-0.5175732374191284,0.09768591821193695,-0.004371321068808161,-0.08917494980368648,0.10840876250644238
0.287139892578125,0.1507415771484375,9.70050048828125,0.046220820397138596,-0.5175732374191284,0.09768260270357132,-0.07431245816973873,-0.15911608690461704,0.03934188961927344
0.2560272216796875,0.16510009765625,9.686141967773438,0.032708000391721725,-0.5311935544013977,0.09767511487007141,-0.07431245816973873,-0.08917494980368648,-0.10141464879634933
0.2656097412109375,0.1746826171875,9.690933227539062,0.03325729817152023,-0.5039528608322144,0.09765433520078659,-0.004371321068808161,-0.08917494980368648,-0.03147351169541876
0.2679901123046875,0.1507415771484375,9.705291748046875,0.033464424312114716,-0.5039528608322144,0.09764767438173294,-0.07431245816973873,-0.08917494980368648,-0.10141464879634933
0.2679901123046875,0.1507415771484375,9.705291748046875,0.033464424312114716,-0.5039528608322144,0.09764767438173294,-0.07431245816973873,-0.08917494980368648,-0.10141464879634933
0.2679901123046875,0.1722869873046875,9.68853759765625,0.04741519317030907,-0.5175732374191284,0.11125389486551285,-0.004371321068808161,-0.018359548488994275,0.03934188961927344
0.2608184814453125,0.1674957275390625,9.698104858398438,0.06103554368019104,-0.5039528608322144,0.09763355553150177,-0.004371321068808161,-0.08917494980368648,-0.10141464879634933
0.251251220703125,0.1746826171875,9.71246337890625,0.06114698946475983,-0.5039528608322144,0.0976310521364212,-0.07431245816973873,-0.08917494980368648,-0.03147351169541876
0.275177001953125,0.1627044677734375,9.707687377929688,0.04774171859025955,-0.5175732374191284,0.09762025624513626,-0.004371321068808161,0.050707324398174665,0.03934188961927344
0.2847442626953125,0.1627044677734375,9.698104858398438,0.034121375530958176,-0.5039528608322144,0.09762025624513626,-0.07431245816973873,-0.018359548488994275,0.03934188961927344
0.251251220703125,0.1794586181640625,9.686141967773438,0.04774171859025955,-0.5175732374191284,0.11124059557914734,0.0655698160321224,-0.08917494980368648,0.03934188961927344
0.2584228515625,0.181854248046875,9.70050048828125,0.0480642206966877,-0.5175732374191284,0.11123394221067429,-0.004371321068808161,-0.018359548488994275,0.03934188961927344
0.2608184814453125,0.1722869873046875,9.690933227539062,0.04816785454750061,-0.5311935544013977,0.11123145371675491,-0.004371321068808161,0.050707324398174665,-0.03147351169541876
0.2823486328125,0.1722869873046875,9.698104858398438,0.04816785454750061,-0.5311935544013977,0.11123145371675491,-0.004371321068808161,-0.018359548488994275,0.03934188961927344
0.29193115234375,0.169891357421875,9.698104858398438,0.04816785454750061,-0.5175732374191284,0.08399076014757156,-0.004371321068808161,-0.08917494980368648,-0.03147351169541876
0.2775726318359375,0.1555328369140625,9.698104858398438,0.021142104640603065,-0.5311935544013977,0.08398327231407166,-0.004371321068808161,-0.018359548488994275,0.03934188961927344
0.2464599609375,0.1722869873046875,9.690933227539062,0.021142104640603065,-0.5311935544013977,0.08398327231407166,-0.004371321068808161,-0.018359548488994275,0.03934188961927344
0.2775726318359375,0.1722869873046875,9.705291748046875,0.03476244956254959,-0.5175732374191284,0.1112239733338356,0.0655698160321224,-0.018359548488994275,0.03934188961927344
0.2775726318359375,0.16510009765625,9.686141967773438,0.03476244956254959,-0.5175732374191284,0.09760361909866333,-0.07431245816973873,-0.018359548488994275,0.03934188961927344
0.2775726318359375,0.1483612060546875,9.710067749023438,0.03476244956254959,-0.5175732374191284,0.08397912234067917,-0.07431245816973873,0.050707324398174665,-0.03147351169541876
0.2584228515625,0.1722869873046875,9.705291748046875,0.03477035090327263,-0.5039528608322144,0.09759531170129776,-0.07431245816973873,-0.08917494980368648,0.03934188961927344
0.2703857421875,0.1722869873046875,9.705291748046875,0.04849819466471672,-0.5175732374191284,0.09758783131837845,-0.004371321068808161,-0.08917494980368648,-0.03147351169541876
0.2775726318359375,0.1555328369140625,9.70050048828125,0.04860564321279526,-0.5175732374191284,0.09758532792329788,-0.004371321068808161,-0.08917494980368648,0.03934188961927344
0.2703857421875,0.1674957275390625,9.683746337890625,0.035092826932668686,-0.5039528608322144,0.0975811779499054,-0.004371321068808161,-0.018359548488994275,0.03934188961927344
0.263214111328125,0.1674957275390625,9.667007446289062,0.04871316999197006,-0.5175732374191284,0.0975811779499054,-0.07431245816973873,-0.018359548488994275,-0.03147351169541876
0.2464599609375,0.16510009765625,9.717254638671875,0.04871316999197006,-0.5175732374191284,0.0975811779499054,-0.07431245816973873,0.12152272571286686,-0.03147351169541876
0.2727813720703125,0.1674957275390625,9.7220458984375,0.0622299388051033,-0.5175732374191284,0.12481854856014252,-0.07431245816973873,-0.018359548488994275,-0.03147351169541876
0.275177001953125,0.1746826171875,9.705291748046875,0.048609595745801926,-0.5175732374191284,0.11119403690099716,-0.004371321068808161,-0.018359548488994275,-0.03147351169541876
0.2608184814453125,0.1746826171875,9.678970336914062,0.048609595745801926,-0.5175732374191284,0.11119403690099716,-0.004371321068808161,-0.018359548488994275,-0.10141464879634933
0.2656097412109375,0.169891357421875,9.686141967773438,0.04861362278461456,-0.5175732374191284,0.11119403690099716,-0.004371321068808161,-0.08917494980368648,-0.03147351169541876
0.2703857421875,0.157928466796875,9.702896118164062,0.04871712252497673,-0.5175732374191284,0.11118988692760468,-0.004371321068808161,-0.08917494980368648,0.03934188961927344
0.2823486328125,0.169891357421875,9.702896118164062,0.04871712252497673,-0.5175732374191284,0.11118988692760468,0.0655698160321224,-0.08917494980368648,-0.03147351169541876
0.263214111328125,0.1674957275390625,9.674179077148438,0.035419221967458725,-0.5039528608322144,0.1111799106001854,-0.004371321068808161,0.050707324398174665,-0.03147351169541876
0.2799530029296875,0.1627044677734375,9.714859008789062,0.0490395687520504,-0.5039528608322144,0.1111799106001854,0.0655698160321224,-0.018359548488994275,0.10840876250644238
0.2488555908203125,0.1794586181640625,9.681365966796875,0.0490356981754303,-0.5039528608322144,0.11118406802415848,-0.07431245816973873,-0.08917494980368648,0.03934188961927344
0.2679901123046875,0.1555328369140625,9.70050048828125,0.04903169721364975,-0.5175732374191284,0.1111799106001854,-0.07431245816973873,-0.08917494980368648,0.10840876250644238
0.2727813720703125,0.1722869873046875,9.68853759765625,0.049139197915792465,-0.5175732374191284,0.11117325723171234,-0.07431245816973873,-0.15911608690461704,0.03934188961927344
0.2584228515625,0.157928466796875,9.698104858398438,0.049354299902915955,-0.5175732374191284,0.11116660386323929,-0.004371321068808161,-0.08917494980368648,-0.03147351169541876
0.263214111328125,0.1722869873046875,9.693328857421875,0.049573224037885666,-0.5175732374191284,0.11115912348031998,-0.07431245816973873,-0.08917494980368648,-0.10141464879634933
0.253631591796875,0.1794586181640625,9.72442626953125,0.06330107152462006,-0.544813871383667,0.1111566349864006,-0.004371321068808161,0.050707324398174665,-0.03147351169541876
0.263214111328125,0.1722869873046875,9.710067749023438,0.04968072474002838,-0.5175732374191284,0.09753628820180893,0.0655698160321224,-0.018359548488994275,0.03934188961927344
0.263214111328125,0.1674957275390625,9.683746337890625,0.04967677220702171,-0.5039528608322144,0.09753961861133575,-0.004371321068808161,-0.08917494980368648,0.10840876250644238
0.263214111328125,0.1722869873046875,9.693328857421875,0.04977640509605408,-0.5175732374191284,0.1111566349864006,-0.07431245816973873,-0.018359548488994275,0.03934188961927344
0.2847442626953125,0.157928466796875,9.70050048828125,0.04988393187522888,-0.5175732374191284,0.11115330457687378,-0.07431245816973873,-0.018359548488994275,0.03934188961927344
0.2679901123046875,0.1722869873046875,9.705291748046875,0.03626350685954094,-0.5039528608322144,0.11114499717950821,-0.07431245816973873,-0.08917494980368648,-0.03147351169541876
0.2799530029296875,0.1507415771484375,9.705291748046875,0.04999138042330742,-0.5175732374191284,0.12475453317165375,-0.004371321068808161,0.050707324398174665,-0.03147351169541876
0.2727813720703125,0.1674957275390625,9.690933227539062,0.04999148100614548,-0.5175732374191284,0.12475453317165375,-0.004371321068808161,-0.018359548488994275,-0.03147351169541876
0.2823486328125,0.16510009765625,9.698104858398438,0.0363711342215538,-0.5039528608322144,0.097513847053051,-0.004371321068808161,-0.018359548488994275,0.03934188961927344
0.2656097412109375,0.1794586181640625,9.702896118164062,0.022750787436962128,-0.4903324842453003,0.097513847053051,-0.004371321068808161,-0.08917494980368648,-0.03147351169541876
0.2703857421875,0.1842498779296875,9.726821899414062,0.022858181968331337,-0.4903324842453003,0.09751051664352417,-0.004371321068808161,-0.08917494980368648,-0.03147351169541876
0.263214111328125,0.169891357421875,9.7220458984375,0.050313953310251236,-0.5175732374191284,0.08388268947601318,-0.004371321068808161,0.050707324398174665,-0.03147351169541876
0.2679901123046875,0.1627044677734375,9.70050048828125,0.050313953310251236,-0.5175732374191284,0.08387935906648636,-0.004371321068808161,-0.018359548488994275,-0.03147351169541876
0.275177001953125,0.1387786865234375,9.698104858398438,0.050313953310251236,-0.5175732374191284,0.08387935906648636,0.1363852173468146,-0.018359548488994275,0.10840876250644238
0.275177001953125,0.1674957275390625,9.714859008789062,0.050310008227825165,-0.5039528608322144,0.1247478798031807,0.0655698160321224,-0.15911608690461704,-0.03147351169541876
0.287139892578125,0.1603240966796875,9.710067749023438,0.05063256248831749,-0.5311935544013977,0.09750137478113174,-0.07431245816973873,-0.018359548488994275,-0.03147351169541876
0.2560272216796875,0.169891357421875,9.674179077148438,0.05063256248831749,-0.5311935544013977,0.09749720990657806,-0.07431245816973873,-0.08917494980368648,0.03934188961927344
0.2584228515625,0.15313720703125,9.719650268554688,0.03700818493962288,-0.5175732374191284,0.09749305248260498,-0.07431245816973873,-0.018359548488994275,0.10840876250644238
0.2943115234375,0.1627044677734375,9.695724487304688,0.050620608031749725,-0.5039528608322144,0.09749305248260498,-0.004371321068808161,-0.018359548488994275,0.03934188961927344
0.2943115234375,0.1555328369140625,9.702896118164062,0.050620608031749725,-0.5039528608322144,0.09749305248260498,0.1363852173468146,-0.018359548488994275,0.03934188961927344
0.2703857421875,0.1746826171875,9.690933227539062,0.03700036555528641,-0.5175732374191284,0.09749720990657806,-0.004371321068808161,0.050707324398174665,-0.03147351169541876
0.275177001953125,0.1674957275390625,9.702896118164062,0.03700036555528641,-0.5175732374191284,0.09749720990657806,0.0655698160321224,0.050707324398174665,-0.03147351169541876
0.2679901123046875,0.1674957275390625,9.67657470703125,0.03700036555528641,-0.5175732374191284,0.09750137478113174,-0.004371321068808161,-0.08917494980368648,-0.10141464879634933
0.275177001953125,0.16510009765625,9.698104858398438,0.05073205754160881,-0.5175732374191284,0.11111423373222351,-0.07431245816973873,-0.08917494980368648,-0.03147351169541876
0.2703857421875,0.169891357421875,9.70050048828125,0.050839610397815704,-0.5039528608322144,0.09749056398868561,-0.004371321068808161,-0.08917494980368648,0.03934188961927344
0.2608184814453125,0.1722869873046875,9.686141967773438,0.0509471632540226,-0.5039528608322144,0.09748724102973938,-0.004371321068808161,-0.08917494980368648,0.10840876250644238
0.275177001953125,0.1603240966796875,9.686141967773438,0.06456353515386581,-0.5175732374191284,0.09748724102973938,-0.004371321068808161,0.050707324398174665,-0.03147351169541876
0.2608184814453125,0.1842498779296875,9.693328857421875,0.03732681646943092,-0.5175732374191284,0.11110758036375046,0.0655698160321224,-0.08917494980368648,0.03934188961927344
0.2488555908203125,0.181854248046875,9.690933227539062,0.03743434324860573,-0.5175732374191284,0.11110343039035797,-0.07431245816973873,-0.08917494980368648,-0.03147351169541876
0.2703857421875,0.169891357421875,9.707687377929688,0.0648900642991066,-0.5311935544013977,0.11109345406293869,-0.004371321068808161,-0.08917494980368648,-0.03147351169541876
0.2799530029296875,0.1627044677734375,9.710067749023438,0.05148466303944588,-0.5175732374191284,0.09746646136045456,-0.004371321068808161,-0.08917494980368648,-0.03147351169541876
0.2703857421875,0.157928466796875,9.690933227539062,0.05159218981862068,-0.5175732374191284,0.09746229648590088,-0.004371321068808161,-0.08917494980368648,0.03934188961927344
0.2703857421875,0.157928466796875,9.690933227539062,0.05159218981862068,-0.5175732374191284,0.09746229648590088,-0.004371321068808161,-0.08917494980368648,0.03934188961927344
0.2608184814453125,0.1866455078125,9.698104858398438,0.0655350387096405,-0.5039528608322144,0.0974523201584816,0.1363852173468146,-0.018359548488994275,0.03934188961927344
0.2584228515625,0.1842498779296875,9.695724487304688,0.05191468819975853,-0.5175732374191284,0.09745647758245468,-0.07431245816973873,-0.018359548488994275,-0.03147351169541876
0.2608184814453125,0.1674957275390625,9.695724487304688,0.038290392607450485,-0.5175732374191284,0.11107350140810013,-0.004371321068808161,-0.08917494980368648,-0.03147351169541876
0.2799530029296875,0.157928466796875,9.70050048828125,0.052018292248249054,-0.5175732374191284,0.11106933653354645,-0.004371321068808161,-0.08917494980368648,-0.10141464879634933
0.2727813720703125,0.1555328369140625,9.686141967773438,0.052022241055965424,-0.5175732374191284,0.11106933653354645,-0.004371321068808161,-0.15911608690461704,0.03934188961927344
0.263214111328125,0.1746826171875,9.70050048828125,0.06585756689310074,-0.5175732374191284,0.11106269806623459,-0.004371321068808161,-0.08917494980368648,-0.03147351169541876
0.2847442626953125,0.1674957275390625,9.707687377929688,0.06585756689310074,-0.5175732374191284,0.11106269806623459,-0.1442535952706693,0.050707324398174665,0.03934188961927344
0.2679901123046875,0.1603240966796875,9.690933227539062,0.03872436657547951,-0.5175732374191284,0.097434863448143,-0.004371321068808161,-0.018359548488994275,-0.03147351169541876
0.2560272216796875,0.1866455078125,9.686141967773438,0.03872436657547951,-0.5175732374191284,0.097434863448143,-0.004371321068808161,-0.08917494980368648,0.10840876250644238
0.2847442626953125,0.169891357421875,9.705291748046875,0.05255582183599472,-0.5175732374191284,0.11104856431484222,-0.004371321068808161,-0.018359548488994275,-0.1713557858972799
0.2727813720703125,0.1603240966796875,9.710067749023438,0.038943395018577576,-0.5175732374191284,0.09742821753025055,-0.004371321068808161,-0.018359548488994275,0.03934188961927344
0.2656097412109375,0.1507415771484375,9.690933227539062,0.038943395018577576,-0.5039528608322144,0.09742406010627747,0.0655698160321224,-0.08917494980368648,-0.03147351169541876
0.2799530029296875,0.16510009765625,9.70050048828125,0.052671242505311966,-0.5039528608322144,0.09742406010627747,-0.004371321068808161,-0.08917494980368648,-0.03147351169541876
0.2703857421875,0.1722869873046875,9.686141967773438,0.03915834426879883,-0.5175732374191284,0.0974215641617775,-0.07431245816973873,-0.08917494980368648,0.03934188961927344
0.2703857421875,0.14117431640625,9.690933227539062,0.039373449981212616,-0.5175732374191284,0.09741408377885818,-0.07431245816973873,-0.018359548488994275,-0.03147351169541876
0.2823486328125,0.1842498779296875,9.710067749023438,0.05310121551156044,-0.4903324842453003,0.11102279275655746,-0.004371321068808161,-0.018359548488994275,-0.03147351169541876
0.2799530029296875,0.169891357421875,9.68853759765625,0.03948492184281349,-0.5175732374191284,0.09740244597196579,-0.004371321068808161,-0.018359548488994275,0.03934188961927344
0.2584228515625,0.1555328369140625,9.669403076171875,0.03948492184281349,-0.5175732374191284,0.09740244597196579,0.0655698160321224,-0.08917494980368648,0.03934188961927344
0.275177001953125,0.1627044677734375,9.690933227539062,0.039699871093034744,-0.5175732374191284,0.11101697385311127,-0.07431245816973873,-0.08917494980368648,-0.03147351169541876
0.2584228515625,0.16510009765625,9.710067749023438,0.039914947003126144,-0.5039528608322144,0.11100949347019196,-0.07431245816973873,-0.15911608690461704,-0.03147351169541876
0.2560272216796875,0.1794586181640625,9.68853759765625,0.040129922330379486,-0.5039528608322144,0.11099868267774582,-0.004371321068808161,-0.018359548488994275,-0.03147351169541876
0.263214111328125,0.1794586181640625,9.695724487304688,0.05375027284026146,-0.5175732374191284,0.09737085551023483,-0.004371321068808161,-0.08917494980368648,-0.03147351169541876
0.2584228515625,0.181854248046875,9.683746337890625,0.0538577176630497,-0.5311935544013977,0.1109837219119072,-0.004371321068808161,-0.08917494980368648,-0.03147351169541876
0.2727813720703125,0.157928466796875,9.702896118164062,0.0538577176630497,-0.5311935544013977,0.1109837219119072,-0.004371321068808161,-0.08917494980368648,-0.10141464879634933
0.2727813720703125,0.1794586181640625,9.719650268554688,0.040345001965761185,-0.5175732374191284,0.11097624152898788,-0.004371321068808161,-0.08917494980368648,-0.03147351169541876
0.2703857421875,0.169891357421875,9.717254638671875,0.05397316440939903,-0.5175732374191284,0.08373554050922394,-0.07431245816973873,0.050707324398174665,0.10840876250644238
0.2727813720703125,0.1722869873046875,9.693328857421875,0.053865693509578705,-0.5175732374191284,0.08373470604419708,-0.07431245816973873,0.050707324398174665,-0.03147351169541876
0.287139892578125,0.1603240966796875,9.702896118164062,0.053646717220544815,-0.5175732374191284,0.11098288744688034,-0.004371321068808161,-0.018359548488994275,-0.03147351169541876
0.2775726318359375,0.1674957275390625,9.698104858398438,0.05353919044137001,-0.5039528608322144,0.09736502915620804,-0.004371321068808161,-0.018359548488994275,0.03934188961927344
0.2488555908203125,0.16510009765625,9.707687377929688,0.053431689739227295,-0.5039528608322144,0.09736919403076172,-0.004371321068808161,0.050707324398174665,-0.03147351169541876
0.263214111328125,0.1722869873046875,9.695724487304688,0.05321671813726425,-0.5175732374191284,0.09737583994865417,0.0655698160321224,-0.018359548488994275,0.03934188961927344
0.2656097412109375,0.1722869873046875,9.690933227539062,0.05300166830420494,-0.5175732374191284,0.1110028401017189,-0.004371321068808161,-0.018359548488994275,-0.03147351169541876
0.2584228515625,0.1722869873046875,9.678970336914062,0.052894141525030136,-0.5175732374191284,0.11100699007511139,-0.1442535952706693,-0.018359548488994275,-0.03147351169541876
0.2344970703125,0.1722869873046875,9.686141967773438,0.06629940867424011,-0.5175732374191284,0.11100533604621887,-0.07431245816973873,-0.018359548488994275,-0.03147351169541876
0.2608184814453125,0.169891357421875,9.695724487304688,0.07981233298778534,-0.5175732374191284,0.1110086515545845,-0.004371321068808161,0.050707324398174665,0.03934188961927344
0.2823486328125,0.169891357421875,9.695724487304688,0.05257163941860199,-0.5175732374191284,0.1110086515545845,-0.07431245816973873,-0.15911608690461704,0.03934188961927344
0.2488555908203125,0.17706298828125,9.681365966796875,0.05278666689991951,-0.5175732374191284,0.11100201308727264,-0.07431245816973873,-0.08917494980368648,0.03934188961927344
0.2560272216796875,0.17706298828125,9.678970336914062,0.06662195920944214,-0.5175732374191284,0.11099535971879959,-0.07431245816973873,-0.08917494980368648,-0.03147351169541876
0.2727813720703125,0.1603240966796875,9.707687377929688,0.06672951579093933,-0.5175732374191284,0.11099202930927277,-0.004371321068808161,-0.08917494980368648,-0.03147351169541876
0.2727813720703125,0.1603240966796875,9.702896118164062,0.06683704257011414,-0.5175732374191284,0.12460489571094513,-0.004371321068808161,-0.08917494980368648,-0.03147351169541876
0.2799530029296875,0.169891357421875,9.710067749023438,0.053113117814064026,-0.5039528608322144,0.09736669063568115,-0.004371321068808161,-0.018359548488994275,-0.03147351169541876
0.263214111328125,0.1603240966796875,9.698104858398438,0.053005561232566833,-0.5039528608322144,0.09737085551023483,-0.004371321068808161,-0.08917494980368648,0.03934188961927344
0.2679901123046875,0.1627044677734375,9.693328857421875,0.0392778180539608,-0.5175732374191284,0.09737501293420792,-0.07431245816973873,-0.08917494980368648,0.03934188961927344
0.2895355224609375,0.16510009765625,9.698104858398438,0.05279061570763588,-0.5039528608322144,0.11099369078874588,-0.07431245816973873,-0.018359548488994275,-0.03147351169541876
0.2679901123046875,0.15313720703125,9.705291748046875,0.05279061570763588,-0.5039528608322144,0.11099369078874588,-0.004371321068808161,-0.018359548488994275,0.03934188961927344
0.2775726318359375,0.169891357421875,9.690933227539062,0.052683088928461075,-0.5175732374191284,0.11099369078874588,0.0655698160321224,-0.08917494980368648,0.03934188961927344
0.29193115234375,0.1507415771484375,9.702896118164062,0.0390627421438694,-0.5175732374191284,0.11099784821271896,0.0655698160321224,-0.018359548488994275,0.03934188961927344
0.2560272216796875,0.1627044677734375,9.693328857421875,0.038955215364694595,-0.5175732374191284,0.11100117117166519,0.0655698160321224,-0.018359548488994275,-0.03147351169541876
0.2775726318359375,0.16510009765625,9.693328857421875,0.06619598716497421,-0.5311935544013977,0.12462901324033737,-0.07431245816973873,-0.018359548488994275,-0.03147351169541876
0.2727813720703125,0.1627044677734375,9.702896118164062,0.02533486671745777,-0.5039528608322144,0.11100450158119202,-0.004371321068808161,-0.08917494980368648,0.03934188961927344
0.2679901123046875,0.1746826171875,9.695724487304688,0.02533486671745777,-0.5039528608322144,0.11100450158119202,-0.07431245816973873,-0.08917494980368648,0.03934188961927344
0.275177001953125,0.1722869873046875,9.693328857421875,0.05257556214928627,-0.5175732374191284,0.11100117117166519,-0.004371321068808161,-0.08917494980368648,-0.03147351169541876
0.2823486328125,0.16510009765625,9.707687377929688,0.05246813967823982,-0.5039528608322144,0.09738415479660034,-0.07431245816973873,-0.018359548488994275,0.03934188961927344
0.2584228515625,0.1722869873046875,9.690933227539062,0.052468009293079376,-0.5039528608322144,0.09738083183765411,-0.004371321068808161,-0.018359548488994275,-0.03147351169541876
0.2895355224609375,0.16510009765625,9.693328857421875,0.05236061289906502,-0.5175732374191284,0.0973791629076004,0.0655698160321224,-0.08917494980368648,-0.03147351169541876
0.29193115234375,0.169891357421875,9.70050048828125,0.025012368336319923,-0.5175732374191284,0.1110028401017189,-0.004371321068808161,-0.018359548488994275,-0.03147351169541876
0.2727813720703125,0.16510009765625,9.695724487304688,0.03852519020438194,-0.4903324842453003,0.09738664329051971,0.0655698160321224,-0.08917494980368648,0.03934188961927344
0.253631591796875,0.16510009765625,9.695724487304688,0.06576588749885559,-0.5311935544013977,0.12463065981864929,0.0655698160321224,-0.018359548488994275,-0.03147351169541876
0.2703857421875,0.17706298828125,9.707687377929688,0.05214553326368332,-0.5175732374191284,0.11101863533258438,0.0655698160321224,0.050707324398174665,0.10840876250644238
0.251251220703125,0.1842498779296875,9.681365966796875,0.05214156210422516,-0.5175732374191284,0.11102279275655746,-0.004371321068808161,-0.08917494980368648,0.03934188961927344
0.263214111328125,0.1627044677734375,9.70050048828125,0.05213761329650879,-0.5311935544013977,0.09740244597196579,0.0655698160321224,-0.018359548488994275,-0.03147351169541876
0.2679901123046875,0.1435699462890625,9.702896118164062,0.03862481564283371,-0.5039528608322144,0.0973982885479927,-0.004371321068808161,-0.018359548488994275,-0.03147351169541876
0.2656097412109375,0.1842498779296875,9.693328857421875,0.03862481564283371,-0.5039528608322144,0.0973982885479927,-0.004371321068808161,-0.15911608690461704,-0.03147351169541876
0.251251220703125,0.1746826171875,9.695724487304688,0.03883984312415123,-0.5175732374191284,0.08377128839492798,-0.004371321068808161,-0.08917494980368648,-0.03147351169541876
0.251251220703125,0.1794586181640625,9.70050048828125,0.05256771668791771,-0.5175732374191284,0.09738831222057343,-0.004371321068808161,-0.08917494980368648,-0.03147351169541876
0.2608184814453125,0.1722869873046875,9.693328857421875,0.05256771668791771,-0.5175732374191284,0.09738831222057343,-0.004371321068808161,-0.08917494980368648,-0.03147351169541876
0.2703857421875,0.16510009765625,9.705291748046875,0.05278266221284866,-0.5039528608322144,0.11100201308727264,-0.07431245816973873,-0.08917494980368648,-0.03147351169541876
0.2608184814453125,0.169891357421875,9.695724487304688,0.05299771577119827,-0.5175732374191284,0.09737085551023483,-0.07431245816973873,-0.018359548488994275,0.03934188961927344
0.2703857421875,0.1746826171875,9.702896118164062,0.05299771577119827,-0.5175732374191284,0.09737085551023483,-0.07431245816973873,-0.018359548488994275,-0.03147351169541876
0.263214111328125,0.1842498779296875,9.702896118164062,0.05299771577119827,-0.5175732374191284,0.11098705232143402,-0.004371321068808161,-0.018359548488994275,0.03934188961927344
0.2584228515625,0.181854248046875,9.698104858398438,0.05299771577119827,-0.5311935544013977,0.11098705232143402,-0.004371321068808161,-0.08917494980368648,0.10840876250644238
0.2775726318359375,0.15313720703125,9.690933227539062,0.05310126766562462,-0.5311935544013977,0.1109837219119072,-0.07431245816973873,-0.08917494980368648,-0.03147351169541876
0.2560272216796875,0.1627044677734375,9.68853759765625,0.0529937706887722,-0.5175732374191284,0.11098288744688034,-0.1442535952706693,-0.018359548488994275,0.10840876250644238
0.263214111328125,0.16510009765625,9.71246337890625,0.06638716906309128,-0.5175732374191284,0.11098206043243408,-0.004371321068808161,-0.018359548488994275,-0.03147351169541876
0.2656097412109375,0.1507415771484375,9.70050048828125,0.06627966463565826,-0.5175732374191284,0.11098538339138031,0.0655698160321224,0.050707324398174665,0.03934188961927344
0.2608184814453125,0.169891357421875,9.683746337890625,0.05265931412577629,-0.5039528608322144,0.11099369078874588,0.0655698160321224,0.050707324398174665,-0.10141464879634933
0.2560272216796875,0.1603240966796875,9.698104858398438,0.05266726762056351,-0.5175732374191284,0.11099369078874588,-0.004371321068808161,-0.018359548488994275,0.03934188961927344
0.2656097412109375,0.1674957275390625,9.710067749023438,0.06628761440515518,-0.5175732374191284,0.12461403757333755,-0.004371321068808161,-0.018359548488994275,-0.03147351169541876
0.275177001953125,0.1674957275390625,9.698104858398438,0.03915439546108246,-0.5039528608322144,0.09737002104520798,-0.004371321068808161,-0.08917494980368648,-0.03147351169541876
0.29193115234375,0.16510009765625,9.690933227539062,0.039476919919252396,-0.5175732374191284,0.11097955703735352,-0.07431245816973873,-0.08917494980368648,0.03934188961927344
0.2679901123046875,0.1674957275390625,9.678970336914062,0.039476919919252396,-0.5175732374191284,0.11097955703735352,-0.004371321068808161,-0.018359548488994275,-0.03147351169541876
0.263214111328125,0.1722869873046875,9.70050048828125,0.05309727042913437,-0.5039528608322144,0.11097955703735352,-0.004371321068808161,-0.018359548488994275,0.03934188961927344
0.287139892578125,0.1603240966796875,9.702896118164062,0.05309727042913437,-0.5175732374191284,0.11097955703735352,-0.004371321068808161,0.050707324398174665,0.03934188961927344
0.2799530029296875,0.169891357421875,9.717254638671875,0.05309727042913437,-0.5175732374191284,0.11097955703735352,-0.004371321068808161,-0.08917494980368648,-0.03147351169541876
0.2679901123046875,0.1722869873046875,9.686141967773438,0.039687998592853546,-0.5175732374191284,0.09734924137592316,-0.004371321068808161,-0.08917494980368648,-0.03147351169541876
0.2608184814453125,0.169891357421875,9.68853759765625,0.06703624874353409,-0.5175732374191284,0.1382061243057251,-0.1442535952706693,-0.08917494980368648,0.03934188961927344
0.287139892578125,0.14117431640625,9.690933227539062,0.06703624874353409,-0.5175732374191284,0.1382061243057251,0.0655698160321224,-0.018359548488994275,0.10840876250644238
0.2799530029296875,0.17706298828125,9.695724487304688,0.0400066003203392,-0.5039528608322144,0.11095129698514938,-0.07431245816973873,-0.018359548488994275,0.03934188961927344
0.287139892578125,0.1603240966796875,9.686141967773438,0.053626950830221176,-0.5175732374191284,0.11095129698514938,-0.004371321068808161,-0.018359548488994275,-0.03147351169541876
0.2679901123046875,0.1842498779296875,9.695724487304688,0.053626950830221176,-0.5175732374191284,0.11095129698514938,-0.004371321068808161,0.050707324398174665,-0.03147351169541876
0.2560272216796875,0.17706298828125,9.698104858398438,0.0400066003203392,-0.5311935544013977,0.08371060341596603,0.0655698160321224,-0.08917494980368648,-0.03147351169541876
0.2584228515625,0.1746826171875,9.683746337890625,0.06735479831695557,-0.5175732374191284,0.11095213145017624,-0.004371321068808161,-0.018359548488994275,0.10840876250644238
0.2440643310546875,0.1746826171875,9.669403076171875,0.06735474616289139,-0.5175732374191284,0.11095213145017624,0.0655698160321224,-0.08917494980368648,-0.03147351169541876
0.2608184814453125,0.169891357421875,9.690933227539062,0.067569799721241,-0.5175732374191284,0.12456831336021423,0.0655698160321224,-0.018359548488994275,0.10840876250644238
0.2584228515625,0.1842498779296875,9.678970336914062,0.053945474326610565,-0.5175732374191284,0.1109529584646225,-0.07431245816973873,-0.018359548488994275,-0.03147351169541876
0.2823486328125,0.16510009765625,9.68853759765625,0.053945474326610565,-0.5175732374191284,0.11094880849123001,-0.004371321068808161,-0.018359548488994275,0.03934188961927344
0.275177001953125,0.169891357421875,9.695724487304688,0.05405302718281746,-0.5039528608322144,0.1109413281083107,-0.004371321068808161,-0.08917494980368648,-0.03147351169541876
0.275177001953125,0.1603240966796875,9.698104858398438,0.054160553961992264,-0.5039528608322144,0.0973176509141922,-0.004371321068808161,-0.08917494980368648,0.03934188961927344
0.2608184814453125,0.1746826171875,9.681365966796875,0.040647704154253006,-0.5039528608322144,0.12455501407384872,-0.07431245816973873,-0.08917494980368648,0.03934188961927344
0.2608184814453125,0.169891357421875,9.698104858398438,0.05447915568947792,-0.5175732374191284,0.11092303693294525,-0.004371321068808161,-0.08917494980368648,0.10840876250644238
0.253631591796875,0.1674957275390625,9.678970336914062,0.06831452995538712,-0.5175732374191284,0.11091222614049911,-0.07431245816973873,-0.08917494980368648,-0.03147351169541876
0.2679901123046875,0.16510009765625,9.705291748046875,0.06842203438282013,-0.5175732374191284,0.1109047457575798,-0.07431245816973873,-0.08917494980368648,-0.03147351169541876
0.299102783203125,0.16510009765625,9.710067749023438,0.0550166554749012,-0.5175732374191284,0.09727442264556885,-0.07431245816973873,-0.08917494980368648,-0.03147351169541876
0.2464599609375,0.1746826171875,9.678970336914062,0.06885213404893875,-0.5175732374191284,0.11088395863771439,-0.07431245816973873,-0.08917494980368648,-0.03147351169541876
0.2703857421875,0.157928466796875,9.698104858398438,0.06895952671766281,-0.5175732374191284,0.1108798012137413,-0.004371321068808161,-0.018359548488994275,-0.03147351169541876
0.2656097412109375,0.1603240966796875,9.683746337890625,0.055339183658361435,-0.5039528608322144,0.1108798012137413,-0.004371321068808161,-0.08917494980368648,-0.03147351169541876
0.2464599609375,0.145965576171875,9.707687377929688,0.06906708329916,-0.5311935544013977,0.11087647825479507,-0.07431245816973873,0.050707324398174665,-0.03147351169541876
0.2703857421875,0.169891357421875,9.690933227539062,0.06906708329916,-0.5311935544013977,0.11087647825479507,-0.07431245816973873,0.050707324398174665,0.03934188961927344
0.2823486328125,0.1627044677734375,9.705291748046875,0.04193391278386116,-0.5175732374191284,0.09724865108728409,-0.004371321068808161,-0.018359548488994275,0.03934188961927344
0.2847442626953125,0.1722869873046875,9.68853759765625,0.02852453850209713,-0.5175732374191284,0.09724199771881104,-0.004371321068808161,-0.08917494980368648,0.10840876250644238
0.251251220703125,0.17706298828125,9.683746337890625,0.028524616733193398,-0.5175732374191284,0.09724199771881104,-0.07431245816973873,-0.018359548488994275,0.03934188961927344
0.2775726318359375,0.1674957275390625,9.70050048828125,0.05576928332448006,-0.5175732374191284,0.11085402965545654,-0.004371321068808161,-0.08917494980368648,-0.03147351169541876
0.2847442626953125,0.1555328369140625,9.698104858398438,0.04215686395764351,-0.5039528608322144,0.09723369032144547,-0.004371321068808161,-0.018359548488994275,-0.10141464879634933
0.253631591796875,0.17706298828125,9.681365966796875,0.04215686395764351,-0.5039528608322144,0.09723369032144547,-0.004371321068808161,-0.08917494980368648,0.03934188961927344
0.2727813720703125,0.1794586181640625,9.710067749023438,0.05599226430058479,-0.5175732374191284,0.110843226313591,-0.07431245816973873,-0.08917494980368648,0.03934188961927344
0.2775726318359375,0.1603240966796875,9.690933227539062,0.05609981343150139,-0.5175732374191284,0.11083574593067169,-0.004371321068808161,-0.08917494980368648,0.10840876250644238
0.263214111328125,0.16510009765625,9.690933227539062,0.05609581246972084,-0.5175732374191284,0.11083574593067169,0.0655698160321224,-0.15911608690461704,0.10840876250644238
0.2584228515625,0.181854248046875,9.68853759765625,0.056199364364147186,-0.5175732374191284,0.11083574593067169,0.0655698160321224,-0.018359548488994275,-0.10141464879634933
0.2679901123046875,0.16510009765625,9.695724487304688,0.06961260735988617,-0.5175732374191284,0.09722287952899933,-0.004371321068808161,0.050707324398174665,-0.03147351169541876
0.2608184814453125,0.17706298828125,9.690933227539062,0.06961260735988617,-0.5175732374191284,0.09722287952899933,-0.004371321068808161,-0.018359548488994275,-0.03147351169541876
0.2488555908203125,0.16510009765625,9.681365966796875,0.06929000467061996,-0.5175732374191284,0.11085402965545654,-0.004371321068808161,-0.08917494980368648,-0.03147351169541876
0.287139892578125,0.1603240966796875,9.705291748046875,0.041941914707422256,-0.5039528608322144,0.0972370132803917,-0.004371321068808161,-0.018359548488994275,-0.03147351169541876
0.2560272216796875,0.1722869873046875,9.678970336914062,0.04183438792824745,-0.5039528608322144,0.09724032878875732,-0.07431245816973873,-0.08917494980368648,0.03934188961927344
0.275177001953125,0.157928466796875,9.707687377929688,0.05545470863580704,-0.5175732374191284,0.11085736006498337,-0.07431245816973873,-0.018359548488994275,0.10840876250644238
0.275177001953125,0.1555328369140625,9.686141967773438,0.055450763553380966,-0.5175732374191284,0.1108490377664566,-0.004371321068808161,-0.018359548488994275,0.03934188961927344
0.263214111328125,0.16510009765625,9.693328857421875,0.055450763553380966,-0.5175732374191284,0.1108490377664566,-0.004371321068808161,-0.018359548488994275,0.10840876250644238
0.2727813720703125,0.169891357421875,9.698104858398438,0.05566181242465973,-0.5039528608322144,0.11084155738353729,-0.004371321068808161,-0.08917494980368648,0.03934188961927344
0.275177001953125,0.1674957275390625,9.686141967773438,0.055554285645484924,-0.5175732374191284,0.11084155738353729,-0.004371321068808161,-0.08917494980368648,0.03934188961927344
0.275177001953125,0.1722869873046875,9.7220458984375,0.055554285645484924,-0.5175732374191284,0.11084155738353729,-0.07431245816973873,-0.08917494980368648,0.03934188961927344
0.2679901123046875,0.181854248046875,9.686141967773438,0.055554285645484924,-0.5311935544013977,0.09722121804952621,0.0655698160321224,-0.018359548488994275,0.03934188961927344
0.2656097412109375,0.169891357421875,9.678970336914062,0.05544673651456833,-0.5175732374191284,0.09722869843244553,-0.004371321068808161,-0.018359548488994275,-0.03147351169541876
0.251251220703125,0.1722869873046875,9.66461181640625,0.05533923581242561,-0.5175732374191284,0.09723202139139175,-0.004371321068808161,-0.08917494980368648,-0.03147351169541876
0.253631591796875,0.1746826171875,9.683746337890625,0.06885205209255219,-0.5175732374191284,0.12447603791952133,0.0655698160321224,-0.018359548488994275,0.03934188961927344
0.2823486328125,0.1483612060546875,9.698104858398438,0.04150386154651642,-0.5039528608322144,0.09723867475986481,-0.004371321068808161,-0.15911608690461704,0.03934188961927344
0.2679901123046875,0.16510009765625,9.698104858398438,0.0415039099752903,-0.5039528608322144,0.09723867475986481,-0.07431245816973873,-0.08917494980368648,-0.03147351169541876
0.2679901123046875,0.1603240966796875,9.695724487304688,0.055016759783029556,-0.5039528608322144,0.09724199771881104,-0.004371321068808161,0.050707324398174665,-0.03147351169541876
0.2799530029296875,0.1603240966796875,9.693328857421875,0.05490920692682266,-0.5039528608322144,0.11085736006498337,-0.004371321068808161,-0.08917494980368648,0.03934188961927344
0.2584228515625,0.169891357421875,9.702896118164062,0.05490920692682266,-0.5039528608322144,0.11085736006498337,-0.004371321068808161,-0.08917494980368648,-0.10141464879634933
0.2488555908203125,0.1674957275390625,9.695724487304688,0.0685335323214531,-0.5175732374191284,0.09723369032144547,-0.07431245816973873,-0.08917494980368648,-0.03147351169541876
0.2703857421875,0.1603240966796875,9.693328857421875,0.054801736027002335,-0.5039528608322144,0.11085320264101028,-0.004371321068808161,-0.018359548488994275,0.03934188961927344
0.2847442626953125,0.1603240966796875,9.686141967773438,0.04107383266091347,-0.5175732374191284,0.12447687983512878,-0.004371321068808161,-0.08917494980368648,0.03934188961927344
0.2823486328125,0.1722869873046875,9.705291748046875,0.04096630960702896,-0.5175732374191284,0.09724032878875732,-0.004371321068808161,-0.018359548488994275,-0.10141464879634933
0.2656097412109375,0.1603240966796875,9.667007446289062,0.04096630960702896,-0.5039528608322144,0.11086069047451019,-0.004371321068808161,-0.018359548488994275,-0.03147351169541876
0.263214111328125,0.1842498779296875,9.695724487304688,0.04096630960702896,-0.5039528608322144,0.11086069047451019,-0.004371321068808161,-0.08917494980368648,0.03934188961927344
0.275177001953125,0.1746826171875,9.686141967773438,0.04107383266091347,-0.5311935544013977,0.08361583203077316,-0.004371321068808161,-0.08917494980368648,-0.03147351169541876
0.275177001953125,0.1674957275390625,9.717254638671875,0.04118533432483673,-0.5175732374191284,0.09723284840583801,-0.004371321068808161,-0.08917494980368648,-0.10141464879634933
0.2727813720703125,0.1603240966796875,9.686141967773438,0.04118533432483673,-0.5175732374191284,0.09723284840583801,0.0655698160321224,-0.15911608690461704,0.10840876250644238
0.2847442626953125,0.14117431640625,9.693328857421875,0.05490923300385475,-0.5039528608322144,0.12447437644004822,-0.004371321068808161,-0.018359548488994275,-0.03147351169541876
0.2775726318359375,0.1627044677734375,9.70050048828125,0.05469426140189171,-0.5175732374191284,0.12448185682296753,-0.004371321068808161,-0.018359548488994275,-0.1713557858972799
0.2584228515625,0.1794586181640625,9.68853759765625,0.05469426140189171,-0.5175732374191284,0.12448185682296753,0.0655698160321224,0.050707324398174665,-0.10141464879634933
0.241668701171875,0.1674957275390625,9.669403076171875,0.06811142712831497,-0.5175732374191284,0.12448851019144058,-0.004371321068808161,-0.018359548488994275,0.03934188961927344
0.2679901123046875,0.169891357421875,9.68853759765625,0.04065575823187828,-0.5039528608322144,0.11087480932474136,-0.004371321068808161,-0.08917494980368648,0.10840876250644238
0.2775726318359375,0.1603240966796875,9.67657470703125,0.04065180942416191,-0.5039528608322144,0.11087480932474136,-0.07431245816973873,-0.08917494980368648,0.03934188961927344
0.263214111328125,0.157928466796875,9.659820556640625,0.054057080298662186,-0.5039528608322144,0.11087314784526825,-0.07431245816973873,-0.018359548488994275,-0.03147351169541876
0.2608184814453125,0.1794586181640625,9.68853759765625,0.054057080298662186,-0.5175732374191284,0.1244901791214943,-0.004371321068808161,-0.08917494980368648,0.03934188961927344
0.2584228515625,0.181854248046875,9.707687377929688,0.05405310541391373,-0.5175732374191284,0.12449350208044052,-0.004371321068808161,0.050707324398174665,-0.03147351169541876
0.2584228515625,0.1603240966796875,9.71246337890625,0.0676734521985054,-0.5311935544013977,0.11087314784526825,0.0655698160321224,0.050707324398174665,-0.03147351169541876
0.2584228515625,0.1603240966796875,9.667007446289062,0.05405310541391373,-0.5039528608322144,0.11087314784526825,0.0655698160321224,-0.018359548488994275,-0.03147351169541876
0.2584228515625,0.1674957275390625,9.686141967773438,0.05405310541391373,-0.5039528608322144,0.11087314784526825,-0.004371321068808161,-0.018359548488994275,0.03934188961927344
0.263214111328125,0.1674957275390625,9.695724487304688,0.05405310541391373,-0.5175732374191284,0.11087314784526825,-0.004371321068808161,-0.08917494980368648,-0.03147351169541876
0.253631591796875,0.1746826171875,9.68853759765625,0.05415667966008186,-0.5175732374191284,0.11086983233690262,-0.004371321068808161,-0.018359548488994275,0.03934188961927344
0.2703857421875,0.1507415771484375,9.698104858398438,0.05415667966008186,-0.5175732374191284,0.11086983233690262,-0.07431245816973873,-0.018359548488994275,-0.03147351169541876
0.2679901123046875,0.1722869873046875,9.695724487304688,0.05426407977938652,-0.5175732374191284,0.11086732894182205,-0.004371321068808161,-0.08917494980368648,-0.03147351169541876
0.2727813720703125,0.16510009765625,9.686141967773438,0.05426407977938652,-0.5175732374191284,0.11086732894182205,0.0655698160321224,-0.08917494980368648,0.03934188961927344
0.263214111328125,0.1722869873046875,9.690933227539062,0.05426418036222458,-0.5175732374191284,0.11086732894182205,-0.07431245816973873,-0.15911608690461704,-0.03147351169541876
0.29193115234375,0.1507415771484375,9.693328857421875,0.05447915568947792,-0.5175732374191284,0.12448019534349442,-0.07431245816973873,-0.018359548488994275,-0.03147351169541876
0.2584228515625,0.1722869873046875,9.695724487304688,0.05448313429951668,-0.5175732374191284,0.11085984855890274,-0.07431245816973873,-0.018359548488994275,0.03934188961927344
0.2703857421875,0.1627044677734375,9.67657470703125,0.05448313429951668,-0.5175732374191284,0.11085984855890274,-0.004371321068808161,-0.018359548488994275,0.03934188961927344
0.2656097412109375,0.1866455078125,9.693328857421875,0.05448313429951668,-0.5175732374191284,0.11085984855890274,0.0655698160321224,-0.15911608690461704,-0.03147351169541876
0.2464599609375,0.17706298828125,9.678970336914062,0.05448313429951668,-0.5175732374191284,0.11085984855890274,-0.004371321068808161,-0.08917494980368648,0.03934188961927344
0.253631591796875,0.1722869873046875,9.67657470703125,0.06842602789402008,-0.5311935544013977,0.11085320264101028,-0.004371321068808161,-0.08917494980368648,-0.03147351169541876
0.2703857421875,0.169891357421875,9.690933227539062,0.05512826144695282,-0.5175732374191284,0.11084737628698349,0.0655698160321224,-0.08917494980368648,-0.10141464879634933
0.2799530029296875,0.1555328369140625,9.678970336914062,0.05523962900042534,-0.5175732374191284,0.12446025013923645,-0.07431245816973873,-0.018359548488994275,-0.10141464879634933
0.253631591796875,0.16510009765625,9.67657470703125,0.05523962900042534,-0.5175732374191284,0.12446025013923645,-0.004371321068808161,0.050707324398174665,0.03934188961927344
0.2608184814453125,0.181854248046875,9.683746337890625,0.05523962900042534,-0.5311935544013977,0.12446025013923645,-0.07431245816973873,-0.15911608690461704,-0.03147351169541876
0.253631591796875,0.17706298828125,9.686141967773438,0.05523962900042534,-0.5311935544013977,0.12446025013923645,-0.004371321068808161,-0.018359548488994275,-0.10141464879634933
0.2679901123046875,0.1674957275390625,9.68853759765625,0.0553511306643486,-0.5175732374191284,0.12445692718029022,-0.07431245816973873,-0.08917494980368648,-0.10141464879634933
0.2727813720703125,0.169891357421875,9.690933227539062,0.05557018518447876,-0.5175732374191284,0.11082908511161804,-0.004371321068808161,-0.018359548488994275,0.10840876250644238
0.2727813720703125,0.169891357421875,9.690933227539062,0.05557018518447876,-0.5175732374191284,0.11082908511161804,-0.004371321068808161,-0.018359548488994275,0.10840876250644238
0.2679901123046875,0.1627044677734375,9.66461181640625,0.041945863515138626,-0.5039528608322144,0.12444944679737091,-0.004371321068808161,-0.018359548488994275,0.03934188961927344
0.2656097412109375,0.16510009765625,9.667007446289062,0.06918647885322571,-0.5175732374191284,0.12444611638784409,-0.004371321068808161,-0.018359548488994275,-0.03147351169541876
0.2679901123046875,0.15313720703125,9.695724487304688,0.06918647885322571,-0.5175732374191284,0.12444611638784409,-0.004371321068808161,-0.08917494980368648,0.03934188961927344
0.253631591796875,0.1842498779296875,9.674179077148438,0.05567365884780884,-0.5039528608322144,0.11082160472869873,-0.004371321068808161,-0.08917494980368648,0.03934188961927344
0.275177001953125,0.1722869873046875,9.68853759765625,0.05567365884780884,-0.5039528608322144,0.11082160472869873,-0.004371321068808161,-0.08917494980368648,-0.03147351169541876
0.287139892578125,0.15313720703125,9.68853759765625,0.05588868632912636,-0.5311935544013977,0.11081496626138687,0.0655698160321224,-0.08917494980368648,0.1792241638211346
0.2727813720703125,0.169891357421875,9.690933227539062,0.04236394166946411,-0.5039528608322144,0.11081579327583313,-0.004371321068808161,-0.018359548488994275,-0.03147351169541876
0.2727813720703125,0.169891357421875,9.690933227539062,0.04236394166946411,-0.5039528608322144,0.11081579327583313,-0.004371321068808161,-0.018359548488994275,-0.03147351169541876
0.263214111328125,0.169891357421875,9.690933227539062,0.05598428472876549,-0.5175732374191284,0.11081579327583313,0.0655698160321224,-0.08917494980368648,-0.03147351169541876
0.287139892578125,0.169891357421875,9.702896118164062,0.05609181150794029,-0.5175732374191284,0.12443198263645172,-0.07431245816973873,-0.018359548488994275,0.03934188961927344
0.2775726318359375,0.169891357421875,9.681365966796875,0.05620318651199341,-0.5175732374191284,0.12442949414253235,-0.004371321068808161,-0.08917494980368648,-0.03147351169541876
0.2608184814453125,0.1866455078125,9.681365966796875,0.04269038885831833,-0.5175732374191284,0.11080165207386017,-0.004371321068808161,-0.018359548488994275,-0.03147351169541876
0.275177001953125,0.1603240966796875,9.683746337890625,0.056310731917619705,-0.5311935544013977,0.09718131273984909,-0.07431245816973873,-0.018359548488994275,0.10840876250644238
0.2679901123046875,0.1627044677734375,9.683746337890625,0.056310731917619705,-0.5311935544013977,0.09718131273984909,-0.004371321068808161,0.050707324398174665,0.03934188961927344
0.2679901123046875,0.1627044677734375,9.690933227539062,0.056306760758161545,-0.5039528608322144,0.12441784888505936,0.0655698160321224,-0.018359548488994275,-0.03147351169541876
0.2608184814453125,0.169891357421875,9.693328857421875,0.056302785873413086,-0.5039528608322144,0.110804982483387,-0.004371321068808161,-0.08917494980368648,0.03934188961927344
0.2608184814453125,0.169891357421875,9.693328857421875,0.056302785873413086,-0.5039528608322144,0.110804982483387,-0.004371321068808161,-0.08917494980368648,0.03934188961927344
0.2584228515625,0.1722869873046875,9.693328857421875,0.07003062963485718,-0.5175732374191284,0.1244228333234787,-0.07431245816973873,-0.018359548488994275,0.03934188961927344
0.2823486328125,0.1627044677734375,9.719650268554688,0.056517813354730606,-0.5175732374191284,0.11079417169094086,-0.004371321068808161,-0.018359548488994275,0.03934188961927344
0.2799530029296875,0.1555328369140625,9.690933227539062,0.056517813354730606,-0.5175732374191284,0.11079417169094086,-0.07431245816973873,-0.018359548488994275,-0.10141464879634933
