Accelerometer_Gx,Accelerometer_Gy,Accelerometer_Gz,Accelerometer_X,Accelerometer_Y,Accelerometer_Z,Gyroscope_Z,Gyroscope_X,Gyroscope_Y
0.346954345703125,0.110076904296875,9.690933227539062,0.02223253808915615,0,0.07630270719528198,0.037593361191750184,0.06906687288716894,0.12589404678167504
0.2775726318359375,0.157928466796875,9.695724487304688,-0.05969745293259621,0.054481390863657,0.11717040091753006,0.037593361191750184,0.06906687288716894,0.12589404678167504
0.2727813720703125,0.1722869873046875,9.71246337890625,-0.01904434710741043,0.04086104407906532,0.11717705428600311,0.037593361191750184,0.06906687288716894,0.12589404678167504
0.251251220703125,0.1866455078125,9.683746337890625,0.03522913530468941,0,0.1444227397441864,0.10753449829268075,0.13988227420186114,0.1958351838826056
0.2488555908203125,0.1746826171875,9.683746337890625,0.03522913530468941,0,0.1444227397441864,0.037593361191750184,0.06906687288716894,0.26577632098353615
0.2560272216796875,0.1746826171875,9.674179077148438,0.03481144830584526,0,0.13081319630146027,0.037593361191750184,0.06906687288716894,0.055952909680744456
0.2608184814453125,0.17706298828125,9.690933227539062,0.034596242010593414,0,0.1308181881904602,0.17747563539361133,0.06906687288716894,0.055952909680744456
0.2560272216796875,0.1794586181640625,9.686141967773438,0.03449048101902008,0,0.13081735372543335,0.037593361191750184,0,0.12589404678167504
0.2488555908203125,0.1722869873046875,9.669403076171875,0.03428078070282936,0,0.13082149624824524,0.037593361191750184,0.13988227420186114,0.055952909680744456
0.263214111328125,0.169891357421875,9.681365966796875,0.03428078070282936,0,0.13082149624824524,0.10753449829268075,0.06906687288716894,0.055952909680744456
0.2584228515625,0.1627044677734375,9.68853759765625,0.020230121910572052,0,0.11720947921276093,0.037593361191750184,0.06906687288716894,0.12589404678167504
0.2584228515625,0.181854248046875,9.681365966796875,0.03363895043730736,0,0.13083481788635254,0.10753449829268075,0.20982341130279172,0.12589404678167504
0.2775726318359375,0.16510009765625,9.683746337890625,0.005869430955499411,0,0.1308472901582718,0.037593361191750184,0.13988227420186114,0.26577632098353615
0.2584228515625,0.181854248046875,9.671783447265625,0.005869430955499411,0,0.1308472901582718,0.037593361191750184,0.06906687288716894,0.12589404678167504
0.2488555908203125,0.16510009765625,9.68853759765625,0.005765463691204786,0,0.1308531016111374,-0.032347775909180386,0.13988227420186114,0.12589404678167504
0.2560272216796875,0.1746826171875,9.67657470703125,0.03280198946595192,0,0.13085392117500305,0.17747563539361133,0.13988227420186114,0.12589404678167504
0.263214111328125,0.169891357421875,9.686141967773438,0.03280198946595192,0,0.13085392117500305,0.10753449829268075,0.13988227420186114,0.055952909680744456
0.2584228515625,0.157928466796875,9.669403076171875,0.018862547352910042,0.01362034771591425,0.11723857372999191,0.037593361191750184,0.13988227420186114,0.1958351838826056
0.251251220703125,0.1842498779296875,9.678970336914062,0.01886802911758423,0,0.11723358184099197,0.2474167724945419,0.13988227420186114,0.12589404678167504
0.2608184814453125,0.16510009765625,9.693328857421875,0.018760425969958305,0,0.11723274737596512,-0.17310431432480317,0.06906687288716894,0.055952909680744456
0.2799530029296875,0.1507415771484375,9.683746337890625,0.005140077788382769,0.01362034771591425,0.130858913064003,-0.10228891301011096,-0.0708154013146922,0.1958351838826056
0.2608184814453125,0.169891357421875,9.686141967773438,0.018437664955854416,0,0.11723440885543823,0.2474167724945419,0.3505799497184145,-0.013988227420186114
0.251251220703125,0.1794586181640625,9.671783447265625,0.0185452438890934,0,0.11724023520946503,0.2474167724945419,-0.0708154013146922,0.4056585951853973
0.2560272216796875,0.1603240966796875,9.667007446289062,0.031957708299160004,0,0.1308472901582718,-0.5927511369303866,0.06906687288716894,0.055952909680744456
0.2560272216796875,0.1842498779296875,9.68853759765625,0.031957708299160004,0,0.1308472901582718,0.5971224579991947,0.6303444981221368,-0.15387050162204727
0.2656097412109375,0.181854248046875,9.714859008789062,0.018665602430701256,0,0.11722858995199203,-0.7326334111322477,-0.41964682260558345,0.12589404678167504
0.263214111328125,0.1914215087890625,9.683746337890625,0.018665602430701256,0,0.11722858995199203,-0.2421711872119721,0.3505799497184145,-0.08480362873487832
0.2703857421875,0.15313720703125,9.693328857421875,0.018457824364304543,0.01362034771591425,0.08998457342386246,0.7370047322010559,0.7702267723239979,-0.013988227420186114
0.2488555908203125,0.1794586181640625,9.690933227539062,0.018457824364304543,0.01362034771591425,0.08998457342386246,-0.8025745482331783,-0.6303444981221368,0.33571745808446674
0.2608184814453125,0.1746826171875,9.695724487304688,0.018242720514535904,0.01362034771591425,0.08998790383338928,-1.01239795953597,-0.8401679094249285,0.26577632098353615
0.2488555908203125,0.1794586181640625,9.705291748046875,0.03218572586774826,0,0.1172310933470726,-1.01239795953597,-0.7002856352230673,0.26577632098353615
0.2584228515625,0.1746826171875,9.702896118164062,0.03143083304166794,0,0.11724355816841125,-0.5927511369303866,-0.8401679094249285,0.6163562707019506
0.2703857421875,0.1603240966796875,9.693328857421875,0.03143083304166794,0,0.11724355816841125,0.5280555851120258,0.7702267723239979,-0.3645681771386006
0.2560272216796875,0.1722869873046875,9.68853759765625,0.031434495002031326,0,0.11724188923835754,-0.3129865885266643,0.3505799497184145,-0.22468590293673946
0.275177001953125,0.16510009765625,9.719650268554688,0.03166259080171585,0,0.11723025888204575,-0.5219357356156944,0.3505799497184145,0.8253054177909808
0.2584228515625,0.1794586181640625,9.68853759765625,0.017719535157084465,0,0.1172543615102768,1.786996052928776,-0.2797645484037223,0.6163562707019506
0.2656097412109375,0.17706298828125,9.70050048828125,0.01794762723147869,0,0.10364150255918503,-0.032347775909180386,1.8193438288379564,-0.7842149997441841
0.275177001953125,0.1746826171875,9.719650268554688,0.016105864197015762,0,0.09005523473024368,-1.922507006061829,-2.03004150435451,0.8253054177909808
0.2656097412109375,0.1507415771484375,9.702896118164062,0.020329490303993225,0.01362034771591425,0.10357499867677689,-3.2522628751932716,0.06906687288716894,-0.7842149997441841
0.2488555908203125,0.17706298828125,9.683746337890625,0.03049079328775406,0,0.11725021153688431,2.6962308352408737,-0.41964682260558345,1.3157676417112563
0.2488555908203125,0.1746826171875,9.693328857421875,0.03158901631832123,0,0.11720697581768036,-0.5927511369303866,2.7294528753638154,-0.9240972739460451
0.2584228515625,0.1674957275390625,9.707687377929688,0.03158901631832123,0,0.11720697581768036,2.975995383644596,2.7985197482509845,-0.9240972739460451
0.2727813720703125,0.181854248046875,9.714859008789062,0.011907022446393967,0,0.10366726666688919,0.037593361191750184,-1.6095204175351647,0.896120819105673
0.2703857421875,0.1866455078125,9.738784790039062,0.014411945827305317,0,0.10362986475229263,-1.782624731859968,0,0.47647399650008954
0.2679901123046875,0.1962127685546875,9.743576049804688,-0.00017457720241509378,0,0.09013338387012482,-1.3629779092543846,0.6303444981221368,-0.9940384110469758
0.2656097412109375,0.1674957275390625,9.698104858398438,-0.00017457720241509378,0,0.09013338387012482,-0.7326334111322477,0.910109046525859,-1.2746772236644597
0.2584228515625,0.1842498779296875,9.690933227539062,0.011225107125937939,0,0.10387177765369415,1.9268783271306371,-0.4904622239202756,-0.2937527758239084
0.2799530029296875,0.169891357421875,9.698104858398438,0.01108105480670929,0,0.10369054973125458,4.236684379888869,0.910109046525859,0.4056585951853973
0.2775726318359375,0.1627044677734375,9.710067749023438,-0.006164939608424902,0.01362034771591425,0.11712633818387985,4.796213476696314,2.378872925645401,0.6163562707019506
0.2440643310546875,0.16510009765625,9.71246337890625,-0.006164939608424902,0.01362034771591425,0.11712633818387985,1.157525819020401,2.589570601161954,0.26577632098353615
0.275177001953125,0.1794586181640625,9.72442626953125,-0.005105915479362011,0.0272406954318285,0.08996047079563141,0.38817331091016466,0.4904622239202756,0.055952909680744456
0.2799530029296875,0.1483612060546875,9.710067749023438,-0.005561297293752432,0.054481390863657,0.10339625924825668,5.006911152212867,0.910109046525859,-0.5735173242276307
0.2679901123046875,0.1603240966796875,9.707687377929688,-0.009259320795536041,0.06810173392295837,0.10333390533924103,-2.5528515041839657,2.378872925645401,-1.2746772236644597
0.2656097412109375,0.16510009765625,9.695724487304688,-0.009259320795536041,0.06810173392295837,0.10333390533924103,-6.332295700275502,-0.9800501836267896,-0.5044504513404617
0.2608184814453125,0.17706298828125,9.729217529296875,-0.0050768195651471615,0.04086104407906532,0.07630853354930878,1.5072315045250537,-1.9601003672535793,1.5264653172278098
0.2703857421875,0.1674957275390625,9.693328857421875,-0.0040634144097566605,0.04086104407906532,0.07621791958808899,2.347399413949982,1.4687638791195419,0.055952909680744456
0.275177001953125,0.157928466796875,9.702896118164062,-0.021381238475441933,0.04086104407906532,0.10340956598520279,-2.4820361028692735,0,-0.5044504513404617
0.2847442626953125,0.181854248046875,9.717254638671875,-0.021381238475441933,0.04086104407906532,0.10340956598520279,-3.3222040122942023,-0.6303444981221368,1.0360030933075342
0.2608184814453125,0.1842498779296875,9.707687377929688,-0.019639676436781883,0.0272406954318285,0.08992888033390045,2.9069285107574268,0.979175919413028,-0.6443327255423229
0.2679901123046875,0.1722869873046875,9.693328857421875,-0.007972229272127151,0.04086104407906532,0.10354090481996536,-0.6618180098175556,-1.0499913207277203,1.0360030933075342
0.2560272216796875,0.1794586181640625,9.695724487304688,-0.02329093962907791,0.054481390863657,0.10349934548139572,-1.2222213708387617,1.3288816049176808,-0.8541561368451146
0.275177001953125,0.1603240966796875,9.70050048828125,-0.02350611984729767,0.054481390863657,0.10354672372341156,2.27658401263529,1.399697006232373,0.47647399650008954
0.2703857421875,0.1722869873046875,9.702896118164062,-0.02350611984729767,0.054481390863657,0.10354672372341156,-1.0823390966369006,-0.5595290968074446,-0.9240972739460451
0.2703857421875,0.1555328369140625,9.719650268554688,-0.010407554917037487,0.054481390863657,0.08987899124622345,1.2982823574360236,-0.0708154013146922,-0.4336350500257695
0.2727813720703125,0.157928466796875,9.695724487304688,-0.01019473746418953,0.054481390863657,0.0898972824215889,0.4572401837973336,-0.3505799497184145,0.47647399650008954
0.2656097412109375,0.1674957275390625,9.693328857421875,-0.01019473746418953,0.054481390863657,0.0898972824215889,-1.3629779092543846,-0.21069767551655336,0.7562385449038118
0.2799530029296875,0.1746826171875,9.7220458984375,-0.024027954787015915,0.054481390863657,0.1034902036190033,1.7179291800416072,0.5595290968074446,-0.3645681771386006
0.2440643310546875,0.1794586181640625,9.714859008789062,-0.024233810603618622,0.04086104407906532,0.08986569195985794,1.578046905839746,0.7702267723239979,-0.2937527758239084
0.2823486328125,0.1603240966796875,9.714859008789062,-0.023342791944742203,0.04086104407906532,0.08987484127283096,1.2274669561213316,0.979175919413028,-0.4336350500257695
0.2584228515625,0.1794586181640625,9.698104858398438,-0.023342791944742203,0.04086104407906532,0.08987484127283096,0.10753449829268075,0.979175919413028,-0.2937527758239084
0.253631591796875,0.1722869873046875,9.707687377929688,-0.023560259491205215,0.04086104407906532,0.10349103063344955,0.7370047322010559,-0.7002856352230673,0.47647399650008954
0.2488555908203125,0.16510009765625,9.726821899414062,0.003144883783534169,0.04086104407906532,0.08987484127283096,1.4381646316378849,0.06906687288716894,-0.013988227420186114
0.2560272216796875,0.1746826171875,9.72442626953125,-0.010578339919447899,0.04086104407906532,0.0898798331618309,0.17747563539361133,0.6303444981221368,-0.22468590293673946
0.2679901123046875,0.1603240966796875,9.702896118164062,-0.010578339919447899,0.04086104407906532,0.0898798331618309,-0.5927511369303866,0.41964682260558345,0.33571745808446674
0.2775726318359375,0.16510009765625,9.71246337890625,-0.010788819752633572,0.04086104407906532,0.10350099951028824,0.6679378593138869,0,0.055952909680744456
0.2656097412109375,0.1674957275390625,9.7220458984375,-0.010568935424089432,0.04086104407906532,0.08986818790435791,-0.45286886272852545,0.20982341130279172,0.33571745808446674
0.2679901123046875,0.1722869873046875,9.72442626953125,-0.010568935424089432,0.04086104407906532,0.08986818790435791,0.4572401837973336,0.06906687288716894,-0.013988227420186114
0.2703857421875,0.1555328369140625,9.702896118164062,-0.010786429047584534,0.04086104407906532,0.08987566828727722,-0.2421711872119721,0.06906687288716894,0.33571745808446674
0.275177001953125,0.15313720703125,9.71246337890625,-0.010458992794156075,0.054481390863657,0.10347440838813782,0.10753449829268075,0.20982341130279172,0.12589404678167504
0.2656097412109375,0.1627044677734375,9.705291748046875,-0.02406996302306652,0.054481390863657,0.0898607075214386,0.2474167724945419,0.06906687288716894,0.055952909680744456
0.2656097412109375,0.16510009765625,9.710067749023438,-0.010451952926814556,0.04086104407906532,0.10347606986761093,0.037593361191750184,0.06906687288716894,0.1958351838826056
0.2727813720703125,0.1794586181640625,9.714859008789062,-0.02385244145989418,0.04086104407906532,0.10346858948469162,-0.10228891301011096,0.20982341130279172,0.1958351838826056
0.2727813720703125,0.16510009765625,9.719650268554688,-0.01011511217802763,0.0272406954318285,0.08984989672899246,0.17747563539361133,0.13988227420186114,0.26577632098353615
0.2703857421875,0.1507415771484375,9.71246337890625,-0.010110409930348396,0.0272406954318285,0.08984989672899246,0.17747563539361133,0.13988227420186114,0.055952909680744456
0.2608184814453125,0.169891357421875,9.717254638671875,-0.010105734691023827,0.054481390863657,0.08984075486660004,0.10753449829268075,0.13988227420186114,0.1958351838826056
0.2656097412109375,0.1722869873046875,9.70050048828125,-0.00989055261015892,0.04086104407906532,0.08983326703310013,0.10753449829268075,0.13988227420186114,0.12589404678167504
0.2656097412109375,0.1674957275390625,9.717254638671875,-0.009888187982141972,0.04086104407906532,0.08983326703310013,0.10753449829268075,0.13988227420186114,0.12589404678167504
0.287139892578125,0.181854248046875,9.726821899414062,-0.009668303653597832,0.04086104407906532,0.08982495963573456,0.17747563539361133,0.13988227420186114,0.12589404678167504
0.2656097412109375,0.1842498779296875,9.741180419921875,-0.03690195828676224,0.0272406954318285,0.07620461285114288,0.10753449829268075,0.06906687288716894,0.12589404678167504
0.2775726318359375,0.18902587890625,9.72442626953125,-0.03690195828676224,0.0272406954318285,0.07620461285114288,0.037593361191750184,0.13988227420186114,0.12589404678167504
0.263214111328125,0.1722869873046875,9.729217529296875,-0.0094390157610178,0.0272406954318285,0.07619879394769669,0.10753449829268075,0.06906687288716894,0.26577632098353615
0.275177001953125,0.1674957275390625,9.726821899414062,-0.02294713445007801,0.054481390863657,0.08981498330831528,0.037593361191750184,0.13988227420186114,0.12589404678167504
0.2703857421875,0.1627044677734375,9.714859008789062,-0.02294708415865898,0.054481390863657,0.08981664478778839,0.10753449829268075,0.20982341130279172,0.1958351838826056
0.2727813720703125,0.17706298828125,9.72442626953125,-0.009319668635725975,0.04086104407906532,0.08981664478778839,0.2474167724945419,0.20982341130279172,0.055952909680744456
0.2656097412109375,0.1674957275390625,9.717254638671875,-0.009322085417807102,0.04086104407906532,0.08980999886989594,0.2474167724945419,0.13988227420186114,0.055952909680744456
0.2703857421875,0.1722869873046875,9.702896118164062,-0.009109214879572392,0.04086104407906532,0.089805006980896,0.037593361191750184,0,0.1958351838826056
0.2799530029296875,0.1962127685546875,9.741180419921875,-0.02229449711740017,0.04086104407906532,0.10341371595859528,0.17747563539361133,0.06906687288716894,0.12589404678167504
0.2727813720703125,0.17706298828125,9.729217529296875,-0.008459044620394707,0.04086104407906532,0.08979087322950363,0.10753449829268075,0.13988227420186114,0.12589404678167504
0.2679901123046875,0.1674957275390625,9.707687377929688,-0.008458967320621014,0.04086104407906532,0.0897933766245842,0.10753449829268075,0.20982341130279172,0.055952909680744456
0.2703857421875,0.1794586181640625,9.71246337890625,-0.02197417803108692,0.04086104407906532,0.10341039299964905,0.2474167724945419,0,0.26577632098353615
0.253631591796875,0.17706298828125,9.710067749023438,-0.007921128533780575,0.0272406954318285,0.08978090435266495,0.037593361191750184,0.06906687288716894,0.12589404678167504
0.2656097412109375,0.157928466796875,9.710067749023438,-0.007921128533780575,0.0272406954318285,0.08978090435266495,0.31735790959547244,0.13988227420186114,0.1958351838826056
0.263214111328125,0.1674957275390625,9.710067749023438,-0.007815889082849026,0.04086104407906532,0.103403739631176,-0.032347775909180386,0.2797645484037223,0.055952909680744456
0.2703857421875,0.1794586181640625,9.726821899414062,-0.021328607574105263,0.0272406954318285,0.07616304606199265,-0.032347775909180386,0.06906687288716894,0.1958351838826056
0.2440643310546875,0.181854248046875,9.710067749023438,-0.02132868580520153,0.0272406954318285,0.07616471499204636,0.31735790959547244,0.06906687288716894,0.055952909680744456
0.2703857421875,0.16510009765625,9.693328857421875,0.006122516468167305,0.04086104407906532,0.10339958220720291,0.31735790959547244,0.06906687288716894,0.12589404678167504
0.263214111328125,0.1555328369140625,9.719650268554688,-0.007390253245830536,0.054481390863657,0.0897742509841919,-0.032347775909180386,0.20982341130279172,0.12589404678167504
0.2703857421875,0.169891357421875,9.719650268554688,-0.0073926434852182865,0.054481390863657,0.08976925909519196,0.037593361191750184,0.13988227420186114,0.12589404678167504
0.263214111328125,0.17706298828125,9.7220458984375,-0.007397371344268322,0.04086104407906532,0.07614725083112717,0.037593361191750184,0,0.26577632098353615
0.29193115234375,0.1866455078125,9.72442626953125,-0.007182215340435505,0.0272406954318285,0.07614392787218094,0.17747563539361133,0.06906687288716894,0.1958351838826056
0.2727813720703125,0.18902587890625,9.731613159179688,-0.007182215340435505,0.0272406954318285,0.07614392787218094,0.037593361191750184,0.13988227420186114,0.12589404678167504
0.275177001953125,0.1986083984375,9.741180419921875,-0.020589744672179222,0.0272406954318285,0.0761331170797348,0.17747563539361133,0.06906687288716894,0.12589404678167504
0.2584228515625,0.1746826171875,9.707687377929688,-0.006868885830044746,0.04086104407906532,0.10336717218160629,0.31735790959547244,0.06906687288716894,0.055952909680744456
0.2775726318359375,0.1627044677734375,9.7220458984375,-0.0068712239153683186,0.04086104407906532,0.10336218029260635,0.10753449829268075,0.20982341130279172,0.1958351838826056
0.253631591796875,0.1794586181640625,9.702896118164062,0.006538670044392347,0.04086104407906532,0.10336799919605255,0.17747563539361133,0.06906687288716894,0.26577632098353615
0.2703857421875,0.1555328369140625,9.707687377929688,-0.006864131893962622,0.054481390863657,0.08974183350801468,0.037593361191750184,0.06906687288716894,0.12589404678167504
0.253631591796875,0.1722869873046875,9.726821899414062,-0.006864131893962622,0.054481390863657,0.08973933011293411,0.2474167724945419,0.13988227420186114,0.12589404678167504
0.2656097412109375,0.169891357421875,9.698104858398438,-0.006971683818846941,0.04086104407906532,0.08973600715398788,0.037593361191750184,0.06906687288716894,0.12589404678167504
0.2775726318359375,0.1674957275390625,9.717254638671875,-0.020592058077454567,0.04086104407906532,0.08974017202854156,0.10753449829268075,0.13988227420186114,0.12589404678167504
0.253631591796875,0.1674957275390625,9.731613159179688,-0.02069960907101631,0.04086104407906532,0.08974266052246094,-0.032347775909180386,0.13988227420186114,0.055952909680744456
0.263214111328125,0.1603240966796875,9.714859008789062,-0.007189203519374132,0.054481390863657,0.08974765241146088,0.17747563539361133,0.13988227420186114,0.1958351838826056
0.263214111328125,0.1674957275390625,9.7220458984375,-0.0072944434359669685,0.04086104407906532,0.07613229006528854,0.10753449829268075,0.20982341130279172,0.055952909680744456
0.287139892578125,0.2010040283203125,9.738784790039062,0.006108384113758802,0.04086104407906532,0.11699914932250977,0.10753449829268075,0.06906687288716894,0.12589404678167504
0.2679901123046875,0.1842498779296875,9.7340087890625,-0.0211323369294405,0.0272406954318285,0.07614059746265411,0.10753449829268075,0.13988227420186114,0.1958351838826056
0.2464599609375,0.17706298828125,9.717254638671875,0.005897955968976021,0.04086104407906532,0.08976177871227264,0.10753449829268075,0.13988227420186114,0.1958351838826056
0.2679901123046875,0.16510009765625,9.7220458984375,0.005900320131331682,0.04086104407906532,0.08976177871227264,0.17747563539361133,0.06906687288716894,0.12589404678167504
0.275177001953125,0.1722869873046875,9.719650268554688,-0.02133798412978649,0.04086104407906532,0.0897567942738533,0.10753449829268075,0.06906687288716894,0.1958351838826056
0.2679901123046875,0.1627044677734375,9.71246337890625,-0.007717637345194817,0.04086104407906532,0.1033746525645256,0.037593361191750184,0.06906687288716894,0.12589404678167504
0.2679901123046875,0.169891357421875,9.72442626953125,-0.007717637345194817,0.04086104407906532,0.1033746525645256,0.10753449829268075,0.13988227420186114,0.1958351838826056
0.2679901123046875,0.169891357421875,9.705291748046875,-0.0079280911013484,0.04086104407906532,0.08976177871227264,0.17747563539361133,0.13988227420186114,0.12589404678167504
0.2847442626953125,0.1722869873046875,9.70050048828125,-0.021763568744063377,0.04086104407906532,0.10338544845581055,0.10753449829268075,0.13988227420186114,0.1958351838826056
0.2679901123046875,0.1842498779296875,9.72442626953125,-0.008248435333371162,0.0272406954318285,0.08976760506629944,0.10753449829268075,0.06906687288716894,0.1958351838826056
0.275177001953125,0.1507415771484375,9.71246337890625,-0.021973997354507446,0.04086104407906532,0.08976925909519196,0.17747563539361133,0.06906687288716894,0.12589404678167504
0.2727813720703125,0.1603240966796875,9.717254638671875,-0.02208154834806919,0.054481390863657,0.08976925909519196,0.10753449829268075,0.13988227420186114,0.12589404678167504
0.2656097412109375,0.181854248046875,9.731613159179688,-0.02208154834806919,0.054481390863657,0.08976925909519196,0.037593361191750184,0.06906687288716894,0.26577632098353615
0.2679901123046875,0.1603240966796875,9.714859008789062,-0.02208154834806919,0.054481390863657,0.08976925909519196,0.2474167724945419,0.13988227420186114,0.12589404678167504
0.2847442626953125,0.1914215087890625,9.717254638671875,-0.02229909412562847,0.0272406954318285,0.08977175503969193,0.10753449829268075,0.13988227420186114,0.12589404678167504
0.2703857421875,0.1555328369140625,9.710067749023438,-0.02229912020266056,0.0272406954318285,0.08976760506629944,0.10753449829268075,0.13988227420186114,0.12589404678167504
0.2656097412109375,0.169891357421875,9.717254638671875,-0.02229912020266056,0.0272406954318285,0.08976760506629944,0.10753449829268075,0.13988227420186114,0.12589404678167504
0.2464599609375,0.18902587890625,9.710067749023438,-0.008786377497017384,0.04086104407906532,0.08976760506629944,0.037593361191750184,0.13988227420186114,0.12589404678167504
0.2703857421875,0.1674957275390625,9.705291748046875,0.004516016226261854,0.0272406954318285,0.10339875519275665,0.037593361191750184,0.13988227420186114,0.12589404678167504
0.2775726318359375,0.1746826171875,9.717254638671875,0.004516016226261854,0.0272406954318285,0.10339875519275665,0.2474167724945419,0.13988227420186114,0.12589404678167504
0.2656097412109375,0.1674957275390625,9.719650268554688,-0.02293746918439865,0.0272406954318285,0.08978672325611115,0.037593361191750184,0.13988227420186114,0.1958351838826056
0.2895355224609375,0.1746826171875,9.719650268554688,-0.009532331489026546,0.04086104407906532,0.0897875502705574,0.037593361191750184,0.13988227420186114,0.12589404678167504
0.2775726318359375,0.16510009765625,9.707687377929688,-0.009532331489026546,0.04086104407906532,0.0897875502705574,-0.10228891301011096,0.06906687288716894,0.055952909680744456
0.2656097412109375,0.157928466796875,9.710067749023438,-0.023262593895196915,0.04086104407906532,0.08978505432605743,0.037593361191750184,0.13988227420186114,0.12589404678167504
0.2823486328125,0.193817138671875,9.7220458984375,-0.009644610807299614,0.04086104407906532,0.0897875502705574,0.17747563539361133,0.20982341130279172,0.12589404678167504
0.2823486328125,0.193817138671875,9.731613159179688,-0.009752240963280201,0.04086104407906532,0.08979004621505737,0.17747563539361133,0.2797645484037223,0.12589404678167504
0.251251220703125,0.16510009765625,9.741180419921875,-0.023587666451931,0.01362034771591425,0.07617052644491196,0.037593361191750184,0.13988227420186114,0.055952909680744456
0.2560272216796875,0.1722869873046875,9.70050048828125,0.0035430858843028545,0.04086104407906532,0.06255267560482025,0.10753449829268075,0.06906687288716894,0.1958351838826056
0.2464599609375,0.169891357421875,9.719650268554688,0.00364585779607296,0.04086104407906532,0.06255267560482025,0.10753449829268075,0.06906687288716894,0.12589404678167504
0.2679901123046875,0.15313720703125,9.71246337890625,0.0038610659539699554,0.0272406954318285,0.0897875502705574,0.17747563539361133,0.06906687288716894,0.12589404678167504
0.263214111328125,0.1722869873046875,9.707687377929688,-0.009759255684912205,0.054481390863657,0.08978256583213806,0.2474167724945419,0.13988227420186114,0.12589404678167504
0.2656097412109375,0.157928466796875,9.714859008789062,-0.009759281761944294,0.04086104407906532,0.10340540111064911,0.10753449829268075,0.06906687288716894,0.1958351838826056
0.263214111328125,0.1674957275390625,9.726821899414062,-0.009759307838976383,0.054481390863657,0.10339875519275665,0.037593361191750184,0.13988227420186114,0.12589404678167504
0.2656097412109375,0.1627044677734375,9.71246337890625,-0.009544150903820992,0.04086104407906532,0.07615473866462708,0.10753449829268075,0.20982341130279172,0.1958351838826056
0.2656097412109375,0.1794586181640625,9.731613159179688,-0.009436573833227158,0.04086104407906532,0.07615473866462708,0.037593361191750184,0.06906687288716894,0.055952909680744456
0.2656097412109375,0.1866455078125,9.726821899414062,-0.00954654160887003,0.04086104407906532,0.07615473866462708,0.037593361191750184,0.06906687288716894,0.1958351838826056
0.2656097412109375,0.181854248046875,9.726821899414062,-0.009336087852716446,0.0272406954318285,0.07614891231060028,0.17747563539361133,0.20982341130279172,0.1958351838826056
0.275177001953125,0.1627044677734375,9.717254638671875,-0.009333775378763676,0.0272406954318285,0.07614891231060028,0.17747563539361133,0.13988227420186114,0.055952909680744456
0.2608184814453125,0.1842498779296875,9.7340087890625,-0.009333801455795765,0.04086104407906532,0.08976427465677261,0.10753449829268075,0.13988227420186114,0.12589404678167504
0.2799530029296875,0.1674957275390625,9.710067749023438,-0.009333801455795765,0.0272406954318285,0.07614392787218094,0.17747563539361133,0.06906687288716894,0.12589404678167504
0.251251220703125,0.169891357421875,9.705291748046875,-0.009441301226615906,0.0272406954318285,0.07614725083112717,0.10753449829268075,0.13988227420186114,0.12589404678167504
0.253631591796875,0.169891357421875,9.726821899414062,-0.009333724156022072,0.04086104407906532,0.10338295996189117,0.10753449829268075,0.13988227420186114,0.12589404678167504
0.2608184814453125,0.1603240966796875,9.729217529296875,0.0043965657241642475,0.04086104407906532,0.0761389434337616,0.10753449829268075,0.20982341130279172,0.12589404678167504
0.2727813720703125,0.1603240966796875,9.710067749023438,0.0043965657241642475,0.04086104407906532,0.0761389434337616,0.10753449829268075,0.13988227420186114,0.12589404678167504
0.275177001953125,0.1674957275390625,9.714859008789062,-0.022736629471182823,0.054481390863657,0.08975762128829956,0.2474167724945419,0.13988227420186114,0.12589404678167504
0.2440643310546875,0.17706298828125,9.702896118164062,-0.022736601531505585,0.054481390863657,0.10336966067552567,0.17747563539361133,0.13988227420186114,0.055952909680744456
0.275177001953125,0.1842498779296875,9.731613159179688,-0.02273891493678093,0.054481390863657,0.10336799919605255,0.10753449829268075,0.13988227420186114,0.12589404678167504
0.2703857421875,0.1746826171875,9.71246337890625,-0.022526174783706665,0.0272406954318285,0.0761198177933693,0.10753449829268075,0.06906687288716894,0.12589404678167504
0.2656097412109375,0.1842498779296875,9.731613159179688,-0.008798249997198582,0.0272406954318285,0.08973684161901474,0.17747563539361133,0.13988227420186114,0.1958351838826056
0.2464599609375,0.1842498779296875,9.695724487304688,-0.008690698072314262,0.0272406954318285,0.0897318497300148,0.17747563539361133,0.13988227420186114,0.12589404678167504
0.275177001953125,0.1794586181640625,9.719650268554688,-0.008688281290233135,0.054481390863657,0.08972936123609543,0.10753449829268075,0.13988227420186114,0.12589404678167504
0.2799530029296875,0.1842498779296875,9.7340087890625,-0.02219863422214985,0.04086104407906532,0.08972685784101486,-0.032347775909180386,0.20982341130279172,0.12589404678167504
0.2727813720703125,0.193817138671875,9.73638916015625,-0.0223062913864851,0.0272406954318285,0.07611151039600372,0.2474167724945419,0.13988227420186114,0.12589404678167504
0.2679901123046875,0.16510009765625,9.705291748046875,-0.008793443441390991,0.04086104407906532,0.0897318497300148,0.2474167724945419,0.13988227420186114,0.12589404678167504
0.2608184814453125,0.1627044677734375,9.719650268554688,0.0049297017976641655,0.054481390863657,0.07610651850700378,0.17747563539361133,0.06906687288716894,-0.013988227420186114
0.251251220703125,0.181854248046875,9.702896118164062,0.005144806113094091,0.054481390863657,0.07609820365905762,0.17747563539361133,0.13988227420186114,0.1958351838826056
0.2608184814453125,0.18902587890625,9.7340087890625,0.005247603636234999,0.04086104407906532,0.10333141684532166,0.037593361191750184,0.13988227420186114,0.12589404678167504
0.2679901123046875,0.1603240966796875,9.72442626953125,-0.008265165612101555,0.04086104407906532,0.07608822733163834,0.10753449829268075,0.13988227420186114,0.055952909680744456
0.2703857421875,0.181854248046875,9.73638916015625,-0.008159978315234184,0.04086104407906532,0.07608573883771896,0.10753449829268075,0.13988227420186114,0.12589404678167504
0.263214111328125,0.1746826171875,9.729217529296875,-0.021567558869719505,0.06810173392295837,0.08970275521278381,0.10753449829268075,0.13988227420186114,0.055952909680744456
0.2464599609375,0.1722869873046875,9.7340087890625,-0.007949523627758026,0.054481390863657,0.07608240842819214,0.10753449829268075,0.13988227420186114,0.055952909680744456
0.2799530029296875,0.1842498779296875,9.72442626953125,-0.007951914332807064,0.054481390863657,0.07608490437269211,0.037593361191750184,0.06906687288716894,0.1958351838826056
0.2608184814453125,0.1603240966796875,9.729217529296875,-0.021467072889208794,0.04086104407906532,0.08970525860786438,0.10753449829268075,0.06906687288716894,0.26577632098353615
0.2703857421875,0.169891357421875,9.72442626953125,-0.007839581929147243,0.06810173392295837,0.07608240842819214,0.17747563539361133,0.06906687288716894,0.26577632098353615
0.2656097412109375,0.1722869873046875,9.702896118164062,-0.007839581929147243,0.06810173392295837,0.07608240842819214,0.2474167724945419,0.13988227420186114,0.055952909680744456
0.2703857421875,0.15313720703125,9.714859008789062,-0.007724755443632603,0.054481390863657,0.10332310199737549,0.17747563539361133,0.13988227420186114,0.12589404678167504
0.2775726318359375,0.169891357421875,9.719650268554688,-0.0077271717600524426,0.06810173392295837,0.08969693630933762,0.2474167724945419,0.20982341130279172,0.1958351838826056
0.2727813720703125,0.181854248046875,9.738784790039062,-0.007727223448455334,0.06810173392295837,0.08969444781541824,-0.032347775909180386,0.06906687288716894,0.12589404678167504
0.2847442626953125,0.1794586181640625,9.7220458984375,-0.007617255672812462,0.04086104407906532,0.07606993615627289,0.10753449829268075,0.13988227420186114,0.26577632098353615
0.263214111328125,0.1674957275390625,9.707687377929688,-0.007397293578833342,0.054481390863657,0.07606661319732666,0.17747563539361133,0.06906687288716894,0.12589404678167504
0.287139892578125,0.1962127685546875,9.729217529296875,-0.007289663422852755,0.054481390863657,0.07606162130832672,0.037593361191750184,0.06906687288716894,0.1958351838826056
0.263214111328125,0.16510009765625,9.72442626953125,0.006545813754200935,0.054481390863657,0.08967864513397217,0.10753449829268075,0.06906687288716894,0.12589404678167504
0.2656097412109375,0.1794586181640625,9.731613159179688,-0.006971709430217743,0.054481390863657,0.0896761566400528,0.10753449829268075,0.20982341130279172,0.12589404678167504
0.2799530029296875,0.1842498779296875,9.72442626953125,-0.006971709430217743,0.054481390863657,0.0896761566400528,0.10753449829268075,0.06906687288716894,0.12589404678167504
0.2775726318359375,0.16510009765625,9.702896118164062,-0.020592058077454567,0.04086104407906532,0.07605580985546112,0.10753449829268075,0.13988227420186114,0.1958351838826056
0.2703857421875,0.1746826171875,9.729217529296875,-0.02048211544752121,0.054481390863657,0.10329317301511765,0.10753449829268075,0.20982341130279172,0.12589404678167504
0.2679901123046875,0.1794586181640625,9.731613159179688,-0.02048216573894024,0.054481390863657,0.10329317301511765,0.17747563539361133,0.13988227420186114,0.1958351838826056
0.275177001953125,0.16510009765625,9.710067749023438,-0.0069669815711677074,0.04086104407906532,0.0760524794459343,0.037593361191750184,0.13988227420186114,0.12589404678167504
0.2656097412109375,0.169891357421875,9.707687377929688,-0.02058732882142067,0.054481390863657,0.08967283368110657,0.17747563539361133,0.13988227420186114,0.1958351838826056
0.2584228515625,0.1722869873046875,9.710067749023438,-0.02058732882142067,0.054481390863657,0.08967116475105286,0.10753449829268075,0.06906687288716894,0.12589404678167504
0.275177001953125,0.157928466796875,9.705291748046875,-0.006859403103590012,0.054481390863657,0.10328569263219833,0.17747563539361133,0.13988227420186114,0.26577632098353615
0.2823486328125,0.1986083984375,9.738784790039062,-0.020367341116070747,0.06810173392295837,0.10328320413827896,0.037593361191750184,0.06906687288716894,0.12589404678167504
0.2727813720703125,0.1794586181640625,9.726821899414062,-0.020259764045476913,0.06810173392295837,0.10328320413827896,0.10753449829268075,0.13988227420186114,0.055952909680744456
0.2608184814453125,0.1746826171875,9.714859008789062,-0.02026459574699402,0.054481390863657,0.08966284990310669,-0.032347775909180386,0.13988227420186114,0.1958351838826056
0.2703857421875,0.18902587890625,9.7340087890625,-0.006639389321208,0.054481390863657,0.08966784179210663,0.037593361191750184,0.06906687288716894,0.12589404678167504
0.2823486328125,0.1722869873046875,9.7220458984375,-0.006639389321208,0.054481390863657,0.08966784179210663,0.10753449829268075,0.13988227420186114,0.12589404678167504
0.2656097412109375,0.1603240966796875,9.710067749023438,-0.020154574885964394,0.054481390863657,0.08966867625713348,0.10753449829268075,0.13988227420186114,0.1958351838826056
0.2703857421875,0.17706298828125,9.72442626953125,-0.020154574885964394,0.054481390863657,0.08966867625713348,0.037593361191750184,0.20982341130279172,0.12589404678167504
0.287139892578125,0.169891357421875,9.71246337890625,-0.020262179896235466,0.054481390863657,0.08967449516057968,0.17747563539361133,0.13988227420186114,0.1958351838826056
0.2727813720703125,0.181854248046875,9.731613159179688,-0.020262151956558228,0.054481390863657,0.08967283368110657,0.10753449829268075,0.13988227420186114,0.26577632098353615
0.275177001953125,0.1722869873046875,9.719650268554688,-0.02025495655834675,0.054481390863657,0.08966950327157974,0.10753449829268075,0.06906687288716894,0.1958351838826056
0.2799530029296875,0.1555328369140625,9.702896118164062,-0.02014501579105854,0.054481390863657,0.08966701477766037,0.10753449829268075,0.06906687288716894,0.1958351838826056
0.2656097412109375,0.157928466796875,9.719650268554688,-0.020037436857819557,0.054481390863657,0.0896645113825798,0.037593361191750184,0.20982341130279172,0.055952909680744456
0.2656097412109375,0.1555328369140625,9.714859008789062,-0.006529499311000109,0.06810173392295837,0.08966867625713348,0.17747563539361133,0.20982341130279172,0.055952909680744456
0.2727813720703125,0.17706298828125,9.707687377929688,-0.006424285471439362,0.06810173392295837,0.08966701477766037,0.037593361191750184,0.13988227420186114,0.1958351838826056
0.2823486328125,0.193817138671875,9.717254638671875,-0.02015218511223793,0.054481390863657,0.10328902304172516,0.10753449829268075,0.13988227420186114,0.055952909680744456
0.2679901123046875,0.1746826171875,9.714859008789062,-0.020154600962996483,0.04086104407906532,0.08966867625713348,0.037593361191750184,0.20982341130279172,0.12589404678167504
0.2775726318359375,0.181854248046875,9.729217529296875,-0.020156990736722946,0.04086104407906532,0.08966867625713348,0.17747563539361133,0.20982341130279172,0.055952909680744456
0.2775726318359375,0.1866455078125,9.729217529296875,-0.0201594065874815,0.054481390863657,0.0760466605424881,0.037593361191750184,0.20982341130279172,0.1958351838826056
0.2775726318359375,0.169891357421875,9.719650268554688,-0.02037695236504078,0.054481390863657,0.08967449516057968,0.17747563539361133,0.13988227420186114,0.12589404678167504
0.2464599609375,0.1722869873046875,9.738784790039062,-0.020484505221247673,0.054481390863657,0.08967698365449905,0.17747563539361133,0.13988227420186114,0.1958351838826056
0.2656097412109375,0.16510009765625,9.70050048828125,-0.020484505221247673,0.054481390863657,0.08967449516057968,0.17747563539361133,0.13988227420186114,0.1958351838826056
0.2560272216796875,0.17706298828125,9.70050048828125,-0.006751799490302801,0.054481390863657,0.10329068452119827,0.037593361191750184,0.13988227420186114,0.12589404678167504
0.2679901123046875,0.17706298828125,9.729217529296875,-0.006751799490302801,0.054481390863657,0.10329068452119827,0.10753449829268075,0.13988227420186114,0.12589404678167504
0.2679901123046875,0.1603240966796875,9.710067749023438,-0.00675182556733489,0.04086104407906532,0.08967283368110657,0.10753449829268075,0.13988227420186114,0.1958351838826056
0.2656097412109375,0.1627044677734375,9.729217529296875,-0.00675182556733489,0.06810173392295837,0.08967283368110657,0.10753449829268075,0.13988227420186114,0.12589404678167504
0.2799530029296875,0.1674957275390625,9.714859008789062,-0.00675182556733489,0.06810173392295837,0.08967283368110657,0.037593361191750184,0.13988227420186114,0.1958351838826056
0.2679901123046875,0.1674957275390625,9.7220458984375,-0.006644299253821373,0.054481390863657,0.0896703377366066,0.10753449829268075,0.13988227420186114,0.26577632098353615
0.287139892578125,0.2033843994140625,9.731613159179688,-0.006637102924287319,0.054481390863657,0.10328569263219833,0.037593361191750184,0.20982341130279172,0.1958351838826056
0.2584228515625,0.1722869873046875,9.7220458984375,-0.006742213387042284,0.054481390863657,0.1032881811261177,0.17747563539361133,0.13988227420186114,0.12589404678167504
0.2656097412109375,0.1794586181640625,9.731613159179688,-0.0067422655411064625,0.054481390863657,0.0896703377366066,0.17747563539361133,0.06906687288716894,0.1958351838826056
0.2703857421875,0.1627044677734375,9.717254638671875,-0.006632245145738125,0.04086104407906532,0.07604250311851501,0.2474167724945419,0.20982341130279172,0.1958351838826056
0.2656097412109375,0.14117431640625,9.71246337890625,-0.00662990752607584,0.04086104407906532,0.07603751868009567,0.10753449829268075,0.13988227420186114,0.055952909680744456
0.251251220703125,0.1555328369140625,9.717254638671875,-0.006629829294979572,0.054481390863657,0.089652881026268,0.10753449829268075,0.13988227420186114,0.12589404678167504
0.2608184814453125,0.1674957275390625,9.717254638671875,0.006983296014368534,0.06810173392295837,0.08965536952018738,0.17747563539361133,0.13988227420186114,0.26577632098353615
0.2464599609375,0.1722869873046875,9.710067749023438,-0.006739797070622444,0.06810173392295837,0.08965786546468735,0.10753449829268075,0.20982341130279172,0.1958351838826056
0.2775726318359375,0.1555328369140625,9.717254638671875,-0.00684254290536046,0.054481390863657,0.0896586924791336,0.10753449829268075,0.06906687288716894,0.12589404678167504
0.263214111328125,0.1674957275390625,9.71246337890625,-0.006734990980476141,0.06810173392295837,0.08965536952018738,0.10753449829268075,0.06906687288716894,0.1958351838826056
0.2823486328125,0.16510009765625,9.702896118164062,-0.006625048816204071,0.06810173392295837,0.0896512120962143,0.10753449829268075,0.13988227420186114,0.1958351838826056
0.275177001953125,0.15313720703125,9.705291748046875,-0.020133011043071747,0.054481390863657,0.0896453931927681,0.10753449829268075,0.13988227420186114,0.055952909680744456
0.2679901123046875,0.18902587890625,9.738784790039062,-0.020137818530201912,0.054481390863657,0.1032632514834404,0.037593361191750184,0.13988227420186114,0.12589404678167504
0.2656097412109375,0.1722869873046875,9.726821899414062,-0.020140182226896286,0.054481390863657,0.10326573997735977,0.10753449829268075,0.06906687288716894,0.1958351838826056
0.2560272216796875,0.181854248046875,9.738784790039062,-0.006409866735339165,0.04086104407906532,0.07601756602525711,0.10753449829268075,0.13988227420186114,0.1958351838826056
0.2608184814453125,0.181854248046875,9.741180419921875,-0.006192295346409082,0.04086104407906532,0.07601424306631088,0.10753449829268075,0.06906687288716894,0.12589404678167504
0.2775726318359375,0.16510009765625,9.702896118164062,-0.0060847168788313866,0.04086104407906532,0.07601174712181091,0.037593361191750184,0.13988227420186114,0.12589404678167504
0.2584228515625,0.17706298828125,9.707687377929688,-0.0060823531821370125,0.04086104407906532,0.07601424306631088,0.10753449829268075,0.13988227420186114,0.12589404678167504
0.2799530029296875,0.1746826171875,9.719650268554688,-0.005974749103188515,0.054481390863657,0.10324911773204803,0.10753449829268075,0.13988227420186114,0.12589404678167504
0.251251220703125,0.181854248046875,9.695724487304688,-0.005974749103188515,0.054481390863657,0.10324911773204803,0.17747563539361133,0.06906687288716894,0.26577632098353615
0.2679901123046875,0.16510009765625,9.71246337890625,0.008083132095634937,0.04086104407906532,0.1032383069396019,0.10753449829268075,0.13988227420186114,0.12589404678167504
0.253631591796875,0.1746826171875,9.698104858398438,-0.019157562404870987,0.054481390863657,0.08961796015501022,0.10753449829268075,0.20982341130279172,0.1958351838826056
0.2679901123046875,0.1435699462890625,9.698104858398438,-0.01926516741514206,0.054481390863657,0.08961796015501022,0.17747563539361133,0.13988227420186114,0.12589404678167504
0.2799530029296875,0.1603240966796875,9.714859008789062,-0.005644818767905235,0.08172208815813065,0.1032383069396019,0.037593361191750184,0.13988227420186114,0.055952909680744456
0.251251220703125,0.1603240966796875,9.71246337890625,-0.005647209007292986,0.054481390863657,0.08961547166109085,0.17747563539361133,0.20982341130279172,0.26577632098353615
0.2656097412109375,0.1722869873046875,9.707687377929688,-0.005752370692789555,0.054481390863657,0.08961629867553711,0.10753449829268075,0.20982341130279172,0.12589404678167504
0.2895355224609375,0.157928466796875,9.70050048828125,-0.005639960989356041,0.054481390863657,0.08961381018161774,0.17747563539361133,0.13988227420186114,0.12589404678167504
0.2799530029296875,0.1746826171875,9.714859008789062,-0.03277066349983215,0.06810173392295837,0.10323082655668259,0.2474167724945419,0.13988227420186114,0.1958351838826056
0.2584228515625,0.17706298828125,9.695724487304688,-0.00552755082026124,0.06810173392295837,0.08960632979869843,0.10753449829268075,0.13988227420186114,0.12589404678167504
0.2703857421875,0.16510009765625,9.698104858398438,-0.005525108892470598,0.054481390863657,0.10322168469429016,0.10753449829268075,0.06906687288716894,0.1958351838826056
0.2608184814453125,0.181854248046875,9.710067749023438,-0.019033046439290047,0.054481390863657,0.10321586579084396,0.037593361191750184,0.06906687288716894,0.1958351838826056
0.2703857421875,0.1914215087890625,9.738784790039062,-0.018923025578260422,0.054481390863657,0.10321337729692459,0.10753449829268075,0.13988227420186114,0.12589404678167504
0.2608184814453125,0.1674957275390625,9.729217529296875,-0.005192710552364588,0.054481390863657,0.08959301561117172,0.037593361191750184,0.06906687288716894,0.12589404678167504
0.263214111328125,0.16510009765625,9.693328857421875,-0.004977554548531771,0.054481390863657,0.07596935331821442,0.037593361191750184,0.13988227420186114,0.055952909680744456
0.2775726318359375,0.181854248046875,9.719650268554688,-0.0049799708649516106,0.054481390863657,0.07597184181213379,0.10753449829268075,0.13988227420186114,-0.013988227420186114
0.2823486328125,0.1722869873046875,9.72442626953125,-0.004774478729814291,0.054481390863657,0.11682706326246262,0.10753449829268075,0.06906687288716894,0.12589404678167504
0.275177001953125,0.1866455078125,9.726821899414062,-0.018289664760231972,0.06810173392295837,0.10320422798395157,0.037593361191750184,0.13988227420186114,0.1958351838826056
0.275177001953125,0.1962127685546875,9.73638916015625,-0.01828969083726406,0.06810173392295837,0.10320671647787094,0.10753449829268075,0,0.12589404678167504
0.2656097412109375,0.1674957275390625,9.717254638671875,-0.004451796878129244,0.04086104407906532,0.08958055824041367,0.17747563539361133,0.13988227420186114,0.12589404678167504
0.263214111328125,0.1674957275390625,9.731613159179688,-0.004351440817117691,0.054481390863657,0.08957057446241379,0.17747563539361133,0.06906687288716894,0.055952909680744456
0.2727813720703125,0.1794586181640625,9.731613159179688,-0.004351440817117691,0.054481390863657,0.08957057446241379,0.17747563539361133,0,0.12589404678167504
0.263214111328125,0.1842498779296875,9.726821899414062,-0.003923545125871897,0.04086104407906532,0.10317263007164001,0.10753449829268075,0.13988227420186114,0.1958351838826056
0.275177001953125,0.169891357421875,9.717254638671875,-0.0038136285729706287,0.04086104407906532,0.08954896032810211,0.10753449829268075,0.13988227420186114,0.1958351838826056
0.2703857421875,0.157928466796875,9.714859008789062,-0.0038111608009785414,0.04086104407906532,0.08954896032810211,0.17747563539361133,0.13988227420186114,0.12589404678167504
0.2775726318359375,0.1674957275390625,9.695724487304688,-0.030944302678108215,0.054481390863657,0.10316183418035507,0.2474167724945419,0.13988227420186114,0.12589404678167504
0.2464599609375,0.1722869873046875,9.731613159179688,-0.0035984728019684553,0.054481390863657,0.1031518504023552,0.10753449829268075,0.06906687288716894,0.1958351838826056
0.263214111328125,0.1674957275390625,9.717254638671875,-0.0034908426459878683,0.054481390863657,0.10314936190843582,0.17747563539361133,0.13988227420186114,0.1958351838826056
0.275177001953125,0.1555328369140625,9.710067749023438,-0.0033832646440714598,0.054481390863657,0.08952318876981735,0.037593361191750184,0.13988227420186114,0.12589404678167504
0.2560272216796875,0.16510009765625,9.714859008789062,-0.01689605973660946,0.06810173392295837,0.10314354300498962,0.10753449829268075,0.13988227420186114,0.1958351838826056
0.2608184814453125,0.16510009765625,9.71246337890625,-0.0032733487896621227,0.054481390863657,0.08952318876981735,0.10753449829268075,0.13988227420186114,0.12589404678167504
0.2560272216796875,0.1722869873046875,9.702896118164062,-0.0032709327060729265,0.06810173392295837,0.10314103960990906,0.037593361191750184,0.13988227420186114,0.12589404678167504
0.2679901123046875,0.1842498779296875,9.729217529296875,-0.0032709327060729265,0.04086104407906532,0.07590034604072571,0.10753449829268075,0.13988227420186114,0.12589404678167504
0.2656097412109375,0.1674957275390625,9.71246337890625,-0.0031633025500923395,0.054481390863657,0.08951570838689804,0.10753449829268075,0.20982341130279172,0.1958351838826056
0.263214111328125,0.1674957275390625,9.7340087890625,-0.003053282620385289,0.04086104407906532,0.07588954269886017,0.10753449829268075,0.06906687288716894,0.1958351838826056
0.2823486328125,0.169891357421875,9.719650268554688,-0.016456110402941704,0.054481390863657,0.0895048975944519,0.10753449829268075,0.13988227420186114,0.12589404678167504
0.275177001953125,0.1483612060546875,9.71246337890625,-0.016348479315638542,0.054481390863657,0.08950158208608627,0.10753449829268075,0.06906687288716894,0.12589404678167504
0.2584228515625,0.1674957275390625,9.68853759765625,-0.016133325174450874,0.054481390863657,0.08949825167655945,0.10753449829268075,0.13988227420186114,0.055952909680744456
0.275177001953125,0.157928466796875,9.707687377929688,-0.002515418455004692,0.054481390863657,0.08949825167655945,0.17747563539361133,0.13988227420186114,0.26577632098353615
0.2608184814453125,0.1914215087890625,9.73638916015625,-0.002510560443624854,0.054481390863657,0.08949575573205948,0.037593361191750184,0.13988227420186114,0.1958351838826056
0.263214111328125,0.157928466796875,9.726821899414062,-0.002510560443624854,0.054481390863657,0.08949575573205948,0.037593361191750184,0.13988227420186114,0.1958351838826056
0.2608184814453125,0.1794586181640625,9.695724487304688,-0.015798483043909073,0.054481390863657,0.08949492871761322,0.17747563539361133,0.06906687288716894,0.12589404678167504
0.2560272216796875,0.16510009765625,9.71246337890625,-0.015798483043909073,0.054481390863657,0.08949492871761322,0.17747563539361133,0.13988227420186114,0.12589404678167504
0.2703857421875,0.1794586181640625,9.690933227539062,-0.0022857144940644503,0.054481390863657,0.0894932672381401,0.10753449829268075,0.06906687288716894,0.12589404678167504
0.2727813720703125,0.169891357421875,9.71246337890625,-0.015906061977148056,0.04086104407906532,0.10311610996723175,0.037593361191750184,0.06906687288716894,0.1958351838826056
0.2656097412109375,0.16510009765625,9.717254638671875,-0.015906061977148056,0.04086104407906532,0.10311610996723175,0.037593361191750184,0.06906687288716894,0.1958351838826056
0.2679901123046875,0.1674957275390625,9.693328857421875,-0.015906061977148056,0.04086104407906532,0.10311610996723175,0.10753449829268075,0.06906687288716894,0.12589404678167504
0.2727813720703125,0.1986083984375,9.73638916015625,-0.002283298410475254,0.054481390863657,0.11673811823129654,0.17747563539361133,0.06906687288716894,0.1958351838826056
0.275177001953125,0.169891357421875,9.719650268554688,-0.0023933183401823044,0.04086104407906532,0.08949575573205948,0.17747563539361133,0.13988227420186114,0.1958351838826056
0.2679901123046875,0.157928466796875,9.710067749023438,-0.0023933183401823044,0.04086104407906532,0.08949575573205948,0.10753449829268075,0.20982341130279172,0.12589404678167504
0.2703857421875,0.1674957275390625,9.705291748046875,-0.00271605234593153,0.054481390863657,0.10312192887067795,0.10753449829268075,0.13988227420186114,0.12589404678167504
0.2799530029296875,0.1627044677734375,9.710067749023438,-0.0028284883592277765,0.054481390863657,0.10312192887067795,0.037593361191750184,0.13988227420186114,0.055952909680744456
0.2823486328125,0.17706298828125,9.7220458984375,-0.0028284883592277765,0.054481390863657,0.10312192887067795,0.10753449829268075,0.20982341130279172,0.055952909680744456
0.2727813720703125,0.181854248046875,9.710067749023438,-0.016563687473535538,0.054481390863657,0.08950740098953247,0.037593361191750184,0.06906687288716894,0.055952909680744456
0.2656097412109375,0.181854248046875,9.719650268554688,-0.003170654410496354,0.054481390863657,0.0895107239484787,0.10753449829268075,0,0.1958351838826056
0.263214111328125,0.169891357421875,9.693328857421875,-0.003170654410496354,0.054481390863657,0.0895107239484787,0.17747563539361133,0.06906687288716894,0.1958351838826056
0.2679901123046875,0.1722869873046875,9.702896118164062,-0.0030582186300307512,0.054481390863657,0.1031227558851242,0.037593361191750184,0.20982341130279172,0.12589404678167504
0.2775726318359375,0.1794586181640625,9.705291748046875,-0.003165744710713625,0.04086104407906532,0.08950323611497879,0.10753449829268075,0.06906687288716894,0.12589404678167504
0.2560272216796875,0.1794586181640625,9.693328857421875,-0.0032733744010329247,0.04086104407906532,0.08950573951005936,0.10753449829268075,0.13988227420186114,0.055952909680744456
0.2703857421875,0.1674957275390625,9.707687377929688,-0.016896111890673637,0.054481390863657,0.10312607884407043,0.10753449829268075,0.20982341130279172,0.12589404678167504
0.2608184814453125,0.1674957275390625,9.68853759765625,-0.003708570497110486,0.054481390863657,0.08951736986637115,0.10753449829268075,0.06906687288716894,0.26577632098353615
0.2703857421875,0.18902587890625,9.729217529296875,-0.0037085185758769512,0.054481390863657,0.08951903134584427,0.10753449829268075,0.06906687288716894,0.26577632098353615
0.263214111328125,0.16510009765625,9.710067749023438,-0.0036988025531172752,0.054481390863657,0.08951987326145172,0.10753449829268075,0.13988227420186114,0.26577632098353615
0.263214111328125,0.145965576171875,9.710067749023438,-0.003796742297708988,0.054481390863657,0.10314270853996277,0.10753449829268075,0.20982341130279172,0.12589404678167504
0.2727813720703125,0.1555328369140625,9.71246337890625,-0.003796742297708988,0.054481390863657,0.10314270853996277,0.10753449829268075,0.06906687288716894,0.12589404678167504
0.2703857421875,0.1722869873046875,9.729217529296875,-0.004119424615055323,0.054481390863657,0.10314936190843582,0.10753449829268075,0.13988227420186114,0.1958351838826056
0.2703857421875,0.1842498779296875,9.7340087890625,-0.00411700876429677,0.054481390863657,0.08952901512384415,0.17747563539361133,0.13988227420186114,0.1958351838826056
0.2727813720703125,0.1914215087890625,9.741180419921875,-0.004114566370844841,0.054481390863657,0.08952651917934418,0.10753449829268075,0.13988227420186114,0.12589404678167504
0.2584228515625,0.1794586181640625,9.693328857421875,-0.017734915018081665,0.04086104407906532,0.0759061723947525,0.17747563539361133,0.06906687288716894,0.055952909680744456
0.2344970703125,0.1794586181640625,9.738784790039062,-0.004009482450783253,0.054481390863657,0.10313855111598969,0.10753449829268075,0.13988227420186114,0.055952909680744456
0.251251220703125,0.1722869873046875,9.698104858398438,-0.003906710539013147,0.054481390863657,0.10313355922698975,0.10753449829268075,0.13988227420186114,0.1958351838826056
0.2727813720703125,0.1914215087890625,9.741180419921875,0.023221494629979134,0.054481390863657,0.07589785754680634,0.10753449829268075,0,0.12589404678167504
0.2799530029296875,0.1627044677734375,9.714859008789062,-0.0038040163926780224,0.04086104407906532,0.07589452713727951,0.10753449829268075,0.06906687288716894,0.12589404678167504
0.253631591796875,0.1722869873046875,9.71246337890625,-0.003801626618951559,0.04086104407906532,0.07589452713727951,0.10753449829268075,0.13988227420186114,0.12589404678167504
0.2703857421875,0.1746826171875,9.707687377929688,0.009818720631301403,0.054481390863657,0.08951488137245178,0.17747563539361133,0.20982341130279172,0.1958351838826056
0.2799530029296875,0.1842498779296875,9.7340087890625,-0.004014314617961645,0.054481390863657,0.08951820433139801,0.10753449829268075,0,0.12589404678167504
0.2679901123046875,0.17706298828125,9.71246337890625,-0.017529577016830444,0.04086104407906532,0.07589785754680634,0.17747563539361133,0.13988227420186114,0.12589404678167504
0.2703857421875,0.1603240966796875,9.719650268554688,-0.0035864966921508312,0.04086104407906532,0.08950240910053253,0.037593361191750184,0.13988227420186114,0.12589404678167504
0.2656097412109375,0.1627044677734375,9.705291748046875,-0.003476450452581048,0.06810173392295837,0.08950158208608627,0.037593361191750184,0.06906687288716894,0.12589404678167504
0.2727813720703125,0.1794586181640625,9.7220458984375,-0.0033688724506646395,0.06810173392295837,0.10312025994062424,0.17747563539361133,0.2797645484037223,0.12589404678167504
0.2847442626953125,0.1866455078125,9.7220458984375,-0.003371314611285925,0.054481390863657,0.08949741721153259,0.037593361191750184,0.13988227420186114,0.12589404678167504
0.251251220703125,0.169891357421875,9.705291748046875,-0.003371314611285925,0.054481390863657,0.08949741721153259,0.10753449829268075,0.06906687288716894,0.055952909680744456
0.263214111328125,0.1746826171875,9.72442626953125,-0.016888942569494247,0.04086104407906532,0.08949575573205948,0.037593361191750184,0.06906687288716894,0.1958351838826056
0.2775726318359375,0.169891357421875,9.726821899414062,-0.0031561844516545534,0.054481390863657,0.08949825167655945,0.10753449829268075,0.06906687288716894,0.12589404678167504
0.263214111328125,0.1555328369140625,9.70050048828125,-0.0031561844516545534,0.054481390863657,0.08949825167655945,0.10753449829268075,0.20982341130279172,0.1958351838826056
0.275177001953125,0.1627044677734375,9.719650268554688,0.01046902034431696,0.054481390863657,0.08949825167655945,0.17747563539361133,0.20982341130279172,0.12589404678167504
0.2799530029296875,0.193817138671875,9.729217529296875,-0.016556544229388237,0.054481390863657,0.0894857794046402,0.10753449829268075,0.06906687288716894,0.1958351838826056
0.2608184814453125,0.17706298828125,9.707687377929688,-0.016448913142085075,0.054481390863657,0.08948245644569397,0.17747563539361133,0,0.12589404678167504
0.2464599609375,0.17706298828125,9.707687377929688,-0.0027185464277863503,0.054481390863657,0.10309532284736633,0.10753449829268075,0.13988227420186114,0.055952909680744456
0.2703857421875,0.1627044677734375,9.705291748046875,-0.00261590420268476,0.04086104407906532,0.07584631443023682,0.10753449829268075,0.06906687288716894,0.12589404678167504
0.2560272216796875,0.17706298828125,9.695724487304688,-0.002508326433598995,0.04086104407906532,0.07584215700626373,0.10753449829268075,0.20982341130279172,0.12589404678167504
0.2703857421875,0.169891357421875,9.714859008789062,-0.0027234824374318123,0.054481390863657,0.10308534651994705,0.10753449829268075,0.13988227420186114,0.26577632098353615
0.2775726318359375,0.1674957275390625,9.714859008789062,-0.0026110203471034765,0.054481390863657,0.08946416527032852,0.10753449829268075,0.20982341130279172,0.12589404678167504
0.2608184814453125,0.181854248046875,9.717254638671875,-0.002718572271987796,0.054481390863657,0.0894683226943016,0.10753449829268075,0.06906687288716894,0.1958351838826056
0.2703857421875,0.1722869873046875,9.705291748046875,-0.0026061104144901037,0.054481390863657,0.1030845120549202,0.17747563539361133,0.20982341130279172,0.12589404678167504
0.2656097412109375,0.169891357421875,9.690933227539062,-0.00249858433380723,0.054481390863657,0.08946250379085541,0.10753449829268075,0.13988227420186114,0.12589404678167504
0.2703857421875,0.1722869873046875,9.726821899414062,-0.0023909283336251974,0.054481390863657,0.11669738590717316,0.10753449829268075,0.06906687288716894,0.1958351838826056
0.275177001953125,0.181854248046875,9.717254638671875,-0.015796145424246788,0.04086104407906532,0.08945086598396301,0.037593361191750184,0.20982341130279172,0.1958351838826056
0.263214111328125,0.1603240966796875,9.71246337890625,-0.0022858441807329655,0.054481390863657,0.08945419639348984,0.10753449829268075,0.13988227420186114,0.12589404678167504
0.275177001953125,0.1674957275390625,9.690933227539062,-0.0022858441807329655,0.054481390863657,0.08945419639348984,0.10753449829268075,0,0.12589404678167504
0.2679901123046875,0.1866455078125,9.726821899414062,-0.00196311017498374,0.054481390863657,0.08944587409496307,0.17747563539361133,0,0.1958351838826056
0.2679901123046875,0.15313720703125,9.717254638671875,-0.015153172425925732,0.054481390863657,0.10305209457874298,0.17747563539361133,0,0.1958351838826056
0.2584228515625,0.1866455078125,9.7220458984375,-0.014937990345060825,0.054481390863657,0.10304461419582367,0.10753449829268075,0,0.12589404678167504
0.2727813720703125,0.1627044677734375,9.705291748046875,-0.0011025381973013282,0.054481390863657,0.0894184410572052,0.10753449829268075,0,0.12589404678167504
0.253631591796875,0.1674957275390625,9.70050048828125,-0.000884914246853441,0.06810173392295837,0.10303296893835068,0.17747563539361133,0,0.33571745808446674
0.2679901123046875,0.17706298828125,9.717254638671875,-0.000884914246853441,0.06810173392295837,0.10303296893835068,0.10753449829268075,0,0.12589404678167504
0.2560272216796875,0.1746826171875,9.705291748046875,-0.0005548801273107529,0.054481390863657,0.10302133858203888,0.17747563539361133,0,0.055952909680744456
0.2560272216796875,0.17706298828125,9.693328857421875,-0.00034710209001787007,0.054481390863657,0.1030113622546196,0.17747563539361133,0.13988227420186114,0.1958351838826056
0.263214111328125,0.1603240966796875,9.702896118164062,-0.00045712210703641176,0.054481390863657,0.1030113622546196,0.10753449829268075,0.20982341130279172,0.1958351838826056
0.2727813720703125,0.157928466796875,9.710067749023438,-0.014287715777754784,0.054481390863657,0.10301551967859268,0.10753449829268075,0,0.1958351838826056
0.275177001953125,0.15313720703125,9.705291748046875,0.013173071667551994,0.054481390863657,0.10300719738006592,0.10753449829268075,0.13988227420186114,0.1958351838826056
0.2703857421875,0.1627044677734375,9.710067749023438,0.013175512664020061,0.054481390863657,0.10300387442111969,0.10753449829268075,0.06906687288716894,0.055952909680744456
0.263214111328125,0.16510009765625,9.693328857421875,-0.0141801368445158,0.06810173392295837,0.10300470888614655,0.17747563539361133,-0.13988227420186114,0.12589404678167504
0.2775726318359375,0.157928466796875,9.710067749023438,0.013380822725594044,0.04086104407906532,0.10299057513475418,0.037593361191750184,0.2797645484037223,0.12589404678167504
0.2727813720703125,0.15313720703125,9.705291748046875,0.013058088719844818,0.04086104407906532,0.10300222039222717,0.31735790959547244,0,0.12589404678167504
0.2488555908203125,0.1674957275390625,9.698104858398438,-0.0004546800919342786,0.06810173392295837,0.10298974812030792,0.037593361191750184,0.20982341130279172,0.26577632098353615
0.275177001953125,0.169891357421875,9.693328857421875,-0.014072559773921967,0.054481390863657,0.10299389809370041,0.2474167724945419,-0.0708154013146922,0.12589404678167504
0.263214111328125,0.15313720703125,9.690933227539062,-0.013965007849037647,0.054481390863657,0.08936607837677002,0.17747563539361133,0,0.12589404678167504
0.253631591796875,0.1794586181640625,9.698104858398438,-0.0003446341142989695,0.06810173392295837,0.11660261452198029,0.037593361191750184,0.13988227420186114,0.12589404678167504
0.2703857421875,0.169891357421875,9.702896118164062,-0.0003447120252531022,0.04086104407906532,0.10297727584838867,0.037593361191750184,0.13988227420186114,0.1958351838826056
0.2560272216796875,0.1842498779296875,9.70050048828125,-0.0003447120252531022,0.04086104407906532,0.10297394543886185,0.10753449829268075,0,0.1958351838826056
0.2679901123046875,0.1555328369140625,9.71246337890625,-0.0003397761029191315,0.054481390863657,0.10297394543886185,0.037593361191750184,0,0.1958351838826056
0.2703857421875,0.1746826171875,9.698104858398438,-0.00022723613074049354,0.08172208815813065,0.08935360610485077,0.10753449829268075,0.06906687288716894,0.1958351838826056
0.2703857421875,0.169891357421875,9.710067749023438,-0.0002247421653009951,0.08172208815813065,0.08935360610485077,0.10753449829268075,0.20982341130279172,0.1958351838826056
0.253631591796875,0.15313720703125,9.707687377929688,-0.0004398981691338122,0.054481390863657,0.10298226773738861,0.037593361191750184,0.13988227420186114,0.1958351838826056
0.2560272216796875,0.1746826171875,9.671783447265625,0.026590578258037567,0.054481390863657,0.10298808664083481,0.037593361191750184,0.06906687288716894,0.1958351838826056
0.2584228515625,0.181854248046875,9.698104858398438,0.026590578258037567,0.054481390863657,0.10298808664083481,0.10753449829268075,0.06906687288716894,0.1958351838826056
0.2775726318359375,0.157928466796875,9.690933227539062,-0.0007502923253923655,0.04086104407906532,0.10299307852983475,0.037593361191750184,0.20982341130279172,0.1958351838826056
0.263214111328125,0.16510009765625,9.70050048828125,-0.014585874043405056,0.06810173392295837,0.1166217252612114,0.17747563539361133,0.06906687288716894,0.12589404678167504
0.2608184814453125,0.169891357421875,9.70050048828125,-0.014585795812308788,0.06810173392295837,0.1166217252612114,0.10753449829268075,0.20982341130279172,0.1958351838826056
0.2584228515625,0.1794586181640625,9.678970336914062,-0.0011806043330579996,0.04086104407906532,0.07576318085193634,0.10753449829268075,0.06906687288716894,0.12589404678167504
0.2823486328125,0.157928466796875,9.695724487304688,-0.0011781624052673578,0.054481390863657,0.11662256717681885,0.037593361191750184,0.06906687288716894,0.1958351838826056
0.2703857421875,0.169891357421875,9.717254638671875,-0.001175694284029305,0.054481390863657,0.11662422865629196,0.10753449829268075,0.06906687288716894,0.1958351838826056
0.275177001953125,0.1746826171875,9.72442626953125,-0.01490112580358982,0.06810173392295837,0.10300719738006592,0.17747563539361133,0.13988227420186114,0.12589404678167504
0.2775726318359375,0.16510009765625,9.71246337890625,-0.028739070519804955,0.054481390863657,0.0893876850605011,0.10753449829268075,0.13988227420186114,0.1958351838826056
0.263214111328125,0.181854248046875,9.702896118164062,-0.028844155371189117,0.054481390863657,0.08939018100500107,0.10753449829268075,0.13988227420186114,0.055952909680744456
0.2727813720703125,0.1603240966796875,9.707687377929688,-0.001826020423322916,0.054481390863657,0.10301634669303894,0.037593361191750184,0.20982341130279172,0.12589404678167504
0.2799530029296875,0.1842498779296875,9.726821899414062,-0.01555397268384695,0.054481390863657,0.08939933031797409,0.10753449829268075,0.06906687288716894,0.12589404678167504
0.2656097412109375,0.17706298828125,9.71246337890625,-0.001933624385856092,0.054481390863657,0.10301966965198517,0.10753449829268075,0.06906687288716894,0.12589404678167504
0.2584228515625,0.1722869873046875,9.693328857421875,-0.0019361183512955904,0.054481390863657,0.1030171811580658,0.17747563539361133,0.13988227420186114,0.055952909680744456
0.2584228515625,0.1603240966796875,9.710067749023438,-0.0022612945176661015,0.054481390863657,0.10301966965198517,0.10753449829268075,0.20982341130279172,0.12589404678167504
0.2703857421875,0.1722869873046875,9.710067749023438,-0.002476476365700364,0.054481390863657,0.10302548855543137,0.10753449829268075,0.06906687288716894,0.26577632098353615
0.2823486328125,0.181854248046875,9.717254638671875,-0.0025815863627940416,0.054481390863657,0.10302632302045822,0.10753449829268075,0.13988227420186114,0.1958351838826056
0.2727813720703125,0.1674957275390625,9.71246337890625,-0.0027967423666268587,0.054481390863657,0.10302632302045822,0.17747563539361133,0.13988227420186114,0.1958351838826056
0.263214111328125,0.1555328369140625,9.70050048828125,-0.0029042945243418217,0.054481390863657,0.10302715003490448,0.10753449829268075,0.13988227420186114,0.1958351838826056
0.251251220703125,0.1842498779296875,9.695724487304688,-0.003116956679150462,0.06810173392295837,0.10303296893835068,0.10753449829268075,0.13988227420186114,0.12589404678167504
0.2775726318359375,0.18902587890625,9.73638916015625,0.010183150880038738,0.054481390863657,0.1302819848060608,0.10753449829268075,0.06906687288716894,0.1958351838826056
0.2464599609375,0.181854248046875,9.698104858398438,0.010183150880038738,0.054481390863657,0.1302819848060608,0.17747563539361133,0.06906687288716894,0.1958351838826056
0.287139892578125,0.1722869873046875,9.695724487304688,-0.0035373708233237267,0.054481390863657,0.11666163057088852,0.17747563539361133,0.06906687288716894,0.1958351838826056
0.2799530029296875,0.1627044677734375,9.695724487304688,-0.0035324348136782646,0.054481390863657,0.10303713381290436,0.10753449829268075,0.06906687288716894,0.1958351838826056
0.2560272216796875,0.1794586181640625,9.695724487304688,-0.0035324348136782646,0.054481390863657,0.10303713381290436,0.17747563539361133,0.13988227420186114,0.055952909680744456
0.2727813720703125,0.1914215087890625,9.73638916015625,0.009977814741432667,0.04086104407906532,0.11665497720241547,0.17747563539361133,0.06906687288716894,0.4056585951853973
0.2679901123046875,0.1674957275390625,9.707687377929688,-0.0035250047221779823,0.054481390863657,0.08940596878528595,0.10753449829268075,0.06906687288716894,0.1958351838826056
0.2823486328125,0.1722869873046875,9.70050048828125,-0.003524926956743002,0.054481390863657,0.08940596878528595,0.17747563539361133,0.13988227420186114,0.1958351838826056
0.2847442626953125,0.15313720703125,9.70050048828125,-0.017037775367498398,0.054481390863657,0.10301884263753891,0.10753449829268075,0.13988227420186114,0.12589404678167504
0.251251220703125,0.1746826171875,9.726821899414062,-0.016927728429436684,0.054481390863657,0.08939766138792038,0.17747563539361133,0.13988227420186114,0.1958351838826056
0.2679901123046875,0.1507415771484375,9.710067749023438,-0.016925260424613953,0.054481390863657,0.08939517289400101,0.17747563539361133,0.06906687288716894,0.1958351838826056
0.2608184814453125,0.16510009765625,9.690933227539062,-0.0031923470087349415,0.06810173392295837,0.1030113622546196,0.10753449829268075,0.13988227420186114,0.1958351838826056
0.263214111328125,0.1746826171875,9.707687377929688,-0.0030797808431088924,0.054481390863657,0.0893876850605011,0.17747563539361133,0.13988227420186114,0.1958351838826056
0.275177001953125,0.1674957275390625,9.729217529296875,-0.002969682915136218,0.0272406954318285,0.07576235383749008,0.10753449829268075,0.20982341130279172,0.1958351838826056
0.251251220703125,0.1794586181640625,9.719650268554688,-0.002857169136404991,0.04086104407906532,0.07575902342796326,0.037593361191750184,0.13988227420186114,0.12589404678167504
0.251251220703125,0.169891357421875,9.698104858398438,0.010978360660374165,0.054481390863657,0.10299389809370041,0.17747563539361133,0.06906687288716894,0.12589404678167504
0.2775726318359375,0.1722869873046875,9.690933227539062,0.011085912585258484,0.054481390863657,0.10298891365528107,0.037593361191750184,0.06906687288716894,0.12589404678167504
0.263214111328125,0.17706298828125,9.695724487304688,0.011301016435027122,0.054481390863657,0.10298392921686172,0.037593361191750184,0.06906687288716894,0.12589404678167504
0.2679901123046875,0.16510009765625,9.698104858398438,0.011516120284795761,0.054481390863657,0.08936025947332382,0.10753449829268075,0.06906687288716894,0.1958351838826056
0.2608184814453125,0.169891357421875,9.690933227539062,0.01162619236856699,0.054481390863657,0.089356929063797,0.17747563539361133,0.13988227420186114,-0.013988227420186114
0.263214111328125,0.1746826171875,9.698104858398438,-0.0020016108173877,0.054481390863657,0.11659513413906097,0.10753449829268075,0.20982341130279172,0.1958351838826056
0.2608184814453125,0.1627044677734375,9.705291748046875,-0.0021116307470947504,0.04086104407906532,0.07573740929365158,0.10753449829268075,0.06906687288716894,0.12589404678167504
0.2656097412109375,0.1674957275390625,9.70050048828125,-0.0021116307470947504,0.04086104407906532,0.07573740929365158,0.10753449829268075,0.06906687288716894,0.12589404678167504
0.2584228515625,0.1746826171875,9.7220458984375,-0.0018965527415275574,0.054481390863657,0.08935193717479706,0.10753449829268075,0.06906687288716894,0.12589404678167504
0.263214111328125,0.1722869873046875,9.705291748046875,-0.015301770530641079,0.054481390863657,0.1029689610004425,0.037593361191750184,0.06906687288716894,0.1958351838826056
0.2775726318359375,0.1746826171875,9.7220458984375,-0.01519169844686985,0.054481390863657,0.10296646505594254,0.17747563539361133,0.20982341130279172,0.12589404678167504
0.275177001953125,0.1746826171875,9.707687377929688,-0.0015738187357783318,0.054481390863657,0.10296065360307693,0.10753449829268075,0.13988227420186114,0.055952909680744456
0.2560272216796875,0.16510009765625,9.719650268554688,-0.0014737225137650967,0.054481390863657,0.08933614194393158,0.10753449829268075,0.06906687288716894,0.12589404678167504
0.2656097412109375,0.1794586181640625,9.714859008789062,-0.00136614462826401,0.054481390863657,0.0893319845199585,0.10753449829268075,0.06906687288716894,0.26577632098353615
0.263214111328125,0.169891357421875,9.690933227539062,-0.001363676623441279,0.054481390863657,0.10295233130455017,0.10753449829268075,0.06906687288716894,0.12589404678167504
0.2608184814453125,0.17706298828125,9.698104858398438,-0.0014687345828860998,0.054481390863657,0.10295316576957703,0.10753449829268075,0.13988227420186114,0.12589404678167504
0.2608184814453125,0.1603240966796875,9.717254638671875,-0.0014687345828860998,0.054481390863657,0.10295316576957703,0.10753449829268075,0.06906687288716894,0.12589404678167504
0.2679901123046875,0.157928466796875,9.719650268554688,-0.001358688692562282,0.054481390863657,0.10294568538665771,0.10753449829268075,0.06906687288716894,0.1958351838826056
0.2823486328125,0.145965576171875,9.707687377929688,-0.014979036524891853,0.054481390863657,0.10294818133115768,0.10753449829268075,0.06906687288716894,0.055952909680744456
0.2584228515625,0.1674957275390625,9.690933227539062,-0.001361156697385013,0.054481390863657,0.11656852066516876,0.10753449829268075,0.06906687288716894,0.1958351838826056
0.2560272216796875,0.169891357421875,9.7220458984375,-0.0014662406174466014,0.054481390863657,0.08932866156101227,0.17747563539361133,0.13988227420186114,0.12589404678167504
0.275177001953125,0.169891357421875,9.72442626953125,-0.0015737927751615644,0.054481390863657,0.08932866156101227,0.10753449829268075,0.06906687288716894,0.1958351838826056
0.2584228515625,0.1627044677734375,9.72442626953125,-0.0015737927751615644,0.054481390863657,0.08932866156101227,0.037593361191750184,0.06906687288716894,0.055952909680744456
0.2727813720703125,0.1794586181640625,9.717254638671875,-0.0016863846685737371,0.054481390863657,0.11657185107469559,0.17747563539361133,0.06906687288716894,0.12589404678167504
0.2727813720703125,0.157928466796875,9.695724487304688,-0.01530673261731863,0.06810173392295837,0.10294651240110397,0.10753449829268075,0.13988227420186114,0.1958351838826056
0.2656097412109375,0.1555328369140625,9.710067749023438,-0.015411816537380219,0.06810173392295837,0.10294901579618454,0.17747563539361133,0.13988227420186114,0.1958351838826056
0.2656097412109375,0.1674957275390625,9.717254638671875,-0.015511913225054741,0.06810173392295837,0.10294651240110397,0.2474167724945419,0.13988227420186114,0.12589404678167504
0.2847442626953125,0.1794586181640625,9.710067749023438,-0.029342401772737503,0.04086104407906532,0.10294735431671143,0.10753449829268075,0.13988227420186114,0.1958351838826056
0.275177001953125,0.2010040283203125,9.7459716796875,-0.029342401772737503,0.04086104407906532,0.10294735431671143,0.10753449829268075,0.20982341130279172,0.1958351838826056
0.263214111328125,0.1866455078125,9.726821899414062,-0.0025294991210103035,0.0272406954318285,0.07571829110383987,0.10753449829268075,0.13988227420186114,0.12589404678167504
0.2823486328125,0.157928466796875,9.70050048828125,-0.0027421610429883003,0.054481390863657,0.10295981168746948,0.10753449829268075,0.13988227420186114,0.1958351838826056
0.2727813720703125,0.157928466796875,9.71246337890625,-0.0027396411169320345,0.054481390863657,0.10295981168746948,0.10753449829268075,0.20982341130279172,0.12589404678167504
0.2608184814453125,0.16510009765625,9.70050048828125,-0.0029547451995313168,0.054481390863657,0.10296480357646942,0.037593361191750184,0.06906687288716894,0.1958351838826056
0.2703857421875,0.1627044677734375,9.690933227539062,-0.0030573613476008177,0.06810173392295837,0.10296480357646942,0.10753449829268075,0.20982341130279172,0.1958351838826056
0.2775726318359375,0.157928466796875,9.70050048828125,-0.003057309426367283,0.06810173392295837,0.10296813398599625,0.10753449829268075,0.13988227420186114,0.1958351838826056
0.253631591796875,0.1746826171875,9.686141967773438,-0.003057309426367283,0.054481390863657,0.08934778720140457,0.037593361191750184,0.13988227420186114,0.1958351838826056
0.2679901123046875,0.1627044677734375,9.707687377929688,0.01035289652645588,0.054481390863657,0.11659346520900726,0.10753449829268075,0.13988227420186114,0.26577632098353615
0.2679901123046875,0.181854248046875,9.710067749023438,0.010250331833958626,0.054481390863657,0.11659679561853409,0.037593361191750184,0.06906687288716894,0.12589404678167504
0.287139892578125,0.157928466796875,9.693328857421875,-0.017095446586608887,0.06810173392295837,0.10298143327236176,0.10753449829268075,0.13988227420186114,0.12589404678167504
0.287139892578125,0.1722869873046875,9.710067749023438,-0.0034750995691865683,0.054481390863657,0.10298143327236176,0.10753449829268075,0.13988227420186114,0.12589404678167504
0.2679901123046875,0.157928466796875,9.710067749023438,-0.0034750995691865683,0.054481390863657,0.11660177260637283,0.10753449829268075,0.06906687288716894,0.1958351838826056
0.2560272216796875,0.1794586181640625,9.698104858398438,-0.003254929557442665,0.054481390863657,0.10297394543886185,0.17747563539361133,0.06906687288716894,0.33571745808446674
0.251251220703125,0.181854248046875,9.698104858398438,-0.0030322656966745853,0.04086104407906532,0.10296563804149628,0.10753449829268075,0.06906687288716894,0.1958351838826056
0.2656097412109375,0.1746826171875,9.72442626953125,-0.002924687694758177,0.04086104407906532,0.10296231508255005,0.17747563539361133,0.06906687288716894,0.12589404678167504
0.2703857421875,0.169891357421875,9.702896118164062,-0.002817109925672412,0.054481390863657,0.08933697640895844,0.17747563539361133,0.13988227420186114,0.055952909680744456
0.2584228515625,0.1794586181640625,9.705291748046875,-0.0030373057816177607,0.054481390863657,0.10295815765857697,0.10753449829268075,0.13988227420186114,0.12589404678167504
0.2799530029296875,0.1746826171875,9.726821899414062,-0.0031473254784941673,0.054481390863657,0.10296314209699631,0.10753449829268075,0.13988227420186114,0.26577632098353615
0.2584228515625,0.1794586181640625,9.71246337890625,-0.016760164871811867,0.054481390863657,0.08934362232685089,0.037593361191750184,0.13988227420186114,0.1958351838826056
0.2560272216796875,0.1603240966796875,9.7220458984375,-0.016760164871811867,0.054481390863657,0.08934362232685089,0.037593361191750184,0.13988227420186114,0.12589404678167504
0.2656097412109375,0.169891357421875,9.714859008789062,0.010482997633516788,0.04086104407906532,0.07572327554225922,-0.032347775909180386,0.13988227420186114,0.055952909680744456
0.275177001953125,0.1674957275390625,9.705291748046875,-0.003142337780445814,0.054481390863657,0.10296813398599625,0.10753449829268075,0.06906687288716894,0.12589404678167504
0.275177001953125,0.1603240966796875,9.698104858398438,-0.0030347337014973164,0.054481390863657,0.089345283806324,0.10753449829268075,0.13988227420186114,0.12589404678167504
0.2799530029296875,0.1555328369140625,9.690933227539062,-0.0030347337014973164,0.054481390863657,0.08934196829795837,0.10753449829268075,0.13988227420186114,0.12589404678167504
0.2488555908203125,0.1722869873046875,9.681365966796875,-0.0029246618505567312,0.054481390863657,0.10295815765857697,0.10753449829268075,0.13988227420186114,0.12589404678167504
0.2679901123046875,0.181854248046875,9.72442626953125,-0.002814563689753413,0.04086104407906532,0.10295483469963074,0.10753449829268075,0.20982341130279172,0.1958351838826056
0.2727813720703125,0.1746826171875,9.71246337890625,-0.002814563689753413,0.04086104407906532,0.10295483469963074,-0.032347775909180386,0.20982341130279172,0.055952909680744456
0.253631591796875,0.181854248046875,9.686141967773438,-0.002927155699580908,0.054481390863657,0.10296065360307693,0.037593361191750184,0.13988227420186114,0.1958351838826056
0.263214111328125,0.16510009765625,9.707687377929688,-0.0028196037746965885,0.054481390863657,0.08934196829795837,0.17747563539361133,0.13988227420186114,0.1958351838826056
0.2799530029296875,0.1746826171875,9.71246337890625,-0.002817109925672412,0.054481390863657,0.08933946490287781,0.037593361191750184,0.13988227420186114,0.1958351838826056
0.2703857421875,0.1627044677734375,9.714859008789062,-0.016324838623404503,0.054481390863657,0.08933946490287781,0.17747563539361133,0.06906687288716894,0.1958351838826056
0.2727813720703125,0.1674957275390625,9.71246337890625,-0.0025943939108401537,0.054481390863657,0.10295483469963074,0.17747563539361133,0.20982341130279172,0.12589404678167504
0.275177001953125,0.1674957275390625,9.70050048828125,-0.0025943939108401537,0.054481390863657,0.10295483469963074,0.17747563539361133,0.20982341130279172,0.055952909680744456
0.253631591796875,0.1746826171875,9.681365966796875,-0.0025943939108401537,0.054481390863657,0.10295483469963074,0.10753449829268075,0.20982341130279172,0.12589404678167504
0.2584228515625,0.157928466796875,9.7220458984375,0.010805809870362282,0.054481390863657,0.10295483469963074,0.037593361191750184,0.06906687288716894,0.1958351838826056
0.2799530029296875,0.1674957275390625,9.702896118164062,0.011020991951227188,0.054481390863657,0.10294651240110397,0.10753449829268075,0.20982341130279172,0.055952909680744456
0.2823486328125,0.169891357421875,9.702896118164062,-0.00270942784845829,0.06810173392295837,0.08932949602603912,0.10753449829268075,0.13988227420186114,0.26577632098353615
0.275177001953125,0.18902587890625,9.738784790039062,-0.016324788331985474,0.04086104407906532,0.07570665329694748,0.17747563539361133,0.13988227420186114,0.1958351838826056
0.2560272216796875,0.17706298828125,9.719650268554688,-0.016324760392308235,0.04086104407906532,0.0757041648030281,0.10753449829268075,0.13988227420186114,-0.013988227420186114
0.2727813720703125,0.1866455078125,9.729217529296875,0.01090837363153696,0.054481390863657,0.08932118117809296,0.17747563539361133,0.20982341130279172,0.12589404678167504
0.275177001953125,0.17706298828125,9.726821899414062,0.01090837363153696,0.054481390863657,0.08932118117809296,0.10753449829268075,0.20982341130279172,0.12589404678167504
0.2679901123046875,0.1722869873046875,9.707687377929688,-0.01654747687280178,0.054481390863657,0.0757041648030281,0.10753449829268075,0.13988227420186114,0.26577632098353615
0.263214111328125,0.157928466796875,9.702896118164062,0.010805809870362282,0.054481390863657,0.11656021326780319,0.10753449829268075,0.13988227420186114,0.12589404678167504
0.2560272216796875,0.169891357421875,9.707687377929688,-0.002817058004438877,0.054481390863657,0.11656021326780319,0.17747563539361133,0.20982341130279172,0.055952909680744456
0.2656097412109375,0.1842498779296875,9.729217529296875,-0.0029271298553794622,0.054481390863657,0.11656021326780319,0.037593361191750184,0.20982341130279172,0.055952909680744456
0.2799530029296875,0.16510009765625,9.710067749023438,-0.016767673194408417,0.054481390863657,0.08932783454656601,0.037593361191750184,0.20982341130279172,0.1958351838826056
0.2727813720703125,0.17706298828125,9.7220458984375,-0.016767673194408417,0.054481390863657,0.08932783454656601,0.10753449829268075,0.13988227420186114,0.12589404678167504
0.263214111328125,0.1555328369140625,9.717254638671875,-0.003144779708236456,0.04086104407906532,0.07570748031139374,0.17747563539361133,0.13988227420186114,0.12589404678167504
0.275177001953125,0.1842498779296875,9.731613159179688,-0.003144779708236456,0.04086104407906532,0.07570498436689377,0.10753449829268075,0.13988227420186114,0.1958351838826056
0.275177001953125,0.1842498779296875,9.731613159179688,-0.0029296239372342825,0.06810173392295837,0.08931702375411987,0.10753449829268075,0.13988227420186114,0.1958351838826056
0.2727813720703125,0.17706298828125,9.710067749023438,0.010585639625787735,0.04086104407906532,0.10294318944215775,0.10753449829268075,0.20982341130279172,0.12589404678167504
0.2823486328125,0.1627044677734375,9.70050048828125,0.010478061623871326,0.04086104407906532,0.10294568538665771,0.10753449829268075,0.13988227420186114,0.055952909680744456
0.263214111328125,0.157928466796875,9.719650268554688,-0.016767647117376328,0.06810173392295837,0.10294568538665771,0.10753449829268075,0.13988227420186114,0.1958351838826056
0.2775726318359375,0.1746826171875,9.719650268554688,-0.016762632876634598,0.054481390863657,0.10294318944215775,0.10753449829268075,0.20982341130279172,0.1958351838826056
0.2488555908203125,0.157928466796875,9.705291748046875,-0.01687023788690567,0.054481390863657,0.11656685918569565,-0.032347775909180386,0.06906687288716894,0.1958351838826056
0.2703857421875,0.16510009765625,9.702896118164062,0.010585665702819824,0.054481390863657,0.11656354367733002,0.10753449829268075,0.20982341130279172,0.12589404678167504
0.2727813720703125,0.1722869873046875,9.714859008789062,-0.016762632876634598,0.054481390863657,0.10294568538665771,0.17747563539361133,0.13988227420186114,0.12589404678167504
0.251251220703125,0.1674957275390625,9.71246337890625,-0.016762658953666687,0.054481390863657,0.10294318944215775,0.17747563539361133,0.06906687288716894,0.1958351838826056
0.2703857421875,0.17706298828125,9.714859008789062,0.010695685632526875,0.054481390863657,0.10293488204479218,0.10753449829268075,0,0.12589404678167504
0.2679901123046875,0.1746826171875,9.707687377929688,-0.002601953921839595,0.054481390863657,0.10292407125234604,0.037593361191750184,0.13988227420186114,0.055952909680744456
0.275177001953125,0.16510009765625,9.719650268554688,-0.002604421693831682,0.054481390863657,0.10292407125234604,0.037593361191750184,0.13988227420186114,0.055952909680744456
0.2799530029296875,0.1507415771484375,9.705291748046875,-0.016127271577715874,0.054481390863657,0.10292655974626541,0.10753449829268075,0.13988227420186114,0.1958351838826056
0.275177001953125,0.1794586181640625,9.731613159179688,-0.016119737178087234,0.054481390863657,0.08930289000272751,0.037593361191750184,0.06906687288716894,0.1958351838826056
0.287139892578125,0.1603240966796875,9.70050048828125,-0.016119737178087234,0.054481390863657,0.08930289000272751,0.037593361191750184,0.06906687288716894,0.12589404678167504
0.2703857421875,0.1866455078125,9.7340087890625,-0.01600966416299343,0.054481390863657,0.10292323678731918,0.17747563539361133,0.06906687288716894,0.12589404678167504
0.251251220703125,0.1794586181640625,9.690933227539062,-0.002174187684431672,0.04086104407906532,0.08929458260536194,0.10753449829268075,0.13988227420186114,0.12589404678167504
0.2560272216796875,0.1627044677734375,9.705291748046875,-0.002174187684431672,0.04086104407906532,0.08929458260536194,0.037593361191750184,0.13988227420186114,0.12589404678167504
0.263214111328125,0.15313720703125,9.71246337890625,0.011443691328167915,0.04086104407906532,0.11653526872396469,0.037593361191750184,0.06906687288716894,0.12589404678167504
0.263214111328125,0.157928466796875,9.71246337890625,-0.001964019611477852,0.06810173392295837,0.089289590716362,0.17747563539361133,0.06906687288716894,0.12589404678167504
0.239288330078125,0.1794586181640625,9.70050048828125,-0.001851479522883892,0.06810173392295837,0.08928127586841583,0.17747563539361133,0.06906687288716894,0.1958351838826056
0.2464599609375,0.1746826171875,9.690933227539062,0.011989090591669083,0.04086104407906532,0.11650950461626053,0.10753449829268075,0.13988227420186114,0.12589404678167504
0.2727813720703125,0.145965576171875,9.71246337890625,0.012096745893359184,0.04086104407906532,0.07564513385295868,0.10753449829268075,0.13988227420186114,0.12589404678167504
0.275177001953125,0.1483612060546875,9.695724487304688,0.012096745893359184,0.04086104407906532,0.07564513385295868,0.17747563539361133,0.13988227420186114,0.12589404678167504
0.2679901123046875,0.18902587890625,9.717254638671875,-0.0015236538602039218,0.054481390863657,0.10288083553314209,0.037593361191750184,0.13988227420186114,0.12589404678167504
0.2656097412109375,0.1674957275390625,9.690933227539062,-0.015148988924920559,0.054481390863657,0.08926298469305038,0.17747563539361133,0.20982341130279172,0.1958351838826056
0.263214111328125,0.1674957275390625,9.695724487304688,-0.015148988924920559,0.054481390863657,0.08926298469305038,0.10753449829268075,0.13988227420186114,0.1958351838826056
0.2895355224609375,0.157928466796875,9.693328857421875,-0.0015210818964987993,0.054481390863657,0.10288333892822266,0.10753449829268075,0.06906687288716894,0.1958351838826056
0.2679901123046875,0.1627044677734375,9.705291748046875,-0.014921233057975769,0.06810173392295837,0.10287502408027649,0.17747563539361133,0.13988227420186114,0.1958351838826056
0.251251220703125,0.1746826171875,9.702896118164062,-0.01492120698094368,0.06810173392295837,0.10287252813577652,0.17747563539361133,0.13988227420186114,0.12589404678167504
0.2727813720703125,0.157928466796875,9.690933227539062,-0.014926299452781677,0.054481390863657,0.0892471969127655,0.17747563539361133,0.20982341130279172,0.12589404678167504
0.2656097412109375,0.1555328369140625,9.702896118164062,-0.0013084717793390155,0.054481390863657,0.08924220502376556,0.10753449829268075,0.13988227420186114,0.26577632098353615
0.2847442626953125,0.1746826171875,9.698104858398438,-0.0013034319272264838,0.054481390863657,0.08924220502376556,0.037593361191750184,0.06906687288716894,0.26577632098353615
0.2608184814453125,0.1674957275390625,9.674179077148438,-0.014811135828495026,0.054481390863657,0.10286172479391098,0.10753449829268075,0.13988227420186114,0.12589404678167504
0.251251220703125,0.1627044677734375,9.707687377929688,-0.0011882680701091886,0.054481390863657,0.10286005586385727,0.10753449829268075,0.13988227420186114,0.1958351838826056
0.2823486328125,0.1603240966796875,9.693328857421875,-0.0011882680701091886,0.054481390863657,0.10286005586385727,0.10753449829268075,0.13988227420186114,0.12589404678167504
0.275177001953125,0.16510009765625,9.717254638671875,-0.014806017279624939,0.06810173392295837,0.10286005586385727,0.10753449829268075,0.06906687288716894,0.12589404678167504
0.275177001953125,0.169891357421875,9.70050048828125,-0.014598472975194454,0.06810173392295837,0.10285590589046478,0.037593361191750184,0.06906687288716894,0.055952909680744456
0.2823486328125,0.1722869873046875,9.690933227539062,-0.014493441209197044,0.06810173392295837,0.10285590589046478,0.17747563539361133,0.13988227420186114,0.26577632098353615
0.2727813720703125,0.16510009765625,9.690933227539062,-0.0007604499696753919,0.054481390863657,0.10284842550754547,0.10753449829268075,0.06906687288716894,0.1958351838826056
0.2775726318359375,0.181854248046875,9.729217529296875,-0.014163121581077576,0.054481390863657,0.089222252368927,0.10753449829268075,0.13988227420186114,0.12589404678167504
0.2656097412109375,0.193817138671875,9.73638916015625,-0.01416564080864191,0.054481390863657,0.08921976387500763,0.10753449829268075,0.20982341130279172,0.055952909680744456
0.253631591796875,0.1722869873046875,9.695724487304688,-0.0006605357630178332,0.04086104407906532,0.10284010320901871,0.17747563539361133,0.20982341130279172,0.12589404678167504
0.2608184814453125,0.17706298828125,9.693328857421875,-0.0007680877461098135,0.054481390863657,0.08921809494495392,0.17747563539361133,0.13988227420186114,0.12589404678167504
0.2703857421875,0.16510009765625,9.705291748046875,-0.000768061785493046,0.054481390863657,0.08921560645103455,0.10753449829268075,0.13988227420186114,0.1958351838826056
0.2799530029296875,0.157928466796875,9.710067749023438,-0.0006553919520229101,0.054481390863657,0.11645296961069107,0.10753449829268075,0.06906687288716894,0.1958351838826056
0.2799530029296875,0.16510009765625,9.71246337890625,-0.00043524798820726573,0.054481390863657,0.1028268039226532,0.10753449829268075,0.13988227420186114,0.1958351838826056
0.275177001953125,0.16510009765625,9.698104858398438,-0.00043524798820726573,0.054481390863657,0.1028268039226532,0.10753449829268075,0.13988227420186114,0.1958351838826056
0.2727813720703125,0.1507415771484375,9.705291748046875,-0.014163173735141754,0.06810173392295837,0.10283096134662628,0.10753449829268075,0.13988227420186114,0.12589404678167504
0.2608184814453125,0.15313720703125,9.7220458984375,-0.000542774039786309,0.08172208815813065,0.08920396119356155,0.10753449829268075,0.13988227420186114,0.1958351838826056
0.2488555908203125,0.1746826171875,9.72442626953125,-0.0005402541137300432,0.08172208815813065,0.08920229971408844,0.10753449829268075,0.20982341130279172,0.1958351838826056
0.251251220703125,0.181854248046875,9.702896118164062,0.013085158541798592,0.054481390863657,0.13006001710891724,0.10753449829268075,0.13988227420186114,0.1958351838826056
0.2656097412109375,0.1674957275390625,9.698104858398438,-0.0005300964112393558,0.06810173392295837,0.10282015055418015,0.10753449829268075,0.13988227420186114,0.1958351838826056
0.2775726318359375,0.1603240966796875,9.705291748046875,-0.0006377004319801927,0.06810173392295837,0.1028209924697876,0.037593361191750184,0.13988227420186114,0.12589404678167504
0.2727813720703125,0.181854248046875,9.726821899414062,-0.01425547618418932,0.08172208815813065,0.10282265394926071,0.037593361191750184,0.13988227420186114,0.12589404678167504
0.253631591796875,0.1722869873046875,9.719650268554688,-0.0006326085422188044,0.054481390863657,0.11644799262285233,0.17747563539361133,0.13988227420186114,0.26577632098353615
0.2727813720703125,0.1603240966796875,9.702896118164062,-0.0006275427294895053,0.08172208815813065,0.10282514244318008,0.037593361191750184,0.06906687288716894,0.26577632098353615
0.253631591796875,0.1674957275390625,9.68853759765625,0.012997949495911598,0.054481390863657,0.10283096134662628,0.10753449829268075,0.13988227420186114,0.1958351838826056
0.275177001953125,0.16510009765625,9.71246337890625,-0.014240199699997902,0.054481390863657,0.10283096134662628,0.037593361191750184,0.13988227420186114,0.12589404678167504
0.29193115234375,0.1603240966796875,9.693328857421875,-0.014240199699997902,0.054481390863657,0.10283096134662628,0.037593361191750184,0.20982341130279172,0.12589404678167504
0.2703857421875,0.169891357421875,9.681365966796875,-0.0007274569943547249,0.054481390863657,0.11645547300577164,0.10753449829268075,0.13988227420186114,0.12589404678167504
0.2679901123046875,0.1746826171875,9.695724487304688,-0.0007248591282404959,0.054481390863657,0.1028326228260994,0.037593361191750184,0.13988227420186114,0.26577632098353615
0.2703857421875,0.169891357421875,9.705291748046875,-0.0007223651628009975,0.054481390863657,0.1028326228260994,0.10753449829268075,0.06906687288716894,0.12589404678167504
0.2679901123046875,0.169891357421875,9.707687377929688,-0.0007223651628009975,0.054481390863657,0.1028326228260994,0.10753449829268075,0.13988227420186114,0.12589404678167504
0.275177001953125,0.16510009765625,9.702896118164062,-0.01413002423942089,0.054481390863657,0.10283013433218002,0.037593361191750184,0.13988227420186114,0.055952909680744456
0.263214111328125,0.14117431640625,9.705291748046875,-0.014240148477256298,0.054481390863657,0.1028326228260994,0.10753449829268075,0.20982341130279172,0.1958351838826056
0.2656097412109375,0.1722869873046875,9.695724487304688,0.012898086570203304,0.054481390863657,0.10283511132001877,0.10753449829268075,0.06906687288716894,0.26577632098353615
0.2703857421875,0.17706298828125,9.705291748046875,0.012898086570203304,0.054481390863657,0.10283511132001877,0.037593361191750184,0.13988227420186114,0.12589404678167504
0.2608184814453125,0.1794586181640625,9.70050048828125,-0.0007197153172455728,0.054481390863657,0.10283595323562622,0.17747563539361133,0.13988227420186114,0.12589404678167504
0.2656097412109375,0.1746826171875,9.698104858398438,-0.0007197153172455728,0.054481390863657,0.10283595323562622,0.10753449829268075,0.13988227420186114,0.12589404678167504
0.2727813720703125,0.1794586181640625,9.695724487304688,-0.0006147351814433932,0.06810173392295837,0.10282847285270691,0.17747563539361133,0.06906687288716894,0.055952909680744456
0.2584228515625,0.1722869873046875,9.698104858398438,-0.0006147351814433932,0.06810173392295837,0.10282847285270691,0.10753449829268075,0.06906687288716894,0.12589404678167504
0.2775726318359375,0.169891357421875,9.717254638671875,-0.014022447168827057,0.06810173392295837,0.08919399231672287,0.17747563539361133,0.20982341130279172,0.1958351838826056
0.2703857421875,0.15313720703125,9.698104858398438,-0.000402099103666842,0.08172208815813065,0.11643467843532562,0.10753449829268075,0.13988227420186114,0.055952909680744456
0.2775726318359375,0.1842498779296875,9.7220458984375,-0.000402099103666842,0.08172208815813065,0.11643467843532562,0.037593361191750184,0.13988227420186114,0.1958351838826056
0.2464599609375,0.17706298828125,9.686141967773438,-0.014017406851053238,0.06810173392295837,0.10281932353973389,0.037593361191750184,0.06906687288716894,0.12589404678167504
0.2679901123046875,0.1627044677734375,9.719650268554688,-0.014017406851053238,0.06810173392295837,0.10281932353973389,0.10753449829268075,0.13988227420186114,0.1958351838826056
0.2679901123046875,0.1674957275390625,9.719650268554688,-0.00028690931503660977,0.08172208815813065,0.08919898420572281,0.10753449829268075,0.13988227420186114,0.12589404678167504
0.275177001953125,0.1746826171875,9.707687377929688,-0.0001768113870639354,0.054481390863657,0.08919814229011536,0.17747563539361133,0.13988227420186114,0.12589404678167504
0.2703857421875,0.1674957275390625,9.70050048828125,-0.0001768113870639354,0.054481390863657,0.1164388433098793,0.17747563539361133,0.20982341130279172,0.12589404678167504
0.2656097412109375,0.1914215087890625,9.738784790039062,-0.00017686333740130067,0.06810173392295837,0.10281351208686829,0.10753449829268075,0.06906687288716894,0.055952909680744456
0.2847442626953125,0.1746826171875,9.710067749023438,-0.00017935728828888386,0.06810173392295837,0.10281100869178772,0.17747563539361133,0.13988227420186114,0.12589404678167504
0.253631591796875,0.1722869873046875,9.702896118164062,0.013648482039570808,0.06810173392295837,0.11642137914896011,0.10753449829268075,0.06906687288716894,0.12589404678167504
0.2656097412109375,0.1746826171875,9.705291748046875,0.013756060972809792,0.06810173392295837,0.11641722917556763,0.10753449829268075,0.13988227420186114,0.055952909680744456
0.2560272216796875,0.181854248046875,9.702896118164062,0.013756060972809792,0.06810173392295837,0.11641722917556763,0.037593361191750184,0.13988227420186114,0.12589404678167504
0.2584228515625,0.16510009765625,9.702896118164062,0.01385345496237278,0.06810173392295837,0.10279522091150284,0.17747563539361133,0.13988227420186114,0.12589404678167504
0.263214111328125,0.18902587890625,9.731613159179688,0.01385345496237278,0.06810173392295837,0.10279522091150284,0.10753449829268075,0.13988227420186114,0.12589404678167504
0.2799530029296875,0.1722869873046875,9.717254638671875,0.0139610068872571,0.06810173392295837,0.10278940200805664,0.10753449829268075,0.13988227420186114,0.12589404678167504
0.2584228515625,0.14117431640625,9.710067749023438,0.000448237347882241,0.06810173392295837,0.11640974879264832,0.17747563539361133,0.06906687288716894,0.1958351838826056
0.2560272216796875,0.16510009765625,9.683746337890625,0.0005583612946793437,0.09534243494272232,0.10278357565402985,0.10753449829268075,0.13988227420186114,0.1958351838826056
0.2775726318359375,0.1674957275390625,9.71246337890625,0.0005583612946793437,0.09534243494272232,0.10278357565402985,0.037593361191750184,0.06906687288716894,0.12589404678167504
0.275177001953125,0.16510009765625,9.702896118164062,0.0008836672641336918,0.06810173392295837,0.10277276486158371,0.17747563539361133,0.13988227420186114,0.1958351838826056
0.2679901123046875,0.17706298828125,9.714859008789062,0.0008836672641336918,0.06810173392295837,0.10277276486158371,0.10753449829268075,0.13988227420186114,0.055952909680744456
0.251251220703125,0.181854248046875,9.695724487304688,0.0009912712266668677,0.06810173392295837,0.10276445746421814,-0.032347775909180386,0.13988227420186114,0.1958351838826056
0.2799530029296875,0.16510009765625,9.71246337890625,0.014716650359332561,0.054481390863657,0.11638231575489044,0.17747563539361133,0.13988227420186114,0.1958351838826056
0.2584228515625,0.1746826171875,9.726821899414062,-0.012518977746367455,0.06810173392295837,0.10276196897029877,0.10753449829268075,0.06906687288716894,0.12589404678167504
0.2656097412109375,0.1746826171875,9.686141967773438,-0.01251643244177103,0.06810173392295837,0.1027594655752182,0.17747563539361133,0.20982341130279172,0.12589404678167504
0.2560272216796875,0.1722869873046875,9.702896118164062,0.014724262990057468,0.06810173392295837,0.10275697708129883,0.10753449829268075,0.20982341130279172,0.1958351838826056
0.263214111328125,0.15313720703125,9.68853759765625,0.014514223672449589,0.06810173392295837,0.1027652844786644,0.10753449829268075,0.2797645484037223,0.12589404678167504
0.2775726318359375,0.1722869873046875,9.714859008789062,0.0007888447726145387,0.08172208815813065,0.11638563871383667,0.10753449829268075,0.13988227420186114,0.1958351838826056
0.2703857421875,0.1603240966796875,9.710067749023438,0.000573714729398489,0.06810173392295837,0.10277359932661057,0.037593361191750184,0.13988227420186114,0.1958351838826056
0.263214111328125,0.16510009765625,9.698104858398438,0.0004712805093731731,0.06810173392295837,0.1163964495062828,0.037593361191750184,0.13988227420186114,0.1958351838826056
0.2560272216796875,0.18902587890625,9.683746337890625,0.0004738004645332694,0.06810173392295837,0.11639976501464844,0.10753449829268075,0.06906687288716894,0.26577632098353615
0.2679901123046875,0.169891357421875,9.693328857421875,0.0008041462861001492,0.06810173392295837,0.11639311909675598,0.10753449829268075,0.13988227420186114,0.12589404678167504
0.2727813720703125,0.169891357421875,9.707687377929688,0.0008041462861001492,0.06810173392295837,0.11639311909675598,0.17747563539361133,0.06906687288716894,0.1958351838826056
0.251251220703125,0.17706298828125,9.681365966796875,0.0008041462861001492,0.06810173392295837,0.11639311909675598,0.17747563539361133,0.06906687288716894,0.1958351838826056
0.2560272216796875,0.1746826171875,9.68853759765625,-0.012598498724400997,0.06810173392295837,0.10276196897029877,0.10753449829268075,0.13988227420186114,0.12589404678167504
0.2560272216796875,0.169891357421875,9.695724487304688,0.014752345159649849,0.06810173392295837,0.11637981235980988,0.10753449829268075,0.06906687288716894,0.12589404678167504
0.2656097412109375,0.1603240966796875,9.719650268554688,0.014857351779937744,0.06810173392295837,0.11637649685144424,0.10753449829268075,0.20982341130279172,0.1958351838826056
0.251251220703125,0.1866455078125,9.70050048828125,0.0012370042968541384,0.06810173392295837,0.0891357958316803,0.2474167724945419,0.13988227420186114,0.12589404678167504
0.2584228515625,0.17706298828125,9.698104858398438,0.014859924092888832,0.054481390863657,0.10274949669837952,0.17747563539361133,0.13988227420186114,0.1958351838826056
0.2775726318359375,0.169891357421875,9.695724487304688,0.014859924092888832,0.054481390863657,0.10274949669837952,0.037593361191750184,0.06906687288716894,0.1958351838826056
0.2775726318359375,0.1674957275390625,9.70050048828125,-0.012373184785246849,0.06810173392295837,0.10274367779493332,0.17747563539361133,0.13988227420186114,0.1958351838826056
0.253631591796875,0.17706298828125,9.695724487304688,0.0013599357334896922,0.06810173392295837,0.10274117439985275,0.037593361191750184,0.13988227420186114,0.26577632098353615
0.2703857421875,0.17706298828125,9.717254638671875,0.0013624296989291906,0.06810173392295837,0.10274117439985275,0.2474167724945419,0.13988227420186114,0.1958351838826056
0.2703857421875,0.1746826171875,9.686141967773438,0.0013650015462189913,0.06810173392295837,0.08912083506584167,0.10753449829268075,0.13988227420186114,0.1958351838826056
0.2584228515625,0.17706298828125,9.698104858398438,0.0013701452407985926,0.06810173392295837,0.11635903269052505,0.037593361191750184,0.13988227420186114,0.1958351838826056
0.2584228515625,0.1674957275390625,9.693328857421875,0.0013727431651204824,0.06810173392295837,0.11636152118444443,0.037593361191750184,0.13988227420186114,0.1958351838826056
0.2727813720703125,0.17706298828125,9.695724487304688,0.0013778610154986382,0.06810173392295837,0.116364024579525,0.10753449829268075,0.06906687288716894,0.12589404678167504
0.2823486328125,0.1674957275390625,9.70050048828125,0.0014880108647048473,0.06810173392295837,0.11636069416999817,0.10753449829268075,0.06906687288716894,0.26577632098353615
0.2560272216796875,0.1746826171875,9.683746337890625,-0.01202475931495428,0.06810173392295837,0.10273785144090652,0.10753449829268075,0.20982341130279172,0.12589404678167504
0.275177001953125,0.1507415771484375,9.693328857421875,0.0014931027544662356,0.06810173392295837,0.10273536294698715,0.10753449829268075,0.13988227420186114,0.12589404678167504
0.263214111328125,0.1387786865234375,9.710067749023438,0.0014931027544662356,0.06810173392295837,0.10273536294698715,0.10753449829268075,0.13988227420186114,0.12589404678167504
0.2847442626953125,0.16510009765625,9.705291748046875,0.0014931027544662356,0.06810173392295837,0.10273536294698715,0.037593361191750184,0.06906687288716894,0.1958351838826056
0.251251220703125,0.1746826171875,9.705291748046875,0.0018157587619498372,0.06810173392295837,0.10272954404354095,0.037593361191750184,0.13988227420186114,0.12589404678167504
0.2656097412109375,0.157928466796875,9.714859008789062,0.0018157587619498372,0.06810173392295837,0.10272954404354095,0.037593361191750184,0.13988227420186114,0.12589404678167504
0.2440643310546875,0.17706298828125,9.698104858398438,0.001813290873542428,0.06810173392295837,0.10273203253746033,0.10753449829268075,0.06906687288716894,0.12589404678167504
0.263214111328125,0.169891357421875,9.693328857421875,0.0020232251845300198,0.06810173392295837,0.11634158343076706,0.10753449829268075,0.13988227420186114,0.1958351838826056
0.2847442626953125,0.2033843994140625,9.710067749023438,0.0020232251845300198,0.06810173392295837,0.11634158343076706,0.10753449829268075,0.13988227420186114,0.1958351838826056
0.253631591796875,0.1722869873046875,9.68853759765625,0.002130855107679963,0.06810173392295837,0.11633574962615967,0.10753449829268075,0.13988227420186114,0.1958351838826056
0.2775726318359375,0.157928466796875,9.714859008789062,0.0021359471138566732,0.08172208815813065,0.10271873325109482,0.10753449829268075,0.13988227420186114,0.1958351838826056
0.2656097412109375,0.16510009765625,9.705291748046875,-0.011484400369226933,0.08172208815813065,0.08909838646650314,0.037593361191750184,0.20982341130279172,0.12589404678167504
0.2727813720703125,0.1746826171875,9.731613159179688,-0.011484400369226933,0.08172208815813065,0.08909838646650314,0.17747563539361133,0.20982341130279172,0.12589404678167504
0.2679901123046875,0.1627044677734375,9.695724487304688,0.002020705258473754,0.06810173392295837,0.07547803968191147,0.10753449829268075,0.13988227420186114,0.055952909680744456
0.2488555908203125,0.1794586181640625,9.68853759765625,0.0021206194069236517,0.06810173392295837,0.10271291434764862,0.10753449829268075,0.13988227420186114,0.26577632098353615
0.2584228515625,0.169891357421875,9.707687377929688,0.0022306914906948805,0.06810173392295837,0.10271041840314865,0.17747563539361133,0.13988227420186114,0.1958351838826056
0.275177001953125,0.1746826171875,9.71246337890625,0.015851039439439774,0.06810173392295837,0.10270710289478302,0.10753449829268075,0.13988227420186114,0.1958351838826056
0.2895355224609375,0.1866455078125,9.705291748046875,0.0022306914906948805,0.06810173392295837,0.10270293802022934,0.17747563539361133,0.13988227420186114,0.26577632098353615
0.2727813720703125,0.16510009765625,9.70050048828125,0.0022306914906948805,0.06810173392295837,0.10270044207572937,0.17747563539361133,0.13988227420186114,0.12589404678167504
0.2560272216796875,0.1627044677734375,9.707687377929688,-0.025015173479914665,0.054481390863657,0.10269711911678314,0.037593361191750184,0.13988227420186114,0.1958351838826056
0.253631591796875,0.1794586181640625,9.690933227539062,0.01584586873650551,0.06810173392295837,0.10269711911678314,0.17747563539361133,0.13988227420186114,0.1958351838826056
0.2656097412109375,0.157928466796875,9.71246337890625,0.01595349982380867,0.06810173392295837,0.11631746590137482,0.10753449829268075,0.06906687288716894,0.12589404678167504
0.2703857421875,0.169891357421875,9.698104858398438,0.0023305537179112434,0.08172208815813065,0.10269463062286377,0.10753449829268075,0.13988227420186114,0.1958351838826056
0.2584228515625,0.16510009765625,9.693328857421875,0.00254313787445426,0.06810173392295837,0.10268881171941757,0.10753449829268075,0.13988227420186114,0.12589404678167504
0.2440643310546875,0.1627044677734375,9.710067749023438,0.0026481440290808678,0.06810173392295837,0.102686308324337,0.17747563539361133,0.06906687288716894,0.26577632098353615
0.2608184814453125,0.1674957275390625,9.695724487304688,0.016481075435876846,0.06810173392295837,0.10267716646194458,0.17747563539361133,0.20982341130279172,0.1958351838826056
0.251251220703125,0.1866455078125,9.68853759765625,0.0029682281892746687,0.06810173392295837,0.10266968607902527,0.17747563539361133,0.13988227420186114,0.1958351838826056
0.263214111328125,0.157928466796875,9.702896118164062,0.0029682281892746687,0.06810173392295837,0.1026671975851059,0.10753449829268075,0.06906687288716894,0.1958351838826056
0.2727813720703125,0.1627044677734375,9.690933227539062,0.016696127131581306,0.04086104407906532,0.10265970975160599,0.10753449829268075,0.13988227420186114,0.1958351838826056
0.275177001953125,0.1603240966796875,9.686141967773438,0.0031781885772943497,0.08172208815813065,0.11627673357725143,0.17747563539361133,0.13988227420186114,0.12589404678167504
0.251251220703125,0.181854248046875,9.686141967773438,0.0031781885772943497,0.08172208815813065,0.11627673357725143,0.10753449829268075,0.13988227420186114,0.26577632098353615
0.2464599609375,0.169891357421875,9.695724487304688,-0.0104421591386199,0.08172208815813065,0.11627340316772461,0.10753449829268075,0.06906687288716894,0.26577632098353615
0.253631591796875,0.1842498779296875,9.683746337890625,0.016911284998059273,0.06810173392295837,0.11627091467380524,0.037593361191750184,0.13988227420186114,0.12589404678167504
0.251251220703125,0.1842498779296875,9.702896118164062,0.016911284998059273,0.06810173392295837,0.11627091467380524,0.17747563539361133,0.06906687288716894,0.26577632098353615
0.2775726318359375,0.1627044677734375,9.695724487304688,0.016798563301563263,0.06810173392295837,0.10265305638313293,0.17747563539361133,0.13988227420186114,0.12589404678167504
0.2656097412109375,0.1674957275390625,9.693328857421875,-0.010339776985347271,0.06810173392295837,0.10264557600021362,0.10753449829268075,0.20982341130279172,-0.013988227420186114
0.29193115234375,0.169891357421875,9.71246337890625,-0.010347440838813782,0.06810173392295837,0.10264308750629425,0.10753449829268075,0.13988227420186114,0.1958351838826056
0.253631591796875,0.1674957275390625,9.698104858398438,-0.02397298254072666,0.06810173392295837,0.10263809561729431,0.10753449829268075,0.13988227420186114,0.26577632098353615
0.2584228515625,0.1866455078125,9.690933227539062,0.0032702831085771322,0.08172208815813065,0.11625844240188599,0.037593361191750184,0.13988227420186114,0.12589404678167504
0.2584228515625,0.1746826171875,9.698104858398438,0.0032702831085771322,0.08172208815813065,0.11626093834638596,0.10753449829268075,0.13988227420186114,0.12589404678167504
0.2679901123046875,0.1722869873046875,9.695724487304688,0.0033778611104935408,0.054481390863657,0.10263975709676743,0.17747563539361133,0.13988227420186114,0.055952909680744456
0.275177001953125,0.169891357421875,9.702896118164062,0.0033753153402358294,0.06810173392295837,0.11625761538743973,0.10753449829268075,0.13988227420186114,0.1958351838826056
0.3014984130859375,0.1555328369140625,9.695724487304688,0.0033753153402358294,0.06810173392295837,0.10263477265834808,0.10753449829268075,0.06906687288716894,0.26577632098353615
0.2584228515625,0.169891357421875,9.690933227539062,-0.010239862836897373,0.08172208815813065,0.10263227671384811,0.10753449829268075,0.13988227420186114,0.12589404678167504
0.2823486328125,0.16510009765625,9.702896118164062,0.01711100898683071,0.06810173392295837,0.11625013500452042,0.037593361191750184,0.06906687288716894,0.12589404678167504
0.2608184814453125,0.1794586181640625,9.695724487304688,0.017218509688973427,0.06810173392295837,0.11625013500452042,0.10753449829268075,0.20982341130279172,0.055952909680744456
0.263214111328125,0.17706298828125,9.68853759765625,0.017205597832798958,0.054481390863657,0.11625013500452042,0.17747563539361133,0.20982341130279172,0.055952909680744456
0.263214111328125,0.1722869873046875,9.714859008789062,0.017205597832798958,0.054481390863657,0.11625013500452042,0.17747563539361133,0.13988227420186114,0.12589404678167504
0.2775726318359375,0.169891357421875,9.710067749023438,0.01720302551984787,0.054481390863657,0.11624680459499359,0.10753449829268075,0.13988227420186114,0.1958351838826056
0.2847442626953125,0.1435699462890625,9.70050048828125,0.0035878473427146673,0.06810173392295837,0.08900610357522964,0.10753449829268075,0.13988227420186114,0.1958351838826056
0.2656097412109375,0.169891357421875,9.695724487304688,-0.010032500140368938,0.09534243494272232,0.10262645781040192,0.10753449829268075,0.20982341130279172,0.12589404678167504
0.263214111328125,0.1746826171875,9.70050048828125,-0.010137480683624744,0.09534243494272232,0.10263227671384811,0.10753449829268075,0.13988227420186114,0.1958351838826056
0.251251220703125,0.1722869873046875,9.690933227539062,0.0033778869546949863,0.06810173392295837,0.10263477265834808,0.10753449829268075,0.13988227420186114,0.1958351838826056
0.29193115234375,0.16510009765625,9.705291748046875,0.01700332760810852,0.06810173392295837,0.11625262349843979,0.10753449829268075,0.20982341130279172,0.1958351838826056
0.2584228515625,0.1866455078125,9.693328857421875,0.01700332760810852,0.06810173392295837,0.11625262349843979,0.10753449829268075,0.13988227420186114,0.055952909680744456
0.275177001953125,0.1603240966796875,9.702896118164062,0.0032831947319209576,0.054481390863657,0.11625262349843979,0.17747563539361133,0.13988227420186114,0.26577632098353615
0.253631591796875,0.1794586181640625,9.68853759765625,-0.010227029211819172,0.08172208815813065,0.11624514311552048,0.17747563539361133,0.06906687288716894,0.12589404678167504
0.2560272216796875,0.1722869873046875,9.705291748046875,-0.010119451209902763,0.08172208815813065,0.11624015122652054,0.10753449829268075,0.20982341130279172,0.055952909680744456
0.2608184814453125,0.1603240966796875,9.717254638671875,0.017226198688149452,0.06810173392295837,0.10261399298906326,0.2474167724945419,0.20982341130279172,0.12589404678167504
0.2703857421875,0.169891357421875,9.710067749023438,0.0036032528150826693,0.06810173392295837,0.08898616582155228,0.17747563539361133,0.20982341130279172,0.12589404678167504
0.275177001953125,0.1627044677734375,9.71246337890625,0.003495674580335617,0.06810173392295837,0.08898366242647171,-0.032347775909180386,0.06906687288716894,0.1958351838826056
0.2560272216796875,0.1674957275390625,9.695724487304688,0.00360582466237247,0.06810173392295837,0.10260400921106339,0.10753449829268075,0.06906687288716894,0.12589404678167504
0.2727813720703125,0.1746826171875,9.7220458984375,0.017446575686335564,0.06810173392295837,0.11621522158384323,0.037593361191750184,0.13988227420186114,0.26577632098353615
0.2799530029296875,0.157928466796875,9.690933227539062,0.003826150204986334,0.06810173392295837,0.08897202461957932,0.10753449829268075,0,0.1958351838826056
0.2703857421875,0.169891357421875,9.683746337890625,0.004049152135848999,0.06810173392295837,0.11620940268039703,0.10753449829268075,0.06906687288716894,0.055952909680744456
0.2823486328125,0.16510009765625,9.705291748046875,-0.009361235424876213,0.06810173392295837,0.11620357632637024,0.10753449829268075,0.13988227420186114,0.1958351838826056
0.263214111328125,0.1674957275390625,9.702896118164062,-0.009361286647617817,0.06810173392295837,0.10258322954177856,0.17747563539361133,0.13988227420186114,0.26577632098353615
0.2440643310546875,0.1794586181640625,9.695724487304688,0.01809975877404213,0.06810173392295837,0.10257241874933243,0.10753449829268075,0.20982341130279172,0.12589404678167504
0.2656097412109375,0.15313720703125,9.695724487304688,0.03172267973423004,0.054481390863657,0.10256993025541306,0.17747563539361133,0.13988227420186114,0.12589404678167504
0.2584228515625,0.193817138671875,9.683746337890625,0.03172267973423004,0.054481390863657,0.10256993025541306,0.17747563539361133,0.13988227420186114,0.1958351838826056
0.2488555908203125,0.169891357421875,9.695724487304688,0.004481984302401543,0.08172208815813065,0.10256493836641312,0.17747563539361133,0.13988227420186114,0.055952909680744456
0.2488555908203125,0.169891357421875,9.695724487304688,0.018102331086993217,0.06810173392295837,0.1161794662475586,0.17747563539361133,0.13988227420186114,0.055952909680744456
0.2775726318359375,0.1674957275390625,9.705291748046875,0.01809973269701004,0.06810173392295837,0.11617697775363922,0.2474167724945419,0.20982341130279172,0.12589404678167504
0.253631591796875,0.1794586181640625,9.705291748046875,0.004371808376163244,0.06810173392295837,0.10255412757396698,0.037593361191750184,0.06906687288716894,0.12589404678167504
0.2679901123046875,0.1674957275390625,9.695724487304688,0.018212508410215378,0.054481390863657,0.10254915058612823,0.10753449829268075,0.13988227420186114,0.12589404678167504
0.275177001953125,0.169891357421875,9.710067749023438,0.018212508410215378,0.054481390863657,0.10254915058612823,0.037593361191750184,0.06906687288716894,0.12589404678167504
0.2679901123046875,0.1674957275390625,9.698104858398438,-0.008920636028051376,0.08172208815813065,0.10254582017660141,0.10753449829268075,0.13988227420186114,0.12589404678167504
0.2584228515625,0.15313720703125,9.695724487304688,0.004697139840573072,0.06810173392295837,0.10254332423210144,0.10753449829268075,0.06906687288716894,0.12589404678167504
0.2823486328125,0.1794586181640625,9.714859008789062,0.004694490227848291,0.06810173392295837,0.10254332423210144,0.17747563539361133,0.13988227420186114,0.1958351838826056
0.2679901123046875,0.169891357421875,9.702896118164062,-0.00881565548479557,0.06810173392295837,0.11615535616874695,0.10753449829268075,0.06906687288716894,0.26577632098353615
0.2703857421875,0.169891357421875,9.71246337890625,0.0050224196165800095,0.06810173392295837,0.10252753645181656,0.037593361191750184,0.06906687288716894,0.12589404678167504
0.263214111328125,0.1603240966796875,9.710067749023438,0.005129998084157705,0.06810173392295837,0.10252337902784348,0.10753449829268075,0.06906687288716894,0.1958351838826056
0.263214111328125,0.169891357421875,9.698104858398438,0.005240174010396004,0.06810173392295837,0.08890053629875183,0.17747563539361133,0.13988227420186114,0.1958351838826056
0.2656097412109375,0.1603240966796875,9.67657470703125,0.005240174010396004,0.06810173392295837,0.08890053629875183,0.17747563539361133,0.13988227420186114,0.12589404678167504
0.2440643310546875,0.1746826171875,9.683746337890625,0.018863119184970856,0.06810173392295837,0.11613374203443527,0.10753449829268075,0.06906687288716894,0.12589404678167504
