Accelerometer_Gx,Accelerometer_Gy,Accelerometer_Gz,Accelerometer_X,Accelerometer_Y,Accelerometer_Z,Gyroscope_Z,Gyroscope_X,Gyroscope_Y
0.3373870849609375,0.1268157958984375,9.669403076171875,-0.09176081418991089,-0.35412901639938354,0.11879231035709381,0.1250197825679134,0.0034970568550465285,0.03846762540551182
0.275177001953125,0.1722869873046875,9.695724487304688,-0.1462422013282776,-0.3132679760456085,0.146042138338089,0.1250197825679134,0.0034970568550465285,0.03846762540551182
0.2560272216796875,0.181854248046875,9.674179077148438,-0.0917607843875885,-0.35412901639938354,0.11881060153245926,0.1250197825679134,0.0034970568550465285,0.03846762540551182
0.2584228515625,0.1746826171875,9.674179077148438,-0.0917607843875885,-0.35412901639938354,0.118815578520298,0.05507864546698282,-0.06644408024588404,0.03846762540551182
0.2464599609375,0.1674957275390625,9.671783447265625,-0.07814043015241623,-0.35412901639938354,0.13244175910949707,0.05507864546698282,0.0034970568550465285,0.03846762540551182
0.2584228515625,0.1674957275390625,9.674179077148438,-0.06441246718168259,-0.35412901639938354,0.13244009017944336,-0.014862491633947747,-0.06644408024588404,-0.10141464879634933
0.251251220703125,0.1674957275390625,9.667007446289062,-0.06441246718168259,-0.35412901639938354,0.13244009017944336,0.05507864546698282,0.0034970568550465285,-0.03147351169541876
0.2440643310546875,0.1746826171875,9.66461181640625,-0.0780283734202385,-0.3677493631839752,0.1324375867843628,-0.15474476583580887,0.0034970568550465285,-0.03147351169541876
0.2679901123046875,0.1627044677734375,9.686141967773438,-0.0644080638885498,-0.35412901639938354,0.146051287651062,0.1250197825679134,-0.06644408024588404,-0.03147351169541876
0.2560272216796875,0.17706298828125,9.674179077148438,-0.0644080638885498,-0.35412901639938354,0.146051287651062,0.05507864546698282,0.0034970568550465285,-0.03147351169541876
0.251251220703125,0.169891357421875,9.669403076171875,-0.06430046260356903,-0.35412901639938354,0.14605212211608887,-0.08480362873487832,0.07431245816973873,-0.03147351169541876
0.2847442626953125,0.15313720703125,9.674179077148438,-0.0644080638885498,-0.35412901639938354,0.146051287651062,-0.014862491633947747,0.0034970568550465285,0.03846762540551182
0.2608184814453125,0.181854248046875,9.667007446289062,-0.09164875745773315,-0.34050869941711426,0.13243094086647034,0.05507864546698282,0.0034970568550465285,-0.03147351169541876
0.2488555908203125,0.1674957275390625,9.67657470703125,-0.0644080638885498,-0.3677493631839752,0.146051287651062,0.05507864546698282,-0.06644408024588404,-0.03147351169541876
0.2584228515625,0.17706298828125,9.671783447265625,-0.0644080638885498,-0.35412901639938354,0.146051287651062,-0.08480362873487832,0.0034970568550465285,-0.03147351169541876
0.2727813720703125,0.1722869873046875,9.690933227539062,-0.0644080638885498,-0.35412901639938354,0.146051287651062,0.05507864546698282,0.0034970568550465285,0.03846762540551182
0.263214111328125,0.1842498779296875,9.67657470703125,-0.0644080638885498,-0.35412901639938354,0.13243094086647034,-0.014862491633947747,-0.06644408024588404,-0.03147351169541876
0.2584228515625,0.169891357421875,9.690933227539062,-0.07802841067314148,-0.3677493631839752,0.13243094086647034,0.05507864546698282,0.0034970568550465285,0.03846762540551182
0.2560272216796875,0.1746826171875,9.683746337890625,-0.07802841067314148,-0.3677493631839752,0.13243094086647034,0.05507864546698282,-0.06644408024588404,-0.03147351169541876
0.2584228515625,0.17706298828125,9.669403076171875,-0.06451567262411118,-0.3677493631839752,0.13243593275547028,-0.15474476583580887,-0.06644408024588404,-0.10141464879634933
0.2608184814453125,0.1746826171875,9.690933227539062,-0.06440357863903046,-0.35412901639938354,0.14604464173316956,0.1250197825679134,0.14337933105690767,-0.03147351169541876
0.251251220703125,0.169891357421875,9.678970336914062,-0.06440357863903046,-0.35412901639938354,0.14604464173316956,-0.08480362873487832,0.0034970568550465285,-0.03147351169541876
0.2727813720703125,0.157928466796875,9.693328857421875,-0.06451347470283508,-0.35412901639938354,0.1324259489774704,-0.08480362873487832,-0.27626749154867575,0.10928302672020401
0.2799530029296875,0.1674957275390625,9.702896118164062,-0.07749263942241669,-0.35412901639938354,0.11878980696201324,0.05507864546698282,0.21419473237159986,-0.03147351169541876
0.2608184814453125,0.1722869873046875,9.678970336914062,-0.07749490439891815,-0.35412901639938354,0.11878980696201324,-0.29462704003767004,-0.06644408024588404,-0.10141464879634933
0.2488555908203125,0.17706298828125,9.690933227539062,-0.09100542962551117,-0.3813697397708893,0.1324010193347931,0.1958351838826056,0.2832616052587688,0.03846762540551182
0.2464599609375,0.1746826171875,9.678970336914062,-0.06408528983592987,-0.3677493631839752,0.13240766525268555,-0.08480362873487832,-0.4161497657505369,0.10928302672020401
0.2608184814453125,0.1627044677734375,9.695724487304688,-0.0636548325419426,-0.3813697397708893,0.13239437341690063,-0.3654424413523622,0.0034970568550465285,-0.1713557858972799
0.263214111328125,0.17706298828125,9.683746337890625,-0.06397315859794617,-0.35412901639938354,0.1324026733636856,-0.014862491633947747,0.6338415549771833,-0.311238060099141
0.2560272216796875,0.1746826171875,9.681365966796875,-0.07802172005176544,-0.35412901639938354,0.11879231035709381,-0.29462704003767004,-0.556032039952398,0.17834989960737296
0.2679901123046875,0.1603240966796875,9.698104858398438,-0.07716535776853561,-0.3677493631839752,0.11876820772886276,-0.8541561368451146,-0.27626749154867575,-0.1713557858972799
0.253631591796875,0.169891357421875,9.674179077148438,-0.06364813446998596,-0.3677493631839752,0.11876071244478226,-0.6452069897560845,0.07431245816973873,-0.3811791972000716
0.253631591796875,0.181854248046875,9.681365966796875,-0.06375578045845032,-0.3677493631839752,0.13238771259784698,-0.7850892639579456,0.07431245816973873,-0.4519945985147638
0.2440643310546875,0.1746826171875,9.67657470703125,-0.06375578045845032,-0.3677493631839752,0.13238771259784698,0.8244311535772191,0.14337933105690767,0.3890475751239263
0.263214111328125,0.1866455078125,9.681365966796875,-0.06375802308320999,-0.3813697397708893,0.11877401918172836,1.0351288290937724,0.6338415549771833,0.03846762540551182
0.2560272216796875,0.169891357421875,9.674179077148438,-0.07747923582792282,-0.3677493631839752,0.11877651512622833,0.4047843309716357,0.9826729762680745,-0.4519945985147638
0.2608184814453125,0.1722869873046875,9.698104858398438,-0.07768767327070236,-0.3677493631839752,0.11877568811178207,-0.9249715381598068,0.7737238291790445,-0.8716414211203473
0.263214111328125,0.1555328369140625,9.693328857421875,-0.06352932006120682,-0.3677493631839752,0.13236527144908905,1.2458265046103258,0.21419473237159986,0.45811444801109524
0.263214111328125,0.16510009765625,9.683746337890625,-0.06279187649488449,-0.3813697397708893,0.13236111402511597,-0.5053247155542234,1.2633117888855585,-1.0115236953222084
0.2703857421875,0.1555328369140625,9.70050048828125,-0.06416359543800354,-0.3813697397708893,0.1323661059141159,-1.4145594978663207,-1.8167210361966715,0.5289298493257875
0.2584228515625,0.1674957275390625,9.681365966796875,-0.07491471618413925,-0.3677493631839752,0.11869587004184723,1.2458265046103258,0.9826729762680745,0.24916530092206515
0.2584228515625,0.181854248046875,9.70050048828125,-0.06470806896686554,-0.3677493631839752,0.13239686191082,0.4755997322863279,-1.5369564877929494,1.2283412203350932
0.253631591796875,0.17706298828125,9.683746337890625,-0.06470806896686554,-0.3677493631839752,0.13239686191082,-0.15474476583580887,2.2424877082985866,-1.2912882437259308
0.2703857421875,0.1555328369140625,9.70050048828125,-0.06448113918304443,-0.3677493631839752,0.11873162537813187,1.0351288290937724,-1.3262588122763959,1.2283412203350932
0.2584228515625,0.1746826171875,9.698104858398438,-0.0764293223619461,-0.34050869941711426,0.1051420345902443,-2.885071905413386,-0.6959143141542592,-0.8716414211203473
0.2656097412109375,0.1746826171875,9.693328857421875,-0.07417197525501251,-0.35412901639938354,0.1050439402461052,1.0351288290937724,1.682958611491142,-0.6609437456037939
0.2656097412109375,0.1842498779296875,9.705291748046875,-0.07883083075284958,-0.3677493631839752,0.11871831864118576,1.734540200103078,0.49395928077532214,0.45811444801109524
0.2656097412109375,0.1674957275390625,9.678970336914062,-0.08048071712255478,-0.3677493631839752,0.11887876689434052,0.33571745808446674,-2.5869478085206694,1.5081057687388155
0.2775726318359375,0.169891357421875,9.71246337890625,-0.07741107046604156,-0.3677493631839752,0.1188579797744751,-1.4845006349672514,-2.4461912701050466,0.6688121235276486
0.2656097412109375,0.16510009765625,9.70050048828125,-0.08292022347450256,-0.35412901639938354,0.11862438172101974,-2.3946096814931104,-0.1363852173468146,-0.4519945985147638
0.287139892578125,0.1603240966796875,9.695724487304688,-0.06680677086114883,-0.3677493631839752,0.10480451583862305,-2.6743742298968325,-0.556032039952398,-0.5918768727166249
0.275177001953125,0.1794586181640625,9.702896118164062,-0.0661400556564331,-0.3677493631839752,0.10469810664653778,-2.184786270190319,-0.1363852173468146,-1.0814648324231388
0.2584228515625,0.18902587890625,9.707687377929688,-0.07893262803554535,-0.39499008655548096,0.10452435910701752,-2.184786270190319,-0.9765531267717431,-0.3811791972000716
0.275177001953125,0.1794586181640625,9.71246337890625,-0.06334103643894196,-0.39499008655548096,0.10433731228113174,-2.5344919556949717,-2.936653494025322,0.6688121235276486
0.2727813720703125,0.17706298828125,9.726821899414062,-0.06334103643894196,-0.39499008655548096,0.10433731228113174,-1.7642651833709737,-3.006594631126253,1.1592743474479241
0.29193115234375,0.157928466796875,9.71246337890625,-0.06457426398992538,-0.39499008655548096,0.0902472734451294,1.1750111032956336,-1.2563176751754654,1.2283412203350932
0.2775726318359375,0.1627044677734375,9.705291748046875,-0.06175526976585388,-0.39499008655548096,0.10389921069145203,0.5446666051734969,1.822840885693003,-0.8716414211203473
0.275177001953125,0.1627044677734375,9.698104858398438,-0.06432460993528366,-0.39499008655548096,0.10401060432195663,-3.094895316716178,-0.4161497657505369,-1.0115236953222084
0.2727813720703125,0.1794586181640625,9.693328857421875,-0.068523108959198,-0.3813697397708893,0.10399314761161804,1.454775651699356,-1.8857879090838405,1.2991566216497854
0.2727813720703125,0.1794586181640625,9.693328857421875,-0.068523108959198,-0.3813697397708893,0.10399314761161804,1.454775651699356,-1.8857879090838405,1.2991566216497854
0.2847442626953125,0.1507415771484375,9.705291748046875,-0.06427717208862305,-0.39499008655548096,0.1175985336303711,0.1250197825679134,2.0326642969957947,-1.2912882437259308
0.2656097412109375,0.181854248046875,9.698104858398438,-0.06808647513389587,-0.3813697397708893,0.10402307659387589,0.05507864546698282,-1.5369564877929494,1.1592743474479241
0.2799530029296875,0.1722869873046875,9.719650268554688,-0.04089212790131569,-0.39499008655548096,0.11775315552949905,-0.9949126752607373,0.7737238291790445,-1.1514059695240695
0.275177001953125,0.169891357421875,9.705291748046875,-0.04089212790131569,-0.39499008655548096,0.11775315552949905,1.9452378756196316,0.2832616052587688,0.6688121235276486
0.2823486328125,0.1674957275390625,9.70050048828125,-0.04089212790131569,-0.39499008655548096,0.11775315552949905,-0.6452069897560845,0.9826729762680745,-1.2213471066250001
0.2560272216796875,0.17706298828125,9.690933227539062,-0.068873330950737,-0.3813697397708893,0.10418102145195007,1.385708778812187,0.14337933105690767,0.24916530092206515
0.2727813720703125,0.16510009765625,9.702896118164062,-0.05588092654943466,-0.3813697397708893,0.10418934375047684,-0.7850892639579456,0.8427907020662134,-0.8716414211203473
0.2727813720703125,0.1627044677734375,9.705291748046875,-0.0715305432677269,-0.3813697397708893,0.09068122506141663,-1.1347949494625984,-1.0464942638726737,0.17834989960737296
0.2608184814453125,0.145965576171875,9.719650268554688,-0.0715305432677269,-0.3813697397708893,0.09068122506141663,1.1750111032956336,0.7029084278643523,0.03846762540551182
0.263214111328125,0.169891357421875,9.710067749023438,-0.0590837225317955,-0.3677493631839752,0.09073774516582489,0.9651876919928418,-0.06644408024588404,0.3890475751239263
0.2727813720703125,0.1722869873046875,9.710067749023438,-0.05960942432284355,-0.3677493631839752,0.09075021743774414,-1.204736086563529,0.14337933105690767,-0.5210614714019327
0.2775726318359375,0.1674957275390625,9.714859008789062,-0.060565508902072906,-0.39499008655548096,0.10440798103809357,-0.9949126752607373,0.07431245816973873,-0.4519945985147638
0.2727813720703125,0.1746826171875,9.719650268554688,-0.07514932751655579,-0.3813697397708893,0.09083501249551773,-0.9249715381598068,-0.20720061866150682,-0.10141464879634933
0.275177001953125,0.1603240966796875,9.70050048828125,-0.07580216228961945,-0.3813697397708893,0.09089570492506027,-0.3654424413523622,-0.6959143141542592,0.24916530092206515
0.263214111328125,0.169891357421875,9.68853759765625,-0.06357327848672867,-0.3677493631839752,0.10456759482622147,0.1958351838826056,-0.4161497657505369,0.3890475751239263
0.2703857421875,0.16510009765625,9.710067749023438,-0.07836519181728363,-0.3813697397708893,0.10461580753326416,-0.5743915884413923,0.0034970568550465285,-0.24129692299821046
0.2799530029296875,0.17706298828125,9.719650268554688,-0.06474962085485458,-0.3677493631839752,0.10462994128465652,-0.15474476583580887,-0.4869651670652291,0.3182321738092341
0.2608184814453125,0.1507415771484375,9.717254638671875,-0.07964920252561569,-0.3813697397708893,0.09106861799955368,0.4755997322863279,0.2832616052587688,0.03846762540551182
0.263214111328125,0.169891357421875,9.698104858398438,-0.06709764897823334,-0.35412901639938354,0.10473135858774185,-0.014862491633947747,-0.34708289286336796,0.24916530092206515
0.2799530029296875,0.16510009765625,9.705291748046875,-0.06763803958892822,-0.35412901639938354,0.10476294904947281,0.1250197825679134,0.2832616052587688,-0.1713557858972799
0.2799530029296875,0.1674957275390625,9.702896118164062,-0.08232497423887253,-0.3677493631839752,0.10480700433254242,-0.08480362873487832,-0.1363852173468146,0.10928302672020401
0.2799530029296875,0.1674957275390625,9.7220458984375,-0.08339861035346985,-0.3677493631839752,0.10486353933811188,0.1250197825679134,0.14337933105690767,-0.10141464879634933
0.2464599609375,0.181854248046875,9.68853759765625,-0.08393427729606628,-0.3677493631839752,0.10488183051347733,0.05507864546698282,0.0034970568550465285,-0.03147351169541876
0.2775726318359375,0.1842498779296875,9.714859008789062,-0.08521854132413864,-0.35412901639938354,0.09131717681884766,-0.08480362873487832,0.0034970568550465285,0.03846762540551182
0.275177001953125,0.1674957275390625,9.710067749023438,-0.08629221469163895,-0.3813697397708893,0.09136290103197098,-0.08480362873487832,0.0034970568550465285,-0.10141464879634933
0.2799530029296875,0.1746826171875,9.710067749023438,-0.08629221469163895,-0.3813697397708893,0.09136290103197098,-0.014862491633947747,0.0034970568550465285,0.03846762540551182
0.2560272216796875,0.1842498779296875,9.7340087890625,-0.07427674531936646,-0.3677493631839752,0.10505475103855133,-0.014862491633947747,0.07431245816973873,-0.03147351169541876
0.2679901123046875,0.157928466796875,9.695724487304688,-0.07534825056791306,-0.3813697397708893,0.07786143571138382,-0.08480362873487832,-0.1363852173468146,-0.03147351169541876
0.263214111328125,0.1866455078125,9.690933227539062,-0.07577639073133469,-0.3813697397708893,0.0778830498456955,-0.014862491633947747,-0.1363852173468146,-0.03147351169541876
0.2703857421875,0.1627044677734375,9.717254638671875,-0.07684792578220367,-0.3677493631839752,0.11878980696201324,0.1250197825679134,-0.06644408024588404,0.10928302672020401
0.2823486328125,0.1746826171875,9.695724487304688,-0.07791944593191147,-0.35412901639938354,0.09159816801548004,-0.014862491633947747,0.0034970568550465285,-0.03147351169541876
0.2560272216796875,0.1746826171875,9.68853759765625,-0.07845523953437805,-0.35412901639938354,0.09162227809429169,-0.014862491633947747,-0.06644408024588404,-0.10141464879634933
0.275177001953125,0.157928466796875,9.707687377929688,-0.09314501285552979,-0.3677493631839752,0.10528834909200668,-0.014862491633947747,0.0034970568550465285,-0.10141464879634933
0.275177001953125,0.1722869873046875,9.714859008789062,-0.09378626197576523,-0.34050869941711426,0.1053149402141571,-0.014862491633947747,0.0034970568550465285,-0.1713557858972799
0.2679901123046875,0.1794586181640625,9.729217529296875,-0.09389166533946991,-0.34050869941711426,0.1053149402141571,-0.15474476583580887,0.07431245816973873,-0.03147351169541876
0.275177001953125,0.169891357421875,9.714859008789062,-0.08037672936916351,-0.3677493631839752,0.07807259261608124,-0.014862491633947747,0.0034970568550465285,-0.03147351169541876
0.2560272216796875,0.1627044677734375,9.717254638671875,-0.09400142729282379,-0.35412901639938354,0.09169460088014603,0.1250197825679134,-0.06644408024588404,0.10928302672020401
0.2656097412109375,0.16510009765625,9.68853759765625,-0.0668705403804779,-0.34050869941711426,0.09169875085353851,0.05507864546698282,0.07431245816973873,0.10928302672020401
0.2799530029296875,0.1746826171875,9.719650268554688,-0.08060286939144135,-0.35412901639938354,0.11894194036722183,-0.22468590293673946,-0.06644408024588404,-0.03147351169541876
0.2560272216796875,0.169891357421875,9.702896118164062,-0.09422321617603302,-0.35412901639938354,0.10531910508871078,0.05507864546698282,0.07431245816973873,0.03846762540551182
0.287139892578125,0.1866455078125,9.726821899414062,-0.09422538429498672,-0.35412901639938354,0.10532160103321075,-0.08480362873487832,-0.1363852173468146,-0.03147351169541876
0.2727813720703125,0.1627044677734375,9.705291748046875,-0.10795333981513977,-0.3677493631839752,0.07808256894350052,0.05507864546698282,0.21419473237159986,-0.10141464879634933
0.29193115234375,0.16510009765625,9.707687377929688,-0.09443842619657516,-0.34050869941711426,0.10532492399215698,-0.08480362873487832,-0.1363852173468146,-0.03147351169541876
0.2656097412109375,0.1746826171875,9.707687377929688,-0.0943308174610138,-0.34050869941711426,0.10532326251268387,-0.014862491633947747,0.21419473237159986,-0.1713557858972799
0.263214111328125,0.169891357421875,9.726821899414062,-0.09443405270576477,-0.35412901639938354,0.10532492399215698,0.1250197825679134,0.07431245816973873,-0.10141464879634933
0.2703857421875,0.1842498779296875,9.71246337890625,-0.08059628307819366,-0.35412901639938354,0.07807425409555435,-0.014862491633947747,-0.20720061866150682,0.10928302672020401
0.2679901123046875,0.1842498779296875,9.731613159179688,-0.08059628307819366,-0.35412901639938354,0.07807425409555435,0.05507864546698282,0.35407700657346103,-0.03147351169541876
0.275177001953125,0.1674957275390625,9.719650268554688,-0.08070611953735352,-0.3677493631839752,0.07807425409555435,-0.014862491633947747,0.14337933105690767,-0.10141464879634933
0.275177001953125,0.1722869873046875,9.719650268554688,-0.08070608228445053,-0.35412901639938354,0.09169460088014603,0.1958351838826056,-0.06644408024588404,-0.03147351169541876
0.2727813720703125,0.17706298828125,9.726821899414062,-0.08059852570295334,-0.35412901639938354,0.09169210493564606,0.1250197825679134,0.14337933105690767,-0.10141464879634933
0.263214111328125,0.17706298828125,9.70050048828125,-0.09411126375198364,-0.35412901639938354,0.09169210493564606,-0.08480362873487832,-0.20720061866150682,0.03846762540551182
0.2775726318359375,0.1722869873046875,9.705291748046875,-0.08049093186855316,-0.35412901639938354,0.10530830174684525,0.1250197825679134,-0.06644408024588404,-0.03147351169541876
0.275177001953125,0.1627044677734375,9.7220458984375,-0.08049093186855316,-0.35412901639938354,0.10530830174684525,0.1250197825679134,0.0034970568550465285,-0.03147351169541876
0.2656097412109375,0.1603240966796875,9.71246337890625,-0.09410469979047775,-0.35412901639938354,0.10531079024076462,0.05507864546698282,0.0034970568550465285,-0.10141464879634933
0.2560272216796875,0.1722869873046875,9.68853759765625,-0.08048216253519058,-0.34050869941711426,0.10530830174684525,0.1250197825679134,-0.06644408024588404,0.03846762540551182
0.2608184814453125,0.1674957275390625,9.705291748046875,-0.08048216253519058,-0.34050869941711426,0.10531079024076462,0.05507864546698282,0.0034970568550465285,-0.03147351169541876
0.2608184814453125,0.1603240966796875,9.7220458984375,-0.08037455379962921,-0.35412901639938354,0.09168878197669983,-0.014862491633947747,-0.06644408024588404,0.03846762540551182
0.2727813720703125,0.1746826171875,9.726821899414062,-0.08026695251464844,-0.34050869941711426,0.09168629348278046,0.1958351838826056,0.0034970568550465285,-0.03147351169541876
0.287139892578125,0.17706298828125,9.710067749023438,-0.08026695251464844,-0.35412901639938354,0.07807092368602753,0.05507864546698282,-0.06644408024588404,0.03846762540551182
0.2775726318359375,0.1627044677734375,9.710067749023438,-0.08015932887792587,-0.35412901639938354,0.09169293195009232,-0.08480362873487832,0.07431245816973873,0.03846762540551182
0.2727813720703125,0.16510009765625,9.717254638671875,-0.08026695251464844,-0.34050869941711426,0.09169460088014603,0.05507864546698282,0.0034970568550465285,0.03846762540551182
0.2703857421875,0.18902587890625,9.729217529296875,-0.08026695251464844,-0.34050869941711426,0.09169460088014603,-0.014862491633947747,0.0034970568550465285,-0.03147351169541876
0.2799530029296875,0.1603240966796875,9.717254638671875,-0.09388729929924011,-0.34050869941711426,0.09169460088014603,-0.08480362873487832,0.07431245816973873,-0.03147351169541876
0.287139892578125,0.1674957275390625,9.714859008789062,-0.08026692271232605,-0.3677493631839752,0.07807092368602753,-0.08480362873487832,-0.06644408024588404,0.03846762540551182
0.2775726318359375,0.181854248046875,9.726821899414062,-0.08015932887792587,-0.3677493631839752,0.07806593924760818,0.1250197825679134,0.07431245816973873,-0.03147351169541876
0.275177001953125,0.15313720703125,9.707687377929688,-0.09367207437753677,-0.35412901639938354,0.09168712049722672,-0.08480362873487832,0.07431245816973873,0.03846762540551182
0.241668701171875,0.1794586181640625,9.710067749023438,-0.09378186613321304,-0.34050869941711426,0.10530663281679153,-0.014862491633947747,0.07431245816973873,-0.03147351169541876
0.2656097412109375,0.169891357421875,9.7220458984375,-0.09378186613321304,-0.34050869941711426,0.10530663281679153,-0.014862491633947747,0.0034970568550465285,-0.03147351169541876
0.2679901123046875,0.1603240966796875,9.717254638671875,-0.09399709850549698,-0.35412901639938354,0.09169044345617294,-0.014862491633947747,-0.06644408024588404,-0.10141464879634933
0.2703857421875,0.1555328369140625,9.698104858398438,-0.08037451654672623,-0.35412901639938354,0.09169044345617294,0.05507864546698282,0.0034970568550465285,0.03846762540551182
0.2847442626953125,0.1627044677734375,9.710067749023438,-0.08037455379962921,-0.35412901639938354,0.09169044345617294,-0.014862491633947747,-0.1363852173468146,-0.10141464879634933
0.275177001953125,0.1555328369140625,9.710067749023438,-0.09388729929924011,-0.3677493631839752,0.0780676007270813,-0.08480362873487832,0.07431245816973873,0.03846762540551182
0.2895355224609375,0.193817138671875,9.729217529296875,-0.09388729929924011,-0.34050869941711426,0.09168794751167297,-0.014862491633947747,-0.06644408024588404,0.03846762540551182
0.275177001953125,0.1603240966796875,9.717254638671875,-0.09377968311309814,-0.34050869941711426,0.09168629348278046,0.05507864546698282,-0.06644408024588404,-0.03147351169541876
0.2727813720703125,0.169891357421875,9.726821899414062,-0.0935644656419754,-0.3677493631839752,0.09168212860822678,0.05507864546698282,-0.06644408024588404,-0.03147351169541876
0.2775726318359375,0.1866455078125,9.73638916015625,-0.07983649522066116,-0.35412901639938354,0.10530082136392593,0.05507864546698282,-0.06644408024588404,-0.10141464879634933
0.2847442626953125,0.1746826171875,9.7220458984375,-0.07983432710170746,-0.35412901639938354,0.10530082136392593,0.05507864546698282,-0.06644408024588404,-0.03147351169541876
0.253631591796875,0.1794586181640625,9.70050048828125,-0.10696745663881302,-0.3677493631839752,0.09167879819869995,-0.014862491633947747,0.14337933105690767,-0.03147351169541876
0.2775726318359375,0.1722869873046875,9.707687377929688,-0.06621398031711578,-0.3677493631839752,0.10530082136392593,-0.08480362873487832,-0.06644408024588404,-0.03147351169541876
0.263214111328125,0.169891357421875,9.707687377929688,-0.06621398031711578,-0.3677493631839752,0.10530082136392593,0.1958351838826056,0.0034970568550465285,-0.03147351169541876
0.2703857421875,0.17706298828125,9.719650268554688,-0.07972891628742218,-0.35412901639938354,0.10530579835176468,-0.014862491633947747,-0.1363852173468146,0.10928302672020401
0.2656097412109375,0.1842498779296875,9.73638916015625,-0.0796213448047638,-0.35412901639938354,0.09168296307325363,-0.15474476583580887,0.0034970568550465285,0.03846762540551182
0.2799530029296875,0.16510009765625,9.707687377929688,-0.07962130010128021,-0.35412901639938354,0.09168296307325363,0.05507864546698282,-0.06644408024588404,0.03846762540551182
0.2703857421875,0.1746826171875,9.7220458984375,-0.07962130010128021,-0.3677493631839752,0.1053033098578453,-0.15474476583580887,0.0034970568550465285,0.03846762540551182
0.2775726318359375,0.1603240966796875,9.717254638671875,-0.09324163943529129,-0.3677493631839752,0.09168130159378052,-0.08480362873487832,0.0034970568550465285,-0.03147351169541876
0.2703857421875,0.169891357421875,9.714859008789062,-0.09324169158935547,-0.3677493631839752,0.09168130159378052,0.05507864546698282,-0.06644408024588404,-0.03147351169541876
0.2703857421875,0.16510009765625,9.71246337890625,-0.09334927797317505,-0.35412901639938354,0.09168130159378052,-0.08480362873487832,0.0034970568550465285,-0.03147351169541876
0.2727813720703125,0.17706298828125,9.729217529296875,-0.10696745663881302,-0.3677493631839752,0.0916738212108612,-0.014862491633947747,-0.06644408024588404,-0.03147351169541876
0.2727813720703125,0.1603240966796875,9.717254638671875,-0.09323947876691818,-0.35412901639938354,0.0916721522808075,-0.014862491633947747,0.0034970568550465285,-0.03147351169541876
0.2703857421875,0.1603240966796875,9.714859008789062,-0.07961913198232651,-0.35412901639938354,0.09166966378688812,-0.014862491633947747,0.0034970568550465285,0.03846762540551182
0.2727813720703125,0.157928466796875,9.707687377929688,-0.07961913198232651,-0.34050869941711426,0.09166966378688812,-0.014862491633947747,0.0034970568550465285,-0.03147351169541876
0.275177001953125,0.1603240966796875,9.717254638671875,-0.07961913198232651,-0.34050869941711426,0.09166966378688812,0.05507864546698282,0.0034970568550465285,0.10928302672020401
0.2847442626953125,0.1866455078125,9.726821899414062,-0.09324386715888977,-0.3677493631839752,0.09166966378688812,-0.08480362873487832,0.07431245816973873,-0.03147351169541876
0.2679901123046875,0.16510009765625,9.726821899414062,-0.09324166923761368,-0.3677493631839752,0.07804764807224274,-0.014862491633947747,-0.06644408024588404,-0.03147351169541876
0.275177001953125,0.1674957275390625,9.719650268554688,-0.09324166923761368,-0.3677493631839752,0.07804764807224274,-0.014862491633947747,0.07431245816973873,-0.10141464879634933
0.2895355224609375,0.17706298828125,9.71246337890625,-0.07961911708116531,-0.35412901639938354,0.09166800230741501,-0.014862491633947747,0.0034970568550465285,0.10928302672020401
0.2608184814453125,0.1555328369140625,9.714859008789062,-0.09324164688587189,-0.3677493631839752,0.07804515957832336,-0.08480362873487832,0.0034970568550465285,0.03846762540551182
0.29193115234375,0.1866455078125,9.726821899414062,-0.09324171394109726,-0.3677493631839752,0.07804349064826965,-0.014862491633947747,-0.06644408024588404,0.03846762540551182
0.2656097412109375,0.1794586181640625,9.73638916015625,-0.0931340828537941,-0.3677493631839752,0.09166134893894196,-0.014862491633947747,0.07431245816973873,0.03846762540551182
0.2679901123046875,0.1794586181640625,9.705291748046875,-0.07962130010128021,-0.3677493631839752,0.07803601026535034,-0.014862491633947747,0.0034970568550465285,0.03846762540551182
0.2727813720703125,0.169891357421875,9.705291748046875,-0.07962135970592499,-0.3677493631839752,0.07803601026535034,-0.08480362873487832,0.0034970568550465285,-0.03147351169541876
0.263214111328125,0.16510009765625,9.702896118164062,-0.07962135970592499,-0.3677493631839752,0.0916546955704689,-0.014862491633947747,0.07431245816973873,-0.03147351169541876
0.2608184814453125,0.169891357421875,9.731613159179688,-0.07962135970592499,-0.35412901639938354,0.0916546955704689,-0.014862491633947747,0.0034970568550465285,-0.03147351169541876
0.2799530029296875,0.16510009765625,9.698104858398438,-0.07961911708116531,-0.35412901639938354,0.0916546955704689,0.05507864546698282,0.0034970568550465285,-0.03147351169541876
0.253631591796875,0.17706298828125,9.7220458984375,-0.0932372435927391,-0.3813697397708893,0.07803434878587723,-0.014862491633947747,-0.06644408024588404,-0.03147351169541876
0.275177001953125,0.1674957275390625,9.705291748046875,-0.06589115411043167,-0.35412901639938354,0.09165053814649582,-0.08480362873487832,0.0034970568550465285,-0.03147351169541876
0.2679901123046875,0.1674957275390625,9.726821899414062,-0.06589119136333466,-0.35412901639938354,0.09164804965257645,-0.014862491633947747,0.0034970568550465285,-0.03147351169541876
0.2703857421875,0.18902587890625,9.743576049804688,-0.07951153814792633,-0.35412901639938354,0.09164804965257645,-0.014862491633947747,0.0034970568550465285,0.03846762540551182
0.2703857421875,0.1627044677734375,9.7220458984375,-0.06578138470649719,-0.34050869941711426,0.09164638817310333,-0.014862491633947747,-0.06644408024588404,-0.03147351169541876
0.275177001953125,0.17706298828125,9.719650268554688,-0.09291447699069977,-0.34050869941711426,0.09164388477802277,-0.014862491633947747,0.0034970568550465285,-0.10141464879634933
0.2967071533203125,0.193817138671875,9.717254638671875,-0.10652820765972137,-0.3677493631839752,0.09164223074913025,0.05507864546698282,0.0034970568550465285,-0.03147351169541876
0.2775726318359375,0.16510009765625,9.719650268554688,-0.0929078608751297,-0.35412901639938354,0.10526257753372192,-0.014862491633947747,0.07431245816973873,-0.03147351169541876
0.2656097412109375,0.181854248046875,9.7220458984375,-0.09290782362222672,-0.35412901639938354,0.10526257753372192,0.05507864546698282,0.0034970568550465285,0.03846762540551182
0.2799530029296875,0.18902587890625,9.719650268554688,-0.07928746938705444,-0.35412901639938354,0.09164388477802277,-0.014862491633947747,0.14337933105690767,-0.03147351169541876
0.2584228515625,0.169891357421875,9.72442626953125,-0.07939507812261581,-0.3677493631839752,0.09164638817310333,0.05507864546698282,-0.06644408024588404,-0.03147351169541876
0.29193115234375,0.193817138671875,9.726821899414062,-0.07928746938705444,-0.3677493631839752,0.09164388477802277,-0.014862491633947747,0.0034970568550465285,-0.10141464879634933
0.275177001953125,0.193817138671875,9.731613159179688,-0.09290561825037003,-0.35412901639938354,0.07802353799343109,-0.014862491633947747,0.0034970568550465285,0.03846762540551182
0.2799530029296875,0.1866455078125,9.726821899414062,-0.09290561825037003,-0.3677493631839752,0.09164223074913025,0.05507864546698282,-0.06644408024588404,-0.10141464879634933
0.2584228515625,0.1674957275390625,9.719650268554688,-0.09279578179121017,-0.3677493631839752,0.09163972735404968,-0.014862491633947747,0.0034970568550465285,0.03846762540551182
0.2656097412109375,0.1866455078125,9.726821899414062,-0.07928304374217987,-0.35412901639938354,0.09163972735404968,0.05507864546698282,-0.06644408024588404,0.03846762540551182
0.2703857421875,0.169891357421875,9.702896118164062,-0.09290341287851334,-0.3677493631839752,0.09164223074913025,0.1250197825679134,-0.06644408024588404,0.10928302672020401
0.263214111328125,0.1603240966796875,9.7220458984375,-0.09290561825037003,-0.34050869941711426,0.10526423901319504,-0.08480362873487832,-0.06644408024588404,-0.03147351169541876
0.2679901123046875,0.17706298828125,9.73638916015625,-0.09290561825037003,-0.35412901639938354,0.09164388477802277,-0.08480362873487832,0.0034970568550465285,0.03846762540551182
0.2727813720703125,0.1722869873046875,9.7220458984375,-0.07928526401519775,-0.35412901639938354,0.07802353799343109,0.05507864546698282,-0.06644408024588404,-0.03147351169541876
0.2967071533203125,0.1914215087890625,9.72442626953125,-0.07917767763137817,-0.35412901639938354,0.07802188396453857,0.05507864546698282,-0.06644408024588404,0.03846762540551182
0.2847442626953125,0.1962127685546875,9.73638916015625,-0.07907004654407501,-0.35412901639938354,0.10526091605424881,0.05507864546698282,-0.06644408024588404,0.03846762540551182
0.2727813720703125,0.17706298828125,9.72442626953125,-0.07907004654407501,-0.3677493631839752,0.09164056926965714,0.05507864546698282,0.0034970568550465285,-0.03147351169541876
0.2727813720703125,0.169891357421875,9.705291748046875,-0.07907009869813919,-0.3677493631839752,0.09164056926965714,-0.014862491633947747,0.0034970568550465285,0.03846762540551182
0.2656097412109375,0.18902587890625,9.73638916015625,-0.09279578179121017,-0.35412901639938354,0.09163972735404968,-0.014862491633947747,0.0034970568550465285,-0.1713557858972799
0.2823486328125,0.2010040283203125,9.7340087890625,-0.06555068492889404,-0.3677493631839752,0.11888042837381363,0.05507864546698282,0.0034970568550465285,-0.03147351169541876
0.2608184814453125,0.169891357421875,9.729217529296875,-0.07917103916406631,-0.3677493631839752,0.11888042837381363,-0.014862491633947747,0.07431245816973873,-0.03147351169541876
0.251251220703125,0.1746826171875,9.702896118164062,-0.06555068492889404,-0.35412901639938354,0.09163972735404968,0.05507864546698282,0.0034970568550465285,-0.03147351169541876
0.2727813720703125,0.1627044677734375,9.702896118164062,-0.07917328178882599,-0.35412901639938354,0.10526007413864136,-0.08480362873487832,0.0034970568550465285,-0.03147351169541876
0.2679901123046875,0.1555328369140625,9.705291748046875,-0.07917328178882599,-0.35412901639938354,0.10525842010974884,0.05507864546698282,0.0034970568550465285,-0.03147351169541876
0.275177001953125,0.17706298828125,9.717254638671875,-0.07917328178882599,-0.3677493631839752,0.0780177190899849,-0.08480362873487832,0.0034970568550465285,0.03846762540551182
0.2679901123046875,0.1746826171875,9.726821899414062,-0.09268821775913239,-0.35412901639938354,0.09163391590118408,0.05507864546698282,0.0034970568550465285,0.03846762540551182
0.2799530029296875,0.1866455078125,9.7220458984375,-0.09268821775913239,-0.35412901639938354,0.09163391590118408,0.05507864546698282,-0.06644408024588404,-0.03147351169541876
0.2799530029296875,0.1627044677734375,9.714859008789062,-0.07906787842512131,-0.35412901639938354,0.09163391590118408,-0.08480362873487832,0.0034970568550465285,-0.03147351169541876
0.263214111328125,0.1746826171875,9.72442626953125,-0.07906787842512131,-0.34050869941711426,0.09163391590118408,-0.014862491633947747,0.07431245816973873,-0.10141464879634933
0.2727813720703125,0.1603240966796875,9.719650268554688,-0.0791732668876648,-0.34050869941711426,0.0916355773806572,-0.08480362873487832,0.0034970568550465285,-0.03147351169541876
0.287139892578125,0.17706298828125,9.714859008789062,-0.07906566560268402,-0.35412901639938354,0.09163141995668411,-0.014862491633947747,0.0034970568550465285,-0.03147351169541876
0.2608184814453125,0.1746826171875,9.690933227539062,-0.09268379956483841,-0.35412901639938354,0.09163141995668411,0.05507864546698282,0.0034970568550465285,-0.03147351169541876
0.2560272216796875,0.1794586181640625,9.693328857421875,-0.09268379956483841,-0.35412901639938354,0.09163141995668411,-0.014862491633947747,0.0034970568550465285,-0.10141464879634933
0.263214111328125,0.1627044677734375,9.717254638671875,-0.07906123995780945,-0.35412901639938354,0.10525176674127579,-0.014862491633947747,-0.06644408024588404,0.03846762540551182
0.2608184814453125,0.169891357421875,9.71246337890625,-0.07906123995780945,-0.35412901639938354,0.09163141995668411,-0.014862491633947747,0.0034970568550465285,-0.10141464879634933
0.2799530029296875,0.16510009765625,9.717254638671875,-0.07906123995780945,-0.35412901639938354,0.09163141995668411,0.05507864546698282,0.0034970568550465285,-0.03147351169541876
0.2799530029296875,0.1722869873046875,9.71246337890625,-0.07906123995780945,-0.34050869941711426,0.07801107317209244,0.05507864546698282,-0.06644408024588404,-0.03147351169541876
0.2799530029296875,0.169891357421875,9.705291748046875,-0.07895363122224808,-0.35412901639938354,0.091629758477211,-0.014862491633947747,-0.06644408024588404,-0.03147351169541876
0.2656097412109375,0.16510009765625,9.702896118164062,-0.07895363122224808,-0.35412901639938354,0.091629758477211,-0.014862491633947747,0.0034970568550465285,-0.03147351169541876
0.275177001953125,0.16510009765625,9.693328857421875,-0.09268158674240112,-0.35412901639938354,0.10525176674127579,-0.014862491633947747,0.0034970568550465285,0.03846762540551182
0.2847442626953125,0.181854248046875,9.7220458984375,-0.09257400035858154,-0.3813697397708893,0.07800774276256561,-0.014862491633947747,-0.06644408024588404,0.03846762540551182
0.275177001953125,0.1603240966796875,9.698104858398438,-0.10608673840761185,-0.3677493631839752,0.07800524681806564,-0.08480362873487832,-0.1363852173468146,-0.10141464879634933
0.2608184814453125,0.17706298828125,9.695724487304688,-0.07852103561162949,-0.35412901639938354,0.10523597151041031,-0.014862491633947747,-0.06644408024588404,-0.03147351169541876
0.2703857421875,0.1722869873046875,9.719650268554688,-0.07841340452432632,-0.35412901639938354,0.10523347556591034,-0.014862491633947747,0.0034970568550465285,0.03846762540551182
0.2727813720703125,0.1603240966796875,9.717254638671875,-0.07841340452432632,-0.35412901639938354,0.10523347556591034,-0.014862491633947747,-0.06644408024588404,0.03846762540551182
0.2943115234375,0.1722869873046875,9.702896118164062,-0.0920337587594986,-0.3677493631839752,0.07799278199672699,-0.014862491633947747,0.07431245816973873,-0.03147351169541876
0.2703857421875,0.1674957275390625,9.705291748046875,-0.07841119915246964,-0.35412901639938354,0.09161313623189926,-0.014862491633947747,0.07431245816973873,-0.03147351169541876
0.2608184814453125,0.1746826171875,9.72442626953125,-0.07841119915246964,-0.35412901639938354,0.09161313623189926,-0.014862491633947747,0.0034970568550465285,-0.03147351169541876
0.2656097412109375,0.1722869873046875,9.710067749023438,-0.07841119915246964,-0.35412901639938354,0.10523347556591034,-0.014862491633947747,0.0034970568550465285,-0.03147351169541876
0.275177001953125,0.1674957275390625,9.686141967773438,-0.07841119915246964,-0.35412901639938354,0.10523347556591034,-0.08480362873487832,0.0034970568550465285,0.03846762540551182
0.2608184814453125,0.17706298828125,9.705291748046875,-0.07841119915246964,-0.35412901639938354,0.10523098707199097,-0.08480362873487832,-0.06644408024588404,0.03846762540551182
0.2656097412109375,0.1603240966796875,9.731613159179688,-0.07841119915246964,-0.35412901639938354,0.11884883046150208,-0.08480362873487832,0.07431245816973873,0.03846762540551182
0.2703857421875,0.1627044677734375,9.71246337890625,-0.09213913977146149,-0.35412901639938354,0.105228491127491,0.05507864546698282,0.0034970568550465285,0.03846762540551182
0.263214111328125,0.1674957275390625,9.705291748046875,-0.09213913977146149,-0.35412901639938354,0.105228491127491,-0.014862491633947747,-0.06644408024588404,-0.03147351169541876
0.2823486328125,0.1627044677734375,9.702896118164062,-0.09213913977146149,-0.35412901639938354,0.105228491127491,-0.014862491633947747,0.14337933105690767,-0.10141464879634933
0.2703857421875,0.18902587890625,9.72442626953125,-0.07872956246137619,-0.3677493631839752,0.09161229431629181,-0.014862491633947747,0.07431245816973873,-0.03147351169541876
0.275177001953125,0.1746826171875,9.726821899414062,-0.07872959226369858,-0.3677493631839752,0.09161229431629181,-0.014862491633947747,0.07431245816973873,-0.03147351169541876
0.2727813720703125,0.1842498779296875,9.7220458984375,-0.09245756268501282,-0.35412901639938354,0.09161396324634552,-0.014862491633947747,-0.06644408024588404,-0.03147351169541876
0.263214111328125,0.1674957275390625,9.707687377929688,-0.07883720844984055,-0.35412901639938354,0.09161396324634552,-0.014862491633947747,-0.06644408024588404,-0.03147351169541876
0.2703857421875,0.1674957275390625,9.714859008789062,-0.07883717119693756,-0.35412901639938354,0.09161396324634552,-0.08480362873487832,0.0034970568550465285,0.10928302672020401
0.2727813720703125,0.17706298828125,9.731613159179688,-0.07883942127227783,-0.35412901639938354,0.10523015260696411,0.05507864546698282,0.0034970568550465285,-0.03147351169541876
0.287139892578125,0.1962127685546875,9.73638916015625,-0.09234993904829025,-0.35412901639938354,0.09160814434289932,-0.08480362873487832,-0.06644408024588404,-0.10141464879634933
0.253631591796875,0.1794586181640625,9.71246337890625,-0.07861972600221634,-0.3677493631839752,0.09160398691892624,-0.014862491633947747,0.0034970568550465285,-0.03147351169541876
0.2823486328125,0.1507415771484375,9.70050048828125,-0.09234767407178879,-0.34050869941711426,0.10522599518299103,-0.014862491633947747,0.0034970568550465285,0.03846762540551182
0.29193115234375,0.181854248046875,9.72442626953125,-0.09245528280735016,-0.35412901639938354,0.0916048139333725,-0.08480362873487832,0.07431245816973873,0.03846762540551182
0.2799530029296875,0.157928466796875,9.693328857421875,-0.09267054498195648,-0.35412901639938354,0.09160897135734558,0.13288816049176808,0.06994113710093057,-0.026227926412848965
0.2608184814453125,0.169891357421875,9.695724487304688,-0.07926539331674576,-0.35412901639938354,0.11886047571897507,0.13288816049176808,0.14075653841562277,-0.026227926412848965
0.275177001953125,0.169891357421875,9.702896118164062,-0.09310092777013779,-0.3677493631839752,0.09162892401218414,0.06294702339083752,0.14075653841562277,-0.09616906351377953
0.2775726318359375,0.157928466796875,9.719650268554688,-0.09331614524126053,-0.3677493631839752,0.09163474291563034,0.06294702339083752,0.06994113710093057,0.04371321068808161
0.2823486328125,0.15313720703125,9.71246337890625,-0.09353133291006088,-0.35412901639938354,0.09164056926965714,0.06294702339083752,0.06994113710093057,-0.026227926412848965
0.2464599609375,0.181854248046875,9.705291748046875,-0.08012621104717255,-0.34050869941711426,0.1052650660276413,-0.006994113710093057,0.06994113710093057,-0.026227926412848965
0.2464599609375,0.181854248046875,9.68853759765625,-0.08023382723331451,-0.34050869941711426,0.10526672750711441,0.06294702339083752,0,0.04371321068808161
0.2679901123046875,0.1674957275390625,9.710067749023438,-0.06672108173370361,-0.3677493631839752,0.1188887357711792,0.06294702339083752,0.06994113710093057,0.04371321068808161
0.2679901123046875,0.17706298828125,9.714859008789062,-0.08055662363767624,-0.3677493631839752,0.0780368447303772,0.06294702339083752,0.06994113710093057,-0.09616906351377953
0.2847442626953125,0.1674957275390625,9.717254638671875,-0.08055662363767624,-0.3677493631839752,0.0780368447303772,0.06294702339083752,0,-0.026227926412848965
0.2727813720703125,0.1483612060546875,9.698104858398438,-0.0942823737859726,-0.34050869941711426,0.1052841916680336,-0.006994113710093057,0.06994113710093057,-0.026227926412848965
0.2847442626953125,0.1603240966796875,9.707687377929688,-0.0942823737859726,-0.34050869941711426,0.1052841916680336,0.06294702339083752,0.06994113710093057,-0.026227926412848965
0.263214111328125,0.169891357421875,9.72442626953125,-0.09449758380651474,-0.34050869941711426,0.10528750717639923,-0.006994113710093057,0.06994113710093057,0.04371321068808161
0.2727813720703125,0.1722869873046875,9.693328857421875,-0.08098479360342026,-0.35412901639938354,0.09167131781578064,0.06294702339083752,0.06994113710093057,-0.026227926412848965
0.2775726318359375,0.1722869873046875,9.717254638671875,-0.09471277892589569,-0.34050869941711426,0.105295829474926,0.06294702339083752,0.14075653841562277,-0.09616906351377953
0.2775726318359375,0.1722869873046875,9.717254638671875,-0.09471277892589569,-0.34050869941711426,0.105295829474926,0.06294702339083752,0.14075653841562277,-0.09616906351377953
0.2823486328125,0.169891357421875,9.714859008789062,-0.09492574632167816,-0.34050869941711426,0.10529997944831848,0.06294702339083752,0.14075653841562277,0.04371321068808161
0.2775726318359375,0.169891357421875,9.72442626953125,-0.09502674639225006,-0.35412901639938354,0.10530579835176468,0.06294702339083752,0,-0.026227926412848965
0.2775726318359375,0.1603240966796875,9.719650268554688,-0.0952419564127922,-0.35412901639938354,0.09169377386569977,0.06294702339083752,0.14075653841562277,-0.026227926412848965
0.2847442626953125,0.1627044677734375,9.705291748046875,-0.09534956514835358,-0.35412901639938354,0.09169875085353851,0.06294702339083752,0.06994113710093057,0.04371321068808161
0.2703857421875,0.17706298828125,9.72442626953125,-0.09534956514835358,-0.35412901639938354,0.0917029157280922,0.06294702339083752,0.14075653841562277,-0.026227926412848965
0.263214111328125,0.1627044677734375,9.719650268554688,-0.08161938190460205,-0.34050869941711426,0.09170707315206528,0.06294702339083752,0.06994113710093057,-0.026227926412848965
0.2799530029296875,0.1722869873046875,9.693328857421875,-0.08161938190460205,-0.34050869941711426,0.09170707315206528,0.06294702339083752,0.06994113710093057,0.04371321068808161
0.2799530029296875,0.1627044677734375,9.695724487304688,-0.09513214975595474,-0.3677493631839752,0.10532991588115692,0.06294702339083752,0.06994113710093057,-0.026227926412848965
0.251251220703125,0.1603240966796875,9.717254638671875,-0.08140420913696289,-0.35412901639938354,0.1053324043750763,0.06294702339083752,0.06994113710093057,-0.026227926412848965
0.2799530029296875,0.16510009765625,9.717254638671875,-0.08140420913696289,-0.35412901639938354,0.10533489286899567,0.06294702339083752,0.20982341130279172,-0.026227926412848965
0.2608184814453125,0.1722869873046875,9.690933227539062,-0.06778386235237122,-0.34050869941711426,0.09171870350837708,0.20282929759269866,0.06994113710093057,-0.026227926412848965
0.2488555908203125,0.1794586181640625,9.719650268554688,-0.08150964230298996,-0.35412901639938354,0.10534487664699554,-0.006994113710093057,0.06994113710093057,-0.026227926412848965
0.2560272216796875,0.17706298828125,9.693328857421875,-0.08150964230298996,-0.35412901639938354,0.10534487664699554,0.13288816049176808,0.14075653841562277,-0.09616906351377953
0.2727813720703125,0.16510009765625,9.705291748046875,-0.06788711249828339,-0.3677493631839752,0.10534903407096863,0.13288816049176808,0.14075653841562277,-0.09616906351377953
0.2584228515625,0.157928466796875,9.710067749023438,-0.08161288499832153,-0.35412901639938354,0.10535402595996857,0.13288816049176808,0,-0.09616906351377953
0.2799530029296875,0.1674957275390625,9.7220458984375,-0.08161288499832153,-0.35412901639938354,0.10535402595996857,0.13288816049176808,0.06994113710093057,-0.026227926412848965
0.2608184814453125,0.1627044677734375,9.705291748046875,-0.0952288806438446,-0.35412901639938354,0.07811498641967773,0.06294702339083752,0.06994113710093057,-0.026227926412848965
0.2656097412109375,0.1627044677734375,9.70050048828125,-0.08160853385925293,-0.35412901639938354,0.10535568743944168,0.13288816049176808,0.06994113710093057,-0.026227926412848965
0.2847442626953125,0.16510009765625,9.707687377929688,-0.08160853385925293,-0.35412901639938354,0.10535900294780731,-0.006994113710093057,0,-0.09616906351377953
0.2775726318359375,0.1555328369140625,9.71246337890625,-0.09501368552446365,-0.35412901639938354,0.09173200279474258,0.06294702339083752,0.06994113710093057,-0.026227926412848965
0.251251220703125,0.17706298828125,9.71246337890625,-0.09490387886762619,-0.35412901639938354,0.07810916751623154,0.06294702339083752,0,-0.09616906351377953
0.2608184814453125,0.169891357421875,9.705291748046875,-0.09479407966136932,-0.35412901639938354,0.07810750603675842,0.06294702339083752,0.06994113710093057,-0.026227926412848965
0.275177001953125,0.1555328369140625,9.717254638671875,-0.08106614649295807,-0.35412901639938354,0.09172618389129639,0.06294702339083752,0,0.04371321068808161
0.2488555908203125,0.16510009765625,9.7220458984375,-0.09457889199256897,-0.34050869941711426,0.09172618389129639,0.13288816049176808,0.14075653841562277,0.04371321068808161
0.2727813720703125,0.169891357421875,9.710067749023438,-0.09468650072813034,-0.34050869941711426,0.09173034876585007,-0.006994113710093057,0.06994113710093057,-0.026227926412848965
0.287139892578125,0.1722869873046875,9.714859008789062,-0.09468653053045273,-0.35412901639938354,0.09172618389129639,0.06294702339083752,0.06994113710093057,-0.026227926412848965
0.2727813720703125,0.1674957275390625,9.726821899414062,-0.09468653053045273,-0.35412901639938354,0.09172369539737701,-0.006994113710093057,0.14075653841562277,-0.026227926412848965
0.2727813720703125,0.181854248046875,9.72442626953125,-0.09479407966136932,-0.34050869941711426,0.10534321516752243,0.06294702339083752,0.06994113710093057,0.04371321068808161
0.2847442626953125,0.1722869873046875,9.714859008789062,-0.09479843825101852,-0.3677493631839752,0.07810085266828537,0.06294702339083752,0.06994113710093057,-0.026227926412848965
0.2703857421875,0.1722869873046875,9.705291748046875,-0.0947984829545021,-0.35412901639938354,0.09171870350837708,0.06294702339083752,0.14075653841562277,-0.026227926412848965
0.275177001953125,0.16510009765625,9.7220458984375,-0.0947984829545021,-0.35412901639938354,0.09171870350837708,0.06294702339083752,0.06994113710093057,0.04371321068808161
0.2847442626953125,0.181854248046875,9.719650268554688,-0.08117812871932983,-0.35412901639938354,0.10533905029296875,0.13288816049176808,0.06994113710093057,-0.026227926412848965
0.251251220703125,0.17706298828125,9.693328857421875,-0.0947984904050827,-0.35412901639938354,0.09172120690345764,0.06294702339083752,0,-0.026227926412848965
0.263214111328125,0.1746826171875,9.719650268554688,-0.09469088166952133,-0.35412901639938354,0.09171954542398453,0.06294702339083752,0,0.04371321068808161
0.2727813720703125,0.157928466796875,9.71246337890625,-0.08074773848056793,-0.35412901639938354,0.10532908141613007,0.06294702339083752,0,-0.026227926412848965
0.251251220703125,0.157928466796875,9.719650268554688,-0.06701977550983429,-0.3677493631839752,0.11894775927066803,0.06294702339083752,0,0.11452861200277381
0.2703857421875,0.16510009765625,9.72442626953125,-0.06701977550983429,-0.3677493631839752,0.11894775927066803,0.06294702339083752,0,0.04371321068808161
0.2679901123046875,0.1627044677734375,9.714859008789062,-0.06670133769512177,-0.35412901639938354,0.10532160103321075,0.06294702339083752,0.06994113710093057,-0.09616906351377953
0.2703857421875,0.1722869873046875,9.70050048828125,-0.08021191507577896,-0.35412901639938354,0.10531910508871078,0.06294702339083752,0,-0.09616906351377953
0.2775726318359375,0.18902587890625,9.731613159179688,-0.0801021158695221,-0.35412901639938354,0.10531578212976456,0.06294702339083752,0.14075653841562277,-0.09616906351377953
0.2727813720703125,0.1722869873046875,9.726821899414062,-0.08010208606719971,-0.3677493631839752,0.10531327873468399,0.13288816049176808,0,-0.026227926412848965
0.2727813720703125,0.169891357421875,9.707687377929688,-0.0936148464679718,-0.35412901639938354,0.0916912704706192,0.06294702339083752,0.06994113710093057,0.04371321068808161
0.2656097412109375,0.1674957275390625,9.698104858398438,-0.0936148464679718,-0.35412901639938354,0.0916912704706192,0.06294702339083752,0.06994113710093057,0.11452861200277381
0.2656097412109375,0.1722869873046875,9.690933227539062,-0.0801042839884758,-0.35412901639938354,0.10531327873468399,0.13288816049176808,0.06994113710093057,0.04371321068808161
0.2799530029296875,0.1555328369140625,9.705291748046875,-0.080104298889637,-0.35412901639938354,0.10531744360923767,-0.006994113710093057,0.14075653841562277,0.11452861200277381
0.2847442626953125,0.1842498779296875,9.717254638671875,-0.08021408319473267,-0.35412901639938354,0.10531744360923767,0.06294702339083752,0.14075653841562277,-0.09616906351377953
0.275177001953125,0.1674957275390625,9.693328857421875,-0.09393766522407532,-0.35412901639938354,0.10531744360923767,-0.006994113710093057,0,-0.026227926412848965
0.2560272216796875,0.1722869873046875,9.698104858398438,-0.0801021158695221,-0.35412901639938354,0.10531162470579147,0.20282929759269866,0,-0.026227926412848965
0.2727813720703125,0.1555328369140625,9.714859008789062,-0.0801021158695221,-0.35412901639938354,0.10531162470579147,0.06294702339083752,-0.06994113710093057,-0.026227926412848965
0.2656097412109375,0.15313720703125,9.71246337890625,-0.07988689094781876,-0.34050869941711426,0.1053091287612915,0.06294702339083752,0.06994113710093057,-0.09616906351377953
0.2679901123046875,0.1794586181640625,9.70050048828125,-0.07977928966283798,-0.35412901639938354,0.10530745983123779,0.13288816049176808,0.06994113710093057,0.04371321068808161
0.2679901123046875,0.169891357421875,9.695724487304688,-0.07977930456399918,-0.35412901639938354,0.1053091287612915,0.06294702339083752,0,-0.026227926412848965
0.275177001953125,0.169891357421875,9.698104858398438,-0.0796717032790184,-0.35412901639938354,0.10530745983123779,0.13288816049176808,0.06994113710093057,-0.026227926412848965
0.263214111328125,0.1722869873046875,9.70050048828125,-0.09329204261302948,-0.34050869941711426,0.10530579835176468,0.13288816049176808,0.06994113710093057,-0.026227926412848965
0.275177001953125,0.169891357421875,9.719650268554688,-0.09329204261302948,-0.34050869941711426,0.10530579835176468,0.06294702339083752,0.06994113710093057,-0.026227926412848965
0.2823486328125,0.16510009765625,9.686141967773438,-0.0796717032790184,-0.35412901639938354,0.10530579835176468,0.13288816049176808,0.14075653841562277,-0.026227926412848965
0.2679901123046875,0.16510009765625,9.71246337890625,-0.07977928966283798,-0.35412901639938354,0.1053091287612915,0.13288816049176808,0.06994113710093057,-0.026227926412848965
0.2584228515625,0.1722869873046875,9.70050048828125,-0.07977928966283798,-0.35412901639938354,0.1053091287612915,0.06294702339083752,0.06994113710093057,-0.09616906351377953
0.263214111328125,0.1722869873046875,9.714859008789062,-0.07977709174156189,-0.35412901639938354,0.10530745983123779,0.06294702339083752,0.06994113710093057,-0.09616906351377953
0.263214111328125,0.1722869873046875,9.702896118164062,-0.07966512441635132,-0.35412901639938354,0.10530745983123779,0.13288816049176808,0,-0.026227926412848965
0.2823486328125,0.1603240966796875,9.71246337890625,-0.07955757528543472,-0.35412901639938354,0.10530579835176468,0.13288816049176808,0.06994113710093057,0.04371321068808161
0.2823486328125,0.157928466796875,9.702896118164062,-0.07955977320671082,-0.35412901639938354,0.09168712049722672,0.06294702339083752,0.14075653841562277,0.04371321068808161
0.2847442626953125,0.17706298828125,9.719650268554688,-0.09307469427585602,-0.35412901639938354,0.091685451567173,0.06294702339083752,0,0.04371321068808161
0.253631591796875,0.17706298828125,9.71246337890625,-0.09296704083681107,-0.35412901639938354,0.09168130159378052,-0.006994113710093057,0,-0.026227926412848965
0.2656097412109375,0.17706298828125,9.705291748046875,-0.07913149893283844,-0.35412901639938354,0.10529334098100662,0.06294702339083752,0.14075653841562277,0.11452861200277381
0.2775726318359375,0.169891357421875,9.71246337890625,-0.09297142177820206,-0.35412901639938354,0.09167297929525375,0.13288816049176808,0.14075653841562277,0.04371321068808161
0.275177001953125,0.17706298828125,9.719650268554688,-0.09307906031608582,-0.35412901639938354,0.09167630970478058,0.06294702339083752,0.14075653841562277,-0.026227926412848965
0.2799530029296875,0.1842498779296875,9.731613159179688,-0.09318665415048599,-0.35412901639938354,0.09167464822530746,-0.006994113710093057,0.06994113710093057,-0.09616906351377953
0.2775726318359375,0.1842498779296875,9.738784790039062,-0.07934891432523727,-0.3677493631839752,0.10528834909200668,0.06294702339083752,0.06994113710093057,-0.026227926412848965
0.2847442626953125,0.169891357421875,9.702896118164062,-0.07934891432523727,-0.3677493631839752,0.10528834909200668,0.06294702339083752,0.06994113710093057,-0.026227926412848965
0.251251220703125,0.17706298828125,9.693328857421875,-0.07924126833677292,-0.35412901639938354,0.11890702694654465,-0.006994113710093057,0,0.04371321068808161
0.299102783203125,0.17706298828125,9.71246337890625,-0.092754065990448,-0.35412901639938354,0.11890038102865219,-0.006994113710093057,0.06994113710093057,-0.026227926412848965
0.2464599609375,0.1722869873046875,9.72442626953125,-0.09275401383638382,-0.35412901639938354,0.11889871954917908,-0.006994113710093057,0.06994113710093057,0.04371321068808161
0.263214111328125,0.1746826171875,9.710067749023438,-0.09275401383638382,-0.35412901639938354,0.11889871954917908,0.06294702339083752,0,0.04371321068808161
0.2703857421875,0.169891357421875,9.695724487304688,-0.07880870252847672,-0.35412901639938354,0.10527005791664124,0.06294702339083752,0.06994113710093057,-0.09616906351377953
0.2703857421875,0.1627044677734375,9.68853759765625,-0.07870108634233475,-0.35412901639938354,0.10526590049266815,0.06294702339083752,0.14075653841562277,-0.026227926412848965
0.2895355224609375,0.193817138671875,9.72442626953125,-0.07870108634233475,-0.34050869941711426,0.10526340454816818,0.06294702339083752,0.14075653841562277,-0.026227926412848965
0.287139892578125,0.17706298828125,9.717254638671875,-0.07870108634233475,-0.34050869941711426,0.10526340454816818,0.06294702339083752,0.06994113710093057,-0.09616906351377953
0.299102783203125,0.1603240966796875,9.707687377929688,-0.0789162740111351,-0.35412901639938354,0.11888790875673294,0.13288816049176808,0.06994113710093057,-0.026227926412848965
0.275177001953125,0.157928466796875,9.719650268554688,-0.09263979643583298,-0.35412901639938354,0.09164721518754959,-0.006994113710093057,0.06994113710093057,-0.026227926412848965
0.2608184814453125,0.1866455078125,9.698104858398438,-0.07880425453186035,-0.3677493631839752,0.1052592471241951,0.06294702339083752,0.14075653841562277,0.04371321068808161
0.263214111328125,0.17706298828125,9.719650268554688,-0.07880425453186035,-0.3677493631839752,0.1052592471241951,0.13288816049176808,0.06994113710093057,-0.026227926412848965
0.2679901123046875,0.15313720703125,9.714859008789062,-0.0785890594124794,-0.34050869941711426,0.09163224697113037,-0.07693525081102363,0,0.04371321068808161
0.2727813720703125,0.15313720703125,9.702896118164062,-0.07848146557807922,-0.34050869941711426,0.10524844378232956,0.13288816049176808,0.14075653841562277,0.04371321068808161
0.2703857421875,0.1507415771484375,9.702896118164062,-0.07837386429309845,-0.34050869941711426,0.10524927824735641,0.06294702339083752,0.06994113710093057,-0.026227926412848965
0.2703857421875,0.169891357421875,9.714859008789062,-0.09177898615598679,-0.34050869941711426,0.09162476658821106,0.13288816049176808,0.20982341130279172,-0.09616906351377953
0.2799530029296875,0.16510009765625,9.698104858398438,-0.0917767807841301,-0.35412901639938354,0.10525010526180267,0.13288816049176808,0,-0.026227926412848965
0.251251220703125,0.1746826171875,9.70050048828125,-0.09199197590351105,-0.35412901639938354,0.10525592416524887,0.06294702339083752,0.14075653841562277,-0.09616906351377953
0.2679901123046875,0.1722869873046875,9.702896118164062,-0.07847702503204346,-0.3677493631839752,0.09163224697113037,0.06294702339083752,0.06994113710093057,-0.026227926412848965
0.2584228515625,0.1794586181640625,9.68853759765625,-0.10539492219686508,-0.35412901639938354,0.10524677485227585,0.06294702339083752,0.14075653841562277,0.04371321068808161
0.263214111328125,0.181854248046875,9.7220458984375,-0.07815422862768173,-0.3677493631839752,0.09162643551826477,0.06294702339083752,0,0.04371321068808161
0.2727813720703125,0.169891357421875,9.719650268554688,-0.09155938029289246,-0.35412901639938354,0.09162559360265732,0.13288816049176808,0.14075653841562277,0.04371321068808161
0.253631591796875,0.1842498779296875,9.686141967773438,-0.09155938029289246,-0.35412901639938354,0.09162559360265732,0.13288816049176808,-0.06994113710093057,0.04371321068808161
0.2775726318359375,0.1674957275390625,9.707687377929688,-0.07772382348775864,-0.35412901639938354,0.10524345189332962,0.06294702339083752,0.06994113710093057,-0.026227926412848965
0.2799530029296875,0.157928466796875,9.702896118164062,-0.10485468804836273,-0.35412901639938354,0.09162144362926483,0.20282929759269866,0.14075653841562277,-0.09616906351377953
0.2703857421875,0.1794586181640625,9.70050048828125,-0.09133981913328171,-0.35412901639938354,0.10524844378232956,0.13288816049176808,0.14075653841562277,0.04371321068808161
0.2799530029296875,0.1842498779296875,9.726821899414062,-0.09133981913328171,-0.35412901639938354,0.10525010526180267,0.13288816049176808,0,-0.09616906351377953
0.2679901123046875,0.157928466796875,9.705291748046875,-0.09112238138914108,-0.3677493631839752,0.09162643551826477,0.13288816049176808,0.06994113710093057,-0.09616906351377953
0.251251220703125,0.1674957275390625,9.729217529296875,-0.09112238138914108,-0.3677493631839752,0.09162643551826477,-0.006994113710093057,0.06994113710093057,-0.026227926412848965
0.2775726318359375,0.181854248046875,9.719650268554688,-0.06387952715158463,-0.35412901639938354,0.0780060812830925,0.06294702339083752,-0.06994113710093057,0.04371321068808161
0.253631591796875,0.17706298828125,9.707687377929688,-0.06355669349431992,-0.35412901639938354,0.09161562472581863,0.13288816049176808,0,0.04371321068808161
0.2823486328125,0.16510009765625,9.70050048828125,-0.09058219939470291,-0.35412901639938354,0.09161146730184555,0.06294702339083752,0,-0.026227926412848965
0.2823486328125,0.18902587890625,9.729217529296875,-0.09058219939470291,-0.35412901639938354,0.09161146730184555,0.06294702339083752,0.06994113710093057,-0.026227926412848965
0.2727813720703125,0.157928466796875,9.698104858398438,-0.07663244754076004,-0.35412901639938354,0.10522350668907166,0.13288816049176808,0,-0.026227926412848965
0.2703857421875,0.157928466796875,9.714859008789062,-0.0764172226190567,-0.34050869941711426,0.10522018373012543,0.06294702339083752,0,-0.026227926412848965
0.2703857421875,0.157928466796875,9.70050048828125,-0.07630965858697891,-0.34050869941711426,0.10521768033504486,0.06294702339083752,-0.06994113710093057,0.04371321068808161
0.2823486328125,0.1722869873046875,9.71246337890625,-0.07598681002855301,-0.35412901639938354,0.11882971972227097,-0.006994113710093057,-0.06994113710093057,0.04371321068808161
0.2703857421875,0.1722869873046875,9.71246337890625,-0.07577161490917206,-0.35412901639938354,0.09158071130514145,-0.006994113710093057,-0.06994113710093057,0.04371321068808161
0.2727813720703125,0.1746826171875,9.726821899414062,-0.07566402107477188,-0.35412901639938354,0.09157655388116837,0.06294702339083752,-0.06994113710093057,-0.026227926412848965
0.253631591796875,0.17706298828125,9.702896118164062,-0.06182843819260597,-0.35412901639938354,0.10519357025623322,0.06294702339083752,0,0.04371321068808161
0.287139892578125,0.16510009765625,9.714859008789062,-0.06182843819260597,-0.35412901639938354,0.10519357025623322,0.06294702339083752,0,0.04371321068808161
0.287139892578125,0.1603240966796875,9.714859008789062,-0.08906913548707962,-0.35412901639938354,0.10519357025623322,0.06294702339083752,0,-0.026227926412848965
0.253631591796875,0.1866455078125,9.698104858398438,-0.1026894748210907,-0.34050869941711426,0.09157323092222214,0.06294702339083752,-0.06994113710093057,-0.026227926412848965
0.2656097412109375,0.17706298828125,9.731613159179688,-0.08917456865310669,-0.35412901639938354,0.10519523918628693,0.06294702339083752,0.14075653841562277,0.04371321068808161
0.253631591796875,0.181854248046875,9.702896118164062,-0.08928213268518448,-0.35412901639938354,0.10519690066576004,0.13288816049176808,-0.14075653841562277,0.04371321068808161
0.2799530029296875,0.169891357421875,9.705291748046875,-0.06193383410573006,-0.35412901639938354,0.10519690066576004,0.06294702339083752,0.06994113710093057,0.04371321068808161
0.2608184814453125,0.1794586181640625,9.698104858398438,-0.07566181570291519,-0.35412901639938354,0.10519938915967941,0.13288816049176808,-0.06994113710093057,-0.026227926412848965
0.2656097412109375,0.1746826171875,9.7220458984375,-0.0756617859005928,-0.35412901639938354,0.10520105063915253,0.06294702339083752,0.14075653841562277,-0.026227926412848965
0.2560272216796875,0.17706298828125,9.707687377929688,-0.08949733525514603,-0.3677493631839752,0.09158486127853394,-0.006994113710093057,0.14075653841562277,-0.026227926412848965
0.2895355224609375,0.1603240966796875,9.693328857421875,-0.08949733525514603,-0.3677493631839752,0.09158486127853394,-0.006994113710093057,0,-0.026227926412848965
0.2679901123046875,0.1746826171875,9.71246337890625,-0.10333289951086044,-0.34050869941711426,0.11882556229829788,0.06294702339083752,0.06994113710093057,-0.026227926412848965
0.3014984130859375,0.1842498779296875,9.707687377929688,-0.10333289951086044,-0.34050869941711426,0.11882556229829788,0.06294702339083752,0.06994113710093057,-0.026227926412848965
0.2775726318359375,0.169891357421875,9.71246337890625,-0.10343829542398453,-0.35412901639938354,0.09158652275800705,-0.006994113710093057,0.2806388126174839,-0.026227926412848965
0.2656097412109375,0.1794586181640625,9.729217529296875,-0.10343829542398453,-0.35412901639938354,0.09158652275800705,0.06294702339083752,0.14075653841562277,-0.026227926412848965
0.2679901123046875,0.1674957275390625,9.70050048828125,-0.07641059905290604,-0.35412901639938354,0.07796618342399597,0.13288816049176808,0.20982341130279172,-0.026227926412848965
0.2895355224609375,0.1746826171875,9.731613159179688,-0.09024610370397568,-0.35412901639938354,0.09158985316753387,0.06294702339083752,0,0.04371321068808161
0.275177001953125,0.169891357421875,9.719650268554688,-0.09024615585803986,-0.35412901639938354,0.09158985316753387,0.06294702339083752,0.06994113710093057,0.11452861200277381
0.253631591796875,0.18902587890625,9.702896118164062,-0.09024615585803986,-0.35412901639938354,0.09158985316753387,-0.006994113710093057,0.06994113710093057,-0.026227926412848965
0.2847442626953125,0.157928466796875,9.71246337890625,-0.09067651629447937,-0.34050869941711426,0.0915931835770607,0.13288816049176808,0,-0.09616906351377953
0.2847442626953125,0.1603240966796875,9.707687377929688,-0.09067651629447937,-0.34050869941711426,0.0915931835770607,0.13288816049176808,0.14075653841562277,-0.026227926412848965
0.2727813720703125,0.1842498779296875,9.731613159179688,-0.07727136462926865,-0.35412901639938354,0.0916048139333725,0.13288816049176808,0,-0.026227926412848965
0.275177001953125,0.1962127685546875,9.7340087890625,-0.07727136462926865,-0.35412901639938354,0.0916048139333725,0.06294702339083752,0.14075653841562277,0.04371321068808161
0.2775726318359375,0.1794586181640625,9.702896118164062,-0.09100151807069778,-0.35412901639938354,0.09160814434289932,0.06294702339083752,0.06994113710093057,-0.026227926412848965
0.2703857421875,0.1555328369140625,9.702896118164062,-0.07770396023988724,-0.34050869941711426,0.1052343025803566,0.06294702339083752,0.06994113710093057,0.04371321068808161
0.263214111328125,0.1746826171875,9.705291748046875,-0.07770396023988724,-0.34050869941711426,0.1052343025803566,0.13288816049176808,0.06994113710093057,0.04371321068808161
0.2823486328125,0.1627044677734375,9.7220458984375,-0.07791917026042938,-0.35412901639938354,0.091618113219738,-0.006994113710093057,0.06994113710093057,-0.026227926412848965
0.2656097412109375,0.157928466796875,9.710067749023438,-0.07802681624889374,-0.35412901639938354,0.09162310510873795,0.06294702339083752,0.06994113710093057,-0.026227926412848965
0.2560272216796875,0.1794586181640625,9.693328857421875,-0.07845719158649445,-0.35412901639938354,0.10524677485227585,0.06294702339083752,0.06994113710093057,0.04371321068808161
0.2679901123046875,0.1674957275390625,9.707687377929688,-0.07845719158649445,-0.35412901639938354,0.10524677485227585,0.13288816049176808,0.14075653841562277,0.04371321068808161
0.2488555908203125,0.1674957275390625,9.7220458984375,-0.09250796586275101,-0.35412901639938354,0.10525425523519516,-0.006994113710093057,0,-0.026227926412848965
0.263214111328125,0.1507415771484375,9.714859008789062,-0.09250796586275101,-0.35412901639938354,0.10525425523519516,0.06294702339083752,0.06994113710093057,0.04371321068808161
0.275177001953125,0.17706298828125,9.719650268554688,-0.07899521291255951,-0.34050869941711426,0.09163224697113037,0.06294702339083752,0,0.04371321068808161
0.2823486328125,0.1627044677734375,9.70050048828125,-0.07899521291255951,-0.34050869941711426,0.09163224697113037,0.06294702339083752,0,0.04371321068808161
0.2847442626953125,0.15313720703125,9.686141967773438,-0.09261561185121536,-0.34050869941711426,0.10524345189332962,-0.07693525081102363,0.06994113710093057,0.04371321068808161
0.2727813720703125,0.1674957275390625,9.70050048828125,-0.09261561185121536,-0.34050869941711426,0.10524345189332962,0.06294702339083752,0,0.04371321068808161
0.2799530029296875,0.1722869873046875,9.717254638671875,-0.09261555969715118,-0.34050869941711426,0.10524013638496399,0.06294702339083752,0.06994113710093057,-0.026227926412848965
0.2584228515625,0.1722869873046875,9.70050048828125,-0.09261561185121536,-0.35412901639938354,0.09161645919084549,0.13288816049176808,0.06994113710093057,0.04371321068808161
0.2799530029296875,0.1746826171875,9.714859008789062,-0.06537491828203201,-0.35412901639938354,0.10523846745491028,0.06294702339083752,0.06994113710093057,-0.026227926412848965
0.2799530029296875,0.1914215087890625,9.726821899414062,-0.06537486612796783,-0.35412901639938354,0.10524013638496399,0.06294702339083752,0,0.04371321068808161
0.2584228515625,0.169891357421875,9.7220458984375,-0.07888765633106232,-0.3677493631839752,0.10523846745491028,0.06294702339083752,0,0.11452861200277381
0.2560272216796875,0.1746826171875,9.695724487304688,-0.06506095081567764,-0.35412901639938354,0.09161396324634552,0.13288816049176808,0.06994113710093057,0.11452861200277381
0.2703857421875,0.1507415771484375,9.702896118164062,-0.06506095081567764,-0.35412901639938354,0.09161396324634552,0.13288816049176808,0.06994113710093057,0.11452861200277381
0.2895355224609375,0.1722869873046875,9.717254638671875,-0.09230607002973557,-0.3677493631839752,0.09161645919084549,0.13288816049176808,0.06994113710093057,0.18359548488994273
0.251251220703125,0.1866455078125,9.710067749023438,-0.10582547634840012,-0.35412901639938354,0.09161645919084549,0.06294702339083752,0.06994113710093057,-0.026227926412848965
0.2775726318359375,0.17706298828125,9.7220458984375,-0.06486120074987411,-0.3677493631839752,0.10523264110088348,0.13288816049176808,0.06994113710093057,0.11452861200277381
0.253631591796875,0.1674957275390625,9.68853759765625,-0.07805118709802628,-0.35412901639938354,0.10522516071796417,0.13288816049176808,0.14075653841562277,-0.09616906351377953
0.2679901123046875,0.1603240966796875,9.72442626953125,-0.07805118709802628,-0.35412901639938354,0.10522516071796417,0.06294702339083752,0.06994113710093057,0.04371321068808161
0.2679901123046875,0.1674957275390625,9.729217529296875,-0.07805118709802628,-0.35412901639938354,0.10522516071796417,0.06294702339083752,0.06994113710093057,0.11452861200277381
0.2823486328125,0.1794586181640625,9.72442626953125,-0.07805117219686508,-0.35412901639938354,0.07798030972480774,0.13288816049176808,0.06994113710093057,-0.026227926412848965
0.2799530029296875,0.1627044677734375,9.681365966796875,-0.09167372435331345,-0.35412901639938354,0.09160066395998001,0.06294702339083752,0.14075653841562277,-0.026227926412848965
0.2703857421875,0.1842498779296875,9.702896118164062,-0.09167372435331345,-0.35412901639938354,0.09160066395998001,0.06294702339083752,0.06994113710093057,-0.09616906351377953
0.2823486328125,0.1627044677734375,9.71246337890625,-0.09167372435331345,-0.34050869941711426,0.11884135007858276,0.06294702339083752,0.06994113710093057,-0.026227926412848965
0.2847442626953125,0.1794586181640625,9.7220458984375,-0.09167151898145676,-0.34050869941711426,0.09159816801548004,0.06294702339083752,0.06994113710093057,-0.026227926412848965
0.263214111328125,0.1746826171875,9.72442626953125,-0.09167151898145676,-0.34050869941711426,0.09159816801548004,-0.006994113710093057,0.06994113710093057,0.04371321068808161
0.2727813720703125,0.1674957275390625,9.702896118164062,-0.07805120944976807,-0.35412901639938354,0.09159401059150696,0.13288816049176808,0.14075653841562277,-0.026227926412848965
0.263214111328125,0.1603240966796875,9.710067749023438,-0.09177915006875992,-0.34050869941711426,0.1052168533205986,-0.006994113710093057,0,0.04371321068808161
0.2703857421875,0.16510009765625,9.702896118164062,-0.07794357091188431,-0.35412901639938354,0.10520771145820618,0.06294702339083752,0,0.04371321068808161
0.2775726318359375,0.15313720703125,9.693328857421875,-0.07794357091188431,-0.35412901639938354,0.10520771145820618,0.13288816049176808,0,-0.026227926412848965
0.275177001953125,0.1627044677734375,9.71246337890625,-0.09135092794895172,-0.34050869941711426,0.1052035540342331,0.06294702339083752,0.06994113710093057,-0.026227926412848965
0.2656097412109375,0.1627044677734375,9.710067749023438,-0.09124337136745453,-0.34050869941711426,0.10520189255475998,0.06294702339083752,0,-0.026227926412848965
0.2703857421875,0.1603240966796875,9.70050048828125,-0.07751542329788208,-0.35412901639938354,0.09157904237508774,0.13288816049176808,0.06994113710093057,-0.09616906351377953
0.2799530029296875,0.15313720703125,9.71246337890625,-0.07740559428930283,-0.35412901639938354,0.1051977276802063,0.06294702339083752,0.06994113710093057,-0.09616906351377953
0.2679901123046875,0.1746826171875,9.71246337890625,-0.07740558683872223,-0.35412901639938354,0.10519607365131378,0.06294702339083752,0.06994113710093057,0.11452861200277381
0.29193115234375,0.16510009765625,9.707687377929688,-0.07740335166454315,-0.3677493631839752,0.10519357025623322,0.06294702339083752,0.06994113710093057,0.04371321068808161
0.2799530029296875,0.1627044677734375,9.714859008789062,-0.07740558683872223,-0.35412901639938354,0.10519357025623322,-0.006994113710093057,0.06994113710093057,0.04371321068808161
0.275177001953125,0.16510009765625,9.729217529296875,-0.09081070870161057,-0.35412901639938354,0.0779445618391037,0.13288816049176808,0.06994113710093057,-0.026227926412848965
0.2847442626953125,0.1555328369140625,9.705291748046875,-0.09081070870161057,-0.35412901639938354,0.0779445618391037,0.13288816049176808,0.06994113710093057,-0.09616906351377953
0.2727813720703125,0.157928466796875,9.705291748046875,-0.09081070870161057,-0.35412901639938354,0.10518526285886765,0.06294702339083752,0.06994113710093057,-0.026227926412848965
0.2727813720703125,0.1674957275390625,9.698104858398438,-0.09081070870161057,-0.35412901639938354,0.10518526285886765,0.06294702339083752,0.06994113710093057,-0.09616906351377953
0.2656097412109375,0.1674957275390625,9.698104858398438,-0.07718593627214432,-0.35412901639938354,0.10518526285886765,0.06294702339083752,0.06994113710093057,-0.026227926412848965
0.2727813720703125,0.1722869873046875,9.71246337890625,-0.07697074115276337,-0.35412901639938354,0.10518109798431396,0.06294702339083752,0.06994113710093057,0.04371321068808161
0.287139892578125,0.1627044677734375,9.702896118164062,-0.07697074115276337,-0.35412901639938354,0.10518109798431396,0.06294702339083752,0,0.04371321068808161
0.2823486328125,0.1507415771484375,9.695724487304688,-0.09037592262029648,-0.35412901639938354,0.10517694801092148,-0.006994113710093057,0.14075653841562277,-0.026227926412848965
0.275177001953125,0.1722869873046875,9.719650268554688,-0.09048353880643845,-0.34050869941711426,0.11879729479551315,0.06294702339083752,0.06994113710093057,0.04371321068808161
0.2847442626953125,0.1627044677734375,9.705291748046875,-0.09048353880643845,-0.34050869941711426,0.11879729479551315,0.13288816049176808,0.06994113710093057,0.11452861200277381
0.2847442626953125,0.1627044677734375,9.705291748046875,-0.09048349410295486,-0.35412901639938354,0.10517943650484085,0.13288816049176808,0.06994113710093057,0.11452861200277381
0.275177001953125,0.1674957275390625,9.714859008789062,-0.07665016502141953,-0.35412901639938354,0.07793458551168442,0.20282929759269866,0.14075653841562277,0.04371321068808161
0.2775726318359375,0.16510009765625,9.698104858398438,-0.07675781846046448,-0.35412901639938354,0.0779387503862381,0.13288816049176808,0.06994113710093057,0.04371321068808161
0.2823486328125,0.17706298828125,9.72442626953125,-0.09027056396007538,-0.3677493631839752,0.07794290035963058,0.06294702339083752,0,0.04371321068808161
0.2727813720703125,0.15313720703125,9.707687377929688,-0.09016295522451401,-0.3677493631839752,0.07794124633073807,0.13288816049176808,0.06994113710093057,0.04371321068808161
0.2727813720703125,0.15313720703125,9.707687377929688,-0.09016295522451401,-0.3677493631839752,0.07794124633073807,0.13288816049176808,0.06994113710093057,0.04371321068808161
0.275177001953125,0.15313720703125,9.714859008789062,-0.07643722742795944,-0.35412901639938354,0.09155908972024918,0.06294702339083752,0.14075653841562277,-0.026227926412848965
0.2799530029296875,0.1722869873046875,9.726821899414062,-0.09005757421255112,-0.34050869941711426,0.09155908972024918,0.06294702339083752,0.06994113710093057,-0.09616906351377953
0.275177001953125,0.1674957275390625,9.695724487304688,-0.09005531668663025,-0.34050869941711426,0.09155908972024918,0.06294702339083752,0.14075653841562277,-0.09616906351377953
0.2847442626953125,0.169891357421875,9.710067749023438,-0.09016069769859314,-0.35412901639938354,0.10518360137939453,-0.006994113710093057,0.06994113710093057,-0.09616906351377953
0.2656097412109375,0.157928466796875,9.702896118164062,-0.09015846252441406,-0.35412901639938354,0.10518193989992142,0.13288816049176808,0.06994113710093057,0.11452861200277381
0.2775726318359375,0.1746826171875,9.726821899414062,-0.09015846252441406,-0.35412901639938354,0.10518193989992142,0.06294702339083752,0,-0.026227926412848965
0.2823486328125,0.157928466796875,9.705291748046875,-0.08983789384365082,-0.35412901639938354,0.09155327826738358,-0.006994113710093057,0.06994113710093057,-0.09616906351377953
0.2584228515625,0.1842498779296875,9.71246337890625,-0.07610777765512466,-0.35412901639938354,0.10516946762800217,0.06294702339083752,0,0.11452861200277381
0.2703857421875,0.16510009765625,9.717254638671875,-0.0760001689195633,-0.35412901639938354,0.10516779869794846,0.06294702339083752,0.06994113710093057,0.11452861200277381
0.275177001953125,0.169891357421875,9.690933227539062,-0.08962051570415497,-0.35412901639938354,0.10516531020402908,0.06294702339083752,0,-0.026227926412848965
0.2823486328125,0.16510009765625,9.70050048828125,-0.07578496634960175,-0.35412901639938354,0.10515865683555603,0.06294702339083752,0.06994113710093057,-0.026227926412848965
0.263214111328125,0.16510009765625,9.70050048828125,-0.07578496634960175,-0.35412901639938354,0.10515865683555603,0.06294702339083752,0.06994113710093057,-0.026227926412848965
0.263214111328125,0.1842498779296875,9.70050048828125,-0.08940531313419342,-0.35412901639938354,0.10515865683555603,0.13288816049176808,0.06994113710093057,0.04371321068808161
0.2440643310546875,0.1746826171875,9.681365966796875,-0.07578492909669876,-0.35412901639938354,0.10516364872455597,0.06294702339083752,0,-0.026227926412848965
0.2799530029296875,0.1722869873046875,9.710067749023438,-0.07567738741636276,-0.35412901639938354,0.11878232657909393,0.06294702339083752,0,0.04371321068808161
0.263214111328125,0.1842498779296875,9.693328857421875,-0.07546214014291763,-0.3677493631839752,0.10515283793210983,-0.006994113710093057,0,-0.026227926412848965
0.263214111328125,0.1627044677734375,9.719650268554688,-0.07524694502353668,-0.35412901639938354,0.10514452308416367,0.06294702339083752,0.06994113710093057,-0.026227926412848965
0.253631591796875,0.1842498779296875,9.683746337890625,-0.07524694502353668,-0.35412901639938354,0.1051420345902443,-0.006994113710093057,0.06994113710093057,0.04371321068808161
0.2679901123046875,0.181854248046875,9.72442626953125,-0.07524698227643967,-0.3677493631839752,0.09151753038167953,-0.006994113710093057,0.06994113710093057,0.04371321068808161
0.2560272216796875,0.1746826171875,9.690933227539062,-0.07524695992469788,-0.35412901639938354,0.1187540665268898,0.06294702339083752,0.14075653841562277,-0.026227926412848965
0.2895355224609375,0.16510009765625,9.710067749023438,-0.07524694502353668,-0.35412901639938354,0.11875157058238983,0.06294702339083752,0,-0.09616906351377953
0.2799530029296875,0.157928466796875,9.71246337890625,-0.08875523507595062,-0.34050869941711426,0.1051245778799057,0.06294702339083752,0.06994113710093057,-0.026227926412848965
0.2823486328125,0.1842498779296875,9.72442626953125,-0.0888628140091896,-0.3677493631839752,0.09150422364473343,0.06294702339083752,0.14075653841562277,0.04371321068808161
0.263214111328125,0.1722869873046875,9.710067749023438,-0.0888628363609314,-0.3677493631839752,0.09150588512420654,0.13288816049176808,0.06994113710093057,0.04371321068808161
0.2703857421875,0.17706298828125,9.702896118164062,-0.08886279910802841,-0.35412901639938354,0.10513122379779816,0.06294702339083752,0,0.04371321068808161
0.2727813720703125,0.1746826171875,9.702896118164062,-0.07513489574193954,-0.35412901639938354,0.10512956231832504,0.06294702339083752,0.06994113710093057,0.04371321068808161
0.2703857421875,0.15313720703125,9.702896118164062,-0.07513489574193954,-0.35412901639938354,0.10512956231832504,0.13288816049176808,0.06994113710093057,-0.026227926412848965
0.251251220703125,0.1722869873046875,9.698104858398438,-0.0749196782708168,-0.35412901639938354,0.11874492466449738,0.06294702339083752,0,0.11452861200277381
0.2679901123046875,0.1603240966796875,9.698104858398438,-0.0748143196105957,-0.3677493631839752,0.10512208193540573,0.06294702339083752,0.06994113710093057,-0.09616906351377953
0.2679901123046875,0.1746826171875,9.717254638671875,-0.07481206208467484,-0.3677493631839752,0.10512291640043259,-0.006994113710093057,0.06994113710093057,-0.09616906351377953
0.2775726318359375,0.1866455078125,9.714859008789062,-0.08843015879392624,-0.3677493631839752,0.09149840474128723,0.06294702339083752,0.06994113710093057,-0.026227926412848965
0.2488555908203125,0.181854248046875,9.678970336914062,-0.06118723005056381,-0.3677493631839752,0.11873910576105118,0.13288816049176808,0.06994113710093057,0.04371321068808161
0.251251220703125,0.181854248046875,9.686141967773438,-0.06107968091964722,-0.3677493631839752,0.11873660981655121,0.06294702339083752,0.06994113710093057,0.04371321068808161
0.2775726318359375,0.181854248046875,9.726821899414062,-0.07459241151809692,-0.35412901639938354,0.10511210560798645,-0.006994113710093057,0,-0.026227926412848965
0.263214111328125,0.169891357421875,9.690933227539062,-0.07459242641925812,-0.35412901639938354,0.11872829496860504,0.06294702339083752,0.14075653841562277,-0.026227926412848965
0.2584228515625,0.16510009765625,9.705291748046875,-0.07459234446287155,-0.35412901639938354,0.1051054522395134,-0.006994113710093057,0.06994113710093057,0.04371321068808161
0.2727813720703125,0.16510009765625,9.707687377929688,-0.07448479533195496,-0.3677493631839752,0.10509880632162094,0.06294702339083752,0,-0.09616906351377953
0.2703857421875,0.157928466796875,9.695724487304688,-0.0743749812245369,-0.3677493631839752,0.11871915310621262,0.13288816049176808,0.14075653841562277,-0.026227926412848965
0.2799530029296875,0.1962127685546875,9.683746337890625,-0.0743749812245369,-0.3677493631839752,0.11871915310621262,0.06294702339083752,0.06994113710093057,-0.026227926412848965
0.2464599609375,0.17706298828125,9.686141967773438,-0.060747839510440826,-0.3677493631839752,0.11871915310621262,-0.006994113710093057,0.06994113710093057,-0.09616906351377953
0.2608184814453125,0.17706298828125,9.683746337890625,-0.06064024940133095,-0.3677493631839752,0.11871500313282013,0.06294702339083752,0,-0.026227926412848965
0.2799530029296875,0.1603240966796875,9.710067749023438,-0.060532696545124054,-0.3677493631839752,0.11871333420276642,-0.006994113710093057,0,-0.026227926412848965
0.2727813720703125,0.16510009765625,9.7220458984375,-0.060532696545124054,-0.3677493631839752,0.11871333420276642,-0.006994113710093057,0.06994113710093057,-0.026227926412848965
0.263214111328125,0.1674957275390625,9.690933227539062,-0.06031745299696922,-0.3677493631839752,0.10508467257022858,-0.006994113710093057,0.06994113710093057,0.11452861200277381
0.263214111328125,0.1722869873046875,9.693328857421875,-0.07394228875637054,-0.3677493631839752,0.1186983659863472,0.06294702339083752,0,-0.09616906351377953
0.2775726318359375,0.16510009765625,9.70050048828125,-0.07383470237255096,-0.3677493631839752,0.11869338154792786,0.13288816049176808,0.06994113710093057,0.04371321068808161
0.2656097412109375,0.1603240966796875,9.714859008789062,-0.0873451977968216,-0.35412901639938354,0.1050688773393631,0.13288816049176808,0.14075653841562277,-0.09616906351377953
0.2727813720703125,0.17706298828125,9.714859008789062,-0.07383020967245102,-0.35412901639938354,0.09145518392324448,0.06294702339083752,0.06994113710093057,-0.026227926412848965
0.29193115234375,0.1603240966796875,9.690933227539062,-0.07383020967245102,-0.35412901639938354,0.09145518392324448,0.06294702339083752,0.14075653841562277,-0.026227926412848965
0.2823486328125,0.16510009765625,9.707687377929688,-0.10117625445127487,-0.35412901639938354,0.11870002746582031,0.06294702339083752,0.06994113710093057,-0.026227926412848965
0.2584228515625,0.1507415771484375,9.710067749023438,-0.08755365014076233,-0.3813697397708893,0.09145934134721756,-0.07693525081102363,0.06994113710093057,-0.026227926412848965
0.2679901123046875,0.1722869873046875,9.707687377929688,-0.08755365014076233,-0.3813697397708893,0.09145767241716385,0.13288816049176808,0,-0.026227926412848965
0.2847442626953125,0.1603240966796875,9.693328857421875,-0.07382571697235107,-0.3677493631839752,0.10507302731275558,-0.006994113710093057,0,0.11452861200277381
0.2703857421875,0.157928466796875,9.698104858398438,-0.08723536133766174,-0.35412901639938354,0.1050688773393631,0.06294702339083752,0.06994113710093057,-0.026227926412848965
0.275177001953125,0.1507415771484375,9.714859008789062,-0.08723539859056473,-0.35412901639938354,0.10506720840930939,0.06294702339083752,0.06994113710093057,-0.026227926412848965
0.2823486328125,0.169891357421875,9.710067749023438,-0.08723539859056473,-0.35412901639938354,0.10506720840930939,0.06294702339083752,0.06994113710093057,-0.026227926412848965
0.2775726318359375,0.1842498779296875,9.71246337890625,-0.08723536133766174,-0.3677493631839752,0.1050688773393631,0.06294702339083752,0.06994113710093057,-0.09616906351377953
0.2727813720703125,0.16510009765625,9.705291748046875,-0.08723536133766174,-0.3677493631839752,0.1050688773393631,0.06294702339083752,0,-0.026227926412848965
0.2703857421875,0.1603240966796875,9.7220458984375,-0.0736127644777298,-0.3677493631839752,0.1050688773393631,0.06294702339083752,0.14075653841562277,-0.026227926412848965
0.2847442626953125,0.1507415771484375,9.702896118164062,-0.0871255099773407,-0.35412901639938354,0.0914452001452446,0.06294702339083752,0,0.04371321068808161
0.2943115234375,0.16510009765625,9.705291748046875,-0.08701791614294052,-0.35412901639938354,0.09144020825624466,0.20282929759269866,0.14075653841562277,0.04371321068808161
0.2823486328125,0.1674957275390625,9.707687377929688,-0.1005306988954544,-0.3677493631839752,0.1050630584359169,-0.006994113710093057,0.06994113710093057,-0.026227926412848965
0.263214111328125,0.1674957275390625,9.702896118164062,-0.07339760661125183,-0.3677493631839752,0.10506554692983627,0.06294702339083752,0,-0.026227926412848965
0.253631591796875,0.1746826171875,9.710067749023438,-0.07328996807336807,-0.3677493631839752,0.10506139695644379,-0.006994113710093057,0.06994113710093057,-0.09616906351377953
0.275177001953125,0.1507415771484375,9.710067749023438,-0.07318011671304703,-0.3677493631839752,0.10505475103855133,0.13288816049176808,0.06994113710093057,0.04371321068808161
0.2703857421875,0.1914215087890625,9.73638916015625,-0.08679819107055664,-0.35412901639938354,0.10505224764347076,-0.006994113710093057,0,-0.026227926412848965
0.2823486328125,0.1842498779296875,9.714859008789062,-0.08669063448905945,-0.35412901639938354,0.10504975914955139,-0.006994113710093057,0.06994113710093057,-0.026227926412848965
0.287139892578125,0.1674957275390625,9.698104858398438,-0.07285504043102264,-0.3813697397708893,0.10504143685102463,-0.006994113710093057,0.06994113710093057,0.04371321068808161
0.2775726318359375,0.1674957275390625,9.71246337890625,-0.08636780083179474,-0.3677493631839752,0.10503479838371277,0.06294702339083752,-0.06994113710093057,-0.026227926412848965
0.2823486328125,0.1627044677734375,9.7220458984375,-0.08636780083179474,-0.3677493631839752,0.10503479838371277,0.13288816049176808,0.20982341130279172,-0.026227926412848965
0.2703857421875,0.1674957275390625,9.70050048828125,-0.08604499697685242,-0.3677493631839752,0.10502398759126663,0.13288816049176808,0.06994113710093057,-0.09616906351377953
0.2823486328125,0.1674957275390625,9.70050048828125,-0.07242239266633987,-0.3677493631839752,0.0914086252450943,0.06294702339083752,0,-0.026227926412848965
0.2775726318359375,0.169891357421875,9.686141967773438,-0.07231252640485764,-0.3677493631839752,0.09140945971012115,0.06294702339083752,0.06994113710093057,-0.026227926412848965
0.2703857421875,0.1674957275390625,9.717254638671875,-0.08582530170679092,-0.3677493631839752,0.11864765733480453,0.06294702339083752,0.06994113710093057,0.04371321068808161
0.2775726318359375,0.1722869873046875,9.695724487304688,-0.07220494747161865,-0.3677493631839752,0.09140695631504059,0.06294702339083752,0.06994113710093057,-0.026227926412848965
0.275177001953125,0.1627044677734375,9.690933227539062,-0.07220494747161865,-0.3677493631839752,0.09140695631504059,-0.006994113710093057,0.06994113710093057,-0.026227926412848965
0.2560272216796875,0.1722869873046875,9.671783447265625,-0.08561007678508759,-0.3813697397708893,0.10502065718173981,-0.006994113710093057,0,0.04371321068808161
0.2703857421875,0.1746826171875,9.690933227539062,-0.0583716556429863,-0.3677493631839752,0.1322563737630844,0.06294702339083752,0.06994113710093057,-0.026227926412848965
0.2560272216796875,0.1842498779296875,9.681365966796875,-0.07199200242757797,-0.3677493631839752,0.11863601207733154,0.06294702339083752,0.06994113710093057,-0.09616906351377953
0.2560272216796875,0.1842498779296875,9.693328857421875,-0.07198969274759293,-0.3813697397708893,0.10501567274332047,0.06294702339083752,0.06994113710093057,-0.026227926412848965
0.2584228515625,0.17706298828125,9.690933227539062,-0.05847472697496414,-0.3813697397708893,0.11863601207733154,0.06294702339083752,0,-0.09616906351377953
0.275177001953125,0.169891357421875,9.705291748046875,-0.05836484581232071,-0.3813697397708893,0.11863186210393906,-0.006994113710093057,0.06994113710093057,-0.026227926412848965
0.2584228515625,0.1722869873046875,9.686141967773438,-0.08538808673620224,-0.3677493631839752,0.10500237345695496,0.06294702339083752,0.06994113710093057,0.04371321068808161
0.263214111328125,0.1627044677734375,9.695724487304688,-0.07176773995161057,-0.3677493631839752,0.10499821603298187,-0.006994113710093057,0.06994113710093057,0.04371321068808161
0.2799530029296875,0.1674957275390625,9.717254638671875,-0.07176779210567474,-0.3677493631839752,0.10499655455350876,0.06294702339083752,-0.06994113710093057,-0.026227926412848965
0.263214111328125,0.169891357421875,9.695724487304688,-0.07155254483222961,-0.3677493631839752,0.11860775202512741,0.06294702339083752,0.06994113710093057,-0.026227926412848965
0.2703857421875,0.16510009765625,9.70050048828125,-0.07144269347190857,-0.3677493631839752,0.10498490929603577,0.20282929759269866,0.06994113710093057,-0.026227926412848965
0.275177001953125,0.1722869873046875,9.693328857421875,-0.07144269347190857,-0.3677493631839752,0.10498490929603577,0.06294702339083752,0.14075653841562277,-0.026227926412848965
0.2440643310546875,0.17706298828125,9.690933227539062,-0.0713350921869278,-0.3677493631839752,0.104988232254982,0.06294702339083752,0.06994113710093057,-0.09616906351377953
0.2823486328125,0.1627044677734375,9.702896118164062,-0.05782005935907364,-0.3677493631839752,0.11860857903957367,-0.006994113710093057,0.06994113710093057,-0.026227926412848965
0.2656097412109375,0.1722869873046875,9.693328857421875,-0.05782005935907364,-0.3677493631839752,0.11860857903957367,-0.006994113710093057,0.06994113710093057,-0.026227926412848965
0.2799530029296875,0.1674957275390625,9.714859008789062,-0.08473571389913559,-0.3677493631839752,0.10497494041919708,0.06294702339083752,0,0.04371321068808161
0.29193115234375,0.1866455078125,9.70050048828125,-0.08462810516357422,-0.3677493631839752,0.09135042876005173,0.06294702339083752,0,-0.026227926412848965
0.275177001953125,0.169891357421875,9.719650268554688,-0.08452051132917404,-0.3677493631839752,0.09134877473115921,0.13288816049176808,0.14075653841562277,-0.09616906351377953
0.2608184814453125,0.169891357421875,9.707687377929688,-0.0844106376171112,-0.3677493631839752,0.09134627133607864,0.20282929759269866,0,0.04371321068808161
0.2608184814453125,0.1674957275390625,9.714859008789062,-0.07068268209695816,-0.3677493631839752,0.09134627133607864,0.13288816049176808,0,0.04371321068808161
0.2847442626953125,0.1555328369140625,9.710067749023438,-0.07057508081197739,-0.3677493631839752,0.09134627133607864,0.06294702339083752,0.14075653841562277,-0.026227926412848965
0.253631591796875,0.1627044677734375,9.705291748046875,-0.0704674944281578,-0.3677493631839752,0.1049649640917778,-0.006994113710093057,0.06994113710093057,-0.026227926412848965
0.2584228515625,0.1842498779296875,9.698104858398438,-0.056847184896469116,-0.35412901639938354,0.10496246814727783,0.06294702339083752,0.06994113710093057,0.04371321068808161
0.2799530029296875,0.16510009765625,9.695724487304688,-0.07046747952699661,-0.3813697397708893,0.10496246814727783,0.13288816049176808,0.06994113710093057,0.04371321068808161
0.275177001953125,0.1603240966796875,9.72442626953125,-0.08398023992776871,-0.3677493631839752,0.10495582222938538,0.06294702339083752,0.06994113710093057,-0.09616906351377953
0.2584228515625,0.1794586181640625,9.72442626953125,-0.08397794514894485,-0.3677493631839752,0.0913354679942131,0.06294702339083752,0.06994113710093057,-0.026227926412848965
0.287139892578125,0.1603240966796875,9.702896118164062,-0.05673275887966156,-0.3813697397708893,0.0913354679942131,0.13288816049176808,0.06994113710093057,0.04371321068808161
0.2847442626953125,0.1627044677734375,9.702896118164062,-0.08397345244884491,-0.3677493631839752,0.10495582222938538,-0.006994113710093057,0.06994113710093057,-0.026227926412848965
0.2656097412109375,0.1674957275390625,9.702896118164062,-0.08386581391096115,-0.35412901639938354,0.10495083034038544,0.13288816049176808,0,-0.026227926412848965
0.2847442626953125,0.181854248046875,9.717254638671875,-0.08375820517539978,-0.35412901639938354,0.10494916886091232,0.06294702339083752,0.06994113710093057,-0.026227926412848965
0.2799530029296875,0.1794586181640625,9.72442626953125,-0.06992039084434509,-0.3677493631839752,0.1049400195479393,0.06294702339083752,0.06994113710093057,0.04371321068808161
0.263214111328125,0.157928466796875,9.707687377929688,-0.08332783728837967,-0.3677493631839752,0.09131551533937454,0.13288816049176808,0.06994113710093057,-0.026227926412848965
0.2823486328125,0.16510009765625,9.702896118164062,-0.08332783728837967,-0.3677493631839752,0.09131386131048203,0.06294702339083752,0,-0.026227926412848965
0.263214111328125,0.15313720703125,9.70050048828125,-0.0832202360033989,-0.35412901639938354,0.10493170469999313,0.13288816049176808,0,0.04371321068808161
0.253631591796875,0.17706298828125,9.702896118164062,-0.06938469409942627,-0.35412901639938354,0.10493005067110062,0.06294702339083752,0.06994113710093057,-0.026227926412848965
0.275177001953125,0.16510009765625,9.693328857421875,-0.06938469409942627,-0.35412901639938354,0.10493005067110062,-0.006994113710093057,0.06994113710093057,-0.026227926412848965
0.263214111328125,0.1722869873046875,9.695724487304688,-0.08300282061100006,-0.3677493631839752,0.10492588579654694,-0.07693525081102363,-0.06994113710093057,0.04371321068808161
0.2584228515625,0.169891357421875,9.68853759765625,-0.06916721910238266,-0.3677493631839752,0.10491674393415451,-0.006994113710093057,0,0.04371321068808161
0.2799530029296875,0.1674957275390625,9.714859008789062,-0.06905964016914368,-0.3677493631839752,0.10491258651018143,0.06294702339083752,0.06994113710093057,0.04371321068808161
0.2679901123046875,0.1746826171875,9.717254638671875,-0.08257239311933517,-0.3677493631839752,0.0912855863571167,-0.006994113710093057,0.06994113710093057,-0.026227926412848965
0.263214111328125,0.1435699462890625,9.705291748046875,-0.06884445250034332,-0.3677493631839752,0.09127894788980484,0.06294702339083752,0.14075653841562277,-0.09616906351377953
0.2703857421875,0.1555328369140625,9.71246337890625,-0.06884215772151947,-0.3677493631839752,0.09127894788980484,0.06294702339083752,0.06994113710093057,-0.09616906351377953
0.275177001953125,0.1555328369140625,9.71246337890625,-0.06883527338504791,-0.35412901639938354,0.10489429533481598,0.13288816049176808,0.06994113710093057,-0.026227926412848965
0.2775726318359375,0.1746826171875,9.705291748046875,-0.08256092667579651,-0.35412901639938354,0.09127894788980484,0.06294702339083752,0.06994113710093057,-0.026227926412848965
0.287139892578125,0.1627044677734375,9.705291748046875,-0.08256092667579651,-0.35412901639938354,0.09127894788980484,0.06294702339083752,0.06994113710093057,-0.026227926412848965
0.2679901123046875,0.1674957275390625,9.686141967773438,-0.06883295625448227,-0.3677493631839752,0.1048976257443428,-0.006994113710093057,0.14075653841562277,-0.026227926412848965
0.2608184814453125,0.1794586181640625,9.690933227539062,-0.06894057244062424,-0.3677493631839752,0.11851464211940765,0.06294702339083752,0.06994113710093057,0.04371321068808161
0.253631591796875,0.181854248046875,9.683746337890625,-0.06894057244062424,-0.3813697397708893,0.11851464211940765,-0.006994113710093057,0.06994113710093057,0.04371321068808161
0.251251220703125,0.17706298828125,9.698104858398438,-0.06894055753946304,-0.3677493631839752,0.10489014536142349,0.06294702339083752,0.06994113710093057,-0.026227926412848965
0.2847442626953125,0.1674957275390625,9.693328857421875,-0.06894055753946304,-0.3813697397708893,0.10489014536142349,0.13288816049176808,0,-0.1661102006147101
0.2656097412109375,0.1746826171875,9.702896118164062,-0.06882841140031815,-0.3813697397708893,0.10489014536142349,0.13288816049176808,0,-0.09616906351377953
0.2656097412109375,0.17706298828125,9.702896118164062,-0.08233657479286194,-0.3677493631839752,0.10489263385534286,0.06294702339083752,0.06994113710093057,0.04371321068808161
0.2464599609375,0.1794586181640625,9.70050048828125,-0.0685010626912117,-0.3677493631839752,0.10488848388195038,0.06294702339083752,0.06994113710093057,0.04371321068808161
0.2656097412109375,0.1722869873046875,9.710067749023438,-0.06839346140623093,-0.3677493631839752,0.10488598793745041,0.06294702339083752,0.06994113710093057,0.04371321068808161
0.263214111328125,0.15313720703125,9.71246337890625,-0.05466550216078758,-0.35412901639938354,0.10488016158342361,0.06294702339083752,0,0.04371321068808161
0.2799530029296875,0.1722869873046875,9.71246337890625,-0.06817827373743057,-0.35412901639938354,0.09126148372888565,0.06294702339083752,0.06994113710093057,0.04371321068808161
0.2679901123046875,0.157928466796875,9.702896118164062,-0.06817827373743057,-0.35412901639938354,0.09126148372888565,0.06294702339083752,0.14075653841562277,-0.026227926412848965
0.2608184814453125,0.1722869873046875,9.70050048828125,-0.08190389722585678,-0.3677493631839752,0.1048843264579773,0.06294702339083752,0.06994113710093057,-0.09616906351377953
0.275177001953125,0.1674957275390625,9.714859008789062,-0.054656341671943665,-0.3677493631839752,0.11850467324256897,0.13288816049176808,0.06994113710093057,0.04371321068808161
0.2727813720703125,0.16510009765625,9.702896118164062,-0.05465639382600784,-0.3677493631839752,0.11850467324256897,-0.006994113710093057,0.06994113710093057,-0.026227926412848965
0.2823486328125,0.1555328369140625,9.702896118164062,-0.0818970650434494,-0.3677493631839752,0.10488183051347733,-0.006994113710093057,0,0.04371321068808161
0.2775726318359375,0.1603240966796875,9.710067749023438,-0.08168184757232666,-0.3677493631839752,0.1048726812005043,-0.006994113710093057,0.06994113710093057,-0.09616906351377953
0.2584228515625,0.17706298828125,9.7220458984375,-0.08167953044176102,-0.3677493631839752,0.10487101972103119,0.06294702339083752,0.06994113710093057,-0.026227926412848965
0.2679901123046875,0.1722869873046875,9.710067749023438,-0.08146436512470245,-0.35412901639938354,0.10486437380313873,0.06294702339083752,0.06994113710093057,0.04371321068808161
0.2799530029296875,0.1674957275390625,9.719650268554688,-0.06784401834011078,-0.3677493631839752,0.1048668622970581,0.13288816049176808,0,-0.026227926412848965
0.2847442626953125,0.1555328369140625,9.702896118164062,-0.06773639470338821,-0.3677493631839752,0.1048668622970581,0.06294702339083752,0.14075653841562277,-0.09616906351377953
0.2584228515625,0.1722869873046875,9.695724487304688,-0.08156964182853699,-0.35412901639938354,0.11849137395620346,0.06294702339083752,0.06994113710093057,-0.026227926412848965
0.2727813720703125,0.17706298828125,9.72442626953125,-0.06794929504394531,-0.3677493631839752,0.11849137395620346,-0.006994113710093057,0.06994113710093057,0.04371321068808161
0.2775726318359375,0.1674957275390625,9.710067749023438,-0.08156967908143997,-0.3677493631839752,0.09124818444252014,0.13288816049176808,0.06994113710093057,0.11452861200277381
0.2799530029296875,0.157928466796875,9.693328857421875,-0.08157198131084442,-0.3677493631839752,0.10486603528261185,0.06294702339083752,0.06994113710093057,0.04371321068808161
0.2679901123046875,0.1674957275390625,9.72442626953125,-0.06795394420623779,-0.3677493631839752,0.11848720908164978,0.06294702339083752,0,0.04371321068808161
0.275177001953125,0.2010040283203125,9.741180419921875,-0.06784635037183762,-0.3677493631839752,0.11848472058773041,-0.006994113710093057,0.06994113710093057,-0.026227926412848965
0.2560272216796875,0.181854248046875,9.702896118164062,-0.06773873418569565,-0.3677493631839752,0.09123986214399338,0.06294702339083752,0.06994113710093057,0.04371321068808161
0.275177001953125,0.1746826171875,9.690933227539062,-0.05411611497402191,-0.3813697397708893,0.10486020892858505,0.06294702339083752,0.06994113710093057,-0.09616906351377953
0.2799530029296875,0.157928466796875,9.695724487304688,-0.05411381646990776,-0.3813697397708893,0.10486020892858505,0.13288816049176808,0.06994113710093057,-0.026227926412848965
0.2608184814453125,0.1603240966796875,9.705291748046875,-0.08135217428207397,-0.35412901639938354,0.1184830591082573,-0.006994113710093057,0.14075653841562277,-0.026227926412848965
0.2656097412109375,0.181854248046875,9.729217529296875,-0.06783940643072128,-0.35412901639938354,0.10486437380313873,-0.006994113710093057,0.06994113710093057,-0.026227926412848965
0.2584228515625,0.1555328369140625,9.71246337890625,-0.06783940643072128,-0.35412901639938354,0.10486437380313873,0.06294702339083752,0.14075653841562277,-0.026227926412848965
0.2727813720703125,0.1627044677734375,9.698104858398438,-0.08145749568939209,-0.3677493631839752,0.09123653918504715,0.13288816049176808,0.06994113710093057,-0.026227926412848965
0.253631591796875,0.16510009765625,9.702896118164062,-0.06783484667539597,-0.3677493631839752,0.10485523194074631,-0.006994113710093057,0.06994113710093057,0.04371321068808161
0.2679901123046875,0.1627044677734375,9.68853759765625,-0.06783484667539597,-0.3677493631839752,0.10485272854566574,0.06294702339083752,0.06994113710093057,-0.026227926412848965
0.2847442626953125,0.1627044677734375,9.693328857421875,-0.08145519345998764,-0.3677493631839752,0.09123072028160095,0.06294702339083752,0.06994113710093057,-0.026227926412848965
0.253631591796875,0.1674957275390625,9.686141967773438,-0.08145289123058319,-0.3677493631839752,0.09123072028160095,-0.006994113710093057,0.06994113710093057,-0.09616906351377953
0.263214111328125,0.17706298828125,9.695724487304688,-0.08145058155059814,-0.3677493631839752,0.09122739732265472,0.06294702339083752,0.14075653841562277,-0.09616906351377953
0.2727813720703125,0.169891357421875,9.707687377929688,-0.06793320178985596,-0.3677493631839752,0.104847751557827,0.06294702339083752,0.06994113710093057,-0.09616906351377953
0.2823486328125,0.169891357421875,9.705291748046875,-0.06803849339485168,-0.35412901639938354,0.10485024005174637,0.06294702339083752,0.14075653841562277,0.04371321068808161
0.2560272216796875,0.1794586181640625,9.686141967773438,-0.06814609467983246,-0.35412901639938354,0.10485190153121948,0.06294702339083752,0,0.04371321068808161
0.2823486328125,0.1627044677734375,9.693328857421875,-0.06793089210987091,-0.3813697397708893,0.104847751557827,-0.006994113710093057,0,-0.026227926412848965
0.2679901123046875,0.1722869873046875,9.714859008789062,-0.08133604377508163,-0.3677493631839752,0.11845894902944565,0.06294702339083752,0,-0.026227926412848965
0.2608184814453125,0.18902587890625,9.70050048828125,-0.08133604377508163,-0.3677493631839752,0.11845894902944565,0.06294702339083752,0.06994113710093057,0.11452861200277381
0.275177001953125,0.157928466796875,9.693328857421875,-0.06760810315608978,-0.3677493631839752,0.10483527928590775,0.06294702339083752,0.14075653841562277,0.04371321068808161
0.2608184814453125,0.1674957275390625,9.68853759765625,-0.06760808825492859,-0.3677493631839752,0.11845313012599945,0.13288816049176808,0,-0.09616906351377953
0.2775726318359375,0.1627044677734375,9.698104858398438,-0.06749817728996277,-0.3677493631839752,0.11845063418149948,0.06294702339083752,0.14075653841562277,-0.026227926412848965
0.2679901123046875,0.1794586181640625,9.726821899414062,-0.06749817728996277,-0.3677493631839752,0.11845063418149948,0.06294702339083752,0.14075653841562277,-0.026227926412848965
0.2368927001953125,0.181854248046875,9.719650268554688,-0.04047037661075592,-0.3813697397708893,0.09120910614728928,0.06294702339083752,0,-0.026227926412848965
0.2656097412109375,0.16510009765625,9.695724487304688,-0.04047037661075592,-0.3813697397708893,0.09120910614728928,-0.006994113710093057,0,-0.026227926412848965
0.2775726318359375,0.1674957275390625,9.717254638671875,-0.0676034688949585,-0.3677493631839752,0.1048228070139885,-0.006994113710093057,0.06994113710093057,-0.026227926412848965
0.2895355224609375,0.18902587890625,9.731613159179688,-0.08111389726400375,-0.3677493631839752,0.1048169881105423,-0.006994113710093057,0.06994113710093057,0.04371321068808161
0.2656097412109375,0.1627044677734375,9.705291748046875,-0.08111389726400375,-0.3677493631839752,0.1048169881105423,0.13288816049176808,0.06994113710093057,-0.026227926412848965
0.2727813720703125,0.1722869873046875,9.705291748046875,-0.06749358773231506,-0.3677493631839752,0.10481365770101547,-0.07693525081102363,0.06994113710093057,-0.026227926412848965
0.2967071533203125,0.1555328369140625,9.705291748046875,-0.06749358773231506,-0.3677493631839752,0.10481365770101547,0.06294702339083752,0,-0.09616906351377953
0.275177001953125,0.1674957275390625,9.714859008789062,-0.08089868724346161,-0.3677493631839752,0.1048053503036499,0.06294702339083752,0,-0.026227926412848965
0.2679901123046875,0.16510009765625,9.719650268554688,-0.053442783653736115,-0.3813697397708893,0.10479869693517685,0.06294702339083752,0,-0.026227926412848965
0.2608184814453125,0.169891357421875,9.707687377929688,-0.06684792041778564,-0.3677493631839752,0.11841239780187607,0.06294702339083752,0.06994113710093057,-0.09616906351377953
0.2703857421875,0.169891357421875,9.70050048828125,-0.06684792041778564,-0.3677493631839752,0.11841239780187607,0.06294702339083752,0.06994113710093057,-0.026227926412848965
0.2727813720703125,0.169891357421875,9.695724487304688,-0.06684792041778564,-0.3677493631839752,0.11841239780187607,0.06294702339083752,0.06994113710093057,-0.026227926412848965
0.2656097412109375,0.16510009765625,9.702896118164062,-0.06674034893512726,-0.3677493631839752,0.13202859461307526,0.06294702339083752,0.06994113710093057,0.04371321068808161
0.2799530029296875,0.1842498779296875,9.717254638671875,-0.06674037873744965,-0.3677493631839752,0.13202859461307526,0.13288816049176808,0.14075653841562277,-0.026227926412848965
0.275177001953125,0.169891357421875,9.690933227539062,-0.08046833425760269,-0.3813697397708893,0.1047920435667038,0.13288816049176808,0.06994113710093057,-0.09616906351377953
0.2656097412109375,0.1722869873046875,9.705291748046875,-0.08046833425760269,-0.3813697397708893,0.1047920435667038,0.06294702339083752,0.06994113710093057,0.04371321068808161
0.2775726318359375,0.169891357421875,9.717254638671875,-0.0532253161072731,-0.3813697397708893,0.1184099018573761,0.06294702339083752,0.06994113710093057,-0.026227926412848965
0.263214111328125,0.157928466796875,9.70050048828125,-0.08046600222587585,-0.3677493631839752,0.09116754680871964,-0.006994113710093057,0,-0.026227926412848965
0.2679901123046875,0.16510009765625,9.690933227539062,-0.06684564799070358,-0.35412901639938354,0.10478373616933823,0.06294702339083752,0.06994113710093057,-0.026227926412848965
0.2560272216796875,0.1722869873046875,9.686141967773438,-0.06673803180456161,-0.35412901639938354,0.10477791726589203,0.13288816049176808,0.06994113710093057,-0.026227926412848965
0.2895355224609375,0.1866455078125,9.7220458984375,-0.06663046032190323,-0.35412901639938354,0.10477625578641891,0.06294702339083752,0.06994113710093057,-0.026227926412848965
0.287139892578125,0.17706298828125,9.71246337890625,-0.08014318346977234,-0.3813697397708893,0.10477375239133835,-0.006994113710093057,0,0.04371321068808161
0.253631591796875,0.1794586181640625,9.695724487304688,-0.09354836493730545,-0.3677493631839752,0.09114759415388107,-0.006994113710093057,0,0.04371321068808161
0.2727813720703125,0.1722869873046875,9.719650268554688,-0.09344076365232468,-0.3677493631839752,0.09114343672990799,0.06294702339083752,0.06994113710093057,-0.026227926412848965
0.299102783203125,0.1842498779296875,9.714859008789062,-0.06609244644641876,-0.3677493631839752,0.10475630313158035,0.13288816049176808,0.06994113710093057,-0.09616906351377953
0.275177001953125,0.1674957275390625,9.7220458984375,-0.09343842417001724,-0.3813697397708893,0.09114094078540802,-0.006994113710093057,0.06994113710093057,-0.026227926412848965
0.2775726318359375,0.1866455078125,9.738784790039062,-0.09343842417001724,-0.3813697397708893,0.09114094078540802,0.06294702339083752,0.20982341130279172,-0.026227926412848965
0.2608184814453125,0.181854248046875,9.702896118164062,-0.07981809973716736,-0.3813697397708893,0.09113595634698868,0.06294702339083752,0.06994113710093057,-0.026227926412848965
0.2775726318359375,0.1794586181640625,9.726821899414062,-0.06630529463291168,-0.3677493631839752,0.10475796461105347,0.06294702339083752,0.14075653841562277,-0.026227926412848965
0.2703857421875,0.1914215087890625,9.719650268554688,-0.06641289591789246,-0.3677493631839752,0.10476045310497284,0.06294702339083752,0.06994113710093057,0.04371321068808161
0.2727813720703125,0.16510009765625,9.71246337890625,-0.06630529463291168,-0.3813697397708893,0.0911376103758812,0.06294702339083752,0.06994113710093057,0.04371321068808161
0.2727813720703125,0.1627044677734375,9.698104858398438,-0.07992564141750336,-0.3677493631839752,0.10475796461105347,0.06294702339083752,0.06994113710093057,-0.026227926412848965
0.2584228515625,0.17706298828125,9.68853759765625,-0.07992564141750336,-0.3677493631839752,0.10475796461105347,0.06294702339083752,0.06994113710093057,0.04371321068808161
0.2560272216796875,0.15313720703125,9.705291748046875,-0.06609011441469193,-0.35412901639938354,0.11837498098611832,-0.006994113710093057,0.06994113710093057,-0.026227926412848965
0.2823486328125,0.1722869873046875,9.72442626953125,-0.0522545725107193,-0.35412901639938354,0.10474549233913422,0.13288816049176808,0.06994113710093057,-0.026227926412848965
0.2584228515625,0.1866455078125,9.695724487304688,-0.05214462801814079,-0.35412901639938354,0.10474050045013428,0.06294702339083752,0.14075653841562277,-0.026227926412848965
0.2799530029296875,0.1627044677734375,9.690933227539062,-0.06587257981300354,-0.3813697397708893,0.10474549233913422,0.06294702339083752,0.06994113710093057,-0.026227926412848965
0.2775726318359375,0.1603240966796875,9.707687377929688,-0.07960054278373718,-0.3677493631839752,0.11836501210927963,0.06294702339083752,0.14075653841562277,0.04371321068808161
0.275177001953125,0.1627044677734375,9.71246337890625,-0.07960054278373718,-0.3677493631839752,0.11836501210927963,0.13288816049176808,0.06994113710093057,0.04371321068808161
0.2679901123046875,0.17706298828125,9.68853759765625,-0.07949292659759521,-0.3677493631839752,0.10474050045013428,0.06294702339083752,0,-0.026227926412848965
0.287139892578125,0.16510009765625,9.710067749023438,-0.07938532531261444,-0.3677493631839752,0.11835919320583344,0.06294702339083752,0,0.04371321068808161
0.263214111328125,0.17706298828125,9.695724487304688,-0.07938532531261444,-0.3677493631839752,0.11835919320583344,0.06294702339083752,0.06994113710093057,0.04371321068808161
0.2464599609375,0.169891357421875,9.690933227539062,-0.06565738469362259,-0.3813697397708893,0.11835669726133347,0.06294702339083752,0,-0.026227926412848965
0.2584228515625,0.1722869873046875,9.690933227539062,-0.05182186886668205,-0.3677493631839752,0.11835253983736038,0.06294702339083752,0.06994113710093057,-0.09616906351377953
0.287139892578125,0.169891357421875,9.710067749023438,-0.05171191319823265,-0.3677493631839752,0.11835087835788727,0.06294702339083752,0.14075653841562277,-0.09616906351377953
0.2656097412109375,0.1746826171875,9.690933227539062,-0.06554511189460754,-0.3677493631839752,0.10473468899726868,0.06294702339083752,0,-0.09616906351377953
0.2560272216796875,0.1794586181640625,9.693328857421875,-0.06532524526119232,-0.3677493631839752,0.11835005134344101,0.13288816049176808,0.06994113710093057,-0.026227926412848965
0.2656097412109375,0.17706298828125,9.702896118164062,-0.06532524526119232,-0.3677493631839752,0.11835005134344101,0.13288816049176808,0,0.04371321068808161
0.263214111328125,0.1746826171875,9.690933227539062,-0.07873039692640305,-0.3677493631839752,0.1047305315732956,0.06294702339083752,0,-0.026227926412848965
0.287139892578125,0.1794586181640625,9.714859008789062,-0.06489492207765579,-0.3677493631839752,0.10472636669874191,-0.006994113710093057,0.14075653841562277,-0.026227926412848965
0.2679901123046875,0.1722869873046875,9.702896118164062,-0.06489485502243042,-0.3677493631839752,0.10472387820482254,-0.006994113710093057,0,0.11452861200277381
0.275177001953125,0.169891357421875,9.70050048828125,-0.06500250101089478,-0.3677493631839752,0.10472138971090317,0.13288816049176808,0.06994113710093057,0.04371321068808161
0.2656097412109375,0.1627044677734375,9.70050048828125,-0.06478963792324066,-0.3677493631839752,0.1047188863158226,0.06294702339083752,0.06994113710093057,-0.1661102006147101
0.263214111328125,0.17706298828125,9.693328857421875,-0.06467965990304947,-0.3677493631839752,0.10471723228693008,0.13288816049176808,0.06994113710093057,-0.026227926412848965
0.2656097412109375,0.16510009765625,9.695724487304688,-0.06446215510368347,-0.3677493631839752,0.10471473634243011,0.13288816049176808,0.06994113710093057,-0.09616906351377953
0.2656097412109375,0.1603240966796875,9.690933227539062,-0.06445981562137604,-0.3677493631839752,0.10471805930137634,0.06294702339083752,0,-0.026227926412848965
0.2679901123046875,0.1722869873046875,9.70050048828125,-0.06424462795257568,-0.3677493631839752,0.10471557080745697,0.06294702339083752,0.06994113710093057,-0.09616906351377953
0.2679901123046875,0.1746826171875,9.690933227539062,-0.05051201581954956,-0.3813697397708893,0.10471390932798386,0.06294702339083752,0,0.04371321068808161
0.2799530029296875,0.1555328369140625,9.70050048828125,-0.07721473276615143,-0.35412901639938354,0.10470059514045715,0.13288816049176808,-0.06994113710093057,0.04371321068808161
0.263214111328125,0.1746826171875,9.693328857421875,-0.07721473276615143,-0.35412901639938354,0.10470059514045715,0.13288816049176808,0.14075653841562277,-0.09616906351377953
0.2727813720703125,0.1746826171875,9.698104858398438,-0.07710718363523483,-0.35412901639938354,0.10470059514045715,0.13288816049176808,0.06994113710093057,-0.09616906351377953
0.2560272216796875,0.1627044677734375,9.705291748046875,-0.04985707998275757,-0.3677493631839752,0.1047072485089302,0.06294702339083752,0.06994113710093057,-0.09616906351377953
0.2679901123046875,0.1603240966796875,9.714859008789062,-0.049857135862112045,-0.3677493631839752,0.1047072485089302,0.13288816049176808,0.14075653841562277,0.04371321068808161
0.2679901123046875,0.1603240966796875,9.714859008789062,-0.049857135862112045,-0.3677493631839752,0.1047072485089302,0.13288816049176808,0.14075653841562277,0.04371321068808161
0.2608184814453125,0.157928466796875,9.705291748046875,-0.07709548622369766,-0.3677493631839752,0.0910893976688385,0.06294702339083752,0.06994113710093057,-0.026227926412848965
0.2775726318359375,0.1507415771484375,9.705291748046875,-0.06347513198852539,-0.35412901639938354,0.1047072485089302,-0.006994113710093057,0.06994113710093057,-0.09616906351377953
0.2775726318359375,0.1603240966796875,9.707687377929688,-0.06347513198852539,-0.35412901639938354,0.1047072485089302,0.06294702339083752,0,-0.026227926412848965
0.2727813720703125,0.1722869873046875,9.714859008789062,-0.06325763463973999,-0.3677493631839752,0.11832177639007568,0.13288816049176808,0.14075653841562277,0.04371321068808161
0.275177001953125,0.1722869873046875,9.70050048828125,-0.063367560505867,-0.3677493631839752,0.10470558702945709,0.06294702339083752,0.06994113710093057,-0.09616906351377953
0.275177001953125,0.1603240966796875,9.710067749023438,-0.063367560505867,-0.3677493631839752,0.10470558702945709,0.13288816049176808,0.06994113710093057,-0.026227926412848965
0.2799530029296875,0.16510009765625,9.714859008789062,-0.06336522847414017,-0.3677493631839752,0.09108524024486542,-0.006994113710093057,0.06994113710093057,-0.09616906351377953
0.263214111328125,0.169891357421875,9.705291748046875,-0.07698557525873184,-0.3677493631839752,0.1047014370560646,0.06294702339083752,0.06994113710093057,-0.026227926412848965
0.2608184814453125,0.1722869873046875,9.719650268554688,-0.07698557525873184,-0.3677493631839752,0.1047014370560646,0.06294702339083752,0.14075653841562277,-0.026227926412848965
0.251251220703125,0.1435699462890625,9.705291748046875,-0.06336522847414017,-0.3677493631839752,0.1047014370560646,0.06294702339083752,0,0.04371321068808161
0.2703857421875,0.1722869873046875,9.690933227539062,-0.06314769387245178,-0.35412901639938354,0.10469644516706467,0.06294702339083752,0.14075653841562277,-0.026227926412848965
0.2656097412109375,0.1794586181640625,9.698104858398438,-0.06325530260801315,-0.35412901639938354,0.10469894111156464,-0.006994113710093057,0.06994113710093057,-0.026227926412848965
