Accelerometer_Gx,Accelerometer_Gy,Accelerometer_Gz,Accelerometer_X,Accelerometer_Y,Accelerometer_Z,Gyroscope_Z,Gyroscope_X,Gyroscope_Y
0.2584228515625,0.169891357421875,9.683746337890625,-0.1632770150899887,-0.1634441763162613,0.1084972396492958,0.05682717389450609,0.09442053508625627,-0.0655698160321224
0.251251220703125,0.1603240966796875,9.662216186523438,-0.17689703404903412,-0.14982382953166962,0.14935828745365143,0.05682717389450609,0.09442053508625627,-0.0655698160321224
0.2488555908203125,0.1722869873046875,9.662216186523438,-0.14965613186359406,-0.1634441763162613,0.13573794066905975,-0.08305510030735505,0.023605133771564066,-0.0655698160321224
0.253631591796875,0.1794586181640625,9.659820556640625,-0.1494407057762146,-0.17706450819969177,0.14935579895973206,0.05682717389450609,-0.0463360033293665,0.004371321068808161
0.2560272216796875,0.1674957275390625,9.674179077148438,-0.16295334696769714,-0.1634441763162613,0.149354949593544,-0.08305510030735505,-0.11627714043029708,-0.13551095313305297
0.263214111328125,0.16510009765625,9.66461181640625,-0.1491173952817917,-0.1634441763162613,0.14935246109962463,0.05682717389450609,0.09442053508625627,-0.13551095313305297
0.2679901123046875,0.17706298828125,9.655044555664062,-0.16262996196746826,-0.1634441763162613,0.14935162663459778,-0.013113963206424483,0.023605133771564066,0.004371321068808161
0.2608184814453125,0.1914215087890625,9.674179077148438,-0.16262996196746826,-0.1634441763162613,0.14935162663459778,-0.08305510030735505,-0.0463360033293665,-0.13551095313305297
0.2656097412109375,0.1674957275390625,9.655044555664062,-0.16252228617668152,-0.1634441763162613,0.14934995770454407,-0.013113963206424483,-0.0463360033293665,-0.0655698160321224
0.275177001953125,0.2033843994140625,9.674179077148438,-0.16230681538581848,-0.1634441763162613,0.16296865046024323,-0.013113963206424483,0.09442053508625627,0.004371321068808161
0.263214111328125,0.1746826171875,9.655044555664062,-0.1619836986064911,-0.19068486988544464,0.1357237994670868,-0.013113963206424483,-0.0463360033293665,0.004371321068808161
0.241668701171875,0.1674957275390625,9.674179077148438,-0.1619836986064911,-0.19068486988544464,0.1357237994670868,-0.013113963206424483,0.023605133771564066,-0.0655698160321224
0.2584228515625,0.1746826171875,9.667007446289062,-0.14814795553684235,-0.17706450819969177,0.14934247732162476,-0.08305510030735505,-0.0463360033293665,-0.0655698160321224
0.253631591796875,0.1746826171875,9.66461181640625,-0.14804019033908844,-0.1634441763162613,0.13572047650814056,-0.013113963206424483,-0.0463360033293665,-0.13551095313305297
0.239288330078125,0.1746826171875,9.669403076171875,-0.1479324847459793,-0.1634441763162613,0.1357196420431137,0.05682717389450609,0.023605133771564066,-0.0655698160321224
0.2368927001953125,0.1746826171875,9.690933227539062,-0.14771689474582672,-0.1634441763162613,0.149337500333786,-0.08305510030735505,-0.0463360033293665,-0.13551095313305297
0.2608184814453125,0.1842498779296875,9.67657470703125,-0.13388092815876007,-0.1634441763162613,0.12209513783454895,-0.013113963206424483,0.09442053508625627,-0.0655698160321224
0.2656097412109375,0.16510009765625,9.655044555664062,-0.13388092815876007,-0.1634441763162613,0.12209513783454895,-0.013113963206424483,-0.0463360033293665,-0.0655698160321224
0.2656097412109375,0.1674957275390625,9.662216186523438,-0.16069070994853973,-0.1634441763162613,0.14933085441589355,-0.013113963206424483,0.1634874079734252,-0.0655698160321224
0.2775726318359375,0.1603240966796875,9.66461181640625,-0.14696258306503296,-0.14982382953166962,0.14932918548583984,-0.08305510030735505,-0.0463360033293665,-0.13551095313305297
0.2584228515625,0.1842498779296875,9.678970336914062,-0.14696243405342102,-0.14982382953166962,0.14932918548583984,-0.08305510030735505,-0.2561594146321582,0.07431245816973873
0.253631591796875,0.1842498779296875,9.686141967773438,-0.16025970876216888,-0.17706450819969177,0.1357063353061676,-0.013113963206424483,0.023605133771564066,-0.0655698160321224
0.2584228515625,0.17706298828125,9.659820556640625,-0.14642415940761566,-0.17706450819969177,0.12208350747823715,-0.013113963206424483,-0.2561594146321582,0.07431245816973873
0.2608184814453125,0.16510009765625,9.683746337890625,-0.14653173089027405,-0.17706450819969177,0.12208433449268341,0.19758371231012886,-0.0463360033293665,0.07431245816973873
0.2560272216796875,0.181854248046875,9.678970336914062,-0.14620889723300934,-0.1634441763162613,0.1357021927833557,-0.363693912924839,-0.11627714043029708,-0.13551095313305297
0.251251220703125,0.17706298828125,9.669403076171875,-0.14663907885551453,-0.17706450819969177,0.13570551574230194,-0.013113963206424483,0.4432519563771475,-0.4161497657505369
0.2679901123046875,0.16510009765625,9.690933227539062,-0.14642387628555298,-0.1634441763162613,0.13570384681224823,0.33746598651199,-0.0463360033293665,0.07431245816973873
0.2560272216796875,0.169891357421875,9.698104858398438,-0.1602589339017868,-0.1634441763162613,0.13570551574230194,-0.363693912924839,0.30336968217528637,-0.4852166386377058
0.2608184814453125,0.169891357421875,9.671783447265625,-0.14674589037895203,-0.1634441763162613,0.12208599597215652,0.47734826071385117,0.4432519563771475,-0.20545209023398356
0.2584228515625,0.1866455078125,9.669403076171875,-0.14642317593097687,-0.1634441763162613,0.1220826655626297,0.6172305349157123,0.4432519563771475,-0.0655698160321224
0.2584228515625,0.181854248046875,9.698104858398438,-0.15993571281433105,-0.17706450819969177,0.1357021927833557,0.8969950833194346,0.5831342305790086,0.2850101336862921
0.2608184814453125,0.1627044677734375,9.669403076171875,-0.1459924280643463,-0.17706450819969177,0.12207851558923721,-1.0631052839341446,-0.5359239630358805,-0.13551095313305297
0.2560272216796875,0.1794586181640625,9.674179077148438,-0.1459924429655075,-0.17706450819969177,0.12207768857479095,-1.2029875581360059,-1.0263861869561561,-0.20545209023398356
0.2464599609375,0.1674957275390625,9.678970336914062,-0.1592898666858673,-0.1634441763162613,0.1356947124004364,1.0368773575212957,1.1435375916002148,-0.13551095313305297
0.2823486328125,0.157928466796875,9.690933227539062,-0.14577706158161163,-0.1634441763162613,0.13569636642932892,0.40653285939915895,-1.2362095982589478,0.7737238291790445
0.253631591796875,0.1842498779296875,9.681365966796875,-0.14717555046081543,-0.1634441763162613,0.13571050763130188,1.316641905925018,-0.0463360033293665,0.35407700657346103
0.2560272216796875,0.1866455078125,9.686141967773438,-0.1600424349308014,-0.14982382953166962,0.10846232622861862,-1.6934497820562815,-1.7257975579654619,0.35407700657346103
0.2488555908203125,0.17706298828125,9.68853759765625,-0.14394721388816833,-0.17706450819969177,0.12205689400434494,1.0368773575212957,0.1634874079734252,0.7046569562918755
0.2488555908203125,0.1674957275390625,9.690933227539062,-0.14394721388816833,-0.17706450819969177,0.12205689400434494,-0.363693912924839,0.5140673576918396,-1.1155611367598426
0.2608184814453125,0.1794586181640625,9.68853759765625,-0.1443776786327362,-0.1634441763162613,0.12206022441387177,2.3657589624389765,1.0727221902855226,0.4248924078881532
0.2703857421875,0.1962127685546875,9.695724487304688,-0.1598278433084488,-0.1634441763162613,0.12208183854818344,-2.3229200159646566,-0.6067393643505727,-0.625098912839567
0.251251220703125,0.1746826171875,9.70050048828125,-0.1587519496679306,-0.1634441763162613,0.12207020819187164,1.316641905925018,0.30336968217528637,0.49395928077532214
0.239288330078125,0.1746826171875,9.683746337890625,-0.14405539631843567,-0.1634441763162613,0.12205607444047928,-1.6226343807415893,-0.7466216385524338,-0.3453343644358447
0.2608184814453125,0.1555328369140625,9.70050048828125,-0.14502234756946564,-0.1634441763162613,0.1220652163028717,1.5273395814415713,2.0527723739123123,-1.045619999658912
0.263214111328125,0.1722869873046875,9.674179077148438,-0.16380761563777924,-0.14982382953166962,0.12212174385786057,1.5964064543287402,-0.886503912754295,1.26418605309932
0.2560272216796875,0.1794586181640625,9.693328857421875,-0.16380761563777924,-0.14982382953166962,0.12212174385786057,0.19758371231012886,-2.076377507683876,1.4040683273011811
0.2703857421875,0.1746826171875,9.71246337890625,-0.1456678807735443,-0.17706450819969177,0.12207768857479095,-2.1130966046618647,-1.796612959280154,-0.13551095313305297
0.2823486328125,0.16510009765625,9.698104858398438,-0.1417933851480484,-0.17706450819969177,0.12203694134950638,-2.0431554675609345,0.09442053508625627,-1.1855022738607732
0.2703857421875,0.1842498779296875,9.71246337890625,-0.16505008935928345,-0.1634441763162613,0.12198790162801743,-0.9232230097322836,1.283419865802076,-1.3253845480626343
0.2703857421875,0.1842498779296875,9.71246337890625,-0.1534687727689743,-0.17706450819969177,0.10838252305984497,-0.572643060013869,1.492369012891106,-1.2554434109617036
0.2727813720703125,0.1674957275390625,9.693328857421875,-0.1534687727689743,-0.17706450819969177,0.10838252305984497,-0.363693912924839,1.8429489626095206,-1.2554434109617036
0.2488555908203125,0.1603240966796875,9.70050048828125,-0.1540382355451584,-0.17706450819969177,0.1085205152630806,-0.2229373745092162,1.9120158354966894,-1.3253845480626343
0.2847442626953125,0.1555328369140625,9.698104858398438,-0.15694104135036469,-0.17706450819969177,0.10854628682136536,-1.2029875581360059,1.492369012891106,-0.7649811870414281
0.2656097412109375,0.17706298828125,9.71246337890625,-0.15694104135036469,-0.17706450819969177,0.10854628682136536,-1.2729286952369363,1.2126044644873837,-0.13551095313305297
0.2703857421875,0.1842498779296875,9.710067749023438,-0.18859194219112396,-0.19068486988544464,0.10857787728309631,-0.5035761871267002,0.6539496318937008,1.26418605309932
0.2679901123046875,0.1842498779296875,9.707687377929688,-0.17724037170410156,-0.19068486988544464,0.10859117656946182,0.33746598651199,2.402478059416965,-0.0655698160321224
0.2656097412109375,0.181854248046875,9.698104858398438,-0.17875254154205322,-0.19068486988544464,0.10860531032085419,-2.883323376985863,1.8429489626095206,-1.4652668222644953
0.251251220703125,0.1722869873046875,9.693328857421875,-0.18692906200885773,-0.17706450819969177,0.12228717654943466,-2.883323376985863,-0.39604168883401936,-0.13551095313305297
0.2847442626953125,0.1722869873046875,9.70050048828125,-0.17502529919147491,-0.19068486988544464,0.1222730427980423,2.716338912157391,1.352486738689245,0.9144803675946672
0.2703857421875,0.18902587890625,9.719650268554688,-0.1929585337638855,-0.20430520176887512,0.10870341211557388,-2.1830377417627953,-0.11627714043029708,-1.1855022738607732
0.275177001953125,0.1627044677734375,9.710067749023438,-0.1929585337638855,-0.20430520176887512,0.10870341211557388,2.57645663795553,-0.886503912754295,0.5647746820900144
0.2656097412109375,0.1722869873046875,9.70050048828125,-0.18660981953144073,-0.19068486988544464,0.10865436494350433,-0.08305510030735505,1.283419865802076,-1.1155611367598426
0.2608184814453125,0.15313720703125,9.729217529296875,-0.18628692626953125,-0.17706450819969177,0.10865851491689682,-0.15299623740828563,0.023605133771564066,0.8445392304937366
0.2464599609375,0.1722869873046875,9.681365966796875,-0.1860733926296234,-0.17706450819969177,0.08140452206134796,0.05682717389450609,1.0727221902855226,-1.1855022738607732
0.2775726318359375,0.1555328369140625,9.695724487304688,-0.18553417921066284,-0.17706450819969177,0.1222614049911499,2.3657589624389765,0.7230165047808698,0.5647746820900144
0.2679901123046875,0.169891357421875,9.707687377929688,-0.18521448969841003,-0.17706450819969177,0.1222672238945961,-1.2029875581360059,-1.6567306850782928,0.8445392304937366
0.2656097412109375,0.1627044677734375,9.698104858398438,-0.19808216392993927,-0.17706450819969177,0.10863274335861206,-0.572643060013869,-0.8156885114396027,0.14512785948443094
0.2799530029296875,0.145965576171875,9.710067749023438,-0.18327806890010834,-0.19068486988544464,0.12225142866373062,-2.1830377417627953,0.023605133771564066,-0.556032039952398
0.2799530029296875,0.145965576171875,9.710067749023438,-0.18478502333164215,-0.19068486988544464,0.12226307392120361,-2.1830377417627953,0.023605133771564066,-0.556032039952398
0.2727813720703125,0.1842498779296875,9.714859008789062,-0.18349334597587585,-0.20430520176887512,0.1086319163441658,-2.252978878863726,0.09442053508625627,-0.4852166386377058
0.2775726318359375,0.16510009765625,9.702896118164062,-0.19689881801605225,-0.20430520176887512,0.10862194001674652,0.2666505851972978,0.023605133771564066,0.004371321068808161
0.2823486328125,0.1555328369140625,9.71246337890625,-0.19539116322994232,-0.19068486988544464,0.10861030220985413,0.40653285939915895,0.30336968217528637,-0.3453343644358447
0.2679901123046875,0.1674957275390625,9.71246337890625,-0.1941005438566208,-0.17706450819969177,0.1086011603474617,0.2666505851972978,0.23430280928811742,-0.4161497657505369
0.2679901123046875,0.1674957275390625,9.71246337890625,-0.19377830624580383,-0.20430520176887512,0.0949774831533432,0.2666505851972978,0.23430280928811742,-0.4161497657505369
0.275177001953125,0.17706298828125,9.705291748046875,-0.19367101788520813,-0.20430520176887512,0.09497915208339691,0.5464151336010201,-0.39604168883401936,0.14512785948443094
0.29193115234375,0.18902587890625,9.7340087890625,-0.193134143948555,-0.19068486988544464,0.10859949141740799,-0.08305510030735505,-0.2561594146321582,0.2850101336862921
0.263214111328125,0.1722869873046875,9.707687377929688,-0.17843899130821228,-0.19068486988544464,0.09497082978487015,-0.363693912924839,-0.2561594146321582,-0.13551095313305297
0.2656097412109375,0.1674957275390625,9.72442626953125,-0.17865397036075592,-0.19068486988544464,0.09497416019439697,-0.013113963206424483,-0.11627714043029708,0.14512785948443094
0.2775726318359375,0.1627044677734375,9.705291748046875,-0.17736414074897766,-0.19068486988544464,0.09496501088142395,0.33746598651199,0.1634874079734252,-0.0655698160321224
0.29193115234375,0.1842498779296875,9.710067749023438,-0.19087715446949005,-0.17706450819969177,0.10858619213104248,0.12676831099543664,-0.18709254174498927,-0.0655698160321224
0.2656097412109375,0.1794586181640625,9.731613159179688,-0.19087715446949005,-0.17706450819969177,0.10858619213104248,-0.08305510030735505,0.023605133771564066,-0.13551095313305297
0.275177001953125,0.1794586181640625,9.7220458984375,-0.17596600949764252,-0.19068486988544464,0.08133718371391296,-0.08305510030735505,0.23430280928811742,-0.13551095313305297
0.2703857421875,0.1603240966796875,9.71246337890625,-0.16213151812553406,-0.1634441763162613,0.0949583575129509,-0.013113963206424483,0.023605133771564066,0.07431245816973873
0.2560272216796875,0.1794586181640625,9.698104858398438,-0.16180914640426636,-0.1634441763162613,0.09495586901903152,-0.08305510030735505,-0.11627714043029708,0.004371321068808161
0.2703857421875,0.1866455078125,9.7220458984375,-0.16116441786289215,-0.19068486988544464,0.10857288539409637,0.12676831099543664,-0.0463360033293665,-0.13551095313305297
0.2703857421875,0.1866455078125,9.7220458984375,-0.17413970828056335,-0.19068486988544464,0.09494838863611221,0.12676831099543664,-0.0463360033293665,-0.13551095313305297
0.2775726318359375,0.1627044677734375,9.70050048828125,-0.17381705343723297,-0.19068486988544464,0.09494590014219284,0.05682717389450609,0.09442053508625627,-0.0655698160321224
0.2584228515625,0.1794586181640625,9.717254638671875,-0.18689972162246704,-0.19068486988544464,0.09494256973266602,-0.15299623740828563,0.023605133771564066,-0.13551095313305297
0.2775726318359375,0.1842498779296875,9.717254638671875,-0.17263378202915192,-0.19068486988544464,0.09493757784366608,-0.013113963206424483,-0.0463360033293665,-0.0655698160321224
0.2775726318359375,0.1794586181640625,9.738784790039062,-0.17231114208698273,-0.19068486988544464,0.0949350893497467,-0.013113963206424483,0.023605133771564066,-0.13551095313305297
0.253631591796875,0.1722869873046875,9.714859008789062,-0.17166529595851898,-0.17706450819969177,0.08131057769060135,-0.013113963206424483,0.023605133771564066,-0.0655698160321224
0.2703857421875,0.17706298828125,9.729217529296875,-0.15739960968494415,-0.17706450819969177,0.09492594748735428,-0.08305510030735505,-0.11627714043029708,-0.0655698160321224
0.263214111328125,0.1483612060546875,9.71246337890625,-0.15739960968494415,-0.17706450819969177,0.09492594748735428,-0.013113963206424483,0.09442053508625627,-0.0655698160321224
0.2608184814453125,0.1842498779296875,9.726821899414062,-0.17015954852104187,-0.19068486988544464,0.09492012858390808,-0.08305510030735505,-0.0463360033293665,-0.0655698160321224
0.2464599609375,0.169891357421875,9.710067749023438,-0.16929931938648224,-0.17706450819969177,0.10853465646505356,-0.08305510030735505,-0.0463360033293665,-0.0655698160321224
0.2727813720703125,0.169891357421875,9.710067749023438,-0.16897663474082947,-0.17706450819969177,0.10853132605552673,-0.08305510030735505,-0.0463360033293665,-0.0655698160321224
0.2895355224609375,0.1842498779296875,9.71246337890625,-0.16897663474082947,-0.17706450819969177,0.10853132605552673,-0.08305510030735505,-0.0463360033293665,-0.13551095313305297
0.2608184814453125,0.1722869873046875,9.7220458984375,-0.16811616718769073,-0.17706450819969177,0.094904325902462,-0.013113963206424483,0.023605133771564066,0.004371321068808161
0.253631591796875,0.169891357421875,9.714859008789062,-0.16822399199008942,-0.17706450819969177,0.09490598738193512,-0.08305510030735505,0.09442053508625627,-0.20545209023398356
0.2608184814453125,0.17706298828125,9.714859008789062,-0.1684388667345047,-0.17706450819969177,0.09490848332643509,0.12676831099543664,0.023605133771564066,-0.0655698160321224
0.2703857421875,0.1507415771484375,9.702896118164062,-0.1684388667345047,-0.17706450819969177,0.09490848332643509,0.05682717389450609,0.1634874079734252,-0.20545209023398356
0.2703857421875,0.15313720703125,9.717254638671875,-0.16865374147891998,-0.17706450819969177,0.09491180628538132,-0.013113963206424483,0.023605133771564066,0.07431245816973873
0.263214111328125,0.18902587890625,9.738784790039062,-0.1687619686126709,-0.19068486988544464,0.09491263329982758,-0.013113963206424483,-0.0463360033293665,0.07431245816973873
0.263214111328125,0.1674957275390625,9.7220458984375,-0.18238294124603271,-0.17706450819969177,0.1085338145494461,-0.2229373745092162,0.09442053508625627,-0.13551095313305297
0.275177001953125,0.1603240966796875,9.71246337890625,-0.18238294124603271,-0.17706450819969177,0.1085338145494461,-0.08305510030735505,0.09442053508625627,-0.13551095313305297
0.2823486328125,0.2010040283203125,9.73638916015625,-0.1823834776878357,-0.20430520176887512,0.08129312098026276,-0.15299623740828563,-0.18709254174498927,0.07431245816973873
0.287139892578125,0.193817138671875,9.73638916015625,-0.18238389492034912,-0.19068486988544464,0.08129312098026276,-0.2229373745092162,-0.11627714043029708,0.004371321068808161
0.2440643310546875,0.157928466796875,9.729217529296875,-0.18238389492034912,-0.19068486988544464,0.08129312098026276,-0.08305510030735505,-0.0463360033293665,0.004371321068808161
0.2656097412109375,0.169891357421875,9.705291748046875,-0.18238389492034912,-0.19068486988544464,0.08129312098026276,-0.08305510030735505,-0.0463360033293665,0.004371321068808161
0.2775726318359375,0.157928466796875,9.710067749023438,-0.1823846399784088,-0.1634441763162613,0.10853465646505356,0.12676831099543664,0.023605133771564066,-0.0655698160321224
0.2727813720703125,0.1746826171875,9.717254638671875,-0.1822773814201355,-0.1634441763162613,0.1085338145494461,-0.08305510030735505,0.09442053508625627,-0.0655698160321224
0.275177001953125,0.1627044677734375,9.729217529296875,-0.1822773814201355,-0.1634441763162613,0.1085338145494461,-0.08305510030735505,0.023605133771564066,0.004371321068808161
0.251251220703125,0.1722869873046875,9.726821899414062,-0.16876523196697235,-0.17706450819969177,0.09491430222988129,0.05682717389450609,-0.0463360033293665,0.004371321068808161
0.253631591796875,0.1722869873046875,9.707687377929688,-0.1551450788974762,-0.17706450819969177,0.10853465646505356,-0.08305510030735505,0.09442053508625627,-0.13551095313305297
0.2703857421875,0.1914215087890625,9.73638916015625,-0.15514527261257172,-0.17706450819969177,0.10853465646505356,-0.013113963206424483,-0.0463360033293665,0.004371321068808161
0.29193115234375,0.1866455078125,9.726821899414062,-0.16887344419956207,-0.19068486988544464,0.08129478245973587,0.05682717389450609,0.023605133771564066,-0.13551095313305297
0.2703857421875,0.17706298828125,9.71246337890625,-0.18249396979808807,-0.19068486988544464,0.08129478245973587,0.05682717389450609,-0.11627714043029708,0.004371321068808161
0.2703857421875,0.1746826171875,9.726821899414062,-0.1824941635131836,-0.19068486988544464,0.08129478245973587,-0.08305510030735505,0.023605133771564066,0.004371321068808161
0.275177001953125,0.1555328369140625,9.719650268554688,-0.1687665581703186,-0.19068486988544464,0.09491430222988129,-0.013113963206424483,-0.0463360033293665,0.004371321068808161
0.2703857421875,0.1674957275390625,9.717254638671875,-0.16887438297271729,-0.1634441763162613,0.09491430222988129,-0.15299623740828563,-0.0463360033293665,-0.0655698160321224
0.2703857421875,0.15313720703125,9.714859008789062,-0.16887438297271729,-0.1634441763162613,0.09491430222988129,0.05682717389450609,0.023605133771564066,-0.13551095313305297
0.2679901123046875,0.1674957275390625,9.717254638671875,-0.16887420415878296,-0.17706450819969177,0.09491430222988129,-0.013113963206424483,0.023605133771564066,0.004371321068808161
0.275177001953125,0.17706298828125,9.714859008789062,-0.16887380182743073,-0.17706450819969177,0.09491430222988129,0.05682717389450609,-0.0463360033293665,0.004371321068808161
0.241668701171875,0.17706298828125,9.707687377929688,-0.16887380182743073,-0.17706450819969177,0.09491430222988129,-0.013113963206424483,-0.0463360033293665,-0.0655698160321224
0.2656097412109375,0.1794586181640625,9.717254638671875,-0.15525346994400024,-0.17706450819969177,0.09491347521543503,-0.013113963206424483,-0.0463360033293665,-0.0655698160321224
0.2679901123046875,0.1746826171875,9.7220458984375,-0.16887380182743073,-0.17706450819969177,0.09491347521543503,0.05682717389450609,-0.0463360033293665,0.004371321068808161
0.2799530029296875,0.181854248046875,9.717254638671875,-0.16887380182743073,-0.17706450819969177,0.09491347521543503,-0.08305510030735505,0.023605133771564066,-0.13551095313305297
0.2464599609375,0.181854248046875,9.71246337890625,-0.18249395489692688,-0.19068486988544464,0.09491347521543503,-0.15299623740828563,-0.0463360033293665,-0.0655698160321224
0.275177001953125,0.169891357421875,9.714859008789062,-0.16887320578098297,-0.19068486988544464,0.09491347521543503,-0.013113963206424483,-0.0463360033293665,0.14512785948443094
0.2584228515625,0.1674957275390625,9.729217529296875,-0.16887320578098297,-0.19068486988544464,0.09491347521543503,-0.08305510030735505,-0.0463360033293665,0.07431245816973873
0.2679901123046875,0.2010040283203125,9.738784790039062,-0.1824941635131836,-0.19068486988544464,0.08129312098026276,-0.08305510030735505,-0.0463360033293665,0.004371321068808161
0.2464599609375,0.1794586181640625,9.717254638671875,-0.16876618564128876,-0.20430520176887512,0.08129145950078964,-0.013113963206424483,0.09442053508625627,0.004371321068808161
0.2656097412109375,0.1866455078125,9.726821899414062,-0.16876637935638428,-0.20430520176887512,0.08129145950078964,0.05682717389450609,-0.0463360033293665,-0.0655698160321224
0.275177001953125,0.18902587890625,9.73638916015625,-0.16887381672859192,-0.19068486988544464,0.0812922865152359,-0.013113963206424483,-0.0463360033293665,-0.0655698160321224
0.2608184814453125,0.169891357421875,9.719650268554688,-0.18249396979808807,-0.19068486988544464,0.0812922865152359,0.05682717389450609,-0.0463360033293665,-0.0655698160321224
0.2679901123046875,0.1842498779296875,9.729217529296875,-0.18249396979808807,-0.19068486988544464,0.0812922865152359,-0.013113963206424483,-0.0463360033293665,-0.0655698160321224
0.2440643310546875,0.169891357421875,9.731613159179688,-0.16887320578098297,-0.19068486988544464,0.09491263329982758,0.05682717389450609,0.09442053508625627,0.004371321068808161
0.2703857421875,0.1914215087890625,9.7340087890625,-0.15525266528129578,-0.17706450819969177,0.09491263329982758,-0.08305510030735505,-0.0463360033293665,-0.0655698160321224
0.2703857421875,0.181854248046875,9.726821899414062,-0.15536031126976013,-0.17706450819969177,0.09491430222988129,0.05682717389450609,-0.0463360033293665,0.004371321068808161
0.2847442626953125,0.193817138671875,9.72442626953125,-0.1689804494380951,-0.19068486988544464,0.08129312098026276,-0.08305510030735505,0.023605133771564066,0.004371321068808161
0.263214111328125,0.17706298828125,9.717254638671875,-0.18260081112384796,-0.19068486988544464,0.09491347521543503,-0.013113963206424483,0.09442053508625627,0.004371321068808161
0.2823486328125,0.1866455078125,9.726821899414062,-0.18260081112384796,-0.19068486988544464,0.09491347521543503,-0.15299623740828563,-0.11627714043029708,0.004371321068808161
0.2656097412109375,0.1722869873046875,9.705291748046875,-0.1689804494380951,-0.17706450819969177,0.10853298753499985,-0.08305510030735505,-0.0463360033293665,-0.0655698160321224
0.2775726318359375,0.1986083984375,9.7459716796875,-0.16898024082183838,-0.17706450819969177,0.10853298753499985,-0.013113963206424483,0.023605133771564066,-0.13551095313305297
0.2799530029296875,0.1794586181640625,9.726821899414062,-0.16898024082183838,-0.17706450819969177,0.10853298753499985,-0.15299623740828563,0.023605133771564066,-0.0655698160321224
0.2775726318359375,0.1627044677734375,9.702896118164062,-0.1825997680425644,-0.19068486988544464,0.09491263329982758,-0.08305510030735505,-0.11627714043029708,0.004371321068808161
0.2847442626953125,0.1866455078125,9.72442626953125,-0.18249210715293884,-0.17706450819969177,0.09491180628538132,0.05682717389450609,-0.0463360033293665,0.004371321068808161
0.2703857421875,0.1674957275390625,9.705291748046875,-0.18249191343784332,-0.17706450819969177,0.09491180628538132,0.12676831099543664,0.023605133771564066,0.004371321068808161
0.2679901123046875,0.193817138671875,9.731613159179688,-0.16887156665325165,-0.17706450819969177,0.10853215306997299,0.05682717389450609,0.023605133771564066,-0.0655698160321224
0.253631591796875,0.1842498779296875,9.68853759765625,-0.16887156665325165,-0.19068486988544464,0.09491180628538132,-0.013113963206424483,-0.0463360033293665,0.004371321068808161
0.253631591796875,0.17706298828125,9.70050048828125,-0.16887155175209045,-0.19068486988544464,0.09491180628538132,0.05682717389450609,0.023605133771564066,-0.0655698160321224
0.2799530029296875,0.169891357421875,9.693328857421875,-0.15525101125240326,-0.19068486988544464,0.10853132605552673,-0.08305510030735505,0.023605133771564066,-0.0655698160321224
0.2799530029296875,0.1674957275390625,9.7220458984375,-0.1824917048215866,-0.17706450819969177,0.12215167284011841,-0.08305510030735505,-0.0463360033293665,-0.0655698160321224
0.2679901123046875,0.169891357421875,9.717254638671875,-0.1824912577867508,-0.17706450819969177,0.12215167284011841,-0.013113963206424483,0.023605133771564066,0.004371321068808161
0.2656097412109375,0.1746826171875,9.7220458984375,-0.18249106407165527,-0.17706450819969177,0.09491097927093506,-0.013113963206424483,-0.0463360033293665,0.004371321068808161
0.2847442626953125,0.1866455078125,9.72442626953125,-0.1688707172870636,-0.17706450819969177,0.09491097927093506,-0.08305510030735505,-0.0463360033293665,-0.20545209023398356
0.2847442626953125,0.181854248046875,9.71246337890625,-0.18249106407165527,-0.19068486988544464,0.0949101448059082,-0.013113963206424483,0.023605133771564066,0.004371321068808161
0.2679901123046875,0.1962127685546875,9.750747680664062,-0.18249040842056274,-0.19068486988544464,0.09491097927093506,0.05682717389450609,-0.0463360033293665,0.004371321068808161
0.253631591796875,0.1986083984375,9.72442626953125,-0.16887006163597107,-0.19068486988544464,0.08129063248634338,-0.08305510030735505,-0.0463360033293665,0.004371321068808161
0.2847442626953125,0.1962127685546875,9.731613159179688,-0.16887006163597107,-0.19068486988544464,0.08128979802131653,-0.08305510030735505,-0.0463360033293665,0.004371321068808161
0.275177001953125,0.1674957275390625,9.719650268554688,-0.18249064683914185,-0.20430520176887512,0.08128979802131653,-0.08305510030735505,0.023605133771564066,-0.13551095313305297
0.287139892578125,0.1914215087890625,9.717254638671875,-0.16887006163597107,-0.17706450819969177,0.0949101448059082,-0.013113963206424483,0.023605133771564066,-0.0655698160321224
0.2608184814453125,0.181854248046875,9.717254638671875,-0.16886985301971436,-0.17706450819969177,0.0949101448059082,-0.013113963206424483,0.023605133771564066,-0.0655698160321224
0.2799530029296875,0.1794586181640625,9.7220458984375,-0.18238253891468048,-0.19068486988544464,0.09490848332643509,-0.08305510030735505,-0.0463360033293665,0.14512785948443094
0.2679901123046875,0.17706298828125,9.714859008789062,-0.18227557837963104,-0.19068486988544464,0.09490765631198883,-0.08305510030735505,0.023605133771564066,0.004371321068808161
0.263214111328125,0.17706298828125,9.729217529296875,-0.18227557837963104,-0.19068486988544464,0.09490765631198883,-0.013113963206424483,0.023605133771564066,0.07431245816973873
0.2775726318359375,0.2010040283203125,9.7459716796875,-0.16865545511245728,-0.17706450819969177,0.09490681439638138,-0.013113963206424483,-0.0463360033293665,-0.0655698160321224
0.275177001953125,0.1914215087890625,9.7340087890625,-0.16865500807762146,-0.19068486988544464,0.0812864750623703,-0.013113963206424483,0.023605133771564066,-0.0655698160321224
0.2584228515625,0.16510009765625,9.7340087890625,-0.16865478456020355,-0.19068486988544464,0.0812864750623703,-0.08305510030735505,0.09442053508625627,0.004371321068808161
0.2679901123046875,0.1674957275390625,9.719650268554688,-0.16865479946136475,-0.17706450819969177,0.0812864750623703,-0.013113963206424483,-0.0463360033293665,-0.0655698160321224
0.2560272216796875,0.17706298828125,9.731613159179688,-0.16865457594394684,-0.19068486988544464,0.0812864750623703,-0.08305510030735505,0.023605133771564066,-0.0655698160321224
0.2656097412109375,0.18902587890625,9.731613159179688,-0.16865435242652893,-0.19068486988544464,0.0812864750623703,-0.08305510030735505,-0.0463360033293665,0.07431245816973873
0.2703857421875,0.1746826171875,9.714859008789062,-0.16865411400794983,-0.17706450819969177,0.09490598738193512,-0.013113963206424483,-0.0463360033293665,-0.0655698160321224
0.2679901123046875,0.169891357421875,9.726821899414062,-0.16865411400794983,-0.17706450819969177,0.09490598738193512,-0.013113963206424483,-0.0463360033293665,0.07431245816973873
0.29193115234375,0.2033843994140625,9.726821899414062,-0.16865435242652893,-0.17706450819969177,0.09490598738193512,-0.013113963206424483,-0.0463360033293665,0.07431245816973873
0.275177001953125,0.1986083984375,9.729217529296875,-0.18216729164123535,-0.20430520176887512,0.09490515291690826,-0.013113963206424483,0.09442053508625627,-0.0655698160321224
0.251251220703125,0.1627044677734375,9.7220458984375,-0.1822746843099594,-0.20430520176887512,0.09490598738193512,-0.08305510030735505,0.023605133771564066,0.004371321068808161
0.241668701171875,0.181854248046875,9.738784790039062,-0.1822746843099594,-0.20430520176887512,0.09490598738193512,-0.013113963206424483,0.023605133771564066,-0.0655698160321224
0.2703857421875,0.1722869873046875,9.719650268554688,-0.15503376722335815,-0.19068486988544464,0.08128564059734344,0.05682717389450609,-0.0463360033293665,-0.13551095313305297
0.2703857421875,0.1603240966796875,9.705291748046875,-0.16865365207195282,-0.17706450819969177,0.08128564059734344,-0.013113963206424483,0.023605133771564066,-0.0655698160321224
0.2775726318359375,0.1914215087890625,9.73638916015625,-0.16865365207195282,-0.17706450819969177,0.08128564059734344,0.05682717389450609,0.023605133771564066,-0.0655698160321224
0.2727813720703125,0.1627044677734375,9.7220458984375,-0.18227355182170868,-0.20430520176887512,0.08128564059734344,-0.08305510030735505,0.023605133771564066,0.004371321068808161
0.2608184814453125,0.169891357421875,9.695724487304688,-0.1686531901359558,-0.17706450819969177,0.08128564059734344,-0.013113963206424483,0.023605133771564066,-0.13551095313305297
0.263214111328125,0.1794586181640625,9.710067749023438,-0.1686529517173767,-0.17706450819969177,0.08128564059734344,-0.08305510030735505,-0.0463360033293665,0.004371321068808161
0.2703857421875,0.1794586181640625,9.729217529296875,-0.1686527281999588,-0.19068486988544464,0.09490515291690826,-0.013113963206424483,0.023605133771564066,0.004371321068808161
0.251251220703125,0.17706298828125,9.726821899414062,-0.1686524897813797,-0.19068486988544464,0.08128480613231659,-0.15299623740828563,-0.0463360033293665,-0.0655698160321224
0.275177001953125,0.1627044677734375,9.707687377929688,-0.1686524897813797,-0.19068486988544464,0.08128480613231659,0.05682717389450609,-0.0463360033293665,-0.0655698160321224
0.2799530029296875,0.16510009765625,9.717254638671875,-0.18227285146713257,-0.17706450819969177,0.10852467268705368,0.05682717389450609,0.023605133771564066,0.004371321068808161
0.263214111328125,0.1746826171875,9.7220458984375,-0.18238046765327454,-0.17706450819969177,0.09490515291690826,-0.013113963206424483,-0.0463360033293665,-0.13551095313305297
0.2727813720703125,0.1674957275390625,9.702896118164062,-0.18238022923469543,-0.17706450819969177,0.09490515291690826,0.05682717389450609,-0.0463360033293665,-0.13551095313305297
0.2799530029296875,0.169891357421875,9.7220458984375,-0.16875918209552765,-0.17706450819969177,0.08128480613231659,-0.08305510030735505,0.023605133771564066,0.004371321068808161
0.275177001953125,0.1674957275390625,9.717254638671875,-0.18237952888011932,-0.19068486988544464,0.08128480613231659,-0.013113963206424483,-0.0463360033293665,-0.0655698160321224
0.2656097412109375,0.1794586181640625,9.714859008789062,-0.18237930536270142,-0.19068486988544464,0.08128480613231659,-0.08305510030735505,0.023605133771564066,-0.0655698160321224
0.2656097412109375,0.17706298828125,9.71246337890625,-0.18237930536270142,-0.17706450819969177,0.09490515291690826,-0.013113963206424483,-0.0463360033293665,-0.0655698160321224
0.275177001953125,0.1674957275390625,9.7220458984375,-0.16875848174095154,-0.19068486988544464,0.09490515291690826,-0.013113963206424483,0.023605133771564066,0.004371321068808161
0.2656097412109375,0.1842498779296875,9.73638916015625,-0.16875848174095154,-0.19068486988544464,0.09490515291690826,-0.013113963206424483,-0.11627714043029708,0.004371321068808161
0.2775726318359375,0.193817138671875,9.729217529296875,-0.16854320466518402,-0.19068486988544464,0.08128231763839722,-0.013113963206424483,-0.0463360033293665,0.004371321068808161
0.2560272216796875,0.1722869873046875,9.71246337890625,-0.1821637898683548,-0.19068486988544464,0.08128231763839722,0.05682717389450609,-0.0463360033293665,0.004371321068808161
0.2656097412109375,0.181854248046875,9.729217529296875,-0.15492309629917145,-0.17706450819969177,0.09490266442298889,0.05682717389450609,0.023605133771564066,0.004371321068808161
0.2703857421875,0.1842498779296875,9.731613159179688,-0.15492309629917145,-0.17706450819969177,0.12214336544275284,-0.013113963206424483,-0.0463360033293665,-0.13551095313305297
0.2679901123046875,0.1627044677734375,9.707687377929688,-0.1821630746126175,-0.17706450819969177,0.08128231763839722,-0.013113963206424483,0.023605133771564066,0.004371321068808161
0.2608184814453125,0.17706298828125,9.72442626953125,-0.1821628212928772,-0.17706450819969177,0.08128231763839722,0.05682717389450609,0.09442053508625627,-0.0655698160321224
0.2847442626953125,0.1986083984375,9.741180419921875,-0.1821625828742981,-0.17706450819969177,0.09490266442298889,-0.08305510030735505,-0.11627714043029708,0.004371321068808161
0.2679901123046875,0.1794586181640625,9.729217529296875,-0.18194730579853058,-0.20430520176887512,0.06765947490930557,-0.013113963206424483,0.023605133771564066,0.004371321068808161
0.263214111328125,0.1866455078125,9.710067749023438,-0.18194730579853058,-0.20430520176887512,0.06765947490930557,0.05682717389450609,-0.0463360033293665,0.004371321068808161
0.2847442626953125,0.1842498779296875,9.72442626953125,-0.1683269888162613,-0.17706450819969177,0.08127982169389725,0.05682717389450609,0.023605133771564066,-0.0655698160321224
0.2679901123046875,0.169891357421875,9.710067749023438,-0.1818396896123886,-0.19068486988544464,0.09489933401346207,-0.08305510030735505,-0.0463360033293665,-0.0655698160321224
0.2775726318359375,0.1746826171875,9.717254638671875,-0.1818396896123886,-0.19068486988544464,0.09489933401346207,-0.013113963206424483,0.023605133771564066,0.004371321068808161
0.2608184814453125,0.1674957275390625,9.7340087890625,-0.16821981966495514,-0.17706450819969177,0.09489850699901581,-0.013113963206424483,0.09442053508625627,0.004371321068808161
0.2608184814453125,0.193817138671875,9.743576049804688,-0.16843511164188385,-0.17706450819969177,0.09490100294351578,-0.013113963206424483,0.023605133771564066,0.004371321068808161
0.2727813720703125,0.1914215087890625,9.726821899414062,-0.16843511164188385,-0.17706450819969177,0.09490100294351578,-0.013113963206424483,-0.0463360033293665,0.004371321068808161
0.2775726318359375,0.1794586181640625,9.72442626953125,-0.18205545842647552,-0.17706450819969177,0.09490100294351578,-0.013113963206424483,0.09442053508625627,0.004371321068808161
0.2967071533203125,0.205780029296875,9.72442626953125,-0.18205545842647552,-0.17706450819969177,0.09490100294351578,-0.013113963206424483,-0.0463360033293665,-0.0655698160321224
0.2560272216796875,0.1866455078125,9.731613159179688,-0.18205520510673523,-0.17706450819969177,0.09490100294351578,-0.08305510030735505,0.023605133771564066,0.004371321068808161
0.2560272216796875,0.16510009765625,9.714859008789062,-0.1956752985715866,-0.20430520176887512,0.09490017592906952,-0.08305510030735505,0.023605133771564066,-0.13551095313305297
0.2656097412109375,0.1746826171875,9.70050048828125,-0.1548140048980713,-0.17706450819969177,0.09490017592906952,-0.013113963206424483,0.023605133771564066,0.004371321068808161
0.275177001953125,0.17706298828125,9.719650268554688,-0.1548140048980713,-0.17706450819969177,0.09490017592906952,-0.08305510030735505,0.023605133771564066,0.07431245816973873
0.2608184814453125,0.1746826171875,9.714859008789062,-0.18205496668815613,-0.17706450819969177,0.09490017592906952,0.05682717389450609,-0.0463360033293665,0.07431245816973873
0.241668701171875,0.181854248046875,9.705291748046875,-0.15481449663639069,-0.17706450819969177,0.09490017592906952,-0.013113963206424483,0.023605133771564066,0.004371321068808161
0.2847442626953125,0.1866455078125,9.7220458984375,-0.15481449663639069,-0.17706450819969177,0.09490017592906952,-0.013113963206424483,0.023605133771564066,-0.0655698160321224
0.2488555908203125,0.1746826171875,9.7220458984375,-0.16843460500240326,-0.19068486988544464,0.08127982169389725,-0.08305510030735505,0.09442053508625627,-0.0655698160321224
0.275177001953125,0.1746826171875,9.707687377929688,-0.1548140048980713,-0.17706450819969177,0.09490017592906952,-0.08305510030735505,0.023605133771564066,-0.0655698160321224
0.2847442626953125,0.1842498779296875,9.7220458984375,-0.154813751578331,-0.17706450819969177,0.09490017592906952,-0.08305510030735505,0.023605133771564066,-0.13551095313305297
0.263214111328125,0.1674957275390625,9.705291748046875,-0.18205371499061584,-0.19068486988544464,0.09490017592906952,0.05682717389450609,0.023605133771564066,-0.13551095313305297
0.2775726318359375,0.1627044677734375,9.710067749023438,-0.16832521557807922,-0.17706450819969177,0.09489933401346207,-0.013113963206424483,0.023605133771564066,-0.0655698160321224
0.2656097412109375,0.1746826171875,9.719650268554688,-0.16832521557807922,-0.17706450819969177,0.09489933401346207,0.05682717389450609,-0.0463360033293665,0.004371321068808161
0.2799530029296875,0.16510009765625,9.710067749023438,-0.16821734607219696,-0.17706450819969177,0.09489850699901581,-0.08305510030735505,-0.0463360033293665,0.004371321068808161
0.2703857421875,0.16510009765625,9.71246337890625,-0.18183769285678864,-0.17706450819969177,0.10851802676916122,-0.013113963206424483,0.023605133771564066,0.004371321068808161
0.2656097412109375,0.1627044677734375,9.710067749023438,-0.18183769285678864,-0.17706450819969177,0.10851802676916122,-0.013113963206424483,-0.0463360033293665,0.07431245816973873
0.2656097412109375,0.1627044677734375,9.717254638671875,-0.16821783781051636,-0.17706450819969177,0.09489767253398895,0.05682717389450609,-0.0463360033293665,-0.0655698160321224
0.2584228515625,0.1746826171875,9.693328857421875,-0.1681099534034729,-0.17706450819969177,0.0948968455195427,-0.08305510030735505,0.023605133771564066,0.004371321068808161
0.2799530029296875,0.1914215087890625,9.7220458984375,-0.16800230741500854,-0.17706450819969177,0.0948968455195427,-0.013113963206424483,0.09442053508625627,-0.0655698160321224
0.253631591796875,0.1866455078125,9.695724487304688,-0.1816224455833435,-0.20430520176887512,0.08127649873495102,-0.08305510030735505,0.023605133771564066,0.004371321068808161
0.2727813720703125,0.1674957275390625,9.719650268554688,-0.16800208389759064,-0.17706450819969177,0.10851636528968811,-0.08305510030735505,-0.0463360033293665,-0.0655698160321224
0.2727813720703125,0.169891357421875,9.719650268554688,-0.16800208389759064,-0.17706450819969177,0.10851636528968811,-0.08305510030735505,0.023605133771564066,0.004371321068808161
0.2823486328125,0.2081756591796875,9.726821899414062,-0.1816221922636032,-0.17706450819969177,0.09489518404006958,0.0034970568550465285,-0.09704332772754116,0.0026227926412848964
0.2775726318359375,0.1986083984375,9.729217529296875,-0.1814071387052536,-0.217925563454628,0.08127234131097794,0.0734381939559771,-0.09704332772754116,0.07256392974221547
0.253631591796875,0.181854248046875,9.726821899414062,-0.18129977583885193,-0.217925563454628,0.08127234131097794,0.14337933105690767,-0.09704332772754116,0.14250506684314604
0.275177001953125,0.193817138671875,9.7340087890625,-0.1675725281238556,-0.19068486988544464,0.08127234131097794,0.0734381939559771,-0.09704332772754116,0.0026227926412848964
0.2679901123046875,0.1722869873046875,9.7220458984375,-0.1810854971408844,-0.20430520176887512,0.08127151429653168,0.0034970568550465285,-0.09704332772754116,0.0026227926412848964
0.2727813720703125,0.181854248046875,9.7220458984375,-0.1810854971408844,-0.20430520176887512,0.08127151429653168,0.14337933105690767,-0.027102190626610595,0.0026227926412848964
0.2584228515625,0.1746826171875,9.73638916015625,-0.18097783625125885,-0.19068486988544464,0.09489185363054276,0.0034970568550465285,-0.09704332772754116,0.07256392974221547
0.2823486328125,0.1866455078125,9.7220458984375,-0.16714224219322205,-0.17706450819969177,0.08126818388700485,0.0734381939559771,-0.027102190626610595,-0.06731834445964567
0.253631591796875,0.1842498779296875,9.73638916015625,-0.16714224219322205,-0.17706450819969177,0.08126901835203171,0.0734381939559771,-0.027102190626610595,0.0026227926412848964
0.2799530029296875,0.1674957275390625,9.714859008789062,-0.15352186560630798,-0.19068486988544464,0.08126984536647797,0.0734381939559771,-0.09704332772754116,-0.06731834445964567
0.2656097412109375,0.1674957275390625,9.717254638671875,-0.19427528977394104,-0.19068486988544464,0.08126901835203171,0.0034970568550465285,-0.027102190626610595,0.0026227926412848964
0.2775726318359375,0.1674957275390625,9.719650268554688,-0.19427530467510223,-0.19068486988544464,0.08126901835203171,0.14337933105690767,-0.09704332772754116,0.07256392974221547
0.2679901123046875,0.1866455078125,9.726821899414062,-0.1805475652217865,-0.17706450819969177,0.09488853067159653,0.0034970568550465285,-0.027102190626610595,0.0026227926412848964
0.2679901123046875,0.181854248046875,9.726821899414062,-0.16692720353603363,-0.19068486988544464,0.08126901835203171,0.0734381939559771,-0.09704332772754116,0.0026227926412848964
0.275177001953125,0.17706298828125,9.714859008789062,-0.16681955754756927,-0.17706450819969177,0.09488853067159653,0.14337933105690767,-0.027102190626610595,0.14250506684314604
0.2799530029296875,0.18902587890625,9.729217529296875,-0.1803327202796936,-0.17706450819969177,0.09488853067159653,0.0734381939559771,-0.027102190626610595,0.0026227926412848964
0.263214111328125,0.1603240966796875,9.7220458984375,-0.18022510409355164,-0.19068486988544464,0.081267349421978,0.0034970568550465285,-0.09704332772754116,-0.06731834445964567
0.2703857421875,0.1722869873046875,9.7220458984375,-0.18011745810508728,-0.19068486988544464,0.08126652240753174,0.0734381939559771,-0.027102190626610595,0.0026227926412848964
0.263214111328125,0.1746826171875,9.719650268554688,-0.1664971113204956,-0.19068486988544464,0.08126652240753174,0.0034970568550465285,-0.027102190626610595,0.0026227926412848964
0.2727813720703125,0.1746826171875,9.72442626953125,-0.1664971113204956,-0.19068486988544464,0.08126652240753174,0.0734381939559771,-0.027102190626610595,0.14250506684314604
0.2584228515625,0.181854248046875,9.731613159179688,-0.16639016568660736,-0.17706450819969177,0.09488603472709656,0.0734381939559771,-0.027102190626610595,0.0026227926412848964
0.2847442626953125,0.17706298828125,9.731613159179688,-0.16617487370967865,-0.17706450819969177,0.09488437324762344,0.14337933105690767,-0.027102190626610595,0.0026227926412848964
0.2608184814453125,0.1794586181640625,9.710067749023438,-0.1660672426223755,-0.17706450819969177,0.09488354623317719,0.0734381939559771,0.04371321068808161,0.0026227926412848964
0.2727813720703125,0.1746826171875,9.7220458984375,-0.1660672426223755,-0.17706450819969177,0.09488354623317719,0.14337933105690767,-0.09704332772754116,0.07256392974221547
0.2703857421875,0.17706298828125,9.719650268554688,-0.17947277426719666,-0.19068486988544464,0.09488188475370407,0.0734381939559771,-0.027102190626610595,0.07256392974221547
0.2823486328125,0.1962127685546875,9.726821899414062,-0.16574521362781525,-0.19068486988544464,0.09488105028867722,0.0034970568550465285,-0.09704332772754116,0.07256392974221547
0.2847442626953125,0.2033843994140625,9.726821899414062,-0.16574521362781525,-0.19068486988544464,0.09488105028867722,0.0734381939559771,-0.09704332772754116,0.0026227926412848964
0.251251220703125,0.1603240966796875,9.719650268554688,-0.16553016006946564,-0.20430520176887512,0.08125904202461243,0.0734381939559771,-0.027102190626610595,0.0026227926412848964
0.275177001953125,0.1627044677734375,9.719650268554688,-0.16553016006946564,-0.20430520176887512,0.08125904202461243,0.0034970568550465285,0.04371321068808161,-0.06731834445964567
0.2656097412109375,0.16510009765625,9.72442626953125,-0.16552993655204773,-0.1634441763162613,0.0948793813586235,0.0734381939559771,-0.09704332772754116,-0.06731834445964567
0.2608184814453125,0.1962127685546875,9.738784790039062,-0.16542209684848785,-0.17706450819969177,0.08125820755958557,0.21332046815783823,-0.027102190626610595,0.07256392974221547
0.2775726318359375,0.193817138671875,9.719650268554688,-0.16520725190639496,-0.17706450819969177,0.09487689286470413,0.0034970568550465285,-0.09704332772754116,0.0026227926412848964
0.2727813720703125,0.1627044677734375,9.719650268554688,-0.1650996059179306,-0.17706450819969177,0.09487523138523102,0.0734381939559771,-0.027102190626610595,-0.06731834445964567
0.2703857421875,0.1674957275390625,9.72442626953125,-0.17871972918510437,-0.17706450819969177,0.09487523138523102,0.14337933105690767,-0.09704332772754116,0.0026227926412848964
0.2584228515625,0.1722869873046875,9.698104858398438,-0.17871972918510437,-0.17706450819969177,0.09487523138523102,0.0734381939559771,-0.09704332772754116,0.07256392974221547
0.275177001953125,0.17706298828125,9.717254638671875,-0.17839723825454712,-0.17706450819969177,0.09487274289131165,0.0734381939559771,-0.027102190626610595,0.07256392974221547
0.2560272216796875,0.181854248046875,9.710067749023438,-0.17839787900447845,-0.17706450819969177,0.09487274289131165,0.0734381939559771,-0.09704332772754116,0.0026227926412848964
0.2560272216796875,0.181854248046875,9.710067749023438,-0.17839787900447845,-0.17706450819969177,0.09487274289131165,0.0734381939559771,-0.09704332772754116,0.0026227926412848964
0.2703857421875,0.1507415771484375,9.71246337890625,-0.16466990113258362,-0.19068486988544464,0.0948719009757042,0.14337933105690767,-0.027102190626610595,0.07256392974221547
0.2823486328125,0.1674957275390625,9.705291748046875,-0.16456246376037598,-0.19068486988544464,0.09487107396125793,0.0034970568550465285,-0.09704332772754116,0.0026227926412848964
0.2703857421875,0.169891357421875,9.690933227539062,-0.17818281054496765,-0.17706450819969177,0.10849142074584961,0.0034970568550465285,-0.16698446482847173,0.0026227926412848964
0.263214111328125,0.1746826171875,9.72442626953125,-0.1642395704984665,-0.19068486988544464,0.10848726332187653,0.0034970568550465285,-0.027102190626610595,0.07256392974221547
0.275177001953125,0.169891357421875,9.7220458984375,-0.1642395704984665,-0.19068486988544464,0.10848726332187653,0.0734381939559771,-0.09704332772754116,0.0026227926412848964
0.2488555908203125,0.1722869873046875,9.73638916015625,-0.164239764213562,-0.17706450819969177,0.09486692398786545,0.14337933105690767,-0.027102190626610595,-0.06731834445964567
0.2656097412109375,0.16510009765625,9.710067749023438,-0.1507270783185959,-0.17706450819969177,0.08124739676713943,0.0034970568550465285,-0.027102190626610595,0.0026227926412848964
0.263214111328125,0.1722869873046875,9.714859008789062,-0.1507270783185959,-0.17706450819969177,0.08124739676713943,0.0734381939559771,-0.09704332772754116,0.07256392974221547
0.2727813720703125,0.181854248046875,9.729217529296875,-0.16445526480674744,-0.17706450819969177,0.10848893225193024,0.14337933105690767,-0.027102190626610595,0.0026227926412848964
0.275177001953125,0.169891357421875,9.70050048828125,-0.1645631194114685,-0.19068486988544464,0.09487023949623108,0.0734381939559771,-0.16698446482847173,0.0026227926412848964
0.287139892578125,0.1674957275390625,9.71246337890625,-0.1645631194114685,-0.19068486988544464,0.09487023949623108,0.0734381939559771,-0.027102190626610595,0.07256392974221547
0.2679901123046875,0.1794586181640625,9.717254638671875,-0.1916964054107666,-0.17706450819969177,0.09486857801675797,0.0034970568550465285,-0.027102190626610595,0.07256392974221547
0.2799530029296875,0.17706298828125,9.72442626953125,-0.16467119753360748,-0.17706450819969177,0.09487107396125793,0.0734381939559771,-0.027102190626610595,0.0026227926412848964
0.2608184814453125,0.1627044677734375,9.743576049804688,-0.16467119753360748,-0.17706450819969177,0.09487107396125793,0.0034970568550465285,-0.09704332772754116,-0.06731834445964567
0.2775726318359375,0.1674957275390625,9.719650268554688,-0.16477882862091064,-0.17706450819969177,0.06763038039207458,0.0734381939559771,-0.027102190626610595,0.07256392974221547
0.2703857421875,0.1674957275390625,9.702896118164062,-0.17861446738243103,-0.17706450819969177,0.09487274289131165,0.0034970568550465285,-0.027102190626610595,0.07256392974221547
0.2727813720703125,0.1722869873046875,9.70050048828125,-0.1787223219871521,-0.17706450819969177,0.09487356245517731,0.0734381939559771,-0.09704332772754116,0.0026227926412848964
0.2703857421875,0.1962127685546875,9.74835205078125,-0.1652096062898636,-0.17706450819969177,0.10849557816982269,0.0034970568550465285,-0.09704332772754116,0.0026227926412848964
0.2679901123046875,0.1722869873046875,9.729217529296875,-0.16531723737716675,-0.20430520176887512,0.06763453781604767,0.0734381939559771,-0.027102190626610595,0.07256392974221547
0.2775726318359375,0.1603240966796875,9.70050048828125,-0.16531747579574585,-0.17706450819969177,0.08125488460063934,0.0034970568550465285,-0.09704332772754116,0.0026227926412848964
0.2703857421875,0.181854248046875,9.731613159179688,-0.1790456771850586,-0.1634441763162613,0.10849641263484955,0.0734381939559771,-0.16698446482847173,0.0026227926412848964
0.2727813720703125,0.1674957275390625,9.719650268554688,-0.17883040010929108,-0.19068486988544464,0.08125405013561249,0.0734381939559771,-0.09704332772754116,0.0026227926412848964
0.2656097412109375,0.1603240966796875,9.714859008789062,-0.17872276902198792,-0.19068486988544464,0.08125238865613937,0.14337933105690767,-0.09704332772754116,-0.06731834445964567
0.2560272216796875,0.1794586181640625,9.702896118164062,-0.16499480605125427,-0.17706450819969177,0.10849142074584961,0.0034970568550465285,-0.09704332772754116,0.0026227926412848964
0.2679901123046875,0.1794586181640625,9.719650268554688,-0.15148206055164337,-0.17706450819969177,0.10849308222532272,0.0734381939559771,-0.09704332772754116,0.0026227926412848964
0.2608184814453125,0.193817138671875,9.72442626953125,-0.15148206055164337,-0.17706450819969177,0.10849308222532272,0.0034970568550465285,-0.09704332772754116,0.0026227926412848964
0.2727813720703125,0.1842498779296875,9.729217529296875,-0.1652100831270218,-0.19068486988544464,0.09487274289131165,0.0734381939559771,-0.027102190626610595,0.0026227926412848964
0.2727813720703125,0.1746826171875,9.705291748046875,-0.1790456771850586,-0.19068486988544464,0.08125488460063934,0.0734381939559771,0.04371321068808161,0.07256392974221547
0.263214111328125,0.181854248046875,9.717254638671875,-0.17915354669094086,-0.19068486988544464,0.0812557190656662,0.0034970568550465285,-0.09704332772754116,0.0026227926412848964
0.275177001953125,0.1794586181640625,9.731613159179688,-0.17915357649326324,-0.19068486988544464,0.09487606585025787,0.0734381939559771,-0.16698446482847173,0.07256392974221547
0.2464599609375,0.181854248046875,9.707687377929688,-0.1790463924407959,-0.19068486988544464,0.08125405013561249,0.14337933105690767,-0.09704332772754116,-0.06731834445964567
0.2608184814453125,0.1674957275390625,9.705291748046875,-0.1790463924407959,-0.19068486988544464,0.08125405013561249,0.0034970568550465285,-0.16698446482847173,0.0026227926412848964
0.2727813720703125,0.1746826171875,9.7220458984375,-0.17893896996974945,-0.1634441763162613,0.10849390923976898,0.0734381939559771,-0.027102190626610595,0.0026227926412848964
0.287139892578125,0.17706298828125,9.7220458984375,-0.17915424704551697,-0.17706450819969177,0.09487523138523102,0.0034970568550465285,-0.09704332772754116,0.0026227926412848964
0.2799530029296875,0.169891357421875,9.714859008789062,-0.17926189303398132,-0.17706450819969177,0.09487689286470413,0.0034970568550465285,-0.027102190626610595,0.07256392974221547
0.2727813720703125,0.1842498779296875,9.7340087890625,-0.17947715520858765,-0.17706450819969177,0.09487855434417725,0.0734381939559771,-0.09704332772754116,-0.06731834445964567
0.2703857421875,0.16510009765625,9.705291748046875,-0.179584801197052,-0.20430520176887512,0.08125820755958557,0.0734381939559771,-0.09704332772754116,0.07256392974221547
0.2847442626953125,0.1842498779296875,9.726821899414062,-0.1795850396156311,-0.20430520176887512,0.08125820755958557,0.0034970568550465285,-0.027102190626610595,0.14250506684314604
0.2727813720703125,0.18902587890625,9.731613159179688,-0.17969292402267456,-0.17706450819969177,0.0948793813586235,0.0734381939559771,-0.16698446482847173,0.07256392974221547
0.275177001953125,0.169891357421875,9.707687377929688,-0.1795857697725296,-0.19068486988544464,0.08125737309455872,0.0734381939559771,-0.09704332772754116,0.07256392974221547
0.2895355224609375,0.1962127685546875,9.72442626953125,-0.1795860081911087,-0.17706450819969177,0.10849807411432266,0.14337933105690767,-0.027102190626610595,0.0026227926412848964
0.2847442626953125,0.1627044677734375,9.702896118164062,-0.17980128526687622,-0.19068486988544464,0.09488022327423096,0.0034970568550465285,-0.09704332772754116,-0.06731834445964567
0.2560272216796875,0.169891357421875,9.71246337890625,-0.17990891635417938,-0.17706450819969177,0.1085013896226883,0.0034970568550465285,-0.027102190626610595,0.0026227926412848964
0.287139892578125,0.17706298828125,9.717254638671875,-0.17990896105766296,-0.17706450819969177,0.10850056260824203,0.0034970568550465285,-0.09704332772754116,0.07256392974221547
0.2679901123046875,0.16510009765625,9.710067749023438,-0.18001657724380493,-0.17706450819969177,0.1085013896226883,0.0734381939559771,-0.027102190626610595,0.0026227926412848964
0.2656097412109375,0.1722869873046875,9.717254638671875,-0.18023188412189484,-0.17706450819969177,0.09488271176815033,0.0034970568550465285,-0.09704332772754116,0.0026227926412848964
0.2799530029296875,0.1674957275390625,9.70050048828125,-0.18023188412189484,-0.17706450819969177,0.09488271176815033,0.0734381939559771,-0.16698446482847173,0.0026227926412848964
0.2656097412109375,0.1794586181640625,9.707687377929688,-0.16661152243614197,-0.17706450819969177,0.09488188475370407,0.0034970568550465285,-0.09704332772754116,0.0026227926412848964
0.2823486328125,0.1722869873046875,9.714859008789062,-0.18023188412189484,-0.17706450819969177,0.09488188475370407,0.0734381939559771,0.04371321068808161,0.0026227926412848964
0.2584228515625,0.1746826171875,9.705291748046875,-0.1803395003080368,-0.17706450819969177,0.09488354623317719,0.0734381939559771,-0.09704332772754116,0.07256392974221547
0.29193115234375,0.1794586181640625,9.72442626953125,-0.1803400069475174,-0.17706450819969177,0.09488437324762344,0.0734381939559771,-0.027102190626610595,0.07256392974221547
0.2679901123046875,0.17706298828125,9.726821899414062,-0.16682754456996918,-0.19068486988544464,0.08126402646303177,0.0734381939559771,-0.027102190626610595,-0.06731834445964567
0.2799530029296875,0.1603240966796875,9.71246337890625,-0.16682754456996918,-0.19068486988544464,0.08126402646303177,0.0734381939559771,-0.027102190626610595,0.0026227926412848964
0.2775726318359375,0.17706298828125,9.702896118164062,-0.16715045273303986,-0.17706450819969177,0.10850804299116135,0.0034970568550465285,-0.09704332772754116,0.0026227926412848964
0.2799530029296875,0.1674957275390625,9.707687377929688,-0.16715045273303986,-0.17706450819969177,0.10850722342729568,0.0034970568550465285,-0.09704332772754116,0.07256392974221547
0.2679901123046875,0.1746826171875,9.726821899414062,-0.16725808382034302,-0.17706450819969177,0.10850804299116135,0.0734381939559771,-0.027102190626610595,0.0026227926412848964
0.29193115234375,0.1722869873046875,9.710067749023438,-0.1808784455060959,-0.17706450819969177,0.09488686174154282,0.0034970568550465285,-0.23779986614316395,0.07256392974221547
0.2679901123046875,0.1507415771484375,9.726821899414062,-0.1807710826396942,-0.17706450819969177,0.12212756276130676,0.0734381939559771,-0.027102190626610595,0.0026227926412848964
0.263214111328125,0.16510009765625,9.71246337890625,-0.180878683924675,-0.17706450819969177,0.12212756276130676,0.0734381939559771,-0.027102190626610595,0.0026227926412848964
0.263214111328125,0.1483612060546875,9.719650268554688,-0.18087869882583618,-0.1634441763162613,0.09488686174154282,0.0034970568550465285,-0.09704332772754116,0.0026227926412848964
0.263214111328125,0.1603240966796875,9.71246337890625,-0.16736625134944916,-0.17706450819969177,0.09488770365715027,0.0734381939559771,-0.09704332772754116,0.0026227926412848964
0.2703857421875,0.169891357421875,9.719650268554688,-0.1537458896636963,-0.19068486988544464,0.10850804299116135,0.14337933105690767,0.04371321068808161,0.0026227926412848964
0.2775726318359375,0.1986083984375,9.7340087890625,-0.18120212852954865,-0.19068486988544464,0.09489019215106964,0.0734381939559771,-0.09704332772754116,0.07256392974221547
0.275177001953125,0.2081756591796875,9.731613159179688,-0.18131029605865479,-0.20430520176887512,0.08127151429653168,0.0734381939559771,-0.09704332772754116,0.07256392974221547
0.2584228515625,0.17706298828125,9.698104858398438,-0.1676901876926422,-0.17706450819969177,0.10851053893566132,0.0734381939559771,0.11278008357525054,0.07256392974221547
0.275177001953125,0.16510009765625,9.695724487304688,-0.181526318192482,-0.20430520176887512,0.09489269554615021,0.0734381939559771,0.04371321068808161,0.07256392974221547
0.2584228515625,0.1746826171875,9.705291748046875,-0.16801388561725616,-0.17706450819969177,0.12213421612977982,0.0034970568550465285,-0.09704332772754116,0.0026227926412848964
0.275177001953125,0.169891357421875,9.717254638671875,-0.1679062396287918,-0.17706450819969177,0.1221325546503067,0.0034970568550465285,-0.027102190626610595,-0.06731834445964567
0.2799530029296875,0.1842498779296875,9.7220458984375,-0.1679062396287918,-0.17706450819969177,0.10851137340068817,0.0734381939559771,-0.027102190626610595,0.0026227926412848964
0.2823486328125,0.17706298828125,9.726821899414062,-0.18163421750068665,-0.20430520176887512,0.08127234131097794,0.0734381939559771,-0.16698446482847173,-0.06731834445964567
0.2656097412109375,0.169891357421875,9.7220458984375,-0.18152660131454468,-0.20430520176887512,0.08127151429653168,0.0734381939559771,-0.09704332772754116,0.0026227926412848964
0.2584228515625,0.17706298828125,9.71246337890625,-0.18163421750068665,-0.17706450819969177,0.09489269554615021,0.0734381939559771,-0.09704332772754116,0.0026227926412848964
0.2727813720703125,0.18902587890625,9.729217529296875,-0.16801413893699646,-0.17706450819969177,0.09489269554615021,0.0034970568550465285,-0.09704332772754116,0.14250506684314604
0.2703857421875,0.169891357421875,9.71246337890625,-0.16801413893699646,-0.17706450819969177,0.09489269554615021,0.14337933105690767,-0.027102190626610595,0.0026227926412848964
0.2775726318359375,0.1794586181640625,9.72442626953125,-0.18174265325069427,-0.17706450819969177,0.10851303488016129,-0.06644408024588404,-0.09704332772754116,0.0026227926412848964
0.2608184814453125,0.181854248046875,9.705291748046875,-0.16801469027996063,-0.19068486988544464,0.09489269554615021,0.0734381939559771,-0.16698446482847173,0.0026227926412848964
0.2727813720703125,0.17706298828125,9.714859008789062,-0.16790705919265747,-0.19068486988544464,0.09489019215106964,0.0734381939559771,-0.027102190626610595,0.0026227926412848964
0.241668701171875,0.1603240966796875,9.714859008789062,-0.1816350370645523,-0.17706450819969177,0.08126984536647797,-0.06644408024588404,-0.027102190626610595,0.0026227926412848964
0.29193115234375,0.169891357421875,9.698104858398438,-0.15450197458267212,-0.19068486988544464,0.08127151429653168,0.0034970568550465285,-0.09704332772754116,0.0026227926412848964
0.2703857421875,0.169891357421875,9.698104858398438,-0.15450197458267212,-0.19068486988544464,0.08127151429653168,0.0734381939559771,-0.027102190626610595,0.07256392974221547
0.2679901123046875,0.1746826171875,9.705291748046875,-0.18185029923915863,-0.17706450819969177,0.10851303488016129,0.0734381939559771,-0.09704332772754116,0.0026227926412848964
0.2703857421875,0.169891357421875,9.714859008789062,-0.16822995245456696,-0.17706450819969177,0.12213421612977982,0.0734381939559771,-0.09704332772754116,0.0026227926412848964
0.2703857421875,0.1722869873046875,9.72442626953125,-0.18185028433799744,-0.17706450819969177,0.10851386189460754,-0.06644408024588404,-0.16698446482847173,-0.06731834445964567
0.275177001953125,0.1674957275390625,9.707687377929688,-0.1817423701286316,-0.17706450819969177,0.09489269554615021,-0.06644408024588404,-0.23779986614316395,-0.06731834445964567
0.2775726318359375,0.1746826171875,9.7220458984375,-0.18141917884349823,-0.19068486988544464,0.09488853067159653,0.0034970568550465285,-0.09704332772754116,0.0026227926412848964
0.287139892578125,0.1866455078125,9.726821899414062,-0.1950395405292511,-0.17706450819969177,0.09488853067159653,0.14337933105690767,-0.09704332772754116,0.0026227926412848964
0.2703857421875,0.1962127685546875,9.719650268554688,-0.18131156265735626,-0.17706450819969177,0.09488853067159653,0.0734381939559771,-0.027102190626610595,0.07256392974221547
0.2775726318359375,0.16510009765625,9.702896118164062,-0.18131156265735626,-0.19068486988544464,0.1085088849067688,0.14337933105690767,-0.16698446482847173,-0.06731834445964567
0.2823486328125,0.16510009765625,9.698104858398438,-0.18109628558158875,-0.19068486988544464,0.10850722342729568,0.0734381939559771,-0.16698446482847173,0.0026227926412848964
0.2703857421875,0.17706298828125,9.710067749023438,-0.18088100850582123,-0.1634441763162613,0.12212590128183365,0.0034970568550465285,-0.027102190626610595,-0.06731834445964567
0.2799530029296875,0.169891357421875,9.72442626953125,-0.16726066172122955,-0.17706450819969177,0.10850555449724197,0.0734381939559771,-0.3068667390303329,0.07256392974221547
0.2799530029296875,0.1722869873046875,9.72442626953125,-0.16693799197673798,-0.17706450819969177,0.108503058552742,0.14337933105690767,-0.027102190626610595,0.07256392974221547
0.2823486328125,0.18902587890625,9.729217529296875,-0.18088184297084808,-0.17706450819969177,0.09488603472709656,0.0034970568550465285,-0.16698446482847173,0.07256392974221547
0.275177001953125,0.16510009765625,9.710067749023438,-0.18066681921482086,-0.17706450819969177,0.09488437324762344,0.14337933105690767,0.04371321068808161,0.14250506684314604
0.275177001953125,0.193817138671875,9.731613159179688,-0.18066681921482086,-0.17706450819969177,0.09488437324762344,0.0734381939559771,-0.09704332772754116,0.14250506684314604
0.275177001953125,0.17706298828125,9.717254638671875,-0.16715463995933533,-0.17706450819969177,0.09488437324762344,0.0734381939559771,-0.16698446482847173,-0.06731834445964567
0.2584228515625,0.1794586181640625,9.70050048828125,-0.1672622710466385,-0.19068486988544464,0.10850555449724197,0.0034970568550465285,0.04371321068808161,0.07256392974221547
0.275177001953125,0.1842498779296875,9.731613159179688,-0.16737015545368195,-0.19068486988544464,0.10850638151168823,0.14337933105690767,-0.16698446482847173,0.0026227926412848964
0.2727813720703125,0.1914215087890625,9.7340087890625,-0.18109814822673798,-0.19068486988544464,0.09488686174154282,0.0034970568550465285,-0.16698446482847173,0.0026227926412848964
0.2775726318359375,0.169891357421875,9.705291748046875,-0.16758546233177185,-0.17706450819969177,0.10850722342729568,0.0734381939559771,-0.16698446482847173,0.07256392974221547
0.2656097412109375,0.169891357421875,9.707687377929688,-0.16758570075035095,-0.17706450819969177,0.10850722342729568,0.0034970568550465285,0.04371321068808161,0.0026227926412848964
0.2847442626953125,0.1603240966796875,9.71246337890625,-0.1813136786222458,-0.17706450819969177,0.1085088849067688,0.0734381939559771,0.04371321068808161,0.07256392974221547
0.263214111328125,0.1794586181640625,9.726821899414062,-0.18142187595367432,-0.17706450819969177,0.09488936513662338,0.0734381939559771,-0.027102190626610595,0.0026227926412848964
0.263214111328125,0.1627044677734375,9.717254638671875,-0.18152953684329987,-0.17706450819969177,0.0948910266160965,0.0034970568550465285,-0.16698446482847173,0.07256392974221547
0.2608184814453125,0.1507415771484375,9.707687377929688,-0.1679094284772873,-0.1634441763162613,0.0948910266160965,0.0734381939559771,-0.027102190626610595,0.07256392974221547
0.2679901123046875,0.18902587890625,9.7340087890625,-0.16801761090755463,-0.19068486988544464,0.08127234131097794,0.0734381939559771,-0.09704332772754116,0.07256392974221547
0.2656097412109375,0.1746826171875,9.702896118164062,-0.16801761090755463,-0.19068486988544464,0.08127234131097794,0.0734381939559771,-0.09704332772754116,0.07256392974221547
0.253631591796875,0.1722869873046875,9.70050048828125,-0.16801761090755463,-0.19068486988544464,0.09489269554615021,0.0734381939559771,-0.16698446482847173,-0.06731834445964567
0.2799530029296875,0.18902587890625,9.729217529296875,-0.16812525689601898,-0.19068486988544464,0.09489269554615021,0.0734381939559771,-0.09704332772754116,0.0026227926412848964
0.2847442626953125,0.193817138671875,9.7220458984375,-0.16812525689601898,-0.19068486988544464,0.09489269554615021,0.0734381939559771,-0.027102190626610595,0.0026227926412848964
0.2703857421875,0.1866455078125,9.719650268554688,-0.18196089565753937,-0.17706450819969177,0.09489434212446213,0.0734381939559771,0.04371321068808161,0.0026227926412848964
0.287139892578125,0.1674957275390625,9.707687377929688,-0.16844817996025085,-0.19068486988544464,0.09489601105451584,0.0034970568550465285,-0.027102190626610595,0.0026227926412848964
0.275177001953125,0.1746826171875,9.719650268554688,-0.16855579614639282,-0.19068486988544464,0.0948968455195427,0.0034970568550465285,0.04371321068808161,0.0026227926412848964
0.2656097412109375,0.1746826171875,9.717254638671875,-0.1823916733264923,-0.17706450819969177,0.09489767253398895,0.14337933105690767,-0.09704332772754116,0.07256392974221547
0.2703857421875,0.181854248046875,9.719650268554688,-0.16887952387332916,-0.17706450819969177,0.10851885378360748,0.0734381939559771,-0.09704332772754116,0.07256392974221547
0.263214111328125,0.1794586181640625,9.729217529296875,-0.16887952387332916,-0.17706450819969177,0.10851885378360748,0.0034970568550465285,-0.09704332772754116,0.07256392974221547
0.2703857421875,0.1866455078125,9.7340087890625,-0.1688806116580963,-0.19068486988544464,0.08127816021442413,0.0734381939559771,-0.027102190626610595,0.07256392974221547
0.2440643310546875,0.17706298828125,9.707687377929688,-0.1690964549779892,-0.17706450819969177,0.09490017592906952,0.0734381939559771,-0.027102190626610595,0.07256392974221547
0.2679901123046875,0.169891357421875,9.702896118164062,-0.16920408606529236,-0.17706450819969177,0.09490183740854263,0.0034970568550465285,-0.16698446482847173,0.0026227926412848964
0.2823486328125,0.169891357421875,9.71246337890625,-0.1690964251756668,-0.17706450819969177,0.1085205152630806,0.14337933105690767,-0.09704332772754116,0.07256392974221547
0.2847442626953125,0.1962127685546875,9.72442626953125,-0.18282440304756165,-0.19068486988544464,0.09490100294351578,0.0034970568550465285,0.04371321068808161,-0.06731834445964567
0.2703857421875,0.1746826171875,9.7220458984375,-0.1829320639371872,-0.19068486988544464,0.09490183740854263,0.14337933105690767,-0.09704332772754116,0.0026227926412848964
0.2775726318359375,0.1746826171875,9.71246337890625,-0.1693117320537567,-0.17706450819969177,0.09490183740854263,0.0734381939559771,-0.09704332772754116,0.0026227926412848964
0.2727813720703125,0.1722869873046875,9.707687377929688,-0.16931170225143433,-0.19068486988544464,0.08128149062395096,0.0734381939559771,-0.027102190626610595,0.14250506684314604
0.287139892578125,0.1674957275390625,9.70050048828125,-0.16941991448402405,-0.19068486988544464,0.08128231763839722,0.0734381939559771,-0.09704332772754116,0.14250506684314604
0.275177001953125,0.2010040283203125,9.7459716796875,-0.18304111063480377,-0.19068486988544464,0.09490266442298889,0.0034970568550465285,-0.09704332772754116,0.07256392974221547
0.2703857421875,0.181854248046875,9.731613159179688,-0.16931366920471191,-0.19068486988544464,0.10852134227752686,0.0034970568550465285,-0.09704332772754116,0.14250506684314604
0.2560272216796875,0.18902587890625,9.698104858398438,-0.16931366920471191,-0.19068486988544464,0.10852134227752686,0.0034970568550465285,-0.09704332772754116,0.14250506684314604
0.275177001953125,0.1722869873046875,9.710067749023438,-0.16942241787910461,-0.17706450819969177,0.10852134227752686,0.0734381939559771,-0.09704332772754116,0.07256392974221547
0.2799530029296875,0.193817138671875,9.731613159179688,-0.18304277956485748,-0.19068486988544464,0.09490017592906952,0.0034970568550465285,-0.027102190626610595,0.07256392974221547
0.2727813720703125,0.16510009765625,9.72442626953125,-0.18304306268692017,-0.19068486988544464,0.09490017592906952,0.0034970568550465285,-0.09704332772754116,0.0026227926412848964
0.2488555908203125,0.1627044677734375,9.729217529296875,-0.18315039575099945,-0.17706450819969177,0.1085205152630806,0.14337933105690767,-0.027102190626610595,0.07256392974221547
0.2847442626953125,0.1555328369140625,9.702896118164062,-0.18325746059417725,-0.1634441763162613,0.10852218419313431,0.0034970568550465285,-0.09704332772754116,0.0026227926412848964
0.2703857421875,0.1627044677734375,9.71246337890625,-0.18336480855941772,-0.1634441763162613,0.10852301120758057,0.0734381939559771,-0.027102190626610595,0.0026227926412848964
0.2584228515625,0.15313720703125,9.71246337890625,-0.18336395919322968,-0.17706450819969177,0.09490266442298889,0.0734381939559771,-0.09704332772754116,0.0026227926412848964
0.2727813720703125,0.1722869873046875,9.719650268554688,-0.1697435975074768,-0.19068486988544464,0.10852301120758057,0.0734381939559771,-0.09704332772754116,0.07256392974221547
0.2727813720703125,0.1483612060546875,9.695724487304688,-0.1697435975074768,-0.19068486988544464,0.10852301120758057,0.14337933105690767,-0.09704332772754116,0.0026227926412848964
0.2727813720703125,0.1722869873046875,9.714859008789062,-0.1698506623506546,-0.1634441763162613,0.10852467268705368,0.0734381939559771,-0.027102190626610595,0.07256392974221547
0.2895355224609375,0.17706298828125,9.707687377929688,-0.18347099423408508,-0.17706450819969177,0.094904325902462,0.0734381939559771,-0.16698446482847173,0.07256392974221547
0.2823486328125,0.1627044677734375,9.714859008789062,-0.18347099423408508,-0.17706450819969177,0.094904325902462,0.0734381939559771,-0.09704332772754116,0.07256392974221547
0.2847442626953125,0.18902587890625,9.726821899414062,-0.16995827853679657,-0.19068486988544464,0.10852550715208054,0.0734381939559771,-0.09704332772754116,0.0026227926412848964
0.2679901123046875,0.17706298828125,9.693328857421875,-0.1836860030889511,-0.19068486988544464,0.1085263341665268,0.14337933105690767,-0.027102190626610595,0.07256392974221547
0.275177001953125,0.157928466796875,9.702896118164062,-0.1837933361530304,-0.19068486988544464,0.1085263341665268,0.14337933105690767,-0.027102190626610595,0.07256392974221547
0.2727813720703125,0.17706298828125,9.7220458984375,-0.1840086132287979,-0.17706450819969177,0.09490848332643509,0.0734381939559771,-0.027102190626610595,0.0026227926412848964
0.2823486328125,0.181854248046875,9.719650268554688,-0.17049531638622284,-0.19068486988544464,0.10853049159049988,0.0034970568550465285,-0.09704332772754116,0.0026227926412848964
0.2775726318359375,0.169891357421875,9.705291748046875,-0.17049503326416016,-0.19068486988544464,0.10853049159049988,0.0734381939559771,-0.09704332772754116,0.0026227926412848964
0.2679901123046875,0.1627044677734375,9.702896118164062,-0.17060208320617676,-0.17706450819969177,0.0949101448059082,0.0734381939559771,-0.09704332772754116,0.0026227926412848964
0.253631591796875,0.1722869873046875,9.693328857421875,-0.15708878636360168,-0.19068486988544464,0.09491097927093506,0.0734381939559771,-0.09704332772754116,0.07256392974221547
0.2799530029296875,0.1866455078125,9.726821899414062,-0.18432952463626862,-0.17706450819969177,0.09491097927093506,0.0034970568550465285,-0.09704332772754116,0.0026227926412848964
0.2464599609375,0.1674957275390625,9.70050048828125,-0.15719585120677948,-0.17706450819969177,0.10853132605552673,0.0034970568550465285,-0.16698446482847173,0.07256392974221547
0.2656097412109375,0.16510009765625,9.702896118164062,-0.15708763897418976,-0.17706450819969177,0.10853049159049988,0.0034970568550465285,-0.09704332772754116,0.07256392974221547
0.275177001953125,0.17706298828125,9.707687377929688,-0.1571952849626541,-0.17706450819969177,0.10853049159049988,0.14337933105690767,-0.09704332772754116,0.07256392974221547
0.2727813720703125,0.16510009765625,9.698104858398438,-0.15719527006149292,-0.19068486988544464,0.10853049159049988,0.0034970568550465285,0.04371321068808161,0.07256392974221547
0.275177001953125,0.1866455078125,9.729217529296875,-0.1846509575843811,-0.19068486988544464,0.09491180628538132,0.14337933105690767,-0.027102190626610595,0.0026227926412848964
0.2679901123046875,0.157928466796875,9.693328857421875,-0.1847582757472992,-0.19068486988544464,0.09491263329982758,0.0734381939559771,-0.09704332772754116,-0.06731834445964567
0.2656097412109375,0.17706298828125,9.702896118164062,-0.18486563861370087,-0.19068486988544464,0.1085338145494461,0.0034970568550465285,-0.027102190626610595,0.0026227926412848964
0.2727813720703125,0.1866455078125,9.726821899414062,-0.17145995795726776,-0.20430520176887512,0.08129478245973587,0.14337933105690767,-0.027102190626610595,0.07256392974221547
0.2847442626953125,0.16510009765625,9.707687377929688,-0.17145995795726776,-0.20430520176887512,0.08129478245973587,0.0734381939559771,-0.09704332772754116,0.07256392974221547
0.287139892578125,0.1866455078125,9.726821899414062,-0.1851879507303238,-0.19068486988544464,0.0949159637093544,0.0034970568550465285,-0.09704332772754116,0.0026227926412848964
0.275177001953125,0.1722869873046875,9.710067749023438,-0.18518733978271484,-0.20430520176887512,0.0949159637093544,0.14337933105690767,-0.09704332772754116,0.07256392974221547
0.2584228515625,0.17706298828125,9.695724487304688,-0.18518733978271484,-0.20430520176887512,0.0949159637093544,0.14337933105690767,-0.09704332772754116,0.07256392974221547
0.2488555908203125,0.1866455078125,9.693328857421875,-0.17167431116104126,-0.19068486988544464,0.10853797197341919,0.0734381939559771,-0.027102190626610595,0.0026227926412848964
0.2464599609375,0.1794586181640625,9.698104858398438,-0.15826864540576935,-0.20430520176887512,0.12215998768806458,0.0034970568550465285,-0.027102190626610595,0.07256392974221547
0.275177001953125,0.1962127685546875,9.714859008789062,-0.15826864540576935,-0.20430520176887512,0.12215915322303772,0.0034970568550465285,-0.09704332772754116,0.0026227926412848964
0.275177001953125,0.1746826171875,9.710067749023438,-0.1856163591146469,-0.20430520176887512,0.1085396334528923,0.0034970568550465285,-0.09704332772754116,0.0026227926412848964
0.2608184814453125,0.1627044677734375,9.698104858398438,-0.17199572920799255,-0.19068486988544464,0.09491928666830063,0.0734381939559771,-0.027102190626610595,0.0026227926412848964
0.2584228515625,0.169891357421875,9.72442626953125,-0.17210334539413452,-0.19068486988544464,0.09492012858390808,0.0734381939559771,-0.027102190626610595,0.0026227926412848964
0.2727813720703125,0.1746826171875,9.726821899414062,-0.17231862246990204,-0.20430520176887512,0.10854213684797287,-0.06644408024588404,-0.16698446482847173,0.14250506684314604
0.2679901123046875,0.1842498779296875,9.72442626953125,-0.17231954634189606,-0.19068486988544464,0.0949217826128006,0.0734381939559771,-0.027102190626610595,0.07256392974221547
0.2679901123046875,0.1842498779296875,9.70050048828125,-0.17231954634189606,-0.19068486988544464,0.0949217826128006,0.0734381939559771,-0.09704332772754116,0.07256392974221547
0.275177001953125,0.193817138671875,9.741180419921875,-0.18604815006256104,-0.217925563454628,0.08130143582820892,0.0734381939559771,-0.09704332772754116,0.0026227926412848964
0.2656097412109375,0.17706298828125,9.731613159179688,-0.17242780327796936,-0.20430520176887512,0.0949217826128006,0.0034970568550465285,-0.09704332772754116,0.07256392974221547
0.2727813720703125,0.169891357421875,9.717254638671875,-0.17253543436527252,-0.20430520176887512,0.09492344409227371,0.0734381939559771,-0.09704332772754116,0.0026227926412848964
0.2847442626953125,0.1722869873046875,9.71246337890625,-0.17253543436527252,-0.20430520176887512,0.09492344409227371,0.0034970568550465285,-0.09704332772754116,0.07256392974221547
0.2656097412109375,0.181854248046875,9.729217529296875,-0.1861557811498642,-0.19068486988544464,0.09492344409227371,0.0734381939559771,-0.16698446482847173,0.0026227926412848964
0.2703857421875,0.1914215087890625,9.731613159179688,-0.17264337837696075,-0.20430520176887512,0.09492427855730057,0.0734381939559771,-0.027102190626610595,0.0026227926412848964
0.2727813720703125,0.17706298828125,9.7220458984375,-0.18647931516170502,-0.20430520176887512,0.081305593252182,0.14337933105690767,-0.09704332772754116,0.0026227926412848964
0.2727813720703125,0.1866455078125,9.73638916015625,-0.1729666143655777,-0.19068486988544464,0.09492676705121994,-0.06644408024588404,-0.09704332772754116,0.0026227926412848964
0.2847442626953125,0.1746826171875,9.7220458984375,-0.1729666143655777,-0.19068486988544464,0.09492676705121994,0.0034970568550465285,-0.09704332772754116,0.0026227926412848964
0.29193115234375,0.1674957275390625,9.714859008789062,-0.20020730793476105,-0.19068486988544464,0.09492594748735428,0.0034970568550465285,-0.09704332772754116,0.0026227926412848964
0.253631591796875,0.1746826171875,9.710067749023438,-0.1729666292667389,-0.19068486988544464,0.09492594748735428,0.0034970568550465285,-0.16698446482847173,0.14250506684314604
0.2703857421875,0.181854248046875,9.731613159179688,-0.17296691238880157,-0.19068486988544464,0.09492594748735428,0.0034970568550465285,-0.027102190626610595,0.0026227926412848964
0.2679901123046875,0.181854248046875,9.731613159179688,-0.18680286407470703,-0.20430520176887512,0.09492676705121994,0.0734381939559771,-0.027102190626610595,0.07256392974221547
0.2799530029296875,0.1674957275390625,9.719650268554688,-0.18701879680156708,-0.19068486988544464,0.09492843598127365,0.0734381939559771,-0.027102190626610595,0.07256392974221547
0.2727813720703125,0.1842498779296875,9.729217529296875,-0.18701907992362976,-0.19068486988544464,0.09492843598127365,0.0734381939559771,-0.09704332772754116,0.0026227926412848964
0.2703857421875,0.18902587890625,9.7340087890625,-0.15988604724407196,-0.20430520176887512,0.10855044424533844,0.0734381939559771,-0.027102190626610595,0.0026227926412848964
0.2703857421875,0.1722869873046875,9.717254638671875,-0.1736140102148056,-0.19068486988544464,0.09493009746074677,0.0734381939559771,-0.09704332772754116,0.0026227926412848964
0.2703857421875,0.1842498779296875,9.729217529296875,-0.17372165620326996,-0.19068486988544464,0.09493175894021988,0.0734381939559771,0.04371321068808161,0.0026227926412848964
0.263214111328125,0.18902587890625,9.731613159179688,-0.17393726110458374,-0.19068486988544464,0.09493342787027359,0.14337933105690767,-0.09704332772754116,0.07256392974221547
0.2895355224609375,0.1986083984375,9.714859008789062,-0.18766555190086365,-0.217925563454628,0.09493425488471985,0.0034970568550465285,0.04371321068808161,0.0026227926412848964
0.2895355224609375,0.1986083984375,9.714859008789062,-0.18766555190086365,-0.217925563454628,0.09493425488471985,0.0034970568550465285,0.04371321068808161,0.0026227926412848964
0.263214111328125,0.1794586181640625,9.719650268554688,-0.1877732127904892,-0.19068486988544464,0.10855543613433838,0.0734381939559771,-0.09704332772754116,0.0026227926412848964
0.2703857421875,0.1722869873046875,9.714859008789062,-0.17415283620357513,-0.19068486988544464,0.10855543613433838,0.0034970568550465285,-0.09704332772754116,0.07256392974221547
0.275177001953125,0.169891357421875,9.726821899414062,-0.18777354061603546,-0.19068486988544464,0.09493425488471985,0.0734381939559771,-0.027102190626610595,0.0026227926412848964
0.2608184814453125,0.1674957275390625,9.702896118164062,-0.1878814697265625,-0.19068486988544464,0.09493591636419296,0.0734381939559771,-0.027102190626610595,0.07256392974221547
0.2775726318359375,0.18902587890625,9.731613159179688,-0.1744767129421234,-0.19068486988544464,0.10855709761381149,0.0734381939559771,-0.027102190626610595,0.07256392974221547
0.2727813720703125,0.1866455078125,9.726821899414062,-0.18831266462802887,-0.19068486988544464,0.1085587590932846,0.0734381939559771,-0.09704332772754116,0.0026227926412848964
0.263214111328125,0.169891357421875,9.71246337890625,-0.18831266462802887,-0.19068486988544464,0.1085587590932846,0.21332046815783823,-0.09704332772754116,0.0026227926412848964
0.2608184814453125,0.169891357421875,9.698104858398438,-0.17479994893074036,-0.20430520176887512,0.09494006633758545,0.0034970568550465285,-0.09704332772754116,0.0026227926412848964
0.2823486328125,0.1866455078125,9.717254638671875,-0.18842029571533203,-0.19068486988544464,0.09494006633758545,0.0734381939559771,-0.09704332772754116,0.0026227926412848964
0.275177001953125,0.1627044677734375,9.698104858398438,-0.18842029571533203,-0.19068486988544464,0.09494006633758545,0.14337933105690767,-0.09704332772754116,0.07256392974221547
0.2656097412109375,0.1842498779296875,9.72442626953125,-0.17469263076782227,-0.19068486988544464,0.12217993289232254,-0.06644408024588404,-0.09704332772754116,0.0026227926412848964
0.2727813720703125,0.1603240966796875,9.707687377929688,-0.17469264566898346,-0.19068486988544464,0.09493923932313919,0.0734381939559771,-0.09704332772754116,0.07256392974221547
0.263214111328125,0.1866455078125,9.729217529296875,-0.17469264566898346,-0.19068486988544464,0.09493840485811234,0.0734381939559771,-0.16698446482847173,0.0026227926412848964
0.2727813720703125,0.1674957275390625,9.693328857421875,-0.17447738349437714,-0.19068486988544464,0.10855709761381149,0.0734381939559771,-0.027102190626610595,0.0026227926412848964
0.2823486328125,0.1794586181640625,9.726821899414062,-0.1745850145816803,-0.19068486988544464,0.12217827886343002,0.21332046815783823,-0.09704332772754116,0.07256392974221547
0.287139892578125,0.1603240966796875,9.707687377929688,-0.17458532750606537,-0.19068486988544464,0.12217827886343002,0.0734381939559771,-0.09704332772754116,0.0026227926412848964
0.2608184814453125,0.1746826171875,9.71246337890625,-0.1883133202791214,-0.19068486988544464,0.09493840485811234,0.0734381939559771,-0.09704332772754116,0.0026227926412848964
0.2727813720703125,0.1746826171875,9.705291748046875,-0.17469297349452972,-0.19068486988544464,0.09493840485811234,0.0034970568550465285,-0.027102190626610595,0.07256392974221547
0.275177001953125,0.1962127685546875,9.7340087890625,-0.17480093240737915,-0.19068486988544464,0.09493840485811234,0.0734381939559771,-0.027102190626610595,0.07256392974221547
0.2727813720703125,0.16510009765625,9.70050048828125,-0.1886368691921234,-0.20430520176887512,0.09494006633758545,0.0734381939559771,-0.027102190626610595,0.0026227926412848964
0.2775726318359375,0.1746826171875,9.717254638671875,-0.1752321422100067,-0.19068486988544464,0.10856291651725769,0.0734381939559771,-0.09704332772754116,0.07256392974221547
0.2584228515625,0.1794586181640625,9.695724487304688,-0.1752321422100067,-0.19068486988544464,0.10856291651725769,0.0734381939559771,-0.027102190626610595,0.0026227926412848964
0.2679901123046875,0.1746826171875,9.702896118164062,-0.17534010112285614,-0.20430520176887512,0.10856208950281143,0.0034970568550465285,-0.16698446482847173,0.07256392974221547
0.2823486328125,0.1627044677734375,9.705291748046875,-0.18874549865722656,-0.19068486988544464,0.10855958610773087,0.0034970568550465285,-0.16698446482847173,0.14250506684314604
0.2775726318359375,0.16510009765625,9.695724487304688,-0.18863818049430847,-0.19068486988544464,0.1085587590932846,0.0034970568550465285,-0.027102190626610595,0.07256392974221547
0.2464599609375,0.169891357421875,9.705291748046875,-0.1752331256866455,-0.1634441763162613,0.10856042802333832,0.0734381939559771,-0.09704332772754116,0.0026227926412848964
0.2703857421875,0.1627044677734375,9.695724487304688,-0.17544840276241302,-0.19068486988544464,0.0949409082531929,0.0034970568550465285,-0.027102190626610595,0.0026227926412848964
0.2488555908203125,0.1627044677734375,9.72442626953125,-0.1755560338497162,-0.19068486988544464,0.09494173526763916,0.0734381939559771,-0.027102190626610595,-0.06731834445964567
0.253631591796875,0.1794586181640625,9.693328857421875,-0.17566366493701935,-0.17706450819969177,0.10856208950281143,0.0734381939559771,-0.09704332772754116,0.0026227926412848964
0.263214111328125,0.1722869873046875,9.705291748046875,-0.17566366493701935,-0.19068486988544464,0.10856208950281143,0.0734381939559771,-0.027102190626610595,-0.06731834445964567
0.2799530029296875,0.157928466796875,9.714859008789062,-0.17566366493701935,-0.19068486988544464,0.10856208950281143,0.0034970568550465285,-0.027102190626610595,0.07256392974221547
0.2775726318359375,0.193817138671875,9.73638916015625,-0.1896076202392578,-0.20430520176887512,0.0813230499625206,0.14337933105690767,-0.16698446482847173,0.07256392974221547
0.2823486328125,0.1674957275390625,9.710067749023438,-0.1893930286169052,-0.17706450819969177,0.10856208950281143,0.0734381939559771,-0.09704332772754116,0.07256392974221547
0.2656097412109375,0.16510009765625,9.702896118164062,-0.1893930286169052,-0.17706450819969177,0.10856208950281143,0.0734381939559771,-0.09704332772754116,0.07256392974221547
0.275177001953125,0.16510009765625,9.695724487304688,-0.18950097262859344,-0.19068486988544464,0.09494256973266602,0.0734381939559771,-0.09704332772754116,0.14250506684314604
0.2656097412109375,0.17706298828125,9.71246337890625,-0.17588134109973907,-0.19068486988544464,0.10856291651725769,0.0734381939559771,-0.09704332772754116,0.07256392974221547
0.263214111328125,0.1674957275390625,9.698104858398438,-0.17588165402412415,-0.19068486988544464,0.10856291651725769,0.0034970568550465285,-0.09704332772754116,0.07256392974221547
0.275177001953125,0.157928466796875,9.705291748046875,-0.17598998546600342,-0.19068486988544464,0.10856291651725769,0.0734381939559771,-0.027102190626610595,-0.06731834445964567
0.2560272216796875,0.17706298828125,9.710067749023438,-0.189717635512352,-0.20430520176887512,0.09494339674711227,0.0034970568550465285,-0.16698446482847173,0.0026227926412848964
0.2679901123046875,0.1746826171875,9.714859008789062,-0.18961001932621002,-0.20430520176887512,0.09494173526763916,0.0034970568550465285,-0.09704332772754116,0.0026227926412848964
0.2679901123046875,0.16510009765625,9.714859008789062,-0.18971765041351318,-0.17706450819969177,0.10856291651725769,0.0734381939559771,-0.09704332772754116,0.07256392974221547
0.2679901123046875,0.1674957275390625,9.714859008789062,-0.1898256093263626,-0.20430520176887512,0.09494339674711227,0.0034970568550465285,-0.09704332772754116,0.0026227926412848964
0.2727813720703125,0.181854248046875,9.72442626953125,-0.17620527744293213,-0.19068486988544464,0.09494339674711227,0.0034970568550465285,-0.09704332772754116,0.07256392974221547
0.2656097412109375,0.145965576171875,9.710067749023438,-0.17631326615810394,-0.17706450819969177,0.09494339674711227,0.0734381939559771,-0.09704332772754116,0.07256392974221547
0.2560272216796875,0.1746826171875,9.707687377929688,-0.1900419443845749,-0.17706450819969177,0.1085645779967308,0.0734381939559771,-0.027102190626610595,0.07256392974221547
0.2775726318359375,0.1722869873046875,9.719650268554688,-0.1901499480009079,-0.17706450819969177,0.10856540501117706,0.0734381939559771,-0.09704332772754116,0.07256392974221547
0.263214111328125,0.17706298828125,9.690933227539062,-0.17653030157089233,-0.17706450819969177,0.1085645779967308,0.0734381939559771,-0.09704332772754116,0.07256392974221547
0.263214111328125,0.17706298828125,9.705291748046875,-0.1766386479139328,-0.19068486988544464,0.10856623947620392,0.14337933105690767,-0.027102190626610595,0.07256392974221547
0.2775726318359375,0.1674957275390625,9.70050048828125,-0.17663899064064026,-0.19068486988544464,0.10856623947620392,0.0734381939559771,-0.027102190626610595,0.0026227926412848964
0.2488555908203125,0.1746826171875,9.7220458984375,-0.17685426771640778,-0.19068486988544464,0.10856790840625763,0.0734381939559771,-0.09704332772754116,-0.06731834445964567
0.2847442626953125,0.1986083984375,9.726821899414062,-0.19058191776275635,-0.19068486988544464,0.10856956988573074,0.0034970568550465285,-0.027102190626610595,0.07256392974221547
0.2584228515625,0.1746826171875,9.702896118164062,-0.19058191776275635,-0.19068486988544464,0.10856956988573074,0.0734381939559771,-0.027102190626610595,0.07256392974221547
0.2488555908203125,0.17706298828125,9.686141967773438,-0.16366516053676605,-0.19068486988544464,0.10857123136520386,0.0734381939559771,-0.09704332772754116,0.07256392974221547
0.251251220703125,0.1842498779296875,9.698104858398438,-0.17728553712368011,-0.20430520176887512,0.09495005011558533,0.0034970568550465285,-0.09704332772754116,0.14250506684314604
0.2584228515625,0.17706298828125,9.710067749023438,-0.17728623747825623,-0.20430520176887512,0.09495005011558533,0.0034970568550465285,-0.09704332772754116,-0.06731834445964567
0.2679901123046875,0.1722869873046875,9.710067749023438,-0.17728623747825623,-0.19068486988544464,0.108570396900177,0.0734381939559771,-0.09704332772754116,0.14250506684314604
0.2703857421875,0.16510009765625,9.714859008789062,-0.1909073293209076,-0.19068486988544464,0.09495005011558533,0.0734381939559771,-0.09704332772754116,0.07256392974221547
0.2775726318359375,0.16510009765625,9.7220458984375,-0.1910153031349182,-0.19068486988544464,0.09495005011558533,0.0034970568550465285,-0.027102190626610595,0.07256392974221547
0.2775726318359375,0.15313720703125,9.702896118164062,-0.1776105761528015,-0.19068486988544464,0.09495171159505844,0.0034970568550465285,-0.027102190626610595,-0.13725948156057624
0.2679901123046875,0.1866455078125,9.726821899414062,-0.1913381963968277,-0.19068486988544464,0.09495171159505844,0.0034970568550465285,-0.09704332772754116,0.0026227926412848964
0.2656097412109375,0.17706298828125,9.705291748046875,-0.19144585728645325,-0.19068486988544464,0.09495338052511215,0.0034970568550465285,-0.09704332772754116,-0.06731834445964567
0.2656097412109375,0.16510009765625,9.702896118164062,-0.17782513797283173,-0.19068486988544464,0.10857288539409637,0.0034970568550465285,-0.027102190626610595,0.0026227926412848964
0.263214111328125,0.157928466796875,9.71246337890625,-0.1780407726764679,-0.20430520176887512,0.09495338052511215,-0.06644408024588404,-0.09704332772754116,0.0026227926412848964
0.253631591796875,0.1674957275390625,9.71246337890625,-0.1780407726764679,-0.20430520176887512,0.09495338052511215,0.0034970568550465285,-0.09704332772754116,-0.06731834445964567
0.2775726318359375,0.169891357421875,9.714859008789062,-0.19166074693202972,-0.19068486988544464,0.0949525386095047,0.0034970568550465285,-0.027102190626610595,0.07256392974221547
0.2775726318359375,0.1914215087890625,9.719650268554688,-0.19176913797855377,-0.19068486988544464,0.09495338052511215,0.0034970568550465285,-0.09704332772754116,0.07256392974221547
0.263214111328125,0.17706298828125,9.710067749023438,-0.19176949560642242,-0.19068486988544464,0.09495338052511215,0.14337933105690767,-0.027102190626610595,0.14250506684314604
0.2679901123046875,0.1674957275390625,9.707687377929688,-0.1783655434846878,-0.19068486988544464,0.1085762158036232,0.0734381939559771,-0.027102190626610595,0.07256392974221547
0.2775726318359375,0.1722869873046875,9.705291748046875,-0.19209353625774384,-0.19068486988544464,0.10857705026865005,0.0734381939559771,0.04371321068808161,0.0026227926412848964
0.2703857421875,0.1842498779296875,9.729217529296875,-0.192201167345047,-0.19068486988544464,0.10857787728309631,0.0034970568550465285,-0.09704332772754116,-0.06731834445964567
0.275177001953125,0.16510009765625,9.719650268554688,-0.1922004222869873,-0.19068486988544464,0.09495669603347778,0.0734381939559771,-0.09704332772754116,0.0026227926412848964
0.263214111328125,0.17706298828125,9.698104858398438,-0.1922004222869873,-0.19068486988544464,0.09495669603347778,0.14337933105690767,-0.027102190626610595,0.0026227926412848964
0.2656097412109375,0.1722869873046875,9.695724487304688,-0.17868773639202118,-0.19068486988544464,0.10857871174812317,0.0734381939559771,-0.09704332772754116,0.0026227926412848964
0.2656097412109375,0.1986083984375,9.7220458984375,-0.1787957102060318,-0.20430520176887512,0.09495919197797775,0.0034970568550465285,-0.16698446482847173,0.0026227926412848964
0.2727813720703125,0.17706298828125,9.705291748046875,-0.19230878353118896,-0.20430520176887512,0.0949583575129509,0.14337933105690767,-0.027102190626610595,0.07256392974221547
0.2775726318359375,0.1603240966796875,9.705291748046875,-0.19230878353118896,-0.20430520176887512,0.0949583575129509,0.0734381939559771,-0.027102190626610595,0.14250506684314604
0.2488555908203125,0.1722869873046875,9.705291748046875,-0.16528521478176117,-0.20430520176887512,0.10857953876256943,0.0034970568550465285,-0.09704332772754116,0.07256392974221547
0.2656097412109375,0.1722869873046875,9.710067749023438,-0.16528558731079102,-0.19068486988544464,0.10857953876256943,0.0734381939559771,-0.09704332772754116,0.0026227926412848964
0.275177001953125,0.157928466796875,9.698104858398438,-0.16539321839809418,-0.19068486988544464,0.10858038067817688,0.14337933105690767,-0.027102190626610595,0.14250506684314604
0.2703857421875,0.181854248046875,9.72442626953125,-0.16539321839809418,-0.19068486988544464,0.10858038067817688,0.0734381939559771,-0.027102190626610595,0.0026227926412848964
0.263214111328125,0.1603240966796875,9.695724487304688,-0.1928495615720749,-0.19068486988544464,0.1085820272564888,0.0034970568550465285,-0.027102190626610595,0.07256392974221547
0.2847442626953125,0.16510009765625,9.71246337890625,-0.17955288290977478,-0.17706450819969177,0.10858535766601562,0.0034970568550465285,-0.09704332772754116,0.07256392974221547
0.2584228515625,0.1794586181640625,9.710067749023438,-0.1931736022233963,-0.19068486988544464,0.09496334940195084,0.0034970568550465285,-0.027102190626610595,-0.06731834445964567
0.2703857421875,0.1746826171875,9.714859008789062,-0.1931736022233963,-0.19068486988544464,0.09496334940195084,0.0734381939559771,-0.027102190626610595,-0.06731834445964567
0.251251220703125,0.18902587890625,9.710067749023438,-0.20711687207221985,-0.217925563454628,0.09496583789587021,0.0034970568550465285,-0.027102190626610595,0.0026227926412848964
0.2703857421875,0.1794586181640625,9.726821899414062,-0.1798761785030365,-0.20430520176887512,0.09496501088142395,0.0734381939559771,-0.09704332772754116,0.07256392974221547
0.2799530029296875,0.1627044677734375,9.705291748046875,-0.1798761785030365,-0.20430520176887512,0.09496501088142395,0.0734381939559771,-0.027102190626610595,0.07256392974221547
0.2727813720703125,0.1866455078125,9.726821899414062,-0.19328123331069946,-0.19068486988544464,0.10858369618654251,0.14337933105690767,-0.09704332772754116,0.0026227926412848964
0.241668701171875,0.17706298828125,9.707687377929688,-0.15242019295692444,-0.20430520176887512,0.10858369618654251,0.0034970568550465285,-0.027102190626610595,0.0026227926412848964
0.263214111328125,0.1674957275390625,9.702896118164062,-0.17955327033996582,-0.19068486988544464,0.10858286917209625,0.14337933105690767,-0.027102190626610595,0.0026227926412848964
0.2608184814453125,0.17706298828125,9.705291748046875,-0.17955327033996582,-0.19068486988544464,0.10858286917209625,0.0734381939559771,-0.027102190626610595,0.0026227926412848964
0.3014984130859375,0.2081756591796875,9.719650268554688,-0.17955327033996582,-0.19068486988544464,0.10858286917209625,0.0034970568550465285,-0.09704332772754116,0.0026227926412848964
0.2775726318359375,0.1986083984375,9.7340087890625,-0.19295868277549744,-0.217925563454628,0.08134134113788605,0.14337933105690767,-0.027102190626610595,0.0026227926412848964
0.2656097412109375,0.1627044677734375,9.702896118164062,-0.19295868277549744,-0.217925563454628,0.08134134113788605,0.0734381939559771,-0.09704332772754116,0.07256392974221547
0.2727813720703125,0.1842498779296875,9.7220458984375,-0.17933835089206696,-0.19068486988544464,0.1085820272564888,-0.06644408024588404,-0.09704332772754116,0.07256392974221547
0.2656097412109375,0.16510009765625,9.698104858398438,-0.17901617288589478,-0.20430520176887512,0.10857871174812317,0.0034970568550465285,-0.09704332772754116,0.07256392974221547
0.253631591796875,0.1722869873046875,9.686141967773438,-0.17880167067050934,-0.19068486988544464,0.12219657003879547,0.0034970568550465285,-0.09704332772754116,0.07256392974221547
0.2656097412109375,0.169891357421875,9.726821899414062,-0.17880204319953918,-0.19068486988544464,0.12219572812318802,0.0034970568550465285,-0.027102190626610595,0.07256392974221547
0.2656097412109375,0.181854248046875,9.729217529296875,-0.17891044914722443,-0.19068486988544464,0.09495586901903152,0.0034970568550465285,-0.09704332772754116,0.07256392974221547
0.2584228515625,0.169891357421875,9.707687377929688,-0.16529050469398499,-0.20430520176887512,0.09495420753955841,0.0734381939559771,-0.09704332772754116,0.07256392974221547
0.253631591796875,0.1962127685546875,9.70050048828125,-0.16529050469398499,-0.20430520176887512,0.09495420753955841,0.0034970568550465285,-0.16698446482847173,-0.06731834445964567
0.2560272216796875,0.1794586181640625,9.7220458984375,-0.19242390990257263,-0.17706450819969177,0.12219323962926865,0.0734381939559771,-0.027102190626610595,0.0026227926412848964
0.2560272216796875,0.1794586181640625,9.698104858398438,-0.1653985232114792,-0.20430520176887512,0.09495338052511215,0.0034970568550465285,-0.027102190626610595,0.0026227926412848964
0.2679901123046875,0.1914215087890625,9.738784790039062,-0.1653985232114792,-0.20430520176887512,0.09495338052511215,0.0034970568550465285,-0.027102190626610595,0.07256392974221547
0.2703857421875,0.16510009765625,9.707687377929688,-0.17912688851356506,-0.20430520176887512,0.09495420753955841,-0.06644408024588404,-0.027102190626610595,0.07256392974221547
0.275177001953125,0.16510009765625,9.719650268554688,-0.17934295535087585,-0.19068486988544464,0.1085762158036232,0.0734381939559771,-0.09704332772754116,0.0026227926412848964
0.2847442626953125,0.1746826171875,9.71246337890625,-0.1930709183216095,-0.19068486988544464,0.09495586901903152,0.0034970568550465285,-0.027102190626610595,0.07256392974221547
0.2775726318359375,0.1866455078125,9.729217529296875,-0.19317856431007385,-0.20430520176887512,0.09495669603347778,0.0734381939559771,-0.027102190626610595,0.07256392974221547
0.2727813720703125,0.169891357421875,9.717254638671875,-0.17977428436279297,-0.20430520176887512,0.08133718371391296,0.0734381939559771,0.04371321068808161,0.07256392974221547
0.2584228515625,0.1627044677734375,9.695724487304688,-0.17988231778144836,-0.20430520176887512,0.08133884519338608,0.14337933105690767,-0.027102190626610595,0.0026227926412848964
0.2679901123046875,0.15313720703125,9.717254638671875,-0.17988231778144836,-0.17706450819969177,0.12219905853271484,0.0034970568550465285,-0.027102190626610595,-0.06731834445964567
0.287139892578125,0.1627044677734375,9.705291748046875,-0.17988231778144836,-0.17706450819969177,0.09495753049850464,0.0034970568550465285,0.04371321068808161,0.07256392974221547
0.2727813720703125,0.1627044677734375,9.70050048828125,-0.1798827350139618,-0.17706450819969177,0.09495753049850464,0.0734381939559771,-0.027102190626610595,0.0026227926412848964
0.2679901123046875,0.1722869873046875,9.707687377929688,-0.1935034692287445,-0.19068486988544464,0.10857787728309631,0.0734381939559771,-0.09704332772754116,-0.06731834445964567
0.2727813720703125,0.1627044677734375,9.698104858398438,-0.17977547645568848,-0.19068486988544464,0.1085762158036232,0.0734381939559771,-0.09704332772754116,-0.06731834445964567
0.2608184814453125,0.1722869873046875,9.690933227539062,-0.19339622557163239,-0.19068486988544464,0.1085762158036232,0.0034970568550465285,-0.09704332772754116,0.07256392974221547
0.2727813720703125,0.1746826171875,9.7220458984375,-0.17966826260089874,-0.19068486988544464,0.10857454687356949,0.0734381939559771,-0.027102190626610595,0.14250506684314604
0.2679901123046875,0.17706298828125,9.705291748046875,-0.19318215548992157,-0.19068486988544464,0.09495338052511215,0.0734381939559771,-0.027102190626610595,0.14250506684314604
0.2679901123046875,0.1627044677734375,9.714859008789062,-0.19318296015262604,-0.19068486988544464,0.09495338052511215,0.14337933105690767,-0.027102190626610595,0.07256392974221547
0.2799530029296875,0.1674957275390625,9.707687377929688,-0.17945580184459686,-0.19068486988544464,0.0949525386095047,0.0734381939559771,-0.027102190626610595,-0.06731834445964567
0.2727813720703125,0.1914215087890625,9.70050048828125,-0.19307614862918854,-0.19068486988544464,0.10857288539409637,0.0734381939559771,-0.027102190626610595,0.07256392974221547
0.2584228515625,0.1603240966796875,9.707687377929688,-0.19296850264072418,-0.19068486988544464,0.10857205837965012,0.0734381939559771,-0.09704332772754116,0.0026227926412848964
0.2775726318359375,0.16510009765625,9.70050048828125,-0.19286128878593445,-0.20430520176887512,0.09495087713003159,0.0734381939559771,-0.027102190626610595,0.07256392974221547
0.253631591796875,0.1722869873046875,9.70050048828125,-0.19286169111728668,-0.19068486988544464,0.10857123136520386,0.0734381939559771,-0.027102190626610595,0.07256392974221547
0.275177001953125,0.1746826171875,9.705291748046875,-0.19275404512882233,-0.19068486988544464,0.108570396900177,0.0034970568550465285,-0.09704332772754116,0.07256392974221547
0.2560272216796875,0.1866455078125,9.731613159179688,-0.19264721870422363,-0.19068486988544464,0.10856956988573074,0.0734381939559771,-0.027102190626610595,0.14250506684314604
0.2775726318359375,0.1866455078125,9.729217529296875,-0.1652996838092804,-0.20430520176887512,0.08132720738649368,0.0734381939559771,-0.16698446482847173,0.07256392974221547
0.2679901123046875,0.1794586181640625,9.705291748046875,-0.192433163523674,-0.20430520176887512,0.08132638037204742,0.0034970568550465285,-0.027102190626610595,0.0026227926412848964
0.2727813720703125,0.17706298828125,9.705291748046875,-0.17848947644233704,-0.19068486988544464,0.12218409776687622,0.0034970568550465285,-0.09704332772754116,0.07256392974221547
0.2799530029296875,0.16510009765625,9.714859008789062,-0.17838142812252045,-0.19068486988544464,0.1221824362874031,0.0734381939559771,0.04371321068808161,0.07256392974221547
0.2656097412109375,0.17706298828125,9.702896118164062,-0.17838142812252045,-0.19068486988544464,0.12218159437179565,0.0734381939559771,-0.09704332772754116,0.0026227926412848964
0.2727813720703125,0.16510009765625,9.695724487304688,-0.17827296257019043,-0.19068486988544464,0.10856042802333832,0.0734381939559771,-0.09704332772754116,0.14250506684314604
0.263214111328125,0.1674957275390625,9.695724487304688,-0.17816492915153503,-0.19068486988544464,0.12217910587787628,0.0734381939559771,-0.09704332772754116,0.07256392974221547
0.263214111328125,0.1674957275390625,9.70050048828125,-0.1781644970178604,-0.19068486988544464,0.12217910587787628,0.0734381939559771,-0.027102190626610595,0.0026227926412848964
0.2703857421875,0.16510009765625,9.707687377929688,-0.1780560314655304,-0.20430520176887512,0.09493757784366608,0.0034970568550465285,-0.027102190626610595,0.0026227926412848964
0.275177001953125,0.1746826171875,9.710067749023438,-0.17794759571552277,-0.19068486988544464,0.10855792462825775,0.0034970568550465285,0.04371321068808161,0.07256392974221547
0.2656097412109375,0.17706298828125,9.7220458984375,-0.17794717848300934,-0.19068486988544464,0.10855626314878464,0.0734381939559771,-0.027102190626610595,0.0026227926412848964
0.251251220703125,0.17706298828125,9.707687377929688,-0.17794717848300934,-0.20430520176887512,0.10855626314878464,0.0734381939559771,-0.027102190626610595,0.07256392974221547
0.2823486328125,0.169891357421875,9.717254638671875,-0.16432639956474304,-0.19068486988544464,0.10855626314878464,0.0734381939559771,-0.09704332772754116,-0.06731834445964567
0.2727813720703125,0.1674957275390625,9.717254638671875,-0.16421836614608765,-0.19068486988544464,0.10855459421873093,0.0034970568550465285,-0.16698446482847173,0.0026227926412848964
0.2703857421875,0.16510009765625,9.70050048828125,-0.19113530218601227,-0.19068486988544464,0.09493258595466614,0.0734381939559771,-0.027102190626610595,0.0026227926412848964
0.2775726318359375,0.1627044677734375,9.68853759765625,-0.17729884386062622,-0.19068486988544464,0.12217079102993011,0.0734381939559771,-0.027102190626610595,0.0026227926412848964
0.2727813720703125,0.1842498779296875,9.70050048828125,-0.177298441529274,-0.19068486988544464,0.12217079102993011,0.0034970568550465285,-0.027102190626610595,-0.06731834445964567
0.253631591796875,0.181854248046875,9.707687377929688,-0.17719079554080963,-0.19068486988544464,0.12216829508543015,0.0034970568550465285,-0.09704332772754116,-0.06731834445964567
0.2679901123046875,0.1794586181640625,9.7220458984375,-0.1634628176689148,-0.20430520176887512,0.10854711383581161,0.0734381939559771,-0.027102190626610595,0.0026227926412848964
0.2464599609375,0.1842498779296875,9.705291748046875,-0.1634628176689148,-0.20430520176887512,0.10854711383581161,0.0034970568550465285,-0.09704332772754116,-0.06731834445964567
0.2703857421875,0.1722869873046875,9.71246337890625,-0.1769751012325287,-0.19068486988544464,0.09492510557174683,0.0034970568550465285,-0.09704332772754116,0.0026227926412848964
0.275177001953125,0.17706298828125,9.68853759765625,-0.1767602264881134,-0.19068486988544464,0.09492344409227371,-0.1363852173468146,-0.16698446482847173,0.0026227926412848964
0.2608184814453125,0.169891357421875,9.705291748046875,-0.19038060307502747,-0.19068486988544464,0.12216247618198395,0.0034970568550465285,-0.027102190626610595,0.07256392974221547
0.2703857421875,0.15313720703125,9.714859008789062,-0.17665304243564606,-0.19068486988544464,0.09492012858390808,0.21332046815783823,-0.027102190626610595,0.07256392974221547
0.2703857421875,0.1866455078125,9.726821899414062,-0.17686918377876282,-0.17706450819969177,0.09492261707782745,0.0034970568550465285,-0.09704332772754116,0.07256392974221547
0.2656097412109375,0.1722869873046875,9.707687377929688,-0.17697809636592865,-0.19068486988544464,0.10854379832744598,0.0734381939559771,-0.09704332772754116,0.07256392974221547
0.263214111328125,0.169891357421875,9.698104858398438,-0.17697809636592865,-0.19068486988544464,0.10854379832744598,0.0734381939559771,-0.027102190626610595,0.07256392974221547
0.2775726318359375,0.1722869873046875,9.707687377929688,-0.16346624493598938,-0.19068486988544464,0.10854462534189224,0.0734381939559771,-0.027102190626610595,-0.06731834445964567
0.2560272216796875,0.1842498779296875,9.686141967773438,-0.16357387602329254,-0.19068486988544464,0.10854462534189224,0.0034970568550465285,-0.09704332772754116,0.07256392974221547
0.275177001953125,0.1962127685546875,9.7340087890625,-0.17730143666267395,-0.20430520176887512,0.12216663360595703,0.0734381939559771,-0.16698446482847173,-0.06731834445964567
0.2799530029296875,0.1794586181640625,9.729217529296875,-0.19092093408107758,-0.217925563454628,0.081305593252182,0.0734381939559771,-0.09704332772754116,0.0026227926412848964
0.253631591796875,0.169891357421875,9.707687377929688,-0.19102898240089417,-0.19068486988544464,0.09492676705121994,0.0034970568550465285,-0.027102190626610595,0.0026227926412848964
0.253631591796875,0.169891357421875,9.707687377929688,-0.17751626670360565,-0.19068486988544464,0.10854711383581161,0.0034970568550465285,-0.027102190626610595,0.0026227926412848964
0.2560272216796875,0.1794586181640625,9.698104858398438,-0.1641116440296173,-0.19068486988544464,0.10854795575141907,0.0034970568550465285,-0.16698446482847173,0.07256392974221547
0.2560272216796875,0.181854248046875,9.698104858398438,-0.16400445997714996,-0.19068486988544464,0.10854628682136536,0.0034970568550465285,-0.09704332772754116,0.0026227926412848964
0.287139892578125,0.1674957275390625,9.71246337890625,-0.1777324229478836,-0.19068486988544464,0.09492594748735428,0.0734381939559771,-0.027102190626610595,0.07256392974221547
0.2799530029296875,0.1962127685546875,9.7340087890625,-0.19146129488945007,-0.19068486988544464,0.10854795575141907,0.14337933105690767,-0.027102190626610595,0.07256392974221547
0.2775726318359375,0.1794586181640625,9.72442626953125,-0.19156937301158905,-0.19068486988544464,0.10854961723089218,0.0734381939559771,-0.09704332772754116,0.0026227926412848964
0.263214111328125,0.1674957275390625,9.717254638671875,-0.19156979024410248,-0.20430520176887512,0.08130892366170883,0.0034970568550465285,-0.027102190626610595,0.0026227926412848964
0.253631591796875,0.1746826171875,9.70050048828125,-0.17816473543643951,-0.19068486988544464,0.09493009746074677,0.14337933105690767,-0.09704332772754116,0.07256392974221547
0.2703857421875,0.17706298828125,9.705291748046875,-0.17827238142490387,-0.19068486988544464,0.09493175894021988,0.14337933105690767,-0.09704332772754116,0.0026227926412848964
0.2560272216796875,0.1794586181640625,9.695724487304688,-0.1782727986574173,-0.19068486988544464,0.10855210572481155,0.0034970568550465285,-0.027102190626610595,0.07256392974221547
0.2608184814453125,0.169891357421875,9.70050048828125,-0.16486816108226776,-0.20430520176887512,0.10855459421873093,0.0734381939559771,-0.09704332772754116,0.07256392974221547
0.2679901123046875,0.1794586181640625,9.695724487304688,-0.16486816108226776,-0.20430520176887512,0.10855459421873093,0.0734381939559771,-0.027102190626610595,0.0026227926412848964
0.2656097412109375,0.1866455078125,9.7220458984375,-0.17859703302383423,-0.20430520176887512,0.10855543613433838,0.14337933105690767,-0.09704332772754116,0.07256392974221547
0.2560272216796875,0.193817138671875,9.695724487304688,-0.1787046641111374,-0.20430520176887512,0.10855626314878464,0.0034970568550465285,-0.09704332772754116,0.07256392974221547
0.2799530029296875,0.1746826171875,9.719650268554688,-0.1787046641111374,-0.20430520176887512,0.10855626314878464,0.0034970568550465285,-0.09704332772754116,0.0026227926412848964
0.2727813720703125,0.1674957275390625,9.710067749023438,-0.19232502579689026,-0.19068486988544464,0.09493425488471985,0.0734381939559771,-0.027102190626610595,0.07256392974221547
0.2464599609375,0.1794586181640625,9.726821899414062,-0.1925402730703354,-0.19068486988544464,0.10855626314878464,0.0734381939559771,-0.09704332772754116,0.07256392974221547
0.2560272216796875,0.169891357421875,9.707687377929688,-0.19254070520401,-0.19068486988544464,0.10855626314878464,0.0734381939559771,-0.027102190626610595,0.07256392974221547
0.2679901123046875,0.16510009765625,9.695724487304688,-0.16551616787910461,-0.19068486988544464,0.1085587590932846,0.0734381939559771,-0.027102190626610595,0.07256392974221547
0.2727813720703125,0.1627044677734375,9.702896118164062,-0.17935222387313843,-0.19068486988544464,0.09494006633758545,0.0734381939559771,-0.027102190626610595,0.07256392974221547
0.2560272216796875,0.1722869873046875,9.693328857421875,-0.1794603168964386,-0.19068486988544464,0.10856042802333832,0.0734381939559771,-0.027102190626610595,0.07256392974221547
0.2488555908203125,0.1674957275390625,9.714859008789062,-0.17946073412895203,-0.19068486988544464,0.10856042802333832,0.0034970568550465285,-0.027102190626610595,0.0026227926412848964
0.2775726318359375,0.1674957275390625,9.717254638671875,-0.16584038734436035,-0.19068486988544464,0.09493923932313919,0.0734381939559771,-0.09704332772754116,0.07256392974221547
0.263214111328125,0.1674957275390625,9.707687377929688,-0.16584038734436035,-0.19068486988544464,0.09493923932313919,0.0734381939559771,-0.09704332772754116,0.0026227926412848964
0.263214111328125,0.1674957275390625,9.707687377929688,-0.17935355007648468,-0.19068486988544464,0.10855792462825775,0.0734381939559771,-0.09704332772754116,0.0026227926412848964
0.2895355224609375,0.1674957275390625,9.695724487304688,-0.19275949895381927,-0.19068486988544464,0.10855543613433838,0.0034970568550465285,-0.09704332772754116,0.07256392974221547
0.2656097412109375,0.17706298828125,9.698104858398438,-0.19265231490135193,-0.19068486988544464,0.10855459421873093,0.0034970568550465285,-0.16698446482847173,0.14250506684314604
0.2847442626953125,0.169891357421875,9.710067749023438,-0.17892567813396454,-0.20430520176887512,0.10855210572481155,-0.06644408024588404,-0.09704332772754116,0.07256392974221547
0.2895355224609375,0.1603240966796875,9.705291748046875,-0.1926541030406952,-0.20430520176887512,0.10855210572481155,0.14337933105690767,-0.16698446482847173,0.07256392974221547
0.2679901123046875,0.1674957275390625,9.726821899414062,-0.19254648685455322,-0.20430520176887512,0.1085512787103653,0.0734381939559771,-0.027102190626610595,0.21332046815783823
0.2584228515625,0.1674957275390625,9.71246337890625,-0.19254738092422485,-0.20430520176887512,0.09493092447519302,0.0734381939559771,-0.027102190626610595,0.0026227926412848964
0.2656097412109375,0.1842498779296875,9.70050048828125,-0.1926541030406952,-0.20430520176887512,0.09493092447519302,0.0734381939559771,-0.027102190626610595,-0.06731834445964567
0.2656097412109375,0.1794586181640625,9.714859008789062,-0.1926541030406952,-0.20430520176887512,0.09493092447519302,0.0734381939559771,-0.027102190626610595,0.0026227926412848964
0.2823486328125,0.169891357421875,9.71246337890625,-0.19265274703502655,-0.20430520176887512,0.09493009746074677,0.0034970568550465285,-0.09704332772754116,0.0026227926412848964
0.2703857421875,0.16510009765625,9.698104858398438,-0.19265271723270416,-0.20430520176887512,0.10855044424533844,0.0734381939559771,0.04371321068808161,0.07256392974221547
0.2823486328125,0.169891357421875,9.70050048828125,-0.19265319406986237,-0.20430520176887512,0.10854961723089218,0.0734381939559771,-0.027102190626610595,0.0026227926412848964
0.2608184814453125,0.1746826171875,9.702896118164062,-0.19265271723270416,-0.20430520176887512,0.10854877531528473,0.0034970568550465285,-0.027102190626610595,0.07256392974221547
0.2488555908203125,0.1794586181640625,9.674179077148438,-0.17892475426197052,-0.20430520176887512,0.10854711383581161,0.14337933105690767,-0.027102190626610595,0.14250506684314604
0.2823486328125,0.181854248046875,9.710067749023438,-0.17892475426197052,-0.20430520176887512,0.10854711383581161,0.0734381939559771,-0.09704332772754116,0.0026227926412848964
0.2727813720703125,0.16510009765625,9.693328857421875,-0.17881618440151215,-0.217925563454628,0.12216663360595703,0.0734381939559771,-0.027102190626610595,0.0026227926412848964
0.2775726318359375,0.181854248046875,9.695724487304688,-0.17881573736667633,-0.20430520176887512,0.10854628682136536,0.0734381939559771,-0.09704332772754116,0.0026227926412848964
0.2775726318359375,0.1842498779296875,9.729217529296875,-0.19232799112796783,-0.217925563454628,0.09492427855730057,0.14337933105690767,-0.09704332772754116,0.07256392974221547
0.287139892578125,0.1866455078125,9.7220458984375,-0.1922212839126587,-0.217925563454628,0.10854462534189224,0.0034970568550465285,-0.09704332772754116,0.07256392974221547
0.2823486328125,0.193817138671875,9.710067749023438,-0.19200506806373596,-0.217925563454628,0.10854213684797287,0.0734381939559771,-0.09704332772754116,0.07256392974221547
0.253631591796875,0.1842498779296875,9.681365966796875,-0.17827661335468292,-0.20430520176887512,0.10854046791791916,0.14337933105690767,-0.027102190626610595,0.0026227926412848964
0.2656097412109375,0.193817138671875,9.729217529296875,-0.1782756745815277,-0.23154591023921967,0.09492012858390808,0.0734381939559771,-0.09704332772754116,0.0026227926412848964
0.2799530029296875,0.17706298828125,9.71246337890625,-0.19167982041835785,-0.20430520176887512,0.09491845965385437,0.0734381939559771,-0.09704332772754116,0.0026227926412848964
0.2679901123046875,0.1722869873046875,9.707687377929688,-0.19167938828468323,-0.20430520176887512,0.09491845965385437,0.0734381939559771,-0.027102190626610595,0.07256392974221547
0.2560272216796875,0.1722869873046875,9.70050048828125,-0.19167938828468323,-0.20430520176887512,0.09491845965385437,0.0734381939559771,-0.09704332772754116,0.07256392974221547
0.2656097412109375,0.1603240966796875,9.710067749023438,-0.17773565649986267,-0.20430520176887512,0.09491513669490814,0.0734381939559771,-0.09704332772754116,0.07256392974221547
0.2584228515625,0.1866455078125,9.70050048828125,-0.17751988768577576,-0.20430520176887512,0.09491347521543503,0.14337933105690767,-0.09704332772754116,0.07256392974221547
0.2584228515625,0.1746826171875,9.695724487304688,-0.17730462551116943,-0.217925563454628,0.09491097927093506,0.14337933105690767,-0.09704332772754116,0.14250506684314604
0.263214111328125,0.1627044677734375,9.71246337890625,-0.17730462551116943,-0.217925563454628,0.09491097927093506,0.0734381939559771,-0.027102190626610595,0.0026227926412848964
0.2703857421875,0.18902587890625,9.729217529296875,-0.17730556428432465,-0.20430520176887512,0.12215249985456467,0.0034970568550465285,-0.09704332772754116,0.07256392974221547
