Accelerometer_Gx,Accelerometer_Gy,Accelerometer_Gz,Accelerometer_X,Accelerometer_Y,Accelerometer_Z,Gyroscope_Z,Gyroscope_X,Gyroscope_Y
0.3254241943359375,0.1316070556640625,9.626327514648438,-0.0315609872341156,0.04086104407906532,0.18510255217552185,0.006119849496331425,0.08655215716240158,-0.0489587959706514
0.2703857421875,0.1746826171875,9.681365966796875,-0.031668566167354584,0.04086104407906532,0.18510587513446808,0.006119849496331425,0.08655215716240158,-0.0489587959706514
0.2464599609375,0.17706298828125,9.66461181640625,-0.018263451755046844,0.01362034771591425,0.14425064623355865,0.006119849496331425,0.08655215716240158,-0.0489587959706514
0.2727813720703125,0.169891357421875,9.68853759765625,0.008762060664594173,0.01362034771591425,0.1170157715678215,0.006119849496331425,-0.05333011703945956,0.09092347823120975
0.253631591796875,0.1722869873046875,9.650253295898438,0.008762060664594173,0.01362034771591425,0.1170157715678215,0.076060986597262,0.08655215716240158,-0.0489587959706514
0.263214111328125,0.1627044677734375,9.650253295898438,0.022169124335050583,0,0.1442573070526123,0.076060986597262,0.01661102006147101,0.09092347823120975
0.2584228515625,0.169891357421875,9.667007446289062,0.02206544205546379,0,0.15787848830223083,-0.06382128760459914,0.01661102006147101,0.09092347823120975
0.2656097412109375,0.1555328369140625,9.67657470703125,0.022067338228225708,0,0.15787848830223083,0.076060986597262,-0.05333011703945956,0.02098234113027917
0.2464599609375,0.1603240966796875,9.686141967773438,0.03568768501281738,0.01362034771591425,0.14425814151763916,0.076060986597262,0.01661102006147101,0.09092347823120975
0.251251220703125,0.169891357421875,9.695724487304688,0.02207115665078163,0,0.13063612580299377,0.006119849496331425,-0.05333011703945956,0.09092347823120975
0.2823486328125,0.169891357421875,9.68853759765625,0.022073106840252876,0,0.13063612580299377,0.006119849496331425,0.01661102006147101,0.02098234113027917
0.263214111328125,0.1603240966796875,9.650253295898438,0.03580484911799431,0,0.11701244860887527,0.006119849496331425,0.01661102006147101,0.09092347823120975
0.2799530029296875,0.1627044677734375,9.705291748046875,0.03581056743860245,0,0.1442514806985855,0.006119849496331425,-0.05333011703945956,0.1608646153321403
0.2560272216796875,0.1794586181640625,9.669403076171875,0.03581440821290016,0,0.1442514806985855,0.006119849496331425,0.08655215716240158,0.1608646153321403
0.2560272216796875,0.1722869873046875,9.66461181640625,0.03571254760026932,0,0.14425314962863922,0.006119849496331425,0.01661102006147101,0.09092347823120975
0.2464599609375,0.1722869873046875,9.671783447265625,0.03571636602282524,0,0.14425314962863922,0.006119849496331425,0.01661102006147101,0.09092347823120975
0.2560272216796875,0.1746826171875,9.650253295898438,0.035718366503715515,0,0.13063280284404755,0.006119849496331425,-0.05333011703945956,0.1608646153321403
0.263214111328125,0.1507415771484375,9.695724487304688,0.02210370823740959,0,0.14425314962863922,0.076060986597262,0.01661102006147101,0.1608646153321403
0.275177001953125,0.1555328369140625,9.681365966796875,0.021996183320879936,0.01362034771591425,0.11701328307390213,0.076060986597262,0.15736755847709377,0.02098234113027917
0.2775726318359375,0.1962127685546875,9.683746337890625,0.021779026836156845,0.01362034771591425,0.11701827496290207,-0.1337624247055297,-0.05333011703945956,0.02098234113027917
0.275177001953125,0.1962127685546875,9.674179077148438,0.021992286667227745,0,0.1306336224079132,0.076060986597262,0.01661102006147101,0.09092347823120975
0.2847442626953125,0.157928466796875,9.683746337890625,0.021775206550955772,0,0.13063612580299377,-0.1337624247055297,-0.05333011703945956,0.02098234113027917
0.2560272216796875,0.1674957275390625,9.686141967773438,0.021773258224129677,0,0.13063612580299377,-0.1337624247055297,-0.12414551835415176,0.1608646153321403
0.253631591796875,0.1674957275390625,9.674179077148438,0.021775206550955772,0.01362034771591425,0.1170157715678215,0.006119849496331425,0.08655215716240158,-0.11889993307158198
0.275177001953125,0.1603240966796875,9.693328857421875,0.021884655579924583,0,0.10339958220720291,0.3558255350009843,0.22643443136426272,0.09092347823120975
0.2656097412109375,0.17706298828125,9.678970336914062,0.021884655579924583,0,0.10339958220720291,-0.34358583600832143,-0.33309466544318184,0.3016211537477631
0.2727813720703125,0.18902587890625,9.690933227539062,0.008156729862093925,0,0.1170215904712677,-0.5542835115248748,-0.05333011703945956,0.02098234113027917
0.251251220703125,0.1794586181640625,9.681365966796875,0.021452421322464943,0,0.11702492088079453,0.3558255350009843,-0.12414551835415176,0.3016211537477631
0.275177001953125,0.1603240966796875,9.671783447265625,0.021450551226735115,0,0.11702076345682144,0.076060986597262,-0.40391006675787405,0.5105703008367931
0.2703857421875,0.1722869873046875,9.690933227539062,0.00782822910696268,-0.01362034771591425,0.13063529133796692,-0.6233503844120437,-0.6836746151615963,0.5105703008367931
0.2679901123046875,0.169891357421875,9.70050048828125,0.03506700322031975,0,0.11701910197734833,-0.2745189631211525,-0.6836746151615963,0.6504525750386543
0.2679901123046875,0.1794586181640625,9.690933227539062,0.035395581275224686,0,0.1170099601149559,0.3558255350009843,0.9966612036882606,-0.46860561857623484
0.2727813720703125,0.1746826171875,9.702896118164062,0.021888526156544685,0,0.1169966608285904,-0.34358583600832143,0.9258458023735684,-0.6793032940927881
0.2799530029296875,0.1746826171875,9.690933227539062,0.021782871335744858,0,0.11698667705059052,-1.3236360196351111,0.15736755847709377,-0.3995387456890659
0.2679901123046875,0.1555328369140625,9.695724487304688,0.02166573330760002,0,0.11702409386634827,-0.8340480599285971,-1.243203711969041,0.5813857021514853
0.2608184814453125,0.1627044677734375,9.698104858398438,0.022537995129823685,0.01362034771591425,0.11698085814714432,-0.2037035618064603,1.6951983104838046,-0.8891267053955799
0.263214111328125,0.1722869873046875,9.695724487304688,0.021022213622927666,0,0.13061700761318207,-1.2536948825341805,-0.893498026464388,0.370688026634932
0.2823486328125,0.1674957275390625,9.698104858398438,0.021022213622927666,0,0.13061700761318207,1.6165145312452578,-0.40391006675787405,0.6504525750386543
0.2799530029296875,0.1627044677734375,9.693328857421875,0.020916661247611046,0,0.11699581891298294,-1.0438714712313888,0.9966612036882606,-0.8891267053955799
0.2775726318359375,0.1627044677734375,9.693328857421875,0.005986101925373077,0.01362034771591425,0.11706316471099854,1.6855814041324269,1.3463668891929135,-0.2596564714872047
0.275177001953125,0.169891357421875,9.714859008789062,0.005780610255897045,0.0272406954318285,0.1170274168252945,-1.4643925580507338,-1.1033214377671798,0.5813857021514853
0.2560272216796875,0.1603240966796875,9.702896118164062,0.007621308322995901,0,0.11702907085418701,0.3558255350009843,0.7859635281717073,-0.8191855682946493
0.275177001953125,0.17706298828125,9.702896118164062,0.02057698927819729,0,0.11701661348342896,0.7064054847193988,-1.9434893471921082,1.4914947486773444
0.2656097412109375,0.1746826171875,9.705291748046875,0.02341303788125515,0.01362034771591425,0.1169118657708168,-2.373627340362831,-0.6128592138469041,-0.2596564714872047
0.2703857421875,0.17706298828125,9.702896118164062,0.013688905164599419,0,0.11690272390842438,-1.2536948825341805,0.36631670556612383,-1.2388323909002328
0.2608184814453125,0.1842498779296875,9.690933227539062,0.025515055283904076,0,0.11699249595403671,1.8962790796489801,0.6460812539698462,-0.6793032940927881
0.2584228515625,0.1674957275390625,9.698104858398438,0.025515055283904076,0,0.11699249595403671,2.8055138619610775,-0.6128592138469041,0.8611502505552077
0.2608184814453125,0.1722869873046875,9.693328857421875,0.025525784119963646,0.01362034771591425,0.1167755201458931,2.7346984606463853,-1.1033214377671798,1.3516124744754832
0.263214111328125,0.1794586181640625,9.68853759765625,0.02819964848458767,0.01362034771591425,0.11653777211904526,2.454933912242663,-0.5437923409597352,1.7004438957663746
0.2656097412109375,0.16510009765625,9.690933227539062,0.02889561839401722,0.0272406954318285,0.11644715070724487,2.1751693638389407,-0.12414551835415176,1.6313770228792055
0.2560272216796875,0.1627044677734375,9.690933227539062,0.029315616935491562,0.0272406954318285,0.11630748957395554,1.6855814041324269,-0.472976939645043,1.211730200273622
0.2727813720703125,0.1674957275390625,9.695724487304688,0.030457980930805206,0.04086104407906532,0.11615951359272003,2.315051638040802,-0.472976939645043,0.8611502505552077
0.2799530029296875,0.1627044677734375,9.702896118164062,0.03057701513171196,0.04086104407906532,0.11608219891786575,2.8745807348482466,0.6460812539698462,0.09092347823120975
0.263214111328125,0.1722869873046875,9.683746337890625,0.027216404676437378,0.04086104407906532,0.11600406467914581,1.0561111702240515,2.7451896312115247,-1.0989501166983715
0.2703857421875,0.1674957275390625,9.70050048828125,0.018735017627477646,0.04086104407906532,0.08904019743204117,-3.633442072393343,0.15736755847709377,-0.11889993307158198
0.2679901123046875,0.1674957275390625,9.702896118164062,0.01818315126001835,0.04086104407906532,0.08920063078403473,-2.23374506616097,-2.0833716213939693,1.1409147989589299
0.2943115234375,0.1555328369140625,9.693328857421875,0.011741772294044495,0.054481390863657,0.11631248146295547,3.1552195474657303,0.36631670556612383,0.3016211537477631
0.2727813720703125,0.1746826171875,9.717254638671875,0.02089863270521164,0.04086104407906532,0.08910753577947617,-3.0739129755858987,0.7859635281717073,-0.9590678424965104
0.2584228515625,0.169891357421875,9.693328857421875,0.02089863270521164,0.04086104407906532,0.08910753577947617,2.1751693638389407,-1.5937836616874554,1.1409147989589299
0.2679901123046875,0.169891357421875,9.707687377929688,0.02521435171365738,0.0272406954318285,0.10272455215454102,3.225160684566661,1.7660137117984969,-0.5394210198909271
0.2608184814453125,0.17706298828125,9.693328857421875,0.008232198655605316,0.0272406954318285,0.1028384417295456,-1.744157106454456,-1.243203711969041,1.0709736618579992
0.275177001953125,0.1627044677734375,9.717254638671875,0.009753799997270107,0.0272406954318285,0.10282431542873383,-0.41440123732301365,0.15736755847709377,-0.7483701669799571
0.2799530029296875,0.1842498779296875,9.72442626953125,0.01006105076521635,0.0272406954318285,0.10283761471509933,1.7563968054471188,1.6951983104838046,-0.0489587959706514
0.263214111328125,0.1722869873046875,9.695724487304688,0.021294886246323586,0.0272406954318285,0.10293072462081909,-2.3036862032619005,-0.1932123912413207,-0.608487892778096
0.2679901123046875,0.15313720703125,9.707687377929688,0.023683423176407814,0.0272406954318285,0.1028766855597496,2.454933912242663,2.045778260202219,-0.5394210198909271
0.2703857421875,0.1746826171875,9.705291748046875,0.02119164541363716,0.0272406954318285,0.10295898467302322,0.5665232105175376,-0.5437923409597352,0.3016211537477631
0.2775726318359375,0.1674957275390625,9.71246337890625,0.02119164541363716,0.0272406954318285,0.10295898467302322,1.6855814041324269,0.7859635281717073,0.4415034279496242
0.2775726318359375,0.1674957275390625,9.71246337890625,0.02119164541363716,0.0272406954318285,0.10295898467302322,1.6855814041324269,0.7859635281717073,0.4415034279496242
0.2727813720703125,0.1674957275390625,9.695724487304688,0.00777985667809844,0.0272406954318285,0.10293903201818466,0.8462877589212598,-1.7336659358893165,0.9302171234423766
0.2727813720703125,0.1746826171875,9.72442626953125,0.023551659658551216,0.0272406954318285,0.11656520515680313,0.7754723576065677,-0.472976939645043,0.7212679763533465
0.275177001953125,0.1842498779296875,9.7220458984375,0.02246943861246109,0.0272406954318285,0.08937853574752808,1.3367499828415355,0.01661102006147101,0.4415034279496242
0.2656097412109375,0.16510009765625,9.705291748046875,0.02246304601430893,0.0272406954318285,0.08940431475639343,0.076060986597262,-0.2640277925560129,-0.11889993307158198
0.2799530029296875,0.169891357421875,9.719650268554688,0.007973657920956612,0.0272406954318285,0.08947581052780151,0.006119849496331425,1.2064846149910524,-0.2596564714872047
0.2775726318359375,0.193817138671875,9.731613159179688,0.008294288069009781,0.01362034771591425,0.08947663754224777,-0.06382128760459914,0.22643443136426272,0.09092347823120975
0.263214111328125,0.1674957275390625,9.70050048828125,0.008294288069009781,0.01362034771591425,0.08947663754224777,0.28675866211381534,0.6460812539698462,-0.11889993307158198
0.2727813720703125,0.16510009765625,9.714859008789062,-0.005872262641787529,0,0.08951488137245178,0.076060986597262,-0.6128592138469041,0.370688026634932
0.263214111328125,0.1794586181640625,9.702896118164062,0.022123530507087708,0.01362034771591425,0.08952901512384415,0.28675866211381534,0.43713210688081605,-0.18884107017251253
0.2679901123046875,0.1627044677734375,9.71246337890625,0.02146787941455841,0.01362034771591425,0.0895547866821289,-0.1337624247055297,0.43713210688081605,0.1608646153321403
0.2727813720703125,0.1674957275390625,9.705291748046875,0.021898189559578896,0.01362034771591425,0.10317928344011307,0.28675866211381534,0.7168966552845384,0.02098234113027917
0.2823486328125,0.1914215087890625,9.743576049804688,0.007837321609258652,0.01362034771591425,0.10321253538131714,0.14600212369819257,-0.1932123912413207,0.1608646153321403
0.2823486328125,0.1722869873046875,9.705291748046875,-0.0053547401912510395,0,0.08958637714385986,-0.1337624247055297,0.22643443136426272,0.09092347823120975
0.263214111328125,0.1555328369140625,9.717254638671875,0.021879928186535835,0.01362034771591425,0.10323415696620941,0.076060986597262,0.08655215716240158,0.09092347823120975
0.263214111328125,0.1555328369140625,9.698104858398438,0.021760346367955208,0.0272406954318285,0.08964124321937561,0.21594326079912313,-0.12414551835415176,0.1608646153321403
0.2823486328125,0.169891357421875,9.72442626953125,0.02175637148320675,0.0272406954318285,0.0896512120962143,0.28675866211381534,0.01661102006147101,0.09092347823120975
0.275177001953125,0.1722869873046875,9.714859008789062,0.00823565386235714,0.01362034771591425,0.08967365324497223,-0.06382128760459914,-0.05333011703945956,0.02098234113027917
0.2703857421875,0.1746826171875,9.702896118164062,0.008225755766034126,0.01362034771591425,0.10331811755895615,-0.06382128760459914,0.15736755847709377,0.09092347823120975
0.2799530029296875,0.181854248046875,9.7220458984375,0.008006755262613297,0.01362034771591425,0.10333807021379471,0.21594326079912313,0.01661102006147101,0.09092347823120975
0.2799530029296875,0.145965576171875,9.707687377929688,0.02172691375017166,0,0.10335636138916016,0.076060986597262,-0.05333011703945956,0.09092347823120975
0.2847442626953125,0.1914215087890625,9.726821899414062,0.00788171961903572,0,0.10338544845581055,0.076060986597262,0.08655215716240158,0.1608646153321403
0.2823486328125,0.1603240966796875,9.7220458984375,0.007772141136229038,0,0.07615888863801956,0.21594326079912313,0.01661102006147101,0.09092347823120975
0.275177001953125,0.1603240966796875,9.71246337890625,0.007656925357878208,0.01362034771591425,0.08980417996644974,0.006119849496331425,-0.12414551835415176,0.02098234113027917
0.2799530029296875,0.169891357421875,9.693328857421875,0.0077550471760332584,0.01362034771591425,0.10344364494085312,0.006119849496331425,0.01661102006147101,0.02098234113027917
0.2703857421875,0.1674957275390625,9.72442626953125,0.007749383337795734,0.01362034771591425,0.10345694422721863,0.076060986597262,0.01661102006147101,0.09092347823120975
0.2775726318359375,0.1555328369140625,9.702896118164062,0.021360378712415695,0,0.07624036073684692,0.14600212369819257,-0.05333011703945956,0.02098234113027917
0.2775726318359375,0.17706298828125,9.714859008789062,0.021349208429455757,0.01362034771591425,0.10350184142589569,0.076060986597262,0.01661102006147101,0.02098234113027917
0.2799530029296875,0.1794586181640625,9.72442626953125,0.021343648433685303,0.01362034771591425,0.10351347178220749,0.006119849496331425,-0.05333011703945956,0.1608646153321403
0.2727813720703125,0.15313720703125,9.710067749023438,0.007715974934399128,0,0.08991474658250809,0.21594326079912313,0.01661102006147101,0.02098234113027917
0.2823486328125,0.1914215087890625,9.731613159179688,0.0076010446064174175,0.01362034771591425,0.08992721885442734,-0.06382128760459914,-0.05333011703945956,0.09092347823120975
0.287139892578125,0.169891357421875,9.71246337890625,0.0076010446064174175,0.01362034771591425,0.08993053436279297,0.21594326079912313,0.08655215716240158,-0.0489587959706514
0.2775726318359375,0.1842498779296875,9.719650268554688,0.0076010446064174175,0,0.08992471545934677,-0.06382128760459914,0.08655215716240158,0.02098234113027917
0.2823486328125,0.1722869873046875,9.719650268554688,0.0212213397026062,0,0.10354756563901901,0.28675866211381534,0.01661102006147101,0.02098234113027917
0.253631591796875,0.1627044677734375,9.707687377929688,0.0212213397026062,0,0.10354756563901901,0.006119849496331425,-0.12414551835415176,0.2308057524330709
0.275177001953125,0.157928466796875,9.707687377929688,0.021330788731575012,0.01362034771591425,0.10354423522949219,-0.1337624247055297,0.01661102006147101,0.1608646153321403
0.251251220703125,0.181854248046875,9.710067749023438,0.021225029602646828,0,0.10355088859796524,0.28675866211381534,0.01661102006147101,0.1608646153321403
0.2608184814453125,0.1722869873046875,9.717254638671875,0.021117424592375755,0,0.1035517156124115,0.14600212369819257,-0.05333011703945956,0.3016211537477631
0.2799530029296875,0.1842498779296875,9.726821899414062,0.007393162697553635,-0.01362034771591425,0.07631268352270126,0.006119849496331425,-0.12414551835415176,0.1608646153321403
0.2775726318359375,0.1674957275390625,9.71246337890625,0.020904088392853737,0,0.08993801474571228,-0.1337624247055297,-0.12414551835415176,0.02098234113027917
0.2679901123046875,0.1674957275390625,9.71246337890625,0.02090224251151085,0,0.0899413451552391,0.076060986597262,0.01661102006147101,0.02098234113027917
0.2656097412109375,0.1746826171875,9.707687377929688,0.007283714134246111,0,0.08994551002979279,0.076060986597262,0.15736755847709377,0.09092347823120975
0.2823486328125,0.1722869873046875,9.707687377929688,0.007177928928285837,0,0.08994882553815842,-0.06382128760459914,0.08655215716240158,0.02098234113027917
0.2895355224609375,0.2010040283203125,9.7220458984375,0.007068532519042492,0,0.07633347064256668,0.006119849496331425,0.01661102006147101,0.09092347823120975
0.2823486328125,0.1986083984375,9.729217529296875,0.007072169333696365,-0.01362034771591425,0.07633097469806671,0.14600212369819257,0.08655215716240158,0.09092347823120975
0.2584228515625,0.1794586181640625,9.741180419921875,0.020588574931025505,0,0.07633180916309357,0.006119849496331425,0.08655215716240158,0.09092347823120975
0.275177001953125,0.18902587890625,9.7340087890625,0.02048099786043167,0,0.07633679360151291,0.076060986597262,0.01661102006147101,0.2308057524330709
0.2799530029296875,0.16510009765625,9.717254638671875,0.006756735499948263,-0.01362034771591425,0.07634011656045914,0.076060986597262,0.08655215716240158,0.09092347823120975
0.2727813720703125,0.1603240966796875,9.717254638671875,0.0067585539072752,0.01362034771591425,0.08996047079563141,0.14600212369819257,0.01661102006147101,0.1608646153321403
0.2799530029296875,0.1674957275390625,9.71246337890625,0.006758528295904398,0.01362034771591425,0.08996213227510452,0.006119849496331425,-0.05333011703945956,0.02098234113027917
0.2703857421875,0.17706298828125,9.738784790039062,0.006754891015589237,0.01362034771591425,0.10358662903308868,0.006119849496331425,-0.05333011703945956,0.1608646153321403
0.2560272216796875,0.157928466796875,9.72442626953125,0.006760346237570047,0,0.07634759694337845,0.076060986597262,-0.05333011703945956,0.09092347823120975
0.2703857421875,0.1722869873046875,9.717254638671875,0.006760346237570047,0,0.07634759694337845,-0.06382128760459914,0.01661102006147101,0.1608646153321403
0.2584228515625,0.1722869873046875,9.71246337890625,0.02027488313615322,0.01362034771591425,0.10359328240156174,0.076060986597262,0.01661102006147101,0.1608646153321403
0.263214111328125,0.1674957275390625,9.717254638671875,0.020382512360811234,0.01362034771591425,0.08996961265802383,0.006119849496331425,-0.05333011703945956,0.1608646153321403
0.2560272216796875,0.1627044677734375,9.743576049804688,0.020382512360811234,0.01362034771591425,0.08996961265802383,0.006119849496331425,0.01661102006147101,0.02098234113027917
0.2799530029296875,0.169891357421875,9.72442626953125,0.020380718633532524,0,0.07635508477687836,0.076060986597262,0.01661102006147101,0.02098234113027917
0.2727813720703125,0.157928466796875,9.707687377929688,0.006756813731044531,0,0.08997876197099686,-0.06382128760459914,-0.05333011703945956,0.02098234113027917
0.2943115234375,0.1866455078125,9.7340087890625,0.006756813731044531,0,0.08998042345046997,0.006119849496331425,0.01661102006147101,0.09092347823120975
0.275177001953125,0.157928466796875,9.714859008789062,0.00675863167271018,0.01362034771591425,0.0899837389588356,0.076060986597262,0.01661102006147101,0.1608646153321403
0.263214111328125,0.15313720703125,9.714859008789062,0.020380746573209763,0.01362034771591425,0.08998624235391617,0.006119849496331425,0.01661102006147101,0.09092347823120975
0.275177001953125,0.1627044677734375,9.717254638671875,0.02027316763997078,0.01362034771591425,0.08999121934175491,0.21594326079912313,0.01661102006147101,0.09092347823120975
0.2679901123046875,0.169891357421875,9.719650268554688,0.00665281992405653,0,0.07636672258377075,0.14600212369819257,-0.05333011703945956,0.02098234113027917
0.275177001953125,0.1722869873046875,9.731613159179688,0.02026952989399433,0,0.10360409319400787,0.14600212369819257,-0.05333011703945956,0.02098234113027917
0.2895355224609375,0.16510009765625,9.71246337890625,0.006647312548011541,0,0.08998208492994308,0.076060986597262,0.01661102006147101,0.09092347823120975
0.2703857421875,0.17706298828125,9.719650268554688,0.006645520683377981,0,0.07636339217424393,0.076060986597262,0.01661102006147101,0.1608646153321403
0.2895355224609375,0.169891357421875,9.717254638671875,0.020267685875296593,0,0.07636672258377075,0.006119849496331425,0.01661102006147101,0.09092347823120975
0.2703857421875,0.1866455078125,9.738784790039062,0.02026776410639286,0,0.07636921852827072,0.14600212369819257,0.01661102006147101,0.09092347823120975
0.275177001953125,0.1746826171875,9.7220458984375,0.006645520683377981,0,0.07636672258377075,0.076060986597262,-0.05333011703945956,0.09092347823120975
0.2775726318359375,0.1866455078125,9.7340087890625,0.020267635583877563,0,0.07636672258377075,0.076060986597262,0.08655215716240158,0.09092347823120975
0.2727813720703125,0.169891357421875,9.698104858398438,0.020267711952328682,0,0.07636921852827072,0.006119849496331425,0.01661102006147101,0.1608646153321403
0.2608184814453125,0.17706298828125,9.731613159179688,0.02016187459230423,0,0.08999372273683548,-0.06382128760459914,0.08655215716240158,0.09092347823120975
0.2560272216796875,0.1746826171875,9.707687377929688,0.03367464616894722,0,0.09000036120414734,0.076060986597262,0.01661102006147101,0.09092347823120975
0.287139892578125,0.1962127685546875,9.7340087890625,0.03356524929404259,0,0.09000369161367416,0.006119849496331425,0.08655215716240158,0.02098234113027917
0.2584228515625,0.1722869873046875,9.719650268554688,0.006109423004090786,0,0.07638916373252869,0.14600212369819257,0.15736755847709377,0.09092347823120975
0.2847442626953125,0.181854248046875,9.71246337890625,-0.0077261063270270824,-0.01362034771591425,0.07639165967702866,0.14600212369819257,0.01661102006147101,0.02098234113027917
0.2656097412109375,0.193817138671875,9.738784790039062,-0.0077261063270270824,-0.01362034771591425,0.07639165967702866,0.006119849496331425,-0.05333011703945956,0.09092347823120975
0.2823486328125,0.1674957275390625,9.71246337890625,0.005784844513982534,0,0.09001533687114716,0.076060986597262,0.01661102006147101,0.09092347823120975
0.2775726318359375,0.169891357421875,9.719650268554688,0.005567870102822781,0.01362034771591425,0.09002115577459335,0.006119849496331425,0.01661102006147101,0.09092347823120975
0.2775726318359375,0.1746826171875,9.702896118164062,0.005566051229834557,0.01362034771591425,0.09002364426851273,0.076060986597262,-0.05333011703945956,0.02098234113027917
0.2823486328125,0.17706298828125,9.714859008789062,0.019182762131094933,0,0.07640496641397476,0.14600212369819257,-0.05333011703945956,0.09092347823120975
0.2656097412109375,0.1794586181640625,9.738784790039062,0.019179150462150574,0,0.07640662044286728,0.006119849496331425,0.08655215716240158,0.02098234113027917
0.2679901123046875,0.1627044677734375,9.714859008789062,0.01907157152891159,0,0.07640911638736725,0.076060986597262,-0.05333011703945956,0.1608646153321403
0.2823486328125,0.193817138671875,9.73638916015625,0.00545304361730814,0,0.09003112465143204,0.14600212369819257,0.01661102006147101,0.1608646153321403
0.2799530029296875,0.1674957275390625,9.7220458984375,0.0054566808976233006,0,0.09002946317195892,0.14600212369819257,-0.05333011703945956,0.1608646153321403
0.275177001953125,0.1986083984375,9.743576049804688,0.005458473227918148,0,0.07640745490789413,0.076060986597262,0.08655215716240158,0.1608646153321403
0.275177001953125,0.1794586181640625,9.731613159179688,0.005356324836611748,0,0.09003112465143204,0.006119849496331425,0.01661102006147101,0.1608646153321403
0.2775726318359375,0.1866455078125,9.731613159179688,0.005359935574233532,0,0.09003445506095886,0.006119849496331425,0.01661102006147101,0.2308057524330709
0.275177001953125,0.16510009765625,9.698104858398438,0.0053635467775166035,0,0.09003611654043198,0.076060986597262,-0.05333011703945956,0.09092347823120975
0.275177001953125,0.1627044677734375,9.714859008789062,0.005365313496440649,0.01362034771591425,0.10365895926952362,0.006119849496331425,-0.05333011703945956,0.1608646153321403
0.2775726318359375,0.16510009765625,9.71246337890625,0.005372509825974703,0,0.09004027396440506,0.076060986597262,0.01661102006147101,0.1608646153321403
0.275177001953125,0.169891357421875,9.7220458984375,0.0053743282333016396,0,0.09004193544387817,0.076060986597262,0.01661102006147101,0.09092347823120975
0.2656097412109375,0.1842498779296875,9.7340087890625,0.0053743282333016396,0,0.09004193544387817,0.14600212369819257,0.08655215716240158,0.09092347823120975
0.253631591796875,0.18902587890625,9.729217529296875,0.03250923752784729,0,0.07642491161823273,0.076060986597262,0.01661102006147101,0.2308057524330709
0.263214111328125,0.1627044677734375,9.719650268554688,0.03251102939248085,0,0.07642657309770584,0.076060986597262,0.01661102006147101,0.09092347823120975
0.2608184814453125,0.18902587890625,9.743576049804688,0.01878313161432743,0,0.09005025029182434,0.14600212369819257,0.08655215716240158,0.09092347823120975
0.2727813720703125,0.181854248046875,9.729217529296875,0.01878313161432743,0,0.09005025029182434,0.006119849496331425,0.01661102006147101,0.1608646153321403
0.263214111328125,0.157928466796875,9.71246337890625,0.01867729239165783,0,0.07643073052167892,0.006119849496331425,-0.05333011703945956,0.09092347823120975
0.2727813720703125,0.1722869873046875,9.717254638671875,0.005058738403022289,0,0.0900568962097168,0.006119849496331425,0.08655215716240158,0.09092347823120975
0.2703857421875,0.17706298828125,9.7340087890625,-0.00856163538992405,-0.01362034771591425,0.07643987983465195,0.006119849496331425,0.01661102006147101,0.1608646153321403
0.2847442626953125,0.1842498779296875,9.731613159179688,-0.00856163538992405,-0.01362034771591425,0.07644154131412506,0.006119849496331425,0.01661102006147101,0.09092347823120975
0.2775726318359375,0.1794586181640625,9.72442626953125,0.005056919530034065,-0.01362034771591425,0.07644486427307129,0.076060986597262,0.01661102006147101,0.09092347823120975
0.2847442626953125,0.1674957275390625,9.71246337890625,0.005055101588368416,0,0.09006354957818985,0.14600212369819257,-0.05333011703945956,0.02098234113027917
0.2727813720703125,0.15313720703125,9.714859008789062,0.005055127199739218,0,0.09006521105766296,0.006119849496331425,0.01661102006147101,0.09092347823120975
0.287139892578125,0.18902587890625,9.729217529296875,0.018567897379398346,0,0.0900702029466629,0.076060986597262,-0.05333011703945956,0.1608646153321403
0.2608184814453125,0.1746826171875,9.707687377929688,0.018567897379398346,0,0.0900702029466629,0.14600212369819257,0.01661102006147101,0.02098234113027917
0.2656097412109375,0.1674957275390625,9.717254638671875,0.018462060019373894,0,0.07645151019096375,-0.06382128760459914,-0.05333011703945956,0.02098234113027917
0.2823486328125,0.1674957275390625,9.710067749023438,-0.008778661489486694,-0.01362034771591425,0.07645317912101746,0.21594326079912313,0.08655215716240158,0.09092347823120975
0.2775726318359375,0.17706298828125,9.72442626953125,-0.008778661489486694,-0.01362034771591425,0.07645317912101746,0.076060986597262,-0.05333011703945956,0.09092347823120975
0.29193115234375,0.1986083984375,9.719650268554688,0.01835268922150135,0,0.09007269889116287,0.076060986597262,0.01661102006147101,0.02098234113027917
0.251251220703125,0.1722869873046875,9.71246337890625,0.031969476491212845,-0.01362034771591425,0.09007684886455536,0.076060986597262,-0.05333011703945956,0.02098234113027917
0.29193115234375,0.1842498779296875,9.710067749023438,0.004725249018520117,-0.01362034771591425,0.07645650207996368,0.006119849496331425,0.01661102006147101,0.02098234113027917
0.275177001953125,0.16510009765625,9.719650268554688,0.004725249018520117,-0.01362034771591425,0.0764581710100174,0.076060986597262,0.08655215716240158,0.02098234113027917
0.2727813720703125,0.1603240966796875,9.719650268554688,0.01834559626877308,-0.01362034771591425,0.0764581710100174,0.006119849496331425,0.01661102006147101,0.09092347823120975
0.2847442626953125,0.1746826171875,9.726821899414062,0.004725249018520117,0,0.07646148651838303,0.076060986597262,-0.05333011703945956,0.09092347823120975
0.2967071533203125,0.1842498779296875,9.717254638671875,0.004617644939571619,0,0.07646232098340988,0.14600212369819257,0.01661102006147101,0.1608646153321403
0.2775726318359375,0.16510009765625,9.717254638671875,-0.009106694720685482,-0.01362034771591425,0.09008599072694778,0.14600212369819257,-0.05333011703945956,0.1608646153321403
0.2823486328125,0.1794586181640625,9.7220458984375,-0.009106694720685482,-0.01362034771591425,0.09008599072694778,0.14600212369819257,0.01661102006147101,0.2308057524330709
0.2703857421875,0.181854248046875,9.731613159179688,0.01802816241979599,-0.01362034771591425,0.06284696608781815,0.006119849496331425,0.01661102006147101,0.09092347823120975
0.2799530029296875,0.1842498779296875,9.731613159179688,0.01802816241979599,-0.01362034771591425,0.06284696608781815,0.076060986597262,-0.05333011703945956,0.09092347823120975
0.2679901123046875,0.1746826171875,9.719650268554688,0.017927728593349457,0,0.07647395879030228,0.21594326079912313,0.08655215716240158,0.2308057524330709
0.263214111328125,0.169891357421875,9.698104858398438,0.017931262031197548,0,0.07647229731082916,0.006119849496331425,0.01661102006147101,0.2308057524330709
0.2799530029296875,0.1914215087890625,9.750747680664062,0.0043180580250918865,-0.01362034771591425,0.06285527348518372,0.076060986597262,0.01661102006147101,0.1608646153321403
0.2560272216796875,0.169891357421875,9.702896118164062,0.01793661341071129,0,0.10371964424848557,0.076060986597262,0.08655215716240158,0.02098234113027917
0.2727813720703125,0.1722869873046875,9.72442626953125,0.01793656125664711,0,0.10371964424848557,0.076060986597262,-0.05333011703945956,0.09092347823120975
0.2679901123046875,0.15313720703125,9.68853759765625,0.0043162135407328606,0,0.090100958943367,0.006119849496331425,0.01661102006147101,0.1608646153321403
0.263214111328125,0.1866455078125,9.7459716796875,0.01794019713997841,-0.01362034771591425,0.06286358833312988,0.006119849496331425,0.01661102006147101,0.1608646153321403
0.2799530029296875,0.2033843994140625,9.743576049804688,0.00432161707431078,-0.0272406954318285,0.07648560404777527,0.076060986597262,-0.05333011703945956,0.1608646153321403
0.2823486328125,0.18902587890625,9.726821899414062,0.0043251244351267815,-0.01362034771591425,0.09010594338178635,-0.06382128760459914,0.01661102006147101,0.09092347823120975
0.2823486328125,0.1986083984375,9.714859008789062,0.0043251244351267815,0,0.09011010080575943,0.076060986597262,0.08655215716240158,0.09092347823120975
0.2847442626953125,0.18902587890625,9.717254638671875,-0.009402827359735966,-0.0272406954318285,0.09011260420084,0.006119849496331425,0.01661102006147101,0.1608646153321403
0.2775726318359375,0.1986083984375,9.73638916015625,0.004219312686473131,-0.0272406954318285,0.07649557292461395,0.006119849496331425,0.08655215716240158,0.1608646153321403
0.2943115234375,0.2105712890625,9.738784790039062,0.004005845170468092,-0.0272406954318285,0.0901259034872055,0.006119849496331425,0.08655215716240158,0.09092347823120975
0.263214111328125,0.1746826171875,9.731613159179688,0.003898319322615862,-0.0272406954318285,0.09013088792562485,0.076060986597262,0.01661102006147101,0.02098234113027917
0.2679901123046875,0.1603240966796875,9.710067749023438,0.003898319322615862,-0.0272406954318285,0.09013088792562485,0.076060986597262,0.08655215716240158,0.2308057524330709
0.275177001953125,0.17706298828125,9.731613159179688,0.017411010339856148,0,0.09013421088457108,0.006119849496331425,0.01661102006147101,0.02098234113027917
0.2584228515625,0.1627044677734375,9.731613159179688,0.00368485227227211,-0.01362034771591425,0.07651885598897934,0.14600212369819257,0.08655215716240158,0.1608646153321403
0.2560272216796875,0.16510009765625,9.7220458984375,0.00368485227227211,-0.01362034771591425,0.07651885598897934,0.006119849496331425,0.01661102006147101,0.1608646153321403
0.2775726318359375,0.1746826171875,9.719650268554688,0.01709355041384697,0,0.07652217894792557,0.006119849496331425,0.01661102006147101,0.09092347823120975
0.2823486328125,0.18902587890625,9.741180419921875,0.0034749696496874094,0,0.09014667570590973,0.006119849496331425,-0.05333011703945956,0.09092347823120975
0.2679901123046875,0.1794586181640625,9.729217529296875,0.0033655990846455097,-0.01362034771591425,0.07653298228979111,0.14600212369819257,0.01661102006147101,0.1608646153321403
0.2703857421875,0.181854248046875,9.731613159179688,0.0033690803684294224,0,0.09015333652496338,0.076060986597262,0.08655215716240158,0.1608646153321403
0.2895355224609375,0.1603240966796875,9.707687377929688,0.0033690803684294224,0,0.09015333652496338,0.14600212369819257,0.08655215716240158,0.1608646153321403
0.275177001953125,0.1794586181640625,9.72442626953125,0.0031556650064885616,-0.01362034771591425,0.07654129713773727,0.076060986597262,-0.05333011703945956,0.1608646153321403
0.2775726318359375,0.1866455078125,9.738784790039062,0.0031556650064885616,-0.01362034771591425,0.07654129713773727,0.076060986597262,0.01661102006147101,0.02098234113027917
0.2679901123046875,0.16510009765625,9.726821899414062,0.0031539241317659616,-0.01362034771591425,0.07654129713773727,0.14600212369819257,0.01661102006147101,0.09092347823120975
0.2703857421875,0.1746826171875,9.729217529296875,0.0031539241317659616,-0.01362034771591425,0.07654129713773727,0.14600212369819257,-0.05333011703945956,0.09092347823120975
0.287139892578125,0.1866455078125,9.729217529296875,0.0031539760529994965,-0.0272406954318285,0.07653713971376419,0.076060986597262,-0.05333011703945956,0.09092347823120975
0.2679901123046875,0.1674957275390625,9.707687377929688,-0.010573974810540676,-0.01362034771591425,0.07653963565826416,0.076060986597262,0.01661102006147101,0.09092347823120975
0.275177001953125,0.157928466796875,9.698104858398438,-0.010573897510766983,-0.01362034771591425,0.07653797417879105,0.14600212369819257,0.08655215716240158,0.02098234113027917
0.275177001953125,0.193817138671875,9.7340087890625,0.003046424128115177,-0.01362034771591425,0.0901566594839096,0.006119849496331425,-0.05333011703945956,0.09092347823120975
0.2727813720703125,0.1914215087890625,9.729217529296875,0.0029370535630732775,-0.0272406954318285,0.07654129713773727,0.076060986597262,0.01661102006147101,0.09092347823120975
0.2560272216796875,0.17706298828125,9.714859008789062,0.002829501638188958,-0.0272406954318285,0.07654295861721039,0.076060986597262,-0.05333011703945956,0.1608646153321403
0.2775726318359375,0.15313720703125,9.710067749023438,0.030070196837186813,0,0.09016330540180206,0.006119849496331425,0.01661102006147101,0.02098234113027917
0.2656097412109375,0.1674957275390625,9.693328857421875,0.0028295274823904037,0,0.09016164392232895,0.076060986597262,0.01661102006147101,0.09092347823120975
0.287139892578125,0.1794586181640625,9.729217529296875,0.0028277093078941107,0,0.09016164392232895,0.006119849496331425,0.01661102006147101,0.09092347823120975
0.2823486328125,0.1794586181640625,9.7220458984375,0.0028277351520955563,-0.01362034771591425,0.09016663581132889,0.006119849496331425,-0.05333011703945956,0.09092347823120975
0.2656097412109375,0.1794586181640625,9.705291748046875,0.0028277351520955563,-0.01362034771591425,0.09016663581132889,0.076060986597262,0.01661102006147101,0.09092347823120975
0.2775726318359375,0.193817138671875,9.726821899414062,0.0028277351520955563,-0.01362034771591425,0.09016663581132889,0.076060986597262,0.08655215716240158,0.09092347823120975
0.2608184814453125,0.1746826171875,9.726821899414062,0.016340505331754684,0,0.09016912430524826,-0.06382128760459914,0.01661102006147101,0.1608646153321403
0.2823486328125,0.1962127685546875,9.710067749023438,0.016342218965291977,0,0.07655293494462967,0.14600212369819257,-0.05333011703945956,0.09092347823120975
0.2679901123046875,0.1746826171875,9.702896118164062,0.016342218965291977,0,0.07655293494462967,0.076060986597262,0.08655215716240158,0.02098234113027917
0.275177001953125,0.18902587890625,9.729217529296875,0.002721871715039015,-0.01362034771591425,0.09017495065927505,0.006119849496331425,-0.05333011703945956,0.1608646153321403
0.2679901123046875,0.16510009765625,9.719650268554688,0.016232848167419434,-0.01362034771591425,0.07656041532754898,-0.06382128760459914,0.01661102006147101,0.1608646153321403
0.2823486328125,0.193817138671875,9.7340087890625,0.002615982200950384,-0.01362034771591425,0.07656623423099518,0.006119849496331425,-0.05333011703945956,0.09092347823120975
0.2608184814453125,0.169891357421875,9.719650268554688,0.029750866815447807,0,0.09019073843955994,0.006119849496331425,0.08655215716240158,0.09092347823120975
0.275177001953125,0.1746826171875,9.714859008789062,0.029643263667821884,0,0.09019573032855988,0.076060986597262,-0.05333011703945956,0.09092347823120975
0.2703857421875,0.1603240966796875,9.705291748046875,0.029643263667821884,0,0.09019573032855988,0.076060986597262,0.01661102006147101,0.1608646153321403
0.2608184814453125,0.1555328369140625,9.741180419921875,0.0024025668390095234,-0.01362034771591425,0.09019739180803299,0.006119849496331425,0.01661102006147101,0.09092347823120975
0.2775726318359375,0.1866455078125,9.729217529296875,0.01602468080818653,0,0.06295918673276901,0.076060986597262,0.01661102006147101,0.09092347823120975
0.2679901123046875,0.1746826171875,9.726821899414062,0.01602468080818653,0,0.06295918673276901,0.006119849496331425,0.01661102006147101,0.09092347823120975
0.2799530029296875,0.1674957275390625,9.70050048828125,0.002404333557933569,0,0.10382188856601715,0.076060986597262,0.01661102006147101,0.09092347823120975
0.2679901123046875,0.169891357421875,9.710067749023438,0.002404333557933569,0,0.10382188856601715,0.076060986597262,0.01661102006147101,0.09092347823120975
0.2608184814453125,0.181854248046875,9.7340087890625,0.015917101874947548,0,0.10382521897554398,0.076060986597262,0.01661102006147101,0.09092347823120975
0.2775726318359375,0.193817138671875,9.7340087890625,0.01591884344816208,-0.01362034771591425,0.07658452540636063,0.076060986597262,0.01661102006147101,0.02098234113027917
0.2895355224609375,0.1986083984375,9.7220458984375,0.0022967553231865168,-0.01362034771591425,0.0902048721909523,0.076060986597262,0.01661102006147101,0.02098234113027917
0.2799530029296875,0.181854248046875,9.7220458984375,0.0022950146812945604,-0.01362034771591425,0.0902048721909523,0.006119849496331425,0.08655215716240158,0.02098234113027917
0.2703857421875,0.1842498779296875,9.73638916015625,0.01580427773296833,-0.01362034771591425,0.10382937639951706,0.14600212369819257,0.08655215716240158,0.02098234113027917
0.2679901123046875,0.1914215087890625,9.738784790039062,0.001965318340808153,-0.01362034771591425,0.07659533619880676,0.076060986597262,0.01661102006147101,0.02098234113027917
0.2775726318359375,0.169891357421875,9.707687377929688,0.01558387279510498,-0.0272406954318285,0.0765928402543068,0.14600212369819257,0.08655215716240158,0.02098234113027917
0.2775726318359375,0.1746826171875,9.729217529296875,0.01558387279510498,-0.0272406954318285,0.0765928402543068,0.076060986597262,0.08655215716240158,0.09092347823120975
0.263214111328125,0.169891357421875,9.7220458984375,0.0017465773271396756,0,0.07659699767827988,0.14600212369819257,0.01661102006147101,0.02098234113027917
0.2608184814453125,0.1603240966796875,9.729217529296875,0.0017465773271396756,0,0.07659699767827988,0.14600212369819257,0.08655215716240158,0.09092347823120975
0.2823486328125,0.16510009765625,9.7220458984375,0.015361650846898556,0,0.09021235257387161,0.006119849496331425,0.01661102006147101,0.1608646153321403
0.251251220703125,0.1794586181640625,9.68853759765625,0.0016354663530364633,-0.01362034771591425,0.07659699767827988,0.076060986597262,0.08655215716240158,0.09092347823120975
0.275177001953125,0.17706298828125,9.719650268554688,0.0016373108373954892,-0.01362034771591425,0.07659865915775299,0.14600212369819257,0.01661102006147101,0.2308057524330709
0.241668701171875,0.1722869873046875,9.726821899414062,0.0016407400835305452,-0.01362034771591425,0.09021901339292526,0.006119849496331425,0.01661102006147101,0.1608646153321403
0.2703857421875,0.169891357421875,9.714859008789062,0.02888668328523636,0,0.0766003206372261,0.076060986597262,0.01661102006147101,0.02098234113027917
0.2823486328125,0.2010040283203125,9.731613159179688,0.028886733576655388,0,0.0766003206372261,0.076060986597262,-0.05333011703945956,0.09092347823120975
0.275177001953125,0.1722869873046875,9.714859008789062,0.015266386792063713,0,0.09022067487239838,0.076060986597262,0.01661102006147101,0.09092347823120975
0.2703857421875,0.181854248046875,9.717254638671875,0.0016460397746413946,0,0.0902223289012909,0.076060986597262,0.01661102006147101,0.1608646153321403
0.2656097412109375,0.1722869873046875,9.72442626953125,0.0016477801837027073,0,0.0902223289012909,0.076060986597262,0.01661102006147101,0.09092347823120975
0.2727813720703125,0.169891357421875,9.717254638671875,0.01526812743395567,0,0.0902223289012909,0.076060986597262,0.08655215716240158,0.09092347823120975
0.2799530029296875,0.1914215087890625,9.7340087890625,0.001541942823678255,0,0.10384850203990936,0.14600212369819257,0.08655215716240158,0.1608646153321403
0.2727813720703125,0.1914215087890625,9.729217529296875,0.0015436572721228004,-0.01362034771591425,0.0766061395406723,0.14600212369819257,0.08655215716240158,0.1608646153321403
0.263214111328125,0.17706298828125,9.729217529296875,0.0014395604375749826,0,0.09022815525531769,0.006119849496331425,0.01661102006147101,0.1608646153321403
0.2679901123046875,0.1722869873046875,9.714859008789062,0.01506341528147459,-0.01362034771591425,0.0766119584441185,-0.06382128760459914,-0.05333011703945956,0.1608646153321403
0.2679901123046875,0.16510009765625,9.719650268554688,0.015065129846334457,-0.01362034771591425,0.07661279290914536,0.076060986597262,0.01661102006147101,0.1608646153321403
0.2727813720703125,0.169891357421875,9.695724487304688,0.01506863720715046,0,0.090235635638237,0.076060986597262,0.01661102006147101,0.09092347823120975
0.287139892578125,0.1962127685546875,9.72442626953125,0.015070350840687752,0,0.10385598242282867,0.14600212369819257,0.08655215716240158,0.1608646153321403
0.275177001953125,0.1627044677734375,9.707687377929688,0.01496448740363121,0,0.10385680943727493,0.006119849496331425,0.01661102006147101,0.1608646153321403
0.2679901123046875,0.1603240966796875,9.707687377929688,0.0013476477470248938,-0.01362034771591425,0.09023979306221008,0.076060986597262,0.01661102006147101,0.09092347823120975
0.275177001953125,0.181854248046875,9.726821899414062,0.0013493623118847609,-0.01362034771591425,0.07661944627761841,0.006119849496331425,0.01661102006147101,0.1608646153321403
0.2775726318359375,0.2010040283203125,9.7459716796875,0.0013493623118847609,-0.01362034771591425,0.07661944627761841,0.076060986597262,-0.05333011703945956,0.09092347823120975
0.2775726318359375,0.181854248046875,9.7220458984375,0.0013511287979781628,-0.01362034771591425,0.0766235962510109,0.14600212369819257,0.08655215716240158,0.09092347823120975
0.2703857421875,0.169891357421875,9.707687377929688,0.001245317398570478,-0.01362034771591425,0.09024477750062943,0.076060986597262,-0.05333011703945956,0.1608646153321403
0.2823486328125,0.16510009765625,9.70050048828125,0.001245317398570478,-0.01362034771591425,0.09024477750062943,0.076060986597262,-0.05333011703945956,0.1608646153321403
0.2703857421875,0.1674957275390625,9.719650268554688,0.014867380261421204,0,0.09024477750062943,0.076060986597262,-0.05333011703945956,0.02098234113027917
0.2703857421875,0.1794586181640625,9.729217529296875,0.014867380261421204,0,0.07662443071603775,0.076060986597262,0.01661102006147101,0.09092347823120975
0.263214111328125,0.1603240966796875,9.707687377929688,0.014867380261421204,0,0.07662443071603775,0.14600212369819257,0.08655215716240158,0.09092347823120975
0.275177001953125,0.169891357421875,9.70050048828125,0.0010336166014894843,0,0.10386761277914047,0.14600212369819257,0.01661102006147101,0.02098234113027917
0.2799530029296875,0.1866455078125,9.729217529296875,0.0009242200176231563,-0.01362034771591425,0.07662941515445709,0.006119849496331425,0.08655215716240158,0.02098234113027917
0.2823486328125,0.1866455078125,9.714859008789062,0.0008149274508468807,-0.01362034771591425,0.07663440704345703,0.076060986597262,0.01661102006147101,0.09092347823120975
0.263214111328125,0.169891357421875,9.714859008789062,0.014433534815907478,-0.01362034771591425,0.10387344658374786,0.076060986597262,0.01661102006147101,0.09092347823120975
0.2656097412109375,0.1794586181640625,9.707687377929688,0.014433534815907478,0,0.10387344658374786,0.076060986597262,0.01661102006147101,0.1608646153321403
0.2775726318359375,0.157928466796875,9.71246337890625,0.000814875471405685,0,0.10387509316205978,0.14600212369819257,0.01661102006147101,0.09092347823120975
0.2560272216796875,0.1555328369140625,9.717254638671875,0.014438704587519169,0,0.09025641530752182,0.006119849496331425,-0.05333011703945956,0.09092347823120975
0.2727813720703125,0.1866455078125,9.73638916015625,0.014436989091336727,0,0.09025890380144119,0.076060986597262,0.01661102006147101,-0.0489587959706514
0.2727813720703125,0.1962127685546875,9.743576049804688,0.01443524844944477,0,0.09025890380144119,0.006119849496331425,0.15736755847709377,0.02098234113027917
0.2727813720703125,0.145965576171875,9.717254638671875,0.0005979788838885725,0,0.0902663990855217,0.14600212369819257,0.01661102006147101,0.09092347823120975
0.2679901123046875,0.1866455078125,9.738784790039062,0.014220093376934528,0,0.0766427218914032,0.14600212369819257,0.01661102006147101,0.1608646153321403
0.2727813720703125,0.17706298828125,9.726821899414062,0.014220093376934528,0,0.0766427218914032,0.006119849496331425,0.01661102006147101,0.02098234113027917
0.2823486328125,0.1914215087890625,9.73638916015625,0.014220093376934528,0,0.09026306867599487,0.14600212369819257,0.01661102006147101,0.1608646153321403
0.2679901123046875,0.1555328369140625,9.719650268554688,-0.013232302851974964,-0.01362034771591425,0.09026722609996796,0.076060986597262,0.01661102006147101,0.09092347823120975
0.2727813720703125,0.1674957275390625,9.710067749023438,-0.013232302851974964,-0.01362034771591425,0.09026722609996796,0.076060986597262,0.01661102006147101,0.02098234113027917
0.2679901123046875,0.1674957275390625,9.702896118164062,0.014006677083671093,0,0.09026888757944107,0.006119849496331425,-0.05333011703945956,0.02098234113027917
0.2703857421875,0.181854248046875,9.731613159179688,0.0002769594721030444,-0.01362034771591425,0.07665518671274185,0.006119849496331425,0.15736755847709377,0.09092347823120975
0.29193115234375,0.1866455078125,9.719650268554688,0.00006182942888699472,-0.01362034771591425,0.07666267454624176,0.076060986597262,0.01661102006147101,0.09092347823120975
0.2775726318359375,0.169891357421875,9.7220458984375,0.00006182942888699472,0,0.09028302133083344,0.076060986597262,0.08655215716240158,0.09092347823120975
0.2560272216796875,0.1866455078125,9.73638916015625,0.027304239571094513,-0.01362034771591425,0.09028302133083344,0.14600212369819257,0.01661102006147101,0.1608646153321403
0.2679901123046875,0.16510009765625,9.71246337890625,0.027305979281663895,-0.01362034771591425,0.09028467535972595,0.076060986597262,-0.05333011703945956,0.09092347823120975
0.275177001953125,0.193817138671875,9.7340087890625,0.013685631565749645,0,0.09028717875480652,0.076060986597262,0.08655215716240158,0.09092347823120975
0.2727813720703125,0.1842498779296875,9.72442626953125,0.013685631565749645,0,0.09028717875480652,0.076060986597262,-0.05333011703945956,0.09092347823120975
0.2727813720703125,0.169891357421875,9.72442626953125,-0.00004229340629535727,-0.01362034771591425,0.07666849344968796,0.006119849496331425,0.01661102006147101,0.02098234113027917
0.2799530029296875,0.16510009765625,9.714859008789062,-0.00004229340629535727,-0.01362034771591425,0.07666849344968796,0.076060986597262,0.01661102006147101,0.09092347823120975
0.2799530029296875,0.2010040283203125,9.731613159179688,-0.00004055282988701947,0,0.09029465913772583,0.006119849496331425,0.08655215716240158,0.1608646153321403
0.2847442626953125,0.1986083984375,9.726821899414062,-0.00014639025903306901,-0.0272406954318285,0.07667846977710724,0.006119849496331425,0.08655215716240158,0.2308057524330709
0.275177001953125,0.1674957275390625,9.714859008789062,-0.00014639025903306901,-0.0272406954318285,0.07667846977710724,0.076060986597262,0.01661102006147101,0.1608646153321403
0.275177001953125,0.169891357421875,9.707687377929688,-0.00014119451225269586,0,0.09030131250619888,0.14600212369819257,-0.05333011703945956,0.1608646153321403
0.2703857421875,0.181854248046875,9.72442626953125,-0.00013602474064100534,-0.01362034771591425,0.0903029665350914,-0.1337624247055297,-0.05333011703945956,0.2308057524330709
0.2775726318359375,0.16510009765625,9.719650268554688,-0.00013602474064100534,-0.01362034771591425,0.0903029665350914,0.076060986597262,0.08655215716240158,0.1608646153321403
0.275177001953125,0.17706298828125,9.72442626953125,-0.00013085496902931482,0,0.09030795842409134,0.076060986597262,-0.05333011703945956,0.09092347823120975
0.2895355224609375,0.1914215087890625,9.72442626953125,-0.00012914037506561726,0,0.09030795842409134,0.076060986597262,-0.05333011703945956,0.09092347823120975
0.2679901123046875,0.1603240966796875,9.714859008789062,-0.00013085496902931482,0,0.09030795842409134,0.006119849496331425,0.01661102006147101,0.09092347823120975
0.2608184814453125,0.1603240966796875,9.710067749023438,-0.00013085496902931482,0,0.09030961990356445,0.076060986597262,0.01661102006147101,0.09092347823120975
0.2656097412109375,0.1794586181640625,9.7340087890625,0.013487777672708035,0,0.10393162816762924,0.006119849496331425,0.01661102006147101,0.02098234113027917
0.263214111328125,0.1674957275390625,9.698104858398438,0.013487777672708035,0,0.10393162816762924,0.006119849496331425,-0.05333011703945956,0.02098234113027917
0.2799530029296875,0.169891357421875,9.717254638671875,0.013376771472394466,0,0.10393994301557541,0.076060986597262,-0.05333011703945956,0.09092347823120975
0.2679901123046875,0.1674957275390625,9.707687377929688,0.013375082053244114,0,0.09032125771045685,0.14600212369819257,0.08655215716240158,0.09092347823120975
0.2703857421875,0.1627044677734375,9.714859008789062,0.013375082053244114,0,0.09032125771045685,0.006119849496331425,0.08655215716240158,0.09092347823120975
0.2727813720703125,0.16510009765625,9.71246337890625,-0.00046387658221647143,0,0.09032873809337616,0.14600212369819257,0.01661102006147101,0.1608646153321403
0.2679901123046875,0.17706298828125,9.702896118164062,0.013154782354831696,0,0.09033039957284927,0.14600212369819257,0.01661102006147101,0.09092347823120975
0.2775726318359375,0.1794586181640625,9.714859008789062,0.013154755346477032,0,0.09032873809337616,0.006119849496331425,0.01661102006147101,0.1608646153321403
0.2895355224609375,0.17706298828125,9.717254638671875,-0.0005713766440749168,-0.01362034771591425,0.10395573824644089,-0.06382128760459914,-0.05333011703945956,0.09092347823120975
0.2703857421875,0.1722869873046875,9.714859008789062,-0.014191724359989166,-0.01362034771591425,0.09033705294132233,0.076060986597262,0.01661102006147101,0.1608646153321403
0.2656097412109375,0.169891357421875,9.719650268554688,-0.01419177558273077,-0.01362034771591425,0.09033871442079544,0.076060986597262,0.08655215716240158,0.02098234113027917
0.2799530029296875,0.169891357421875,9.717254638671875,-0.0005714286235161126,0,0.09033871442079544,0.076060986597262,0.01661102006147101,-0.0489587959706514
0.2775726318359375,0.157928466796875,9.714859008789062,-0.0006824358133599162,0,0.09034204483032227,0.14600212369819257,-0.05333011703945956,0.02098234113027917
0.2679901123046875,0.169891357421875,9.702896118164062,-0.0006823838339187205,0,0.09034038335084915,0.14600212369819257,0.08655215716240158,0.1608646153321403
0.2823486328125,0.1842498779296875,9.726821899414062,0.012828645296394825,0,0.10395990312099457,0.076060986597262,-0.05333011703945956,0.09092347823120975
0.2823486328125,0.1603240966796875,9.717254638671875,-0.0007899878546595573,-0.01362034771591425,0.0903395414352417,0.006119849496331425,0.01661102006147101,0.09092347823120975
0.2464599609375,0.1842498779296875,9.707687377929688,-0.0007899878546595573,-0.01362034771591425,0.09034121036529541,0.076060986597262,-0.05333011703945956,0.02098234113027917
0.2775726318359375,0.1722869873046875,9.7220458984375,0.026448966935276985,-0.01362034771591425,0.1039632186293602,0.006119849496331425,-0.05333011703945956,0.09092347823120975
0.287139892578125,0.169891357421875,9.710067749023438,0.012828619219362736,0,0.09034453332424164,0.006119849496331425,0.01661102006147101,0.09092347823120975
0.29193115234375,0.193817138671875,9.714859008789062,0.012830385938286781,0,0.09034620225429535,0.076060986597262,-0.05333011703945956,0.02098234113027917
0.275177001953125,0.1794586181640625,9.7220458984375,-0.0007917024195194244,0,0.10396821051836014,0.076060986597262,-0.05333011703945956,0.02098234113027917
0.2775726318359375,0.169891357421875,9.714859008789062,-0.0010068845003843307,-0.01362034771591425,0.09035201370716095,0.14600212369819257,-0.05333011703945956,0.02098234113027917
0.2727813720703125,0.16510009765625,9.7220458984375,-0.0010068845003843307,-0.01362034771591425,0.09035201370716095,0.076060986597262,-0.05333011703945956,0.02098234113027917
0.275177001953125,0.1914215087890625,9.726821899414062,0.012394852004945278,0,0.09035534411668777,0.14600212369819257,0.15736755847709377,0.02098234113027917
0.2823486328125,0.157928466796875,9.726821899414062,0.012283870950341225,-0.01362034771591425,0.09035783261060715,0.076060986597262,0.08655215716240158,0.02098234113027917
0.2679901123046875,0.1794586181640625,9.729217529296875,0.012282155454158783,-0.01362034771591425,0.09036033600568771,0.14600212369819257,0.08655215716240158,0.09092347823120975
0.2895355224609375,0.1842498779296875,9.717254638671875,0.012278752401471138,-0.01362034771591425,0.0767408162355423,0.006119849496331425,-0.05333011703945956,0.02098234113027917
0.2847442626953125,0.157928466796875,9.70050048828125,-0.015072950161993504,-0.01362034771591425,0.09036615490913391,0.076060986597262,0.08655215716240158,0.09092347823120975
0.2847442626953125,0.193817138671875,9.72442626953125,-0.01507292315363884,-0.01362034771591425,0.09036781638860703,0.076060986597262,0.01661102006147101,0.02098234113027917
0.2775726318359375,0.1722869873046875,9.71246337890625,-0.0014542904682457447,0,0.09036781638860703,0.076060986597262,0.01661102006147101,0.02098234113027917
0.2584228515625,0.169891357421875,9.70050048828125,-0.0016728757182136178,0,0.10399231314659119,0.006119849496331425,0.15736755847709377,0.02098234113027917
0.287139892578125,0.193817138671875,9.7220458984375,-0.0016745643224567175,0,0.1039939746260643,0.076060986597262,0.08655215716240158,0.1608646153321403
0.2847442626953125,0.1674957275390625,9.71246337890625,-0.001997376326471567,-0.01362034771591425,0.09038443863391876,0.076060986597262,0.01661102006147101,0.09092347823120975
0.2703857421875,0.1603240966796875,9.714859008789062,-0.001997376326471567,0,0.09038610756397247,0.076060986597262,0.01661102006147101,0.1608646153321403
0.253631591796875,0.17706298828125,9.710067749023438,0.01162135973572731,0,0.09038776904344559,0.076060986597262,-0.12414551835415176,0.02098234113027917
0.2584228515625,0.1722869873046875,9.70050048828125,0.02535094879567623,0,0.09038443863391876,0.006119849496331425,0.01661102006147101,0.09092347823120975
0.275177001953125,0.1674957275390625,9.7220458984375,0.011836465448141098,0,0.10400395840406418,0.14600212369819257,0.08655215716240158,0.2308057524330709
0.2560272216796875,0.181854248046875,9.695724487304688,0.011838257312774658,0,0.10400395840406418,0.006119849496331425,-0.12414551835415176,0.1608646153321403
0.2679901123046875,0.1794586181640625,9.729217529296875,0.025571221485733986,-0.01362034771591425,0.11762097477912903,0.076060986597262,0.01661102006147101,0.09092347823120975
0.2775726318359375,0.1722869873046875,9.719650268554688,0.012058504857122898,-0.01362034771591425,0.07676076889038086,0.076060986597262,-0.05333011703945956,0.09092347823120975
0.29193115234375,0.1674957275390625,9.705291748046875,0.012056817300617695,-0.01362034771591425,0.07675910741090775,0.076060986597262,-0.12414551835415176,0.09092347823120975
0.2584228515625,0.16510009765625,9.719650268554688,-0.0014559272676706314,0,0.0903761237859726,0.006119849496331425,-0.12414551835415176,0.09092347823120975
0.2823486328125,0.1627044677734375,9.707687377929688,0.012377914041280746,0,0.09037363529205322,0.076060986597262,-0.05333011703945956,0.09092347823120975
0.2703857421875,0.1866455078125,9.741180419921875,0.012377914041280746,0,0.09037363529205322,0.076060986597262,-0.05333011703945956,0.02098234113027917
0.275177001953125,0.1674957275390625,9.714859008789062,-0.0011382849188521504,0,0.09037113934755325,0.006119849496331425,-0.12414551835415176,0.1608646153321403
0.287139892578125,0.1794586181640625,9.71246337890625,-0.0009196997270919383,0,0.09036615490913391,0.076060986597262,-0.12414551835415176,0.09092347823120975
0.2775726318359375,0.17706298828125,9.719650268554688,-0.0008104851003736258,0,0.09036365896463394,0.14600212369819257,-0.05333011703945956,0.09092347823120975
0.2799530029296875,0.1794586181640625,9.714859008789062,-0.0007011924171820283,0,0.090358667075634,0.076060986597262,-0.05333011703945956,0.1608646153321403
0.287139892578125,0.2033843994140625,9.729217529296875,0.012920896522700787,0,0.090358667075634,0.076060986597262,-0.05333011703945956,0.1608646153321403
0.2656097412109375,0.181854248046875,9.729217529296875,0.012920896522700787,0,0.090358667075634,0.006119849496331425,0.01661102006147101,0.09092347823120975
0.263214111328125,0.1627044677734375,9.70050048828125,-0.0006977632874622941,-0.0272406954318285,0.07673998177051544,0.076060986597262,-0.12414551835415176,0.1608646153321403
0.2727813720703125,0.169891357421875,9.70050048828125,0.013031902723014355,0,0.10397818684577942,0.006119849496331425,0.15736755847709377,0.1608646153321403
0.2847442626953125,0.1914215087890625,9.729217529296875,0.013035228475928307,0,0.10397901386022568,0.006119849496331425,0.01661102006147101,0.1608646153321403
0.2679901123046875,0.16510009765625,9.714859008789062,-0.000796872191131115,-0.01362034771591425,0.07674746215343475,0.076060986597262,0.01661102006147101,0.1608646153321403
0.2727813720703125,0.1866455078125,9.738784790039062,0.01282687857747078,0,0.09036781638860703,0.006119849496331425,-0.1932123912413207,0.1608646153321403
0.2656097412109375,0.169891357421875,9.7220458984375,-0.0006876055849716067,-0.01362034771591425,0.0767466351389885,0.006119849496331425,0.08655215716240158,0.09092347823120975
0.2775726318359375,0.1603240966796875,9.719650268554688,0.013042060658335686,0,0.1039881631731987,0.14600212369819257,-0.05333011703945956,0.09092347823120975
0.275177001953125,0.157928466796875,9.710067749023438,-0.0004707089683506638,0,0.07674413919448853,0.14600212369819257,-0.05333011703945956,0.09092347823120975
0.2727813720703125,0.169891357421875,9.719650268554688,-0.00046899437438696623,0,0.07674413919448853,0.076060986597262,-0.12414551835415176,0.09092347823120975
0.2727813720703125,0.1603240966796875,9.705291748046875,0.013040345162153244,0,0.09036615490913391,-0.06382128760459914,-0.12414551835415176,0.1608646153321403
0.2679901123046875,0.1507415771484375,9.707687377929688,-0.0004706830077338964,0,0.10398649424314499,0.076060986597262,0.08655215716240158,0.09092347823120975
0.2775726318359375,0.1842498779296875,9.72442626953125,-0.0004706830077338964,0,0.1039881631731987,0.076060986597262,0.08655215716240158,0.1608646153321403
0.2775726318359375,0.17706298828125,9.731613159179688,-0.00046735774958506227,0,0.10399065166711807,0.006119849496331425,0.08655215716240158,0.1608646153321403
0.2775726318359375,0.1986083984375,9.73638916015625,-0.000463980482891202,0,0.07675162702798843,0.006119849496331425,0.01661102006147101,0.02098234113027917
0.2727813720703125,0.1866455078125,9.73638916015625,-0.000463980482891202,0,0.07675162702798843,0.076060986597262,-0.12414551835415176,0.1608646153321403
0.2775726318359375,0.1674957275390625,9.707687377929688,-0.0003597537288442254,0,0.09037196636199951,0.006119849496331425,0.08655215716240158,0.02098234113027917
0.275177001953125,0.16510009765625,9.714859008789062,0.013262360356748104,0,0.10399564355611801,0.076060986597262,-0.05333011703945956,0.1608646153321403
0.263214111328125,0.1435699462890625,9.7220458984375,0.013263944536447525,0,0.10399564355611801,0.076060986597262,0.01661102006147101,0.1608646153321403
0.2656097412109375,0.1794586181640625,9.707687377929688,0.013265606947243214,0.01362034771591425,0.09037778526544571,0.006119849496331425,0.01661102006147101,0.1608646153321403
0.287139892578125,0.18902587890625,9.719650268554688,-0.0003513366391416639,-0.01362034771591425,0.09038194268941879,0.076060986597262,0.01661102006147101,0.2308057524330709
0.275177001953125,0.1722869873046875,9.729217529296875,-0.0003480633022263646,-0.01362034771591425,0.09038194268941879,0.006119849496331425,-0.05333011703945956,0.1608646153321403
0.275177001953125,0.1722869873046875,9.7220458984375,-0.0003446860646363348,-0.01362034771591425,0.09038526564836502,0.076060986597262,0.01661102006147101,0.09092347823120975
0.251251220703125,0.1842498779296875,9.690933227539062,-0.0003429974603932351,0,0.09038693457841873,0.076060986597262,0.01661102006147101,0.1608646153321403
0.275177001953125,0.1722869873046875,9.71246337890625,-0.0003413607773836702,0,0.09038693457841873,0.076060986597262,-0.05333011703945956,0.2308057524330709
0.2608184814453125,0.1722869873046875,9.705291748046875,0.01317642256617546,0,0.09038776904344559,0.006119849496331425,0.01661102006147101,0.09092347823120975
0.2703857421875,0.17706298828125,9.707687377929688,0.012961267493665218,0,0.10401559621095657,0.076060986597262,0.01661102006147101,0.1608646153321403
0.2703857421875,0.17706298828125,9.71246337890625,0.012961267493665218,0,0.10401559621095657,0.076060986597262,0.08655215716240158,0.1608646153321403
0.2895355224609375,0.1962127685546875,9.72442626953125,0.012964540161192417,0,0.0903952494263649,0.006119849496331425,0.08655215716240158,0.2308057524330709
0.2727813720703125,0.169891357421875,9.698104858398438,-0.0007583976839669049,-0.01362034771591425,0.07678154855966568,0.14600212369819257,-0.05333011703945956,0.1608646153321403
0.2823486328125,0.1674957275390625,9.72442626953125,-0.0007583976839669049,-0.01362034771591425,0.07678154855966568,0.076060986597262,0.01661102006147101,0.1608646153321403
0.251251220703125,0.16510009765625,9.72442626953125,-0.0007583976839669049,0,0.09040022641420364,0.076060986597262,-0.05333011703945956,0.1608646153321403
0.275177001953125,0.16510009765625,9.7220458984375,0.012861976400017738,0,0.09039857983589172,0.076060986597262,0.01661102006147101,0.09092347823120975
0.2584228515625,0.1746826171875,9.693328857421875,0.012860313057899475,0,0.09039857983589172,0.076060986597262,0.01661102006147101,0.09092347823120975
0.2823486328125,0.1722869873046875,9.72442626953125,-0.0007600343087688088,0,0.09039857983589172,-0.06382128760459914,-0.05333011703945956,0.09092347823120975
0.287139892578125,0.1746826171875,9.717254638671875,-0.0007633595960214734,0,0.09040439128875732,0.076060986597262,0.01661102006147101,0.09092347823120975
0.275177001953125,0.181854248046875,9.72442626953125,-0.0007633595960214734,0,0.09040439128875732,0.006119849496331425,0.01661102006147101,0.2308057524330709
0.2727813720703125,0.16510009765625,9.702896118164062,-0.0007616969523951411,0,0.09040439128875732,0.076060986597262,0.01661102006147101,0.1608646153321403
0.275177001953125,0.169891357421875,9.68853759765625,-0.0007633595960214734,0,0.104024738073349,0.076060986597262,-0.05333011703945956,0.2308057524330709
0.2775726318359375,0.1555328369140625,9.707687377929688,-0.0007633595960214734,0,0.104024738073349,-0.06382128760459914,0.01661102006147101,0.3016211537477631
0.2727813720703125,0.1627044677734375,9.707687377929688,-0.0007566571002826095,0,0.10402556508779526,0.076060986597262,0.01661102006147101,0.1608646153321403
0.287139892578125,0.1674957275390625,9.707687377929688,-0.0007566571002826095,0,0.10402972996234894,-0.06382128760459914,0.08655215716240158,0.2308057524330709
0.275177001953125,0.1722869873046875,9.7220458984375,-0.014377004466950893,0,0.09041354060173035,0.006119849496331425,-0.05333011703945956,0.09092347823120975
0.2727813720703125,0.1603240966796875,9.714859008789062,-0.014378641732037067,0,0.09041520208120346,0.076060986597262,0.01661102006147101,0.09092347823120975
0.2727813720703125,0.157928466796875,9.7220458984375,-0.0007616710499860346,0,0.09041686356067657,0.076060986597262,-0.05333011703945956,0.09092347823120975
0.2703857421875,0.1914215087890625,9.73638916015625,-0.0007632296765223145,0,0.09041686356067657,0.14600212369819257,-0.05333011703945956,0.09092347823120975
0.2775726318359375,0.1674957275390625,9.719650268554688,-0.0007649442995898426,-0.01362034771591425,0.07679485529661179,0.076060986597262,0.01661102006147101,0.1608646153321403
0.2775726318359375,0.157928466796875,9.717254638671875,-0.0007665809825994074,0,0.09041686356067657,-0.06382128760459914,-0.05333011703945956,0.1608646153321403
0.2679901123046875,0.1794586181640625,9.698104858398438,-0.0007682436262257397,0,0.09041935950517654,0.006119849496331425,0.08655215716240158,-0.0489587959706514
0.2679901123046875,0.1674957275390625,9.710067749023438,-0.0008807835401967168,-0.0272406954318285,0.09042517095804214,0.006119849496331425,0.08655215716240158,0.02098234113027917
0.2727813720703125,0.169891357421875,9.7220458984375,0.012732965871691704,0,0.09042850136756897,0.076060986597262,0.01661102006147101,0.09092347823120975
0.2656097412109375,0.1674957275390625,9.707687377929688,0.01273132860660553,0,0.09043016284704208,0.076060986597262,0.08655215716240158,0.09092347823120975
0.2703857421875,0.1794586181640625,9.72442626953125,0.012728055007755756,0,0.10405050963163376,0.14600212369819257,0.01661102006147101,0.09092347823120975
0.2560272216796875,0.1794586181640625,9.690933227539062,0.012724807485938072,0,0.0904318243265152,0.006119849496331425,0.08655215716240158,0.02098234113027917
0.263214111328125,0.18902587890625,9.73638916015625,0.012613904662430286,0,0.09043680876493454,0.076060986597262,0.01661102006147101,0.1608646153321403
0.2799530029296875,0.1603240966796875,9.71246337890625,0.012506325729191303,-0.01362034771591425,0.10405965149402618,0.076060986597262,0.01661102006147101,0.09092347823120975
0.2584228515625,0.17706298828125,9.72442626953125,-0.0011189827928319573,0,0.09044097363948822,0.006119849496331425,0.08655215716240158,0.09092347823120975
0.2847442626953125,0.1674957275390625,9.702896118164062,-0.0012282234383746982,-0.01362034771591425,0.0904451236128807,0.14600212369819257,-0.05333011703945956,0.09092347823120975
0.2727813720703125,0.1674957275390625,9.72442626953125,-0.0013407634105533361,0,0.09044845402240753,0.006119849496331425,-0.05333011703945956,0.09092347823120975
0.2727813720703125,0.1722869873046875,9.70050048828125,-0.0013440106995403767,0,0.09045011550188065,0.006119849496331425,0.01661102006147101,0.1608646153321403
0.2775726318359375,0.181854248046875,9.72442626953125,-0.0013440106995403767,-0.01362034771591425,0.09045178443193436,0.076060986597262,0.01661102006147101,0.09092347823120975
0.2679901123046875,0.169891357421875,9.70050048828125,-0.0013456993037834764,0,0.09045509994029999,0.076060986597262,0.01661102006147101,0.02098234113027917
0.2703857421875,0.1627044677734375,9.7220458984375,0.012269738130271435,-0.0272406954318285,0.09045842289924622,0.076060986597262,0.01661102006147101,0.02098234113027917
0.2799530029296875,0.181854248046875,9.7220458984375,0.012268179096281528,-0.0272406954318285,0.09046009182929993,0.076060986597262,0.08655215716240158,0.09092347823120975
0.2727813720703125,0.1866455078125,9.729217529296875,0.012051386758685112,-0.01362034771591425,0.09046590328216553,0.076060986597262,0.01661102006147101,0.09092347823120975
0.2727813720703125,0.1746826171875,9.71246337890625,-0.001568960607983172,-0.0272406954318285,0.07684556394815445,0.076060986597262,0.01661102006147101,-0.0489587959706514
0.2823486328125,0.1603240966796875,9.710067749023438,-0.0015705972909927368,-0.0272406954318285,0.07684556394815445,0.006119849496331425,0.01661102006147101,0.09092347823120975
0.2440643310546875,0.1722869873046875,9.710067749023438,-0.0016781754093244672,-0.01362034771591425,0.09047006815671921,0.006119849496331425,0.01661102006147101,0.02098234113027917
0.287139892578125,0.16510009765625,9.702896118164062,0.025560881942510605,-0.01362034771591425,0.10409457236528397,0.14600212369819257,0.01661102006147101,0.09092347823120975
0.275177001953125,0.1746826171875,9.702896118164062,0.011831320822238922,-0.01362034771591425,0.10409706085920334,0.006119849496331425,0.01661102006147101,0.02098234113027917
0.2703857421875,0.181854248046875,9.729217529296875,0.011829683557152748,-0.0272406954318285,0.10409872233867645,0.076060986597262,0.08655215716240158,0.02098234113027917
0.2608184814453125,0.1722869873046875,9.68853759765625,0.011718831956386566,-0.01362034771591425,0.0904817059636116,0.14600212369819257,0.08655215716240158,0.02098234113027917
0.2799530029296875,0.1603240966796875,9.686141967773438,0.011609592474997044,-0.01362034771591425,0.09048253297805786,-0.06382128760459914,0.01661102006147101,0.02098234113027917
0.2775726318359375,0.1962127685546875,9.719650268554688,-0.00201400276273489,0,0.11772489547729492,0.076060986597262,0.08655215716240158,0.02098234113027917
0.2799530029296875,0.1746826171875,9.717254638671875,-0.0022308474872261286,-0.04086104407906532,0.09049417823553085,0.076060986597262,0.01661102006147101,0.09092347823120975
0.2847442626953125,0.157928466796875,9.71246337890625,-0.0022308474872261286,-0.04086104407906532,0.09049417823553085,0.076060986597262,0.01661102006147101,0.09092347823120975
0.2560272216796875,0.1746826171875,9.705291748046875,-0.0022324840538203716,-0.01362034771591425,0.09049417823553085,0.006119849496331425,0.08655215716240158,0.09092347823120975
0.2775726318359375,0.1674957275390625,9.707687377929688,0.024898994714021683,-0.01362034771591425,0.09049749374389648,0.076060986597262,-0.05333011703945956,0.1608646153321403
0.287139892578125,0.1722869873046875,9.71246337890625,0.011280260048806667,-0.01362034771591425,0.11773819476366043,0.006119849496331425,0.01661102006147101,0.09092347823120975
0.2727813720703125,0.1794586181640625,9.729217529296875,-0.0023385032545775175,-0.01362034771591425,0.09050165861845016,0.076060986597262,0.01661102006147101,0.09092347823120975
0.275177001953125,0.169891357421875,9.72442626953125,0.011281844228506088,-0.01362034771591425,0.09050332009792328,0.076060986597262,0.08655215716240158,0.1608646153321403
0.2703857421875,0.1674957275390625,9.693328857421875,0.011283454485237598,-0.01362034771591425,0.09050332009792328,0.076060986597262,-0.05333011703945956,0.1608646153321403
0.2679901123046875,0.169891357421875,9.714859008789062,-0.002332008443772793,-0.01362034771591425,0.10412366688251495,0.006119849496331425,0.01661102006147101,0.1608646153321403
0.2656097412109375,0.1746826171875,9.710067749023438,-0.002332008443772793,-0.01362034771591425,0.10412366688251495,0.006119849496331425,-0.05333011703945956,0.1608646153321403
0.2775726318359375,0.1627044677734375,9.702896118164062,0.011293171904981136,-0.01362034771591425,0.09050747752189636,0.076060986597262,0.01661102006147101,0.09092347823120975
0.2823486328125,0.1674957275390625,9.698104858398438,0.011293144896626472,0,0.09050996601581573,0.076060986597262,0.01661102006147101,0.1608646153321403
0.275177001953125,0.181854248046875,9.695724487304688,0.011293144896626472,0,0.09050996601581573,0.006119849496331425,0.01661102006147101,0.1608646153321403
0.2799530029296875,0.1674957275390625,9.698104858398438,-0.002322370419278741,-0.0272406954318285,0.11775481700897217,0.076060986597262,0.01661102006147101,0.1608646153321403
0.2823486328125,0.1794586181640625,9.714859008789062,0.011301171965897083,-0.01362034771591425,0.09051578491926193,0.14600212369819257,0.01661102006147101,0.02098234113027917
0.2823486328125,0.1794586181640625,9.714859008789062,0.011301171965897083,-0.01362034771591425,0.09051578491926193,0.14600212369819257,0.01661102006147101,0.02098234113027917
0.2608184814453125,0.1746826171875,9.695724487304688,-0.002317512407898903,-0.0272406954318285,0.09051413089036942,0.076060986597262,-0.05333011703945956,0.09092347823120975
0.2679901123046875,0.1866455078125,9.693328857421875,0.011304446496069431,-0.01362034771591425,0.10413447767496109,0.076060986597262,0.01661102006147101,0.09092347823120975
0.2799530029296875,0.15313720703125,9.702896118164062,0.011195230297744274,-0.0272406954318285,0.10413946211338043,0.006119849496331425,0.01661102006147101,0.09092347823120975
0.2727813720703125,0.1866455078125,9.72442626953125,0.011195257306098938,-0.0272406954318285,0.10414111614227295,0.006119849496331425,-0.05333011703945956,0.09092347823120975
0.253631591796875,0.1842498779296875,9.68853759765625,0.011196894571185112,-0.0272406954318285,0.0905240997672081,0.076060986597262,0.01661102006147101,0.09092347823120975
0.2799530029296875,0.157928466796875,9.70050048828125,0.011196894571185112,-0.0272406954318285,0.0905240997672081,0.006119849496331425,0.01661102006147101,0.02098234113027917
0.2608184814453125,0.1722869873046875,9.710067749023438,0.011195283383131027,-0.0272406954318285,0.09052576124668121,0.076060986597262,0.01661102006147101,0.09092347823120975
0.2608184814453125,0.1722869873046875,9.710067749023438,0.011195283383131027,-0.0272406954318285,0.09052576124668121,0.076060986597262,0.01661102006147101,0.09092347823120975
0.2727813720703125,0.1722869873046875,9.726821899414062,-0.002426649210974574,-0.01362034771591425,0.09052743017673492,0.076060986597262,0.08655215716240158,0.02098234113027917
0.2560272216796875,0.1746826171875,9.698104858398438,-0.0025358637794852257,-0.01362034771591425,0.07690957188606262,0.076060986597262,0.08655215716240158,0.1608646153321403
0.2847442626953125,0.1603240966796875,9.710067749023438,0.011084483936429024,-0.01362034771591425,0.10415026545524597,0.076060986597262,0.01661102006147101,0.09092347823120975
0.2847442626953125,0.169891357421875,9.714859008789062,-0.002640220569446683,-0.01362034771591425,0.1041535884141922,0.14600212369819257,-0.05333011703945956,0.1608646153321403
0.2799530029296875,0.1627044677734375,9.698104858398438,-0.002638609614223242,-0.01362034771591425,0.09053324908018112,0.006119849496331425,0.01661102006147101,0.1608646153321403
0.275177001953125,0.15313720703125,9.698104858398438,-0.0026369469705969095,-0.01362034771591425,0.09053491055965424,0.076060986597262,0.01661102006147101,0.02098234113027917
0.2775726318359375,0.17706298828125,9.717254638671875,-0.0026370249688625336,0,0.10415691882371902,0.076060986597262,0.08655215716240158,0.09092347823120975
0.287139892578125,0.1794586181640625,9.717254638671875,-0.002640220569446683,-0.01362034771591425,0.1041594073176384,0.006119849496331425,-0.05333011703945956,0.1608646153321403
0.251251220703125,0.17706298828125,9.690933227539062,-0.0026385837700217962,-0.01362034771591425,0.10416191071271896,0.076060986597262,-0.05333011703945956,0.02098234113027917
0.2847442626953125,0.1555328369140625,9.705291748046875,-0.002640168648213148,-0.0272406954318285,0.0905432179570198,0.076060986597262,0.08655215716240158,0.09092347823120975
0.2823486328125,0.1627044677734375,9.707687377929688,-0.0027493832167237997,0,0.10416606068611145,0.076060986597262,0.01661102006147101,0.02098234113027917
0.2703857421875,0.1746826171875,9.693328857421875,-0.0028585719410330057,0,0.10416939109563828,0.076060986597262,0.01661102006147101,0.02098234113027917
0.2727813720703125,0.16510009765625,9.70050048828125,0.010758554562926292,-0.0272406954318285,0.10416939109563828,0.076060986597262,0.01661102006147101,0.09092347823120975
0.2823486328125,0.17706298828125,9.710067749023438,-0.002970981877297163,-0.01362034771591425,0.10417187958955765,0.006119849496331425,0.08655215716240158,0.09092347823120975
0.2847442626953125,0.1627044677734375,9.705291748046875,-0.002970981877297163,-0.01362034771591425,0.10417187958955765,0.076060986597262,0.01661102006147101,0.09092347823120975
0.2679901123046875,0.1674957275390625,9.710067749023438,-0.003295378526672721,-0.01362034771591425,0.09056483209133148,0.006119849496331425,0.01661102006147101,0.09092347823120975
0.253631591796875,0.17706298828125,9.702896118164062,0.010324968956410885,-0.01362034771591425,0.10418934375047684,0.076060986597262,0.08655215716240158,0.09092347823120975
0.275177001953125,0.17706298828125,9.707687377929688,0.01021580584347248,-0.01362034771591425,0.10419183224439621,0.076060986597262,0.01661102006147101,0.02098234113027917
0.2656097412109375,0.1674957275390625,9.705291748046875,-0.0034061260521411896,-0.01362034771591425,0.10419183224439621,0.006119849496331425,0.08655215716240158,0.09092347823120975
0.287139892578125,0.1603240966796875,9.710067749023438,0.010105033405125141,-0.01362034771591425,0.09057647734880447,0.076060986597262,0.01661102006147101,0.09092347823120975
0.2847442626953125,0.1842498779296875,9.719650268554688,0.010105033405125141,-0.01362034771591425,0.09057813137769699,0.006119849496331425,0.01661102006147101,0.02098234113027917
0.2799530029296875,0.1674957275390625,9.693328857421875,-0.003518484067171812,-0.01362034771591425,0.09057896584272385,0.076060986597262,0.01661102006147101,0.1608646153321403
0.2679901123046875,0.1722869873046875,9.695724487304688,-0.0036245035007596016,-0.01362034771591425,0.11782298982143402,0.006119849496331425,0.08655215716240158,0.09092347823120975
0.275177001953125,0.1555328369140625,9.710067749023438,0.009886655956506729,-0.01362034771591425,0.10420679301023483,0.076060986597262,0.01661102006147101,0.09092347823120975
0.2727813720703125,0.1722869873046875,9.717254638671875,0.009779050946235657,-0.01362034771591425,0.11783213168382645,0.076060986597262,0.01661102006147101,0.09092347823120975
0.3014984130859375,0.169891357421875,9.693328857421875,-0.0038397114258259535,-0.01362034771591425,0.10421344637870789,0.076060986597262,0.01661102006147101,0.09092347823120975
0.2799530029296875,0.1627044677734375,9.702896118164062,-0.0038412960711866617,-0.01362034771591425,0.1042151153087616,0.14600212369819257,-0.05333011703945956,0.1608646153321403
0.2727813720703125,0.1603240966796875,9.71246337890625,-0.0038412960711866617,0,0.1042151153087616,0.076060986597262,0.01661102006147101,0.02098234113027917
0.2727813720703125,0.1746826171875,9.729217529296875,-0.0038428548723459244,-0.01362034771591425,0.10421594232320786,0.076060986597262,0.01661102006147101,0.09092347823120975
0.2608184814453125,0.1722869873046875,9.714859008789062,-0.0038428548723459244,-0.01362034771591425,0.10421760380268097,0.076060986597262,-0.05333011703945956,0.09092347823120975
0.2799530029296875,0.1842498779296875,9.72442626953125,-0.0038428548723459244,-0.01362034771591425,0.0905972570180893,0.14600212369819257,0.08655215716240158,0.09092347823120975
0.2775726318359375,0.1674957275390625,9.717254638671875,-0.003950458951294422,-0.0272406954318285,0.09060224890708923,0.076060986597262,0.08655215716240158,0.02098234113027917
0.2823486328125,0.17706298828125,9.707687377929688,-0.004059621132910252,-0.0272406954318285,0.0906047374010086,0.006119849496331425,0.01661102006147101,0.02098234113027917
0.287139892578125,0.1555328369140625,9.707687377929688,0.009559167549014091,-0.01362034771591425,0.1042284145951271,0.076060986597262,0.08655215716240158,0.09092347823120975
0.2608184814453125,0.169891357421875,9.71246337890625,-0.004170368891209364,0,0.10423090308904648,0.076060986597262,-0.05333011703945956,0.02098234113027917
0.2775726318359375,0.1746826171875,9.72442626953125,-0.004170368891209364,0,0.10423090308904648,0.076060986597262,0.01661102006147101,0.02098234113027917
0.263214111328125,0.169891357421875,9.705291748046875,0.009446835145354271,-0.0272406954318285,0.07699187844991684,0.076060986597262,0.01661102006147101,0.02098234113027917
0.2703857421875,0.1555328369140625,9.705291748046875,0.009443691931664944,-0.01362034771591425,0.10423256456851959,0.076060986597262,0.08655215716240158,0.09092347823120975
0.2656097412109375,0.193817138671875,9.702896118164062,0.009336087852716446,-0.01362034771591425,0.10423589497804642,0.076060986597262,0.01661102006147101,0.09092347823120975
0.275177001953125,0.1555328369140625,9.695724487304688,-0.004285844508558512,-0.0272406954318285,0.07699686288833618,0.14600212369819257,0.08655215716240158,0.02098234113027917
0.2608184814453125,0.1746826171875,9.695724487304688,-0.004287403076887131,0,0.10423755645751953,0.076060986597262,0.01661102006147101,0.1608646153321403
0.2727813720703125,0.1483612060546875,9.710067749023438,-0.004285844508558512,0,0.10423755645751953,0.076060986597262,0.01661102006147101,0.09092347823120975
0.287139892578125,0.1986083984375,9.7340087890625,0.009334503673017025,-0.01362034771591425,0.10423755645751953,0.076060986597262,0.08655215716240158,0.1608646153321403
0.2703857421875,0.1746826171875,9.695724487304688,-0.018012184649705887,-0.04086104407906532,0.07699935883283615,0.076060986597262,0.01661102006147101,0.09092347823120975
0.275177001953125,0.181854248046875,9.710067749023438,0.009228509850800037,-0.0272406954318285,0.09061969816684723,0.076060986597262,0.08655215716240158,0.1608646153321403
0.275177001953125,0.16510009765625,9.693328857421875,-0.004607019945979118,-0.0272406954318285,0.09062551707029343,0.14600212369819257,0.08655215716240158,0.09092347823120975
0.2727813720703125,0.16510009765625,9.705291748046875,-0.004822227638214827,-0.01362034771591425,0.1178695484995842,0.14600212369819257,0.01661102006147101,0.09092347823120975
0.2703857421875,0.1746826171875,9.710067749023438,-0.004822253715246916,-0.01362034771591425,0.11786870658397675,0.076060986597262,0.08655215716240158,0.1608646153321403
0.275177001953125,0.1555328369140625,9.71246337890625,-0.004926636349409819,-0.01362034771591425,0.09063217043876648,0.076060986597262,0.01661102006147101,0.09092347823120975
0.2656097412109375,0.1674957275390625,9.710067749023438,-0.004928220994770527,0,0.09063466638326645,0.006119849496331425,0.01661102006147101,0.09092347823120975
0.2440643310546875,0.17706298828125,9.710067749023438,-0.004929831717163324,0,0.09063632786273956,0.006119849496331425,-0.05333011703945956,0.09092347823120975
0.275177001953125,0.16510009765625,9.71246337890625,0.008690541610121727,-0.01362034771591425,0.10425999760627747,0.006119849496331425,-0.12414551835415176,0.2308057524330709
0.2799530029296875,0.17706298828125,9.71246337890625,-0.004711454268544912,0,0.10425584763288498,0.14600212369819257,0.08655215716240158,0.09092347823120975
0.2608184814453125,0.1794586181640625,9.693328857421875,-0.00481905834749341,0,0.10425667464733124,0.076060986597262,-0.05333011703945956,0.02098234113027917
0.2799530029296875,0.16510009765625,9.710067749023438,-0.004820616915822029,-0.01362034771591425,0.10425667464733124,0.076060986597262,-0.05333011703945956,0.1608646153321403
0.2895355224609375,0.1962127685546875,9.717254638671875,-0.004817499779164791,-0.04086104407906532,0.11787702888250351,0.14600212369819257,0.01661102006147101,0.1608646153321403
0.2799530029296875,0.157928466796875,9.702896118164062,-0.004817499779164791,-0.04086104407906532,0.11787702888250351,0.076060986597262,0.01661102006147101,0.1608646153321403
0.2847442626953125,0.1866455078125,9.72442626953125,0.00880443211644888,-0.01362034771591425,0.10425833612680435,0.006119849496331425,-0.05333011703945956,0.09092347823120975
0.2775726318359375,0.169891357421875,9.702896118164062,-0.0048159146681427956,-0.0272406954318285,0.0906413197517395,0.006119849496331425,0.01661102006147101,0.09092347823120975
0.275177001953125,0.1627044677734375,9.726821899414062,-0.0048159146681427956,-0.0272406954318285,0.09064298123121262,0.076060986597262,0.01661102006147101,0.09092347823120975
0.2727813720703125,0.1722869873046875,9.714859008789062,0.008802874013781548,-0.01362034771591425,0.13150568306446075,0.076060986597262,0.01661102006147101,0.1608646153321403
0.2775726318359375,0.16510009765625,9.710067749023438,0.008802874013781548,-0.01362034771591425,0.11788533627986908,0.006119849496331425,0.01661102006147101,0.09092347823120975
0.263214111328125,0.15313720703125,9.705291748046875,0.008802874013781548,-0.01362034771591425,0.11788617074489594,0.076060986597262,0.01661102006147101,0.1608646153321403
0.2823486328125,0.1603240966796875,9.71246337890625,0.008804458193480968,-0.01362034771591425,0.11788783967494965,0.076060986597262,0.01661102006147101,0.09092347823120975
0.2703857421875,0.1507415771484375,9.695724487304688,0.008698439225554466,-0.01362034771591425,0.1042708083987236,0.006119849496331425,0.01661102006147101,0.1608646153321403
0.2679901123046875,0.1914215087890625,9.731613159179688,0.008699998259544373,-0.01362034771591425,0.11789281666278839,0.076060986597262,0.01661102006147101,0.09092347823120975
0.2679901123046875,0.16510009765625,9.710067749023438,-0.004920349456369877,-0.0272406954318285,0.09065212309360504,0.076060986597262,0.08655215716240158,0.1608646153321403
0.2847442626953125,0.1746826171875,9.705291748046875,0.008593978360295296,-0.01362034771591425,0.10427580028772354,0.076060986597262,0.08655215716240158,0.1608646153321403
0.2823486328125,0.15313720703125,9.705291748046875,-0.005132361780852079,-0.01362034771591425,0.11789863556623459,0.076060986597262,0.01661102006147101,0.09092347823120975
0.2775726318359375,0.1555328369140625,9.707687377929688,-0.005132361780852079,-0.01362034771591425,0.10427828878164291,0.14600212369819257,-0.05333011703945956,0.1608646153321403
0.2847442626953125,0.1507415771484375,9.707687377929688,-0.00513080321252346,0,0.10427828878164291,0.076060986597262,0.01661102006147101,0.09092347823120975
0.2775726318359375,0.1603240966796875,9.68853759765625,-0.00513080321252346,0,0.10427828878164291,0.076060986597262,0.08655215716240158,0.09092347823120975
0.2679901123046875,0.1627044677734375,9.698104858398438,-0.005132361780852079,-0.01362034771591425,0.10427995026111603,0.006119849496331425,0.01661102006147101,0.02098234113027917
0.2799530029296875,0.1842498779296875,9.731613159179688,0.008486426435410976,-0.01362034771591425,0.10428328067064285,0.076060986597262,0.01661102006147101,0.09092347823120975
0.2679901123046875,0.17706298828125,9.726821899414062,0.008486426435410976,-0.01362034771591425,0.10428328067064285,0.006119849496331425,0.01661102006147101,0.02098234113027917
0.287139892578125,0.1603240966796875,9.702896118164062,0.008484816178679466,-0.0272406954318285,0.10428660362958908,0.076060986597262,0.01661102006147101,0.09092347823120975
0.2703857421875,0.1627044677734375,9.693328857421875,-0.005135557614266872,0,0.11790777742862701,0.006119849496331425,0.01661102006147101,0.09092347823120975
0.2608184814453125,0.1722869873046875,9.70050048828125,-0.005135557614266872,0,0.11790777742862701,0.076060986597262,0.01661102006147101,0.1608646153321403
0.2679901123046875,0.181854248046875,9.719650268554688,0.008487985469400883,-0.01362034771591425,0.1042899340391159,0.076060986597262,0.08655215716240158,0.1608646153321403
0.2584228515625,0.1794586181640625,9.695724487304688,0.008381914347410202,-0.0272406954318285,0.10429242253303528,0.076060986597262,0.08655215716240158,0.09092347823120975
0.2584228515625,0.1722869873046875,9.690933227539062,0.00838196650147438,-0.0272406954318285,0.10429242253303528,0.14600212369819257,0.08655215716240158,0.02098234113027917
0.263214111328125,0.1722869873046875,9.690933227539062,0.00837879627943039,-0.0272406954318285,0.11791110783815384,0.076060986597262,0.01661102006147101,0.2308057524330709
0.253631591796875,0.1722869873046875,9.698104858398438,0.00838196650147438,-0.01362034771591425,0.13153311610221863,0.076060986597262,0.08655215716240158,0.09092347823120975
0.2488555908203125,0.17706298828125,9.68853759765625,0.008274388499557972,-0.01362034771591425,0.13153810799121857,0.076060986597262,0.08655215716240158,0.09092347823120975
0.2679901123046875,0.1722869873046875,9.698104858398438,0.021679554134607315,-0.01362034771591425,0.11792358011007309,0.14600212369819257,0.15736755847709377,0.02098234113027917
0.2584228515625,0.181854248046875,9.683746337890625,0.007842465303838253,-0.0272406954318285,0.07706668972969055,0.006119849496331425,0.01661102006147101,0.09092347823120975
0.2703857421875,0.16510009765625,9.707687377929688,0.007842465303838253,-0.0272406954318285,0.09068870544433594,0.076060986597262,0.01661102006147101,0.09092347823120975
0.2775726318359375,0.1746826171875,9.702896118164062,-0.005777882412075996,-0.01362034771591425,0.10430905222892761,0.14600212369819257,0.01661102006147101,0.02098234113027917
0.2560272216796875,0.169891357421875,9.68853759765625,0.007840907201170921,-0.01362034771591425,0.11792939156293869,0.006119849496331425,0.01661102006147101,0.09092347823120975
0.287139892578125,0.169891357421875,9.70050048828125,0.007840855047106743,-0.01362034771591425,0.0906895324587822,0.21594326079912313,0.01661102006147101,0.02098234113027917
0.2775726318359375,0.16510009765625,9.68853759765625,-0.0057810512371361256,-0.01362034771591425,0.09068870544433594,0.076060986597262,0.01661102006147101,0.09092347823120975
0.2679901123046875,0.1746826171875,9.72442626953125,-0.005779414903372526,-0.01362034771591425,0.10430987924337387,0.14600212369819257,0.08655215716240158,0.1608646153321403
0.275177001953125,0.1914215087890625,9.726821899414062,-0.0057794926688075066,-0.01362034771591425,0.10430987924337387,0.006119849496331425,-0.05333011703945956,0.02098234113027917
0.2679901123046875,0.17706298828125,9.702896118164062,-0.0057810512371361256,-0.01362034771591425,0.09069286286830902,0.14600212369819257,0.08655215716240158,0.09092347823120975
0.287139892578125,0.1603240966796875,9.702896118164062,-0.005888629704713821,-0.01362034771591425,0.10431653261184692,-0.06382128760459914,0.01661102006147101,0.02098234113027917
0.2703857421875,0.193817138671875,9.7340087890625,-0.005890187807381153,-0.01362034771591425,0.10431736707687378,0.006119849496331425,0.01661102006147101,0.1608646153321403
0.2703857421875,0.1674957275390625,9.714859008789062,-0.005888655316084623,-0.0272406954318285,0.09069867432117462,0.076060986597262,0.08655215716240158,0.09092347823120975
0.253631591796875,0.1555328369140625,9.719650268554688,0.021135376766324043,-0.01362034771591425,0.11794519424438477,0.076060986597262,0.08655215716240158,0.1608646153321403
0.2823486328125,0.15313720703125,9.702896118164062,0.021135376766324043,-0.01362034771591425,0.11794519424438477,0.076060986597262,0.08655215716240158,0.09092347823120975
0.263214111328125,0.1722869873046875,9.693328857421875,0.007301327772438526,-0.01362034771591425,0.10433066636323929,0.076060986597262,0.08655215716240158,0.09092347823120975
0.2488555908203125,0.18902587890625,9.678970336914062,0.020817214623093605,-0.0272406954318285,0.11795433610677719,0.076060986597262,0.01661102006147101,0.02098234113027917
0.2679901123046875,0.1627044677734375,9.7220458984375,0.0208156555891037,-0.0272406954318285,0.11795433610677719,0.14600212369819257,0.01661102006147101,0.09092347823120975
0.2727813720703125,0.1866455078125,9.71246337890625,0.020814096555113792,-0.0272406954318285,0.11795433610677719,0.076060986597262,-0.05333011703945956,0.02098234113027917
0.2584228515625,0.1722869873046875,9.693328857421875,0.00719063263386488,-0.0272406954318285,0.10433399677276611,0.076060986597262,0.01661102006147101,0.02098234113027917
0.2775726318359375,0.1603240966796875,9.695724487304688,0.00719063263386488,-0.0272406954318285,0.10433399677276611,0.076060986597262,0.08655215716240158,0.02098234113027917
0.2847442626953125,0.1627044677734375,9.698104858398438,0.0069723594933748245,-0.01362034771591425,0.11796015501022339,0.076060986597262,0.08655215716240158,0.09092347823120975
0.275177001953125,0.17706298828125,9.702896118164062,0.020375965163111687,-0.0272406954318285,0.13158465921878815,0.006119849496331425,0.01661102006147101,0.02098234113027917
0.2703857421875,0.1746826171875,9.702896118164062,0.02037440612912178,-0.0272406954318285,0.13158631324768066,0.076060986597262,0.01661102006147101,0.02098234113027917
0.2967071533203125,0.1603240966796875,9.707687377929688,-0.006975450552999973,-0.01362034771591425,0.10435061901807785,0.076060986597262,0.01661102006147101,0.02098234113027917
0.2703857421875,0.16510009765625,9.702896118164062,0.006641805171966553,-0.01362034771591425,0.10435061901807785,0.076060986597262,0.01661102006147101,0.02098234113027917
0.2679901123046875,0.1674957275390625,9.707687377929688,-0.006980074569582939,-0.01362034771591425,0.11797096580266953,0.076060986597262,0.01661102006147101,0.09092347823120975
0.275177001953125,0.1986083984375,9.7340087890625,0.006640272680670023,-0.0272406954318285,0.11797096580266953,0.076060986597262,0.01661102006147101,0.02098234113027917
0.287139892578125,0.17706298828125,9.695724487304688,-0.0069831921719014645,-0.0272406954318285,0.09073026478290558,0.14600212369819257,0.01661102006147101,0.02098234113027917
0.2703857421875,0.1722869873046875,9.693328857421875,-0.0069847251288592815,-0.0272406954318285,0.09073026478290558,0.006119849496331425,0.01661102006147101,0.09092347823120975
0.2584228515625,0.1507415771484375,9.705291748046875,0.006634064018726349,-0.01362034771591425,0.10435310751199722,0.076060986597262,0.01661102006147101,-0.0489587959706514
0.2775726318359375,0.181854248046875,9.7220458984375,0.006630972493439913,-0.01362034771591425,0.10435144603252411,0.14600212369819257,0.01661102006147101,0.09092347823120975
0.2775726318359375,0.157928466796875,9.70050048828125,0.006630919873714447,-0.01362034771591425,0.10435061901807785,0.006119849496331425,0.01661102006147101,-0.0489587959706514
0.2679901123046875,0.1674957275390625,9.698104858398438,-0.006992518901824951,-0.01362034771591425,0.10435144603252411,0.14600212369819257,0.08655215716240158,0.09092347823120975
0.2679901123046875,0.1674957275390625,9.693328857421875,-0.007207726594060659,-0.01362034771591425,0.10435477644205093,0.14600212369819257,0.08655215716240158,0.02098234113027917
0.287139892578125,0.1555328369140625,9.70050048828125,-0.007207726594060659,-0.01362034771591425,0.10435477644205093,0.006119849496331425,0.01661102006147101,0.09092347823120975
0.2799530029296875,0.1603240966796875,9.70050048828125,-0.0074244155548512936,0,0.10436058789491653,0.076060986597262,0.01661102006147101,0.2308057524330709
0.2727813720703125,0.1746826171875,9.690933227539062,-0.007421297952532768,-0.01362034771591425,0.1043630838394165,0.076060986597262,0.08655215716240158,0.09092347823120975
0.2799530029296875,0.1722869873046875,9.705291748046875,-0.007528901565819979,-0.01362034771591425,0.10436640679836273,0.076060986597262,0.01661102006147101,0.09092347823120975
0.2775726318359375,0.1674957275390625,9.690933227539062,-0.007525810040533543,-0.01362034771591425,0.09074606001377106,0.14600212369819257,0.01661102006147101,0.09092347823120975
0.2847442626953125,0.1627044677734375,9.707687377929688,-0.007527369074523449,-0.01362034771591425,0.10436640679836273,0.076060986597262,0.01661102006147101,0.02098234113027917
0.2703857421875,0.16510009765625,9.707687377929688,-0.007528901565819979,-0.01362034771591425,0.10436640679836273,0.14600212369819257,0.01661102006147101,0.09092347823120975
0.2775726318359375,0.1722869873046875,9.695724487304688,0.006093003787100315,-0.01362034771591425,0.1043630838394165,0.076060986597262,0.01661102006147101,0.02098234113027917
0.2703857421875,0.169891357421875,9.68853759765625,0.006091445684432983,-0.01362034771591425,0.1043630838394165,0.076060986597262,0.08655215716240158,0.09092347823120975
0.2823486328125,0.193817138671875,9.726821899414062,0.005983841605484486,-0.01362034771591425,0.10436640679836273,0.076060986597262,0.01661102006147101,0.02098234113027917
0.253631591796875,0.18902587890625,9.693328857421875,0.01960263028740883,-0.0272406954318285,0.117986761033535,0.006119849496331425,0.08655215716240158,0.09092347823120975
0.2727813720703125,0.1842498779296875,9.72442626953125,0.005873146466910839,-0.01362034771591425,0.10437057167291641,0.006119849496331425,0.01661102006147101,0.02098234113027917
0.2488555908203125,0.1746826171875,9.671783447265625,0.005871587432920933,0,0.10437222570180893,0.076060986597262,0.01661102006147101,0.09092347823120975
0.2775726318359375,0.1746826171875,9.717254638671875,0.005870054941624403,-0.01362034771591425,0.10437388718128204,0.076060986597262,0.08655215716240158,0.02098234113027917
0.2799530029296875,0.181854248046875,9.726821899414062,-0.007750292774289846,-0.01362034771591425,0.10437388718128204,0.076060986597262,0.01661102006147101,0.1608646153321403
0.2847442626953125,0.1555328369140625,9.698104858398438,-0.007750292774289846,-0.01362034771591425,0.1043747290968895,0.076060986597262,-0.05333011703945956,0.09092347823120975
0.275177001953125,0.1603240966796875,9.698104858398438,-0.007751903496682644,-0.01362034771591425,0.10437639057636261,0.14600212369819257,0.01661102006147101,0.1608646153321403
0.2608184814453125,0.16510009765625,9.693328857421875,-0.007750292774289846,-0.01362034771591425,0.09075603634119034,0.006119849496331425,0.01661102006147101,0.02098234113027917
0.2608184814453125,0.1794586181640625,9.71246337890625,-0.007751851808279753,-0.01362034771591425,0.09075769782066345,0.14600212369819257,0.01661102006147101,-0.0489587959706514
0.2679901123046875,0.1842498779296875,9.72442626953125,0.005865404382348061,-0.01362034771591425,0.10437639057636261,0.076060986597262,0.08655215716240158,0.02098234113027917
0.263214111328125,0.169891357421875,9.690933227539062,-0.007865638472139835,-0.01362034771591425,0.11800006031990051,0.076060986597262,0.01661102006147101,0.09092347823120975
0.2799530029296875,0.1794586181640625,9.717254638671875,-0.007865638472139835,-0.01362034771591425,0.11800006031990051,0.076060986597262,-0.05333011703945956,0.09092347823120975
0.2584228515625,0.169891357421875,9.695724487304688,0.005754657089710236,-0.01362034771591425,0.10437639057636261,0.076060986597262,0.01661102006147101,0.09092347823120975
0.263214111328125,0.1842498779296875,9.695724487304688,-0.021486036479473114,-0.01362034771591425,0.10437639057636261,0.076060986597262,0.01661102006147101,0.09092347823120975
0.2799530029296875,0.16510009765625,9.70050048828125,-0.021485960111021996,-0.01362034771591425,0.10437639057636261,0.14600212369819257,0.08655215716240158,0.1608646153321403
0.2703857421875,0.1722869873046875,9.695724487304688,-0.008077755570411682,-0.01362034771591425,0.10437887907028198,0.076060986597262,0.01661102006147101,0.09092347823120975
0.2799530029296875,0.16510009765625,9.707687377929688,-0.008079313673079014,-0.01362034771591425,0.10437887907028198,0.076060986597262,0.01661102006147101,0.02098234113027917
0.2656097412109375,0.16510009765625,9.702896118164062,-0.008079313673079014,-0.01362034771591425,0.10437887907028198,0.076060986597262,0.08655215716240158,0.02098234113027917
0.2823486328125,0.1746826171875,9.714859008789062,-0.00819003488868475,-0.01362034771591425,0.10438220947980881,0.14600212369819257,0.01661102006147101,0.09092347823120975
0.2943115234375,0.18902587890625,9.71246337890625,0.019050685688853264,-0.0272406954318285,0.11800088733434677,0.076060986597262,-0.05333011703945956,0.09092347823120975
0.2560272216796875,0.1842498779296875,9.695724487304688,0.019050685688853264,-0.0272406954318285,0.11800088733434677,0.076060986597262,0.01661102006147101,0.02098234113027917
0.2608184814453125,0.17706298828125,9.686141967773438,0.019049126654863358,-0.0272406954318285,0.11800088733434677,0.076060986597262,0.01661102006147101,0.09092347823120975
0.2775726318359375,0.1387786865234375,9.71246337890625,-0.021811915561556816,-0.01362034771591425,0.09075853228569031,0.076060986597262,0.08655215716240158,0.09092347823120975
0.2727813720703125,0.16510009765625,9.714859008789062,-0.021811915561556816,-0.01362034771591425,0.09075853228569031,0.076060986597262,0.08655215716240158,0.09092347823120975
0.275177001953125,0.1794586181640625,9.68853759765625,0.005213649943470955,-0.01362034771591425,0.10438387095928192,0.14600212369819257,0.08655215716240158,0.09092347823120975
0.2727813720703125,0.1603240966796875,9.71246337890625,-0.008514301851391792,-0.01362034771591425,0.1043863594532013,0.14600212369819257,0.01661102006147101,0.09092347823120975
0.2656097412109375,0.181854248046875,9.71246337890625,-0.00851438008248806,-0.01362034771591425,0.1043863594532013,0.006119849496331425,0.01661102006147101,0.09092347823120975
0.2727813720703125,0.1866455078125,9.731613159179688,0.005104434676468372,-0.01362034771591425,0.10438884794712067,0.14600212369819257,0.01661102006147101,0.09092347823120975
0.275177001953125,0.1866455078125,9.729217529296875,-0.00851744506508112,-0.01362034771591425,0.0907701700925827,0.006119849496331425,0.01661102006147101,0.02098234113027917
0.2488555908203125,0.1746826171875,9.690933227539062,-0.008519004099071026,-0.01362034771591425,0.09077183157205582,0.006119849496331425,0.01661102006147101,0.02098234113027917
0.2584228515625,0.17706298828125,9.686141967773438,0.005099784582853317,-0.0272406954318285,0.1043938398361206,0.076060986597262,-0.05333011703945956,-0.0489587959706514
0.275177001953125,0.1722869873046875,9.717254638671875,-0.008522095158696175,-0.0272406954318285,0.11801418662071228,0.076060986597262,0.01661102006147101,0.02098234113027917
0.2464599609375,0.17706298828125,9.678970336914062,-0.008522095158696175,-0.0272406954318285,0.11801418662071228,0.006119849496331425,-0.05333011703945956,0.09092347823120975
0.2679901123046875,0.1794586181640625,9.690933227539062,-0.008523654192686081,-0.01362034771591425,0.10439717024564743,0.076060986597262,0.01661102006147101,0.02098234113027917
0.2703857421875,0.1746826171875,9.695724487304688,-0.008525187149643898,-0.0272406954318285,0.09077516198158264,0.14600212369819257,0.08655215716240158,0.09092347823120975
0.2775726318359375,0.157928466796875,9.683746337890625,-0.008525187149643898,-0.0272406954318285,0.09077516198158264,0.006119849496331425,0.01661102006147101,0.09092347823120975
0.2823486328125,0.169891357421875,9.719650268554688,0.005093575920909643,-0.01362034771591425,0.11801835149526596,0.14600212369819257,0.01661102006147101,0.02098234113027917
0.2584228515625,0.1722869873046875,9.702896118164062,0.005090484395623207,-0.01362034771591425,0.10439799726009369,0.076060986597262,0.08655215716240158,0.02098234113027917
0.2799530029296875,0.17706298828125,9.707687377929688,0.0050905365496873856,-0.01362034771591425,0.10439799726009369,0.006119849496331425,0.01661102006147101,0.1608646153321403
0.2560272216796875,0.16510009765625,9.693328857421875,-0.00863585714250803,-0.01362034771591425,0.10440465062856674,0.076060986597262,0.01661102006147101,0.09092347823120975
0.253631591796875,0.1794586181640625,9.698104858398438,0.01860322803258896,-0.0272406954318285,0.1180233284831047,0.076060986597262,0.01661102006147101,0.09092347823120975
0.2727813720703125,0.1627044677734375,9.71246337890625,0.018603280186653137,-0.0272406954318285,0.1180233284831047,0.14600212369819257,0.01661102006147101,0.02098234113027917
0.2847442626953125,0.1603240966796875,9.698104858398438,-0.008640558458864689,0,0.10440132021903992,0.076060986597262,0.01661102006147101,0.09092347823120975
0.2727813720703125,0.17706298828125,9.695724487304688,-0.008642091415822506,-0.01362034771591425,0.10440298914909363,0.076060986597262,0.01661102006147101,0.09092347823120975
0.2799530029296875,0.1603240966796875,9.707687377929688,-0.008642091415822506,-0.01362034771591425,0.10440298914909363,0.006119849496331425,0.01661102006147101,0.02098234113027917
0.2823486328125,0.1603240966796875,9.698104858398438,-0.008643623441457748,0,0.10440798103809357,0.14600212369819257,-0.05333011703945956,0.09092347823120975
0.2703857421875,0.169891357421875,9.68853759765625,-0.008643598295748234,-0.01362034771591425,0.10440964251756668,0.006119849496331425,0.01661102006147101,0.09092347823120975
0.2847442626953125,0.1603240966796875,9.686141967773438,-0.008643598295748234,-0.01362034771591425,0.10441046953201294,0.076060986597262,0.01661102006147101,0.09092347823120975
0.2584228515625,0.1842498779296875,9.683746337890625,-0.008642039261758327,-0.01362034771591425,0.11803165078163147,0.21594326079912313,0.08655215716240158,0.1608646153321403
0.2584228515625,0.1842498779296875,9.683746337890625,-0.008642039261758327,-0.01362034771591425,0.11803165078163147,0.21594326079912313,0.08655215716240158,0.1608646153321403
0.2584228515625,0.181854248046875,9.686141967773438,0.0183834470808506,-0.0272406954318285,0.11803413927555084,0.076060986597262,0.08655215716240158,0.02098234113027917
0.2656097412109375,0.1722869873046875,9.693328857421875,0.004544852301478386,-0.0272406954318285,0.11803746968507767,0.076060986597262,-0.05333011703945956,0.09092347823120975
0.263214111328125,0.169891357421875,9.702896118164062,-0.009077027440071106,-0.01362034771591425,0.10441712290048599,0.076060986597262,0.01661102006147101,-0.0489587959706514
0.263214111328125,0.169891357421875,9.702896118164062,-0.009077027440071106,-0.01362034771591425,0.10441712290048599,0.076060986597262,0.01661102006147101,-0.0489587959706514
0.2775726318359375,0.17706298828125,9.70050048828125,-0.009077027440071106,-0.01362034771591425,0.10441712290048599,0.076060986597262,0.01661102006147101,0.1608646153321403
0.2608184814453125,0.1842498779296875,9.71246337890625,0.004543319810181856,-0.0272406954318285,0.11803996562957764,0.21594326079912313,0.01661102006147101,0.09092347823120975
0.2560272216796875,0.1722869873046875,9.690933227539062,0.004543293733149767,-0.0272406954318285,0.11803746968507767,0.076060986597262,0.01661102006147101,0.02098234113027917
0.2847442626953125,0.1627044677734375,9.71246337890625,-0.00908011943101883,-0.01362034771591425,0.10441961139440536,0.076060986597262,-0.05333011703945956,0.02098234113027917
0.2656097412109375,0.169891357421875,9.70050048828125,0.004538669716566801,-0.01362034771591425,0.10442045331001282,0.006119849496331425,-0.05333011703945956,0.09092347823120975
0.263214111328125,0.17706298828125,9.702896118164062,0.004538669716566801,-0.01362034771591425,0.10442045331001282,0.076060986597262,0.01661102006147101,0.09092347823120975
0.2799530029296875,0.15313720703125,9.698104858398438,0.00453861802816391,-0.01362034771591425,0.10442211478948593,0.006119849496331425,0.08655215716240158,0.09092347823120975
0.2943115234375,0.157928466796875,9.710067749023438,0.004431065637618303,-0.01362034771591425,0.10442709177732468,0.076060986597262,0.08655215716240158,0.09092347823120975
0.275177001953125,0.16510009765625,9.70050048828125,-0.009404463693499565,-0.01362034771591425,0.09081173688173294,0.14600212369819257,0.08655215716240158,-0.0489587959706514
0.253631591796875,0.1842498779296875,9.683746337890625,-0.00951360072940588,-0.01362034771591425,0.09081340581178665,0.076060986597262,0.01661102006147101,0.02098234113027917
0.2703857421875,0.1914215087890625,9.72442626953125,0.017617957666516304,-0.0272406954318285,0.11805742233991623,0.076060986597262,-0.05333011703945956,0.09092347823120975
0.253631591796875,0.1746826171875,9.686141967773438,0.003997610416263342,-0.0272406954318285,0.09081506729125977,0.006119849496331425,0.01661102006147101,0.09092347823120975
0.2799530029296875,0.16510009765625,9.71246337890625,0.017617957666516304,-0.01362034771591425,0.11805742233991623,0.006119849496331425,-0.05333011703945956,0.02098234113027917
0.253631591796875,0.181854248046875,9.681365966796875,0.003996077459305525,-0.01362034771591425,0.1180599108338356,0.006119849496331425,0.01661102006147101,0.09092347823120975
0.2656097412109375,0.169891357421875,9.690933227539062,0.017616424709558487,-0.0272406954318285,0.13168193399906158,0.076060986597262,0.08655215716240158,0.02098234113027917
0.2679901123046875,0.17706298828125,9.690933227539062,0.017507288604974747,-0.0272406954318285,0.13168524205684662,0.076060986597262,0.01661102006147101,0.02098234113027917
0.2799530029296875,0.16510009765625,9.690933227539062,0.003883874975144863,-0.01362034771591425,0.10444455593824387,0.076060986597262,0.08655215716240158,0.09092347823120975
0.2775726318359375,0.157928466796875,9.698104858398438,-0.009953212924301624,-0.01362034771591425,0.10444871336221695,0.14600212369819257,0.08655215716240158,0.09092347823120975
0.2679901123046875,0.17706298828125,9.698104858398438,-0.010060817003250122,-0.01362034771591425,0.1044495478272438,0.14600212369819257,0.08655215716240158,0.1608646153321403
0.287139892578125,0.1674957275390625,9.702896118164062,-0.010275999084115028,-0.01362034771591425,0.11807404458522797,0.076060986597262,0.01661102006147101,0.09092347823120975
0.2679901123046875,0.169891357421875,9.686141967773438,-0.02389787882566452,0,0.11807571351528168,0.076060986597262,0.01661102006147101,0.1608646153321403
0.2799530029296875,0.17706298828125,9.726821899414062,-0.02389787882566452,0,0.11807571351528168,0.076060986597262,0.08655215716240158,0.02098234113027917
0.2727813720703125,0.1603240966796875,9.695724487304688,-0.010494272224605083,-0.01362034771591425,0.10445951670408249,0.006119849496331425,-0.05333011703945956,0.09092347823120975
0.2584228515625,0.181854248046875,9.695724487304688,0.003124516224488616,-0.01362034771591425,0.11808319389820099,0.076060986597262,0.01661102006147101,0.02098234113027917
0.263214111328125,0.1794586181640625,9.693328857421875,0.003123009577393532,-0.01362034771591425,0.1180848553776741,0.076060986597262,0.01661102006147101,0.02098234113027917
0.2703857421875,0.1603240966796875,9.690933227539062,-0.010500403121113777,0,0.11808568239212036,-0.06382128760459914,-0.05333011703945956,0.02098234113027917
0.2703857421875,0.1746826171875,9.698104858398438,-0.010503520257771015,0,0.11808900535106659,0.006119849496331425,0.01661102006147101,0.09092347823120975
0.2560272216796875,0.169891357421875,9.695724487304688,-0.010503520257771015,0,0.1180906742811203,-0.06382128760459914,0.01661102006147101,0.02098234113027917
0.2799530029296875,0.169891357421875,9.698104858398438,0.0030076897237449884,-0.01362034771591425,0.11809732764959335,0.076060986597262,0.15736755847709377,0.02098234113027917
0.263214111328125,0.1746826171875,9.695724487304688,-0.010936976410448551,-0.01362034771591425,0.11810480803251266,0.14600212369819257,0.01661102006147101,0.09092347823120975
0.263214111328125,0.16510009765625,9.70050048828125,-0.010936899110674858,-0.01362034771591425,0.11810397356748581,0.076060986597262,0.01661102006147101,0.09092347823120975
0.2799530029296875,0.1722869873046875,9.698104858398438,0.0026834490709006786,-0.01362034771591425,0.10448362678289413,0.14600212369819257,0.08655215716240158,0.09092347823120975
0.2823486328125,0.169891357421875,9.690933227539062,-0.01115208026021719,-0.01362034771591425,0.10448777675628662,0.076060986597262,0.08655215716240158,0.09092347823120975
0.263214111328125,0.1914215087890625,9.683746337890625,-0.011259710416197777,-0.01362034771591425,0.10449028015136719,0.076060986597262,0.01661102006147101,0.09092347823120975
0.2799530029296875,0.169891357421875,9.698104858398438,0.002251526340842247,-0.01362034771591425,0.10449361056089401,0.006119849496331425,0.01661102006147101,0.09092347823120975
0.2895355224609375,0.1627044677734375,9.683746337890625,-0.011367314495146275,-0.01362034771591425,0.11811644583940506,0.006119849496331425,0.01661102006147101,0.1608646153321403
0.2608184814453125,0.181854248046875,9.683746337890625,-0.01136570330709219,-0.01362034771591425,0.11811894178390503,0.076060986597262,0.08655215716240158,0.09092347823120975
0.2775726318359375,0.16510009765625,9.66461181640625,-0.01136570330709219,-0.0272406954318285,0.10449858754873276,0.14600212369819257,0.08655215716240158,0.09092347823120975
0.251251220703125,0.1914215087890625,9.686141967773438,0.002039461862295866,-0.0272406954318285,0.11812392622232437,0.076060986597262,0.01661102006147101,0.09092347823120975
0.2560272216796875,0.1746826171875,9.693328857421875,0.002039461862295866,-0.0272406954318285,0.11812558770179749,0.076060986597262,-0.05333011703945956,0.09092347823120975
0.2584228515625,0.1746826171875,9.690933227539062,0.01565827615559101,-0.0272406954318285,0.1181272491812706,0.006119849496331425,0.01661102006147101,0.1608646153321403
0.2656097412109375,0.1794586181640625,9.698104858398438,0.01565827615559101,-0.0272406954318285,0.13174843788146973,0.076060986597262,0.01661102006147101,0.09092347823120975
0.2608184814453125,0.181854248046875,9.690933227539062,0.01565827615559101,-0.0272406954318285,0.13174843788146973,0.076060986597262,0.01661102006147101,0.02098234113027917
0.2679901123046875,0.169891357421875,9.702896118164062,0.0020363442599773407,-0.01362034771591425,0.11813057959079742,0.076060986597262,0.01661102006147101,0.09092347823120975
0.253631591796875,0.16510009765625,9.67657470703125,0.015546048060059547,-0.01362034771591425,0.13175342977046967,0.14600212369819257,0.01661102006147101,-0.0489587959706514
0.275177001953125,0.169891357421875,9.68853759765625,0.015544593334197998,-0.01362034771591425,0.13175342977046967,0.006119849496331425,0.01661102006147101,0.09092347823120975
0.2656097412109375,0.181854248046875,9.690933227539062,-0.011697660200297832,-0.0272406954318285,0.10451605170965195,0.006119849496331425,0.08655215716240158,0.02098234113027917
0.2584228515625,0.1794586181640625,9.698104858398438,0.0018135766731575131,-0.0272406954318285,0.11814138293266296,0.076060986597262,0.08655215716240158,0.1608646153321403
0.2656097412109375,0.1603240966796875,9.707687377929688,0.001813550596125424,-0.0272406954318285,0.11814305186271667,0.006119849496331425,0.08655215716240158,0.09092347823120975
0.2584228515625,0.181854248046875,9.690933227539062,0.0015984465135261416,-0.01362034771591425,0.1181521937251091,0.14600212369819257,0.08655215716240158,0.02098234113027917
0.2703857421875,0.169891357421875,9.693328857421875,0.0014892577892169356,-0.0272406954318285,0.11815053224563599,0.076060986597262,0.01661102006147101,0.02098234113027917
0.2703857421875,0.169891357421875,9.71246337890625,0.0014861923409625888,-0.01362034771591425,0.1045285239815712,0.076060986597262,0.01661102006147101,0.02098234113027917
0.253631591796875,0.17706298828125,9.693328857421875,-0.01213716808706522,0,0.11814887076616287,0.006119849496331425,0.08655215716240158,0.02098234113027917
0.2560272216796875,0.17706298828125,9.690933227539062,0.014885305427014828,-0.01362034771591425,0.1181580126285553,0.006119849496331425,0.01661102006147101,0.02098234113027917
0.2703857421875,0.1674957275390625,9.719650268554688,0.0012619438348338008,-0.01362034771591425,0.10453932732343674,0.14600212369819257,0.08655215716240158,0.02098234113027917
0.2799530029296875,0.1674957275390625,9.70050048828125,0.0012604111107066274,-0.01362034771591425,0.10453932732343674,0.076060986597262,0.08655215716240158,0.09092347823120975
0.2799530029296875,0.1627044677734375,9.717254638671875,-0.012467540800571442,-0.01362034771591425,0.1045418232679367,0.076060986597262,0.08655215716240158,0.09092347823120975
0.2799530029296875,0.1603240966796875,9.710067749023438,0.0010436963057145476,-0.01362034771591425,0.1181638315320015,0.076060986597262,0.08655215716240158,-0.0489587959706514
0.2823486328125,0.1603240966796875,9.693328857421875,0.0010436963057145476,-0.01362034771591425,0.11816216260194778,0.076060986597262,0.01661102006147101,0.09092347823120975
0.2727813720703125,0.1674957275390625,9.710067749023438,0.0009346114820800722,-0.01362034771591425,0.10454431176185608,0.006119849496331425,0.01661102006147101,0.02098234113027917
0.2703857421875,0.1746826171875,9.717254638671875,0.0009346114820800722,-0.01362034771591425,0.10454431176185608,0.14600212369819257,0.01661102006147101,0.02098234113027917
0.2488555908203125,0.181854248046875,9.68853759765625,0.01455191895365715,-0.0272406954318285,0.11816632002592087,0.006119849496331425,0.08655215716240158,0.09092347823120975
0.2703857421875,0.16510009765625,9.686141967773438,-0.012905490584671497,-0.01362034771591425,0.11817380040884018,0.076060986597262,0.01661102006147101,0.09092347823120975
0.2608184814453125,0.18902587890625,9.67657470703125,-0.012905490584671497,-0.0272406954318285,0.1045534536242485,0.076060986597262,0.08655215716240158,0.02098234113027917
0.251251220703125,0.1794586181640625,9.671783447265625,-0.012907074764370918,-0.0272406954318285,0.10455512255430222,0.076060986597262,0.08655215716240158,0.02098234113027917
0.2823486328125,0.169891357421875,9.695724487304688,-0.0129100875928998,-0.01362034771591425,0.118177130818367,0.076060986597262,0.01661102006147101,-0.0489587959706514
0.2775726318359375,0.1627044677734375,9.707687377929688,-0.012914660386741161,-0.01362034771591425,0.10455678403377533,0.076060986597262,0.08655215716240158,0.09092347823120975
0.2823486328125,0.1627044677734375,9.705291748046875,-0.012914660386741161,-0.01362034771591425,0.10455678403377533,0.14600212369819257,0.01661102006147101,0.1608646153321403
0.2608184814453125,0.1603240966796875,9.710067749023438,-0.013020654208958149,-0.01362034771591425,0.10455761104822159,0.076060986597262,0.08655215716240158,0.02098234113027917
0.263214111328125,0.17706298828125,9.68853759765625,0.0004905567620880902,-0.01362034771591425,0.11818211525678635,0.006119849496331425,0.01661102006147101,0.09092347823120975
0.263214111328125,0.1794586181640625,9.690933227539062,0.0003829527704510838,-0.01362034771591425,0.11818544566631317,0.21594326079912313,0.01661102006147101,0.1608646153321403
